"success","ttype","start_time","trial_type","trial_index","time_elapsed","internal_node_id","warning","missed_checkup","PID","view_history","rt","responses","repeat_instructions","key_press","index","keypress_isi","keypress_S2","block","trial_num","phase","group_type","pair_type","S1_stim","S2_stim","S1_img","S2_img","S1_chosen","S1_higher","accuracy","keypress_iti","total_bonus_tally"
"true","full_screen","d08012022hr1501","fullscreen","0","5431","0.0-0.0","0","0","92530","","","","","","","","","","","","","","","","","","","","","",""
"","instructions","","instructions","1","47344","0.0-1.0-0.0-0.0","0","0","92530","[{""page_index"":0,""viewing_time"":4216},{""page_index"":1,""viewing_time"":16762},{""page_index"":2,""viewing_time"":18536},{""page_index"":3,""viewing_time"":2396}]","41911","","","","","","","","","","","","","","","","","","","",""
"","comprehension_check","","survey-multi-choice","2","64720","0.0-1.0-0.0-1.0","0","0","92530","","17370","{""Q0"":""True"",""Q1"":""D"",""Q2"":""When you see the prompt 'MAKE A CHOICE' after the second image was presented"",""Q3"":""Green mark"",""Q4"":""either D or K""}","0","","","","","","","","","","","","","","","","","",""
"","start_exp","","html-keyboard-response","3","71569","0.0-1.0-1.0","0","0","92530","","6845","","","32","","","","","","","","","","","","","","","","",""
"","S1","","html-keyboard-response","4","71823","0.0-1.0-2.0","0","0","92530","","null","","","null","0","","","","","","","","","","","","","","","",""
"","ISI","","html-keyboard-response","5","73825","0.0-1.0-3.0","0","0","92530","","null","","","null","0","NaN","","","","","","","","","","","","","","",""
"","S2","","html-keyboard-response","6","74078","0.0-1.0-4.0","0","0","92530","","null","","","null","0","","NaN","","","","","","","","","","","","","",""
"","response","","html-keyboard-response","7","74881","0.0-1.0-5.0","0","0","92530","","800","","","68","0","","","1","0","training","adjacent","EF","5","6","P.jpg","R.jpg","1","1","1","",""
"","feedback","","html-keyboard-response","8","75909","0.0-1.0-6.0-0.0","0","0","92530","","null","","","null","0","","","","","","","","","","","","","","","",""
"","ITI","","html-keyboard-response","9","76912","0.0-1.0-9.0","0","0","92530","","null","","","null","0","","","","","","","","","","","","","","","NaN",""
"","S1","","html-keyboard-response","10","77165","0.0-1.0-11.0","0","0","92530","","null","","","null","1","","","","","","","","","","","","","","","",""
"","ISI","","html-keyboard-response","11","79168","0.0-1.0-12.0","0","0","92530","","null","","","null","1","NaN","","","","","","","","","","","","","","",""
"","S2","","html-keyboard-response","12","79421","0.0-1.0-13.0","0","0","92530","","null","","","null","1","","NaN","","","","","","","","","","","","","",""
"","response","","html-keyboard-response","13","79954","0.0-1.0-14.0","0","0","92530","","531","","","75","1","","","1","1","training","adjacent","GF","7","6","O.jpg","R.jpg","0","0","1","",""
"","feedback","","html-keyboard-response","14","80956","0.0-1.0-15.0-0.0","0","0","92530","","null","","","null","1","","","","","","","","","","","","","","","",""
"","ITI","","html-keyboard-response","15","81959","0.0-1.0-18.0","0","0","92530","","null","","","null","1","","","","","","","","","","","","","","","NaN",""
"","S1","","html-keyboard-response","16","82211","0.0-1.0-20.0","0","0","92530","","null","","","null","2","","","","","","","","","","","","","","","",""
"","ISI","","html-keyboard-response","17","84214","0.0-1.0-21.0","0","0","92530","","null","","","null","2","NaN","","","","","","","","","","","","","","",""
"","S2","","html-keyboard-response","18","84466","0.0-1.0-22.0","0","0","92530","","null","","","null","2","","NaN","","","","","","","","","","","","","",""
"","response","","html-keyboard-response","19","84938","0.0-1.0-23.0","0","0","92530","","470","","","75","2","","","1","2","training","adjacent","EF","5","6","P.jpg","R.jpg","0","1","0","",""
"","feedback","","html-keyboard-response","20","85941","0.0-1.0-24.0-0.0","0","0","92530","","null","","","null","2","","","","","","","","","","","","","","","",""
"","time_out","","html-keyboard-response","21","87946","0.0-1.0-26.0-0.0","0","0","92530","","null","","","null","2","","","","","","","","","","","","","","","",""
"","ITI","","html-keyboard-response","22","88948","0.0-1.0-27.0","0","0","92530","","768","","","75","2","","","","","","","","","","","","","","","k",""
"","S1","","html-keyboard-response","23","89203","0.0-1.0-29.0","0","0","92530","","null","","","null","3","","","","","","","","","","","","","","","",""
"","ISI","","html-keyboard-response","24","91205","0.0-1.0-30.0","0","0","92530","","null","","","null","3","NaN","","","","","","","","","","","","","","",""
"","S2","","html-keyboard-response","25","91458","0.0-1.0-31.0","0","0","92530","","null","","","null","3","","NaN","","","","","","","","","","","","","",""
"","response","","html-keyboard-response","26","92057","0.0-1.0-32.0","0","0","92530","","598","","","68","3","","","1","3","training","adjacent","DE","4","5","N.jpg","P.jpg","1","1","1","",""
"","feedback","","html-keyboard-response","27","93059","0.0-1.0-33.0-0.0","0","0","92530","","null","","","null","3","","","","","","","","","","","","","","","",""
"","ITI","","html-keyboard-response","28","94062","0.0-1.0-36.0","0","0","92530","","null","","","null","3","","","","","","","","","","","","","","","NaN",""
"","S1","","html-keyboard-response","29","94321","0.0-1.0-38.0","0","0","92530","","null","","","null","4","","","","","","","","","","","","","","","",""
"","ISI","","html-keyboard-response","30","96324","0.0-1.0-39.0","0","0","92530","","null","","","null","4","NaN","","","","","","","","","","","","","","",""
"","S2","","html-keyboard-response","31","96578","0.0-1.0-40.0","0","0","92530","","null","","","null","4","","NaN","","","","","","","","","","","","","",""
"","response","","html-keyboard-response","32","97013","0.0-1.0-41.0","0","0","92530","","433","","","68","4","","","1","4","training","adjacent","DC","4","3","N.jpg","Q.jpg","1","0","0","",""
"","feedback","","html-keyboard-response","33","98014","0.0-1.0-42.0-0.0","0","0","92530","","null","","","null","4","","","","","","","","","","","","","","","",""
"","time_out","","html-keyboard-response","34","100018","0.0-1.0-44.0-0.0","0","0","92530","","null","","","null","4","","","","","","","","","","","","","","","",""
"","ITI","","html-keyboard-response","35","101020","0.0-1.0-45.0","0","0","92530","","null","","","null","4","","","","","","","","","","","","","","","NaN",""
"","S1","","html-keyboard-response","36","101273","0.0-1.0-47.0","0","0","92530","","null","","","null","5","","","","","","","","","","","","","","","",""
"","ISI","","html-keyboard-response","37","103276","0.0-1.0-48.0","0","0","92530","","null","","","null","5","NaN","","","","","","","","","","","","","","",""
"","S2","","html-keyboard-response","38","103529","0.0-1.0-49.0","0","0","92530","","null","","","null","5","","NaN","","","","","","","","","","","","","",""
"","response","","html-keyboard-response","39","103975","0.0-1.0-50.0","0","0","92530","","444","","","75","5","","","1","5","training","adjacent","ED","5","4","P.jpg","N.jpg","0","0","1","",""
"","feedback","","html-keyboard-response","40","104979","0.0-1.0-51.0-0.0","0","0","92530","","null","","","null","5","","","","","","","","","","","","","","","",""
"","ITI","","html-keyboard-response","41","105981","0.0-1.0-54.0","0","0","92530","","null","","","null","5","","","","","","","","","","","","","","","NaN",""
"","S1","","html-keyboard-response","42","106235","0.0-1.0-56.0","0","0","92530","","null","","","null","6","","","","","","","","","","","","","","","",""
"","ISI","","html-keyboard-response","43","108238","0.0-1.0-57.0","0","0","92530","","null","","","null","6","NaN","","","","","","","","","","","","","","",""
"","S2","","html-keyboard-response","44","108491","0.0-1.0-58.0","0","0","92530","","null","","","null","6","","NaN","","","","","","","","","","","","","",""
"","response","","html-keyboard-response","45","109092","0.0-1.0-59.0","0","0","92530","","599","","","68","6","","","1","6","training","adjacent","BC","2","3","M.jpg","Q.jpg","1","1","1","",""
"","feedback","","html-keyboard-response","46","110096","0.0-1.0-60.0-0.0","0","0","92530","","null","","","null","6","","","","","","","","","","","","","","","",""
"","ITI","","html-keyboard-response","47","111099","0.0-1.0-63.0","0","0","92530","","null","","","null","6","","","","","","","","","","","","","","","NaN",""
"","S1","","html-keyboard-response","48","111352","0.0-1.0-65.0","0","0","92530","","null","","","null","7","","","","","","","","","","","","","","","",""
"","ISI","","html-keyboard-response","49","113355","0.0-1.0-66.0","0","0","92530","","null","","","null","7","NaN","","","","","","","","","","","","","","",""
"","S2","","html-keyboard-response","50","113608","0.0-1.0-67.0","0","0","92530","","null","","","null","7","","NaN","","","","","","","","","","","","","",""
"","response","","html-keyboard-response","51","113926","0.0-1.0-68.0","0","0","92530","","316","","","75","7","","","1","7","training","adjacent","EF","5","6","P.jpg","R.jpg","0","1","0","",""
"","feedback","","html-keyboard-response","52","114928","0.0-1.0-69.0-0.0","0","0","92530","","null","","","null","7","","","","","","","","","","","","","","","",""
"","time_out","","html-keyboard-response","53","116931","0.0-1.0-71.0-0.0","0","0","92530","","null","","","null","7","","","","","","","","","","","","","","","",""
"","ITI","","html-keyboard-response","54","117937","0.0-1.0-72.0","0","0","92530","","null","","","null","7","","","","","","","","","","","","","","","NaN",""
"","S1","","html-keyboard-response","55","118191","0.0-1.0-74.0","0","0","92530","","null","","","null","8","","","","","","","","","","","","","","","",""
"","ISI","","html-keyboard-response","56","120193","0.0-1.0-75.0","0","0","92530","","null","","","null","8","NaN","","","","","","","","","","","","","","",""
"","S2","","html-keyboard-response","57","120446","0.0-1.0-76.0","0","0","92530","","null","","","null","8","","NaN","","","","","","","","","","","","","",""
"","response","","html-keyboard-response","58","120764","0.0-1.0-77.0","0","0","92530","","316","","","75","8","","","1","8","training","adjacent","CD","3","4","Q.jpg","N.jpg","0","1","0","",""
"","feedback","","html-keyboard-response","59","121768","0.0-1.0-78.0-0.0","0","0","92530","","null","","","null","8","","","","","","","","","","","","","","","",""
"","time_out","","html-keyboard-response","60","123771","0.0-1.0-80.0-0.0","0","0","92530","","null","","","null","8","","","","","","","","","","","","","","","",""
"","ITI","","html-keyboard-response","61","124774","0.0-1.0-81.0","0","0","92530","","null","","","null","8","","","","","","","","","","","","","","","NaN",""
"","S1","","html-keyboard-response","62","125026","0.0-1.0-83.0","0","0","92530","","null","","","null","9","","","","","","","","","","","","","","","",""
"","ISI","","html-keyboard-response","63","127029","0.0-1.0-84.0","0","0","92530","","null","","","null","9","NaN","","","","","","","","","","","","","","",""
"","S2","","html-keyboard-response","64","127281","0.0-1.0-85.0","0","0","92530","","null","","","null","9","","NaN","","","","","","","","","","","","","",""
"","response","","html-keyboard-response","65","127581","0.0-1.0-86.0","0","0","92530","","299","","","75","9","","","1","9","training","adjacent","ED","5","4","P.jpg","N.jpg","0","0","1","",""
"","feedback","","html-keyboard-response","66","128584","0.0-1.0-87.0-0.0","0","0","92530","","null","","","null","9","","","","","","","","","","","","","","","",""
"","ITI","","html-keyboard-response","67","129586","0.0-1.0-90.0","0","0","92530","","null","","","null","9","","","","","","","","","","","","","","","NaN",""
"","S1","","html-keyboard-response","68","129841","0.0-1.0-92.0","0","0","92530","","null","","","null","10","","","","","","","","","","","","","","","",""
"","ISI","","html-keyboard-response","69","131843","0.0-1.0-93.0","0","0","92530","","null","","","null","10","NaN","","","","","","","","","","","","","","",""
"","S2","","html-keyboard-response","70","132096","0.0-1.0-94.0","0","0","92530","","null","","","null","10","","NaN","","","","","","","","","","","","","",""
"","response","","html-keyboard-response","71","132478","0.0-1.0-95.0","0","0","92530","","380","","","68","10","","","1","10","training","adjacent","FG","6","7","R.jpg","O.jpg","1","1","1","",""
"","feedback","","html-keyboard-response","72","133480","0.0-1.0-96.0-0.0","0","0","92530","","null","","","null","10","","","","","","","","","","","","","","","",""
"","ITI","","html-keyboard-response","73","134483","0.0-1.0-99.0","0","0","92530","","null","","","null","10","","","","","","","","","","","","","","","NaN",""
"","S1","","html-keyboard-response","74","134736","0.0-1.0-101.0","0","0","92530","","null","","","null","11","","","","","","","","","","","","","","","",""
"","ISI","","html-keyboard-response","75","136739","0.0-1.0-102.0","0","0","92530","","null","","","null","11","NaN","","","","","","","","","","","","","","",""
"","S2","","html-keyboard-response","76","137012","0.0-1.0-103.0","0","0","92530","","null","","","null","11","","NaN","","","","","","","","","","","","","",""
"","response","","html-keyboard-response","77","137340","0.0-1.0-104.0","0","0","92530","","327","","","75","11","","","1","11","training","adjacent","FE","6","5","R.jpg","P.jpg","0","0","1","",""
"","feedback","","html-keyboard-response","78","138343","0.0-1.0-105.0-0.0","0","0","92530","","null","","","null","11","","","","","","","","","","","","","","","",""
"","ITI","","html-keyboard-response","79","139346","0.0-1.0-108.0","0","0","92530","","null","","","null","11","","","","","","","","","","","","","","","NaN",""
"","S1","","html-keyboard-response","80","139599","0.0-1.0-110.0","0","0","92530","","null","","","null","12","","","","","","","","","","","","","","","",""
"","ISI","","html-keyboard-response","81","141601","0.0-1.0-111.0","0","0","92530","","null","","","null","12","NaN","","","","","","","","","","","","","","",""
"","S2","","html-keyboard-response","82","141869","0.0-1.0-112.0","0","0","92530","","null","","","null","12","","NaN","","","","","","","","","","","","","",""
"","response","","html-keyboard-response","83","142212","0.0-1.0-113.0","0","0","92530","","340","","","75","12","","","1","12","training","adjacent","EF","5","6","P.jpg","R.jpg","0","1","0","",""
"","feedback","","html-keyboard-response","84","143215","0.0-1.0-114.0-0.0","0","0","92530","","null","","","null","12","","","","","","","","","","","","","","","",""
"","time_out","","html-keyboard-response","85","145217","0.0-1.0-116.0-0.0","0","0","92530","","null","","","null","12","","","","","","","","","","","","","","","",""
"","ITI","","html-keyboard-response","86","146220","0.0-1.0-117.0","0","0","92530","","null","","","null","12","","","","","","","","","","","","","","","NaN",""
"","S1","","html-keyboard-response","87","146473","0.0-1.0-119.0","0","0","92530","","null","","","null","13","","","","","","","","","","","","","","","",""
"","ISI","","html-keyboard-response","88","148475","0.0-1.0-120.0","0","0","92530","","null","","","null","13","NaN","","","","","","","","","","","","","","",""
"","S2","","html-keyboard-response","89","148727","0.0-1.0-121.0","0","0","92530","","null","","","null","13","","NaN","","","","","","","","","","","","","",""
"","response","","html-keyboard-response","90","148886","0.0-1.0-122.0","0","0","92530","","157","","","68","13","","","1","13","training","adjacent","BC","2","3","M.jpg","Q.jpg","1","1","1","",""
"","feedback","","html-keyboard-response","91","149890","0.0-1.0-123.0-0.0","0","0","92530","","null","","","null","13","","","","","","","","","","","","","","","",""
"","ITI","","html-keyboard-response","92","150894","0.0-1.0-126.0","0","0","92530","","null","","","null","13","","","","","","","","","","","","","","","NaN",""
"","S1","","html-keyboard-response","93","151146","0.0-1.0-128.0","0","0","92530","","null","","","null","14","","","","","","","","","","","","","","","",""
"","ISI","","html-keyboard-response","94","153149","0.0-1.0-129.0","0","0","92530","","null","","","null","14","NaN","","","","","","","","","","","","","","",""
"","S2","","html-keyboard-response","95","153401","0.0-1.0-130.0","0","0","92530","","null","","","null","14","","NaN","","","","","","","","","","","","","",""
"","response","","html-keyboard-response","96","153845","0.0-1.0-131.0","0","0","92530","","442","","","68","14","","","1","14","training","adjacent","BA","2","1","M.jpg","L.jpg","1","0","0","",""
"","feedback","","html-keyboard-response","97","154847","0.0-1.0-132.0-0.0","0","0","92530","","null","","","null","14","","","","","","","","","","","","","","","",""
"","time_out","","html-keyboard-response","98","156853","0.0-1.0-134.0-0.0","0","0","92530","","null","","","null","14","","","","","","","","","","","","","","","",""
"","ITI","","html-keyboard-response","99","157862","0.0-1.0-135.0","0","0","92530","","null","","","null","14","","","","","","","","","","","","","","","NaN",""
"","S1","","html-keyboard-response","100","158115","0.0-1.0-137.0","0","0","92530","","null","","","null","15","","","","","","","","","","","","","","","",""
"","ISI","","html-keyboard-response","101","160117","0.0-1.0-138.0","0","0","92530","","null","","","null","15","NaN","","","","","","","","","","","","","","",""
"","S2","","html-keyboard-response","102","160385","0.0-1.0-139.0","0","0","92530","","null","","","null","15","","NaN","","","","","","","","","","","","","",""
"","response","","html-keyboard-response","103","160910","0.0-1.0-140.0","0","0","92530","","524","","","75","15","","","1","15","training","adjacent","DC","4","3","N.jpg","Q.jpg","0","0","1","",""
"","feedback","","html-keyboard-response","104","161913","0.0-1.0-141.0-0.0","0","0","92530","","null","","","null","15","","","","","","","","","","","","","","","",""
"","ITI","","html-keyboard-response","105","162916","0.0-1.0-144.0","0","0","92530","","null","","","null","15","","","","","","","","","","","","","","","NaN",""
"","S1","","html-keyboard-response","106","163168","0.0-1.0-146.0","0","0","92530","","null","","","null","16","","","","","","","","","","","","","","","",""
"","ISI","","html-keyboard-response","107","165170","0.0-1.0-147.0","0","0","92530","","null","","","null","16","NaN","","","","","","","","","","","","","","",""
"","S2","","html-keyboard-response","108","165423","0.0-1.0-148.0","0","0","92530","","null","","","null","16","","NaN","","","","","","","","","","","","","",""
"","response","","html-keyboard-response","109","165563","0.0-1.0-149.0","0","0","92530","","138","","","68","16","","","1","16","training","adjacent","DE","4","5","N.jpg","P.jpg","1","1","1","",""
"","feedback","","html-keyboard-response","110","166565","0.0-1.0-150.0-0.0","0","0","92530","","null","","","null","16","","","","","","","","","","","","","","","",""
"","ITI","","html-keyboard-response","111","167568","0.0-1.0-153.0","0","0","92530","","null","","","null","16","","","","","","","","","","","","","","","NaN",""
"","S1","","html-keyboard-response","112","167821","0.0-1.0-155.0","0","0","92530","","null","","","null","17","","","","","","","","","","","","","","","",""
"","ISI","","html-keyboard-response","113","169823","0.0-1.0-156.0","0","0","92530","","null","","","null","17","NaN","","","","","","","","","","","","","","",""
"","S2","","html-keyboard-response","114","170076","0.0-1.0-157.0","0","0","92530","","null","","","null","17","","NaN","","","","","","","","","","","","","",""
"","response","","html-keyboard-response","115","170418","0.0-1.0-158.0","0","0","92530","","340","","","68","17","","","1","17","training","adjacent","DE","4","5","N.jpg","P.jpg","1","1","1","",""
"","feedback","","html-keyboard-response","116","171421","0.0-1.0-159.0-0.0","0","0","92530","","null","","","null","17","","","","","","","","","","","","","","","",""
"","ITI","","html-keyboard-response","117","172425","0.0-1.0-162.0","0","0","92530","","null","","","null","17","","","","","","","","","","","","","","","NaN",""
"","S1","","html-keyboard-response","118","172677","0.0-1.0-164.0","0","0","92530","","null","","","null","18","","","","","","","","","","","","","","","",""
"","ISI","","html-keyboard-response","119","174680","0.0-1.0-165.0","0","0","92530","","null","","","null","18","NaN","","","","","","","","","","","","","","",""
"","S2","","html-keyboard-response","120","174934","0.0-1.0-166.0","0","0","92530","","null","","","null","18","","NaN","","","","","","","","","","","","","",""
"","response","","html-keyboard-response","121","175204","0.0-1.0-167.0","0","0","92530","","269","","","75","18","","","1","18","training","adjacent","CB","3","2","Q.jpg","M.jpg","0","0","1","",""
"","feedback","","html-keyboard-response","122","176207","0.0-1.0-168.0-0.0","0","0","92530","","null","","","null","18","","","","","","","","","","","","","","","",""
"","ITI","","html-keyboard-response","123","177210","0.0-1.0-171.0","0","0","92530","","null","","","null","18","","","","","","","","","","","","","","","NaN",""
"","S1","","html-keyboard-response","124","177465","0.0-1.0-173.0","0","0","92530","","null","","","null","19","","","","","","","","","","","","","","","",""
"","ISI","","html-keyboard-response","125","179467","0.0-1.0-174.0","0","0","92530","","null","","","null","19","NaN","","","","","","","","","","","","","","",""
"","S2","","html-keyboard-response","126","179721","0.0-1.0-175.0","0","0","92530","","null","","","null","19","","NaN","","","","","","","","","","","","","",""
"","response","","html-keyboard-response","127","180062","0.0-1.0-176.0","0","0","92530","","339","","","68","19","","","1","19","training","adjacent","FG","6","7","R.jpg","O.jpg","1","1","1","",""
"","feedback","","html-keyboard-response","128","181064","0.0-1.0-177.0-0.0","0","0","92530","","null","","","null","19","","","","","","","","","","","","","","","",""
"","ITI","","html-keyboard-response","129","182066","0.0-1.0-180.0","0","0","92530","","null","","","null","19","","","","","","","","","","","","","","","NaN",""
"","S1","","html-keyboard-response","130","182318","0.0-1.0-182.0","0","0","92530","","null","","","null","20","","","","","","","","","","","","","","","",""
"","ISI","","html-keyboard-response","131","184321","0.0-1.0-183.0","0","0","92530","","null","","","null","20","NaN","","","","","","","","","","","","","","",""
"","S2","","html-keyboard-response","132","184574","0.0-1.0-184.0","0","0","92530","","null","","","null","20","","NaN","","","","","","","","","","","","","",""
"","response","","html-keyboard-response","133","185046","0.0-1.0-185.0","0","0","92530","","470","","","75","20","","","1","20","training","adjacent","CB","3","2","Q.jpg","M.jpg","0","0","1","",""
"","feedback","","html-keyboard-response","134","186049","0.0-1.0-186.0-0.0","0","0","92530","","null","","","null","20","","","","","","","","","","","","","","","",""
"","ITI","","html-keyboard-response","135","187051","0.0-1.0-189.0","0","0","92530","","null","","","null","20","","","","","","","","","","","","","","","NaN",""
"","S1","","html-keyboard-response","136","187304","0.0-1.0-191.0","0","0","92530","","null","","","null","21","","","","","","","","","","","","","","","",""
"","ISI","","html-keyboard-response","137","189307","0.0-1.0-192.0","0","0","92530","","null","","","null","21","NaN","","","","","","","","","","","","","","",""
"","S2","","html-keyboard-response","138","189560","0.0-1.0-193.0","0","0","92530","","null","","","null","21","","NaN","","","","","","","","","","","","","",""
"","response","","html-keyboard-response","139","189890","0.0-1.0-194.0","0","0","92530","","328","","","75","21","","","1","21","training","adjacent","ED","5","4","P.jpg","N.jpg","0","0","1","",""
"","feedback","","html-keyboard-response","140","190895","0.0-1.0-195.0-0.0","0","0","92530","","null","","","null","21","","","","","","","","","","","","","","","",""
"","ITI","","html-keyboard-response","141","191902","0.0-1.0-198.0","0","0","92530","","null","","","null","21","","","","","","","","","","","","","","","NaN",""
"","S1","","html-keyboard-response","142","192155","0.0-1.0-200.0","0","0","92530","","null","","","null","22","","","","","","","","","","","","","","","",""
"","ISI","","html-keyboard-response","143","194158","0.0-1.0-201.0","0","0","92530","","null","","","null","22","NaN","","","","","","","","","","","","","","",""
"","S2","","html-keyboard-response","144","194411","0.0-1.0-202.0","0","0","92530","","null","","","null","22","","NaN","","","","","","","","","","","","","",""
"","response","","html-keyboard-response","145","194694","0.0-1.0-203.0","0","0","92530","","282","","","68","22","","","1","22","training","adjacent","BC","2","3","M.jpg","Q.jpg","1","1","1","",""
"","feedback","","html-keyboard-response","146","195696","0.0-1.0-204.0-0.0","0","0","92530","","null","","","null","22","","","","","","","","","","","","","","","",""
"","ITI","","html-keyboard-response","147","196698","0.0-1.0-207.0","0","0","92530","","null","","","null","22","","","","","","","","","","","","","","","NaN",""
"","S1","","html-keyboard-response","148","196951","0.0-1.0-209.0","0","0","92530","","null","","","null","23","","","","","","","","","","","","","","","",""
"","ISI","","html-keyboard-response","149","198953","0.0-1.0-210.0","0","0","92530","","null","","","null","23","NaN","","","","","","","","","","","","","","",""
"","S2","","html-keyboard-response","150","199212","0.0-1.0-211.0","0","0","92530","","null","","","null","23","","NaN","","","","","","","","","","","","","",""
"","response","","html-keyboard-response","151","199465","0.0-1.0-212.0","0","0","92530","","251","","","68","23","","","1","23","training","adjacent","BA","2","1","M.jpg","L.jpg","1","0","0","",""
"","feedback","","html-keyboard-response","152","200467","0.0-1.0-213.0-0.0","0","0","92530","","null","","","null","23","","","","","","","","","","","","","","","",""
"","time_out","","html-keyboard-response","153","202470","0.0-1.0-215.0-0.0","0","0","92530","","null","","","null","23","","","","","","","","","","","","","","","",""
"","ITI","","html-keyboard-response","154","203473","0.0-1.0-216.0","0","0","92530","","null","","","null","23","","","","","","","","","","","","","","","NaN",""
"","S1","","html-keyboard-response","155","203726","0.0-1.0-218.0","0","0","92530","","null","","","null","24","","","","","","","","","","","","","","","",""
"","ISI","","html-keyboard-response","156","205728","0.0-1.0-219.0","0","0","92530","","null","","","null","24","NaN","","","","","","","","","","","","","","",""
"","S2","","html-keyboard-response","157","205980","0.0-1.0-220.0","0","0","92530","","null","","","null","24","","NaN","","","","","","","","","","","","","",""
"","response","","html-keyboard-response","158","206469","0.0-1.0-221.0","0","0","92530","","487","","","75","24","","","1","24","training","adjacent","CD","3","4","Q.jpg","N.jpg","0","1","0","",""
"","feedback","","html-keyboard-response","159","207471","0.0-1.0-222.0-0.0","0","0","92530","","null","","","null","24","","","","","","","","","","","","","","","",""
"","time_out","","html-keyboard-response","160","209475","0.0-1.0-224.0-0.0","0","0","92530","","null","","","null","24","","","","","","","","","","","","","","","",""
"","ITI","","html-keyboard-response","161","210477","0.0-1.0-225.0","0","0","92530","","null","","","null","24","","","","","","","","","","","","","","","NaN",""
"","S1","","html-keyboard-response","162","210729","0.0-1.0-227.0","0","0","92530","","null","","","null","25","","","","","","","","","","","","","","","",""
"","ISI","","html-keyboard-response","163","212732","0.0-1.0-228.0","0","0","92530","","null","","","null","25","NaN","","","","","","","","","","","","","","",""
"","S2","","html-keyboard-response","164","212985","0.0-1.0-229.0","0","0","92530","","null","","","null","25","","NaN","","","","","","","","","","","","","",""
"","response","","html-keyboard-response","165","213355","0.0-1.0-230.0","0","0","92530","","369","","","75","25","","","1","25","training","adjacent","FG","6","7","R.jpg","O.jpg","0","1","0","",""
"","feedback","","html-keyboard-response","166","214357","0.0-1.0-231.0-0.0","0","0","92530","","null","","","null","25","","","","","","","","","","","","","","","",""
"","time_out","","html-keyboard-response","167","216361","0.0-1.0-233.0-0.0","0","0","92530","","null","","","null","25","","","","","","","","","","","","","","","",""
"","ITI","","html-keyboard-response","168","217363","0.0-1.0-234.0","0","0","92530","","null","","","null","25","","","","","","","","","","","","","","","NaN",""
"","S1","","html-keyboard-response","169","217617","0.0-1.0-236.0","0","0","92530","","null","","","null","26","","","","","","","","","","","","","","","",""
"","ISI","","html-keyboard-response","170","219619","0.0-1.0-237.0","0","0","92530","","null","","","null","26","NaN","","","","","","","","","","","","","","",""
"","S2","","html-keyboard-response","171","219871","0.0-1.0-238.0","0","0","92530","","null","","","null","26","","NaN","","","","","","","","","","","","","",""
"","response","","html-keyboard-response","172","220142","0.0-1.0-239.0","0","0","92530","","270","","","68","26","","","1","26","training","adjacent","FE","6","5","R.jpg","P.jpg","1","0","0","",""
"","feedback","","html-keyboard-response","173","221144","0.0-1.0-240.0-0.0","0","0","92530","","null","","","null","26","","","","","","","","","","","","","","","",""
"","time_out","","html-keyboard-response","174","223146","0.0-1.0-242.0-0.0","0","0","92530","","null","","","null","26","","","","","","","","","","","","","","","",""
"","ITI","","html-keyboard-response","175","224150","0.0-1.0-243.0","0","0","92530","","null","","","null","26","","","","","","","","","","","","","","","NaN",""
"","S1","","html-keyboard-response","176","224402","0.0-1.0-245.0","0","0","92530","","null","","","null","27","","","","","","","","","","","","","","","",""
"","ISI","","html-keyboard-response","177","226404","0.0-1.0-246.0","0","0","92530","","null","","","null","27","NaN","","","","","","","","","","","","","","",""
"","S2","","html-keyboard-response","178","226657","0.0-1.0-247.0","0","0","92530","","null","","","null","27","","NaN","","","","","","","","","","","","","",""
"","response","","html-keyboard-response","179","227026","0.0-1.0-248.0","0","0","92530","","368","","","75","27","","","1","27","training","adjacent","GF","7","6","O.jpg","R.jpg","0","0","1","",""
"","feedback","","html-keyboard-response","180","228028","0.0-1.0-249.0-0.0","0","0","92530","","null","","","null","27","","","","","","","","","","","","","","","",""
"","ITI","","html-keyboard-response","181","229031","0.0-1.0-252.0","0","0","92530","","null","","","null","27","","","","","","","","","","","","","","","NaN",""
"","S1","","html-keyboard-response","182","229283","0.0-1.0-254.0","0","0","92530","","null","","","null","28","","","","","","","","","","","","","","","",""
"","ISI","","html-keyboard-response","183","231285","0.0-1.0-255.0","0","0","92530","","null","","","null","28","NaN","","","","","","","","","","","","","","",""
"","S2","","html-keyboard-response","184","231538","0.0-1.0-256.0","0","0","92530","","null","","","null","28","","NaN","","","","","","","","","","","","","",""
"","response","","html-keyboard-response","185","231934","0.0-1.0-257.0","0","0","92530","","395","","","68","28","","","1","28","training","adjacent","DE","4","5","N.jpg","P.jpg","1","1","1","",""
"","feedback","","html-keyboard-response","186","232937","0.0-1.0-258.0-0.0","0","0","92530","","null","","","null","28","","","","","","","","","","","","","","","",""
"","ITI","","html-keyboard-response","187","233939","0.0-1.0-261.0","0","0","92530","","null","","","null","28","","","","","","","","","","","","","","","NaN",""
"","S1","","html-keyboard-response","188","234192","0.0-1.0-263.0","0","0","92530","","null","","","null","29","","","","","","","","","","","","","","","",""
"","ISI","","html-keyboard-response","189","236194","0.0-1.0-264.0","0","0","92530","","null","","","null","29","NaN","","","","","","","","","","","","","","",""
"","S2","","html-keyboard-response","190","236447","0.0-1.0-265.0","0","0","92530","","null","","","null","29","","NaN","","","","","","","","","","","","","",""
"","response","","html-keyboard-response","191","236518","0.0-1.0-266.0","0","0","92530","","70","","","75","29","","","1","29","training","adjacent","CB","3","2","Q.jpg","M.jpg","0","0","1","",""
"","feedback","","html-keyboard-response","192","237520","0.0-1.0-267.0-0.0","0","0","92530","","null","","","null","29","","","","","","","","","","","","","","","",""
"","ITI","","html-keyboard-response","193","238526","0.0-1.0-270.0","0","0","92530","","null","","","null","29","","","","","","","","","","","","","","","NaN",""
"","S1","","html-keyboard-response","194","238779","0.0-1.0-272.0","0","0","92530","","null","","","null","30","","","","","","","","","","","","","","","",""
"","ISI","","html-keyboard-response","195","240782","0.0-1.0-273.0","0","0","92530","","null","","","null","30","NaN","","","","","","","","","","","","","","",""
"","S2","","html-keyboard-response","196","241034","0.0-1.0-274.0","0","0","92530","","null","","","null","30","","NaN","","","","","","","","","","","","","",""
"","response","","html-keyboard-response","197","241314","0.0-1.0-275.0","0","0","92530","","278","","","75","30","","","1","30","training","adjacent","CD","3","4","Q.jpg","N.jpg","0","1","0","",""
"","feedback","","html-keyboard-response","198","242318","0.0-1.0-276.0-0.0","0","0","92530","","null","","","null","30","","","","","","","","","","","","","","","",""
"","time_out","","html-keyboard-response","199","244324","0.0-1.0-278.0-0.0","0","0","92530","","null","","","null","30","","","","","","","","","","","","","","","",""
"","ITI","","html-keyboard-response","200","245328","0.0-1.0-279.0","0","0","92530","","null","","","null","30","","","","","","","","","","","","","","","NaN",""
"","S1","","html-keyboard-response","201","245584","0.0-1.0-281.0","0","0","92530","","null","","","null","31","","","","","","","","","","","","","","","",""
"","ISI","","html-keyboard-response","202","247586","0.0-1.0-282.0","0","0","92530","","null","","","null","31","NaN","","","","","","","","","","","","","","",""
"","S2","","html-keyboard-response","203","247838","0.0-1.0-283.0","0","0","92530","","null","","","null","31","","NaN","","","","","","","","","","","","","",""
"","response","","html-keyboard-response","204","248058","0.0-1.0-284.0","0","0","92530","","218","","","68","31","","","1","31","training","adjacent","DC","4","3","N.jpg","Q.jpg","1","0","0","",""
"","feedback","","html-keyboard-response","205","249060","0.0-1.0-285.0-0.0","0","0","92530","","null","","","null","31","","","","","","","","","","","","","","","",""
"","time_out","","html-keyboard-response","206","251062","0.0-1.0-287.0-0.0","0","0","92530","","null","","","null","31","","","","","","","","","","","","","","","",""
"","ITI","","html-keyboard-response","207","252064","0.0-1.0-288.0","0","0","92530","","null","","","null","31","","","","","","","","","","","","","","","NaN",""
"","S1","","html-keyboard-response","208","252316","0.0-1.0-290.0","0","0","92530","","null","","","null","32","","","","","","","","","","","","","","","",""
"","ISI","","html-keyboard-response","209","254329","0.0-1.0-291.0","0","0","92530","","null","","","null","32","NaN","","","","","","","","","","","","","","",""
"","S2","","html-keyboard-response","210","254582","0.0-1.0-292.0","0","0","92530","","null","","","null","32","","NaN","","","","","","","","","","","","","",""
"","response","","html-keyboard-response","211","254818","0.0-1.0-293.0","0","0","92530","","235","","","75","32","","","1","32","training","adjacent","AB","1","2","L.jpg","M.jpg","0","1","0","",""
"","feedback","","html-keyboard-response","212","255821","0.0-1.0-294.0-0.0","0","0","92530","","null","","","null","32","","","","","","","","","","","","","","","",""
"","time_out","","html-keyboard-response","213","257824","0.0-1.0-296.0-0.0","0","0","92530","","null","","","null","32","","","","","","","","","","","","","","","",""
"","ITI","","html-keyboard-response","214","258826","0.0-1.0-297.0","0","0","92530","","null","","","null","32","","","","","","","","","","","","","","","NaN",""
"","S1","","html-keyboard-response","215","259079","0.0-1.0-299.0","0","0","92530","","null","","","null","33","","","","","","","","","","","","","","","",""
"","ISI","","html-keyboard-response","216","261081","0.0-1.0-300.0","0","0","92530","","null","","","null","33","NaN","","","","","","","","","","","","","","",""
"","S2","","html-keyboard-response","217","261333","0.0-1.0-301.0","0","0","92530","","null","","","null","33","","NaN","","","","","","","","","","","","","",""
"","response","","html-keyboard-response","218","261649","0.0-1.0-302.0","0","0","92530","","313","","","68","33","","","1","33","training","adjacent","BC","2","3","M.jpg","Q.jpg","1","1","1","",""
"","feedback","","html-keyboard-response","219","262651","0.0-1.0-303.0-0.0","0","0","92530","","null","","","null","33","","","","","","","","","","","","","","","",""
"","ITI","","html-keyboard-response","220","263668","0.0-1.0-306.0","0","0","92530","","null","","","null","33","","","","","","","","","","","","","","","NaN",""
"","S1","","html-keyboard-response","221","263921","0.0-1.0-308.0","0","0","92530","","null","","","null","34","","","","","","","","","","","","","","","",""
"","ISI","","html-keyboard-response","222","265924","0.0-1.0-309.0","0","0","92530","","null","","","null","34","NaN","","","","","","","","","","","","","","",""
"","S2","","html-keyboard-response","223","266194","0.0-1.0-310.0","0","0","92530","","null","","","null","34","","NaN","","","","","","","","","","","","","",""
"","response","","html-keyboard-response","224","266721","0.0-1.0-311.0","0","0","92530","","525","","","68","34","","","1","34","training","adjacent","FE","6","5","R.jpg","P.jpg","1","0","0","",""
"","feedback","","html-keyboard-response","225","267724","0.0-1.0-312.0-0.0","0","0","92530","","null","","","null","34","","","","","","","","","","","","","","","",""
"","time_out","","html-keyboard-response","226","269728","0.0-1.0-314.0-0.0","0","0","92530","","null","","","null","34","","","","","","","","","","","","","","","",""
"","ITI","","html-keyboard-response","227","270731","0.0-1.0-315.0","0","0","92530","","null","","","null","34","","","","","","","","","","","","","","","NaN",""
"","S1","","html-keyboard-response","228","270984","0.0-1.0-317.0","0","0","92530","","null","","","null","35","","","","","","","","","","","","","","","",""
"","ISI","","html-keyboard-response","229","272985","0.0-1.0-318.0","0","0","92530","","null","","","null","35","NaN","","","","","","","","","","","","","","",""
"","S2","","html-keyboard-response","230","273238","0.0-1.0-319.0","0","0","92530","","null","","","null","35","","NaN","","","","","","","","","","","","","",""
"","response","","html-keyboard-response","231","273375","0.0-1.0-320.0","0","0","92530","","136","","","75","35","","","1","35","training","adjacent","AB","1","2","L.jpg","M.jpg","0","1","0","",""
"","feedback","","html-keyboard-response","232","274378","0.0-1.0-321.0-0.0","0","0","92530","","null","","","null","35","","","","","","","","","","","","","","","",""
"","time_out","","html-keyboard-response","233","276380","0.0-1.0-323.0-0.0","0","0","92530","","null","","","null","35","","","","","","","","","","","","","","","",""
"","ITI","","html-keyboard-response","234","277383","0.0-1.0-324.0","0","0","92530","","null","","","null","35","","","","","","","","","","","","","","","NaN",""
"","S1","","html-keyboard-response","235","277635","0.0-1.0-326.0","0","0","92530","","null","","","null","36","","","","","","","","","","","","","","","",""
"","ISI","","html-keyboard-response","236","279638","0.0-1.0-327.0","0","0","92530","","null","","","null","36","NaN","","","","","","","","","","","","","","",""
"","S2","","html-keyboard-response","237","279891","0.0-1.0-328.0","0","0","92530","","null","","","null","36","","NaN","","","","","","","","","","","","","",""
"","response","","html-keyboard-response","238","280090","0.0-1.0-329.0","0","0","92530","","197","","","75","36","","","1","36","training","adjacent","AB","1","2","L.jpg","M.jpg","0","1","0","",""
"","feedback","","html-keyboard-response","239","281092","0.0-1.0-330.0-0.0","0","0","92530","","null","","","null","36","","","","","","","","","","","","","","","",""
"","time_out","","html-keyboard-response","240","283096","0.0-1.0-332.0-0.0","0","0","92530","","null","","","null","36","","","","","","","","","","","","","","","",""
"","ITI","","html-keyboard-response","241","284099","0.0-1.0-333.0","0","0","92530","","null","","","null","36","","","","","","","","","","","","","","","NaN",""
"","S1","","html-keyboard-response","242","284352","0.0-1.0-335.0","0","0","92530","","null","","","null","37","","","","","","","","","","","","","","","",""
"","ISI","","html-keyboard-response","243","286355","0.0-1.0-336.0","0","0","92530","","null","","","null","37","NaN","","","","","","","","","","","","","","",""
"","S2","","html-keyboard-response","244","286608","0.0-1.0-337.0","0","0","92530","","null","","","null","37","","NaN","","","","","","","","","","","","","",""
"","response","","html-keyboard-response","245","286806","0.0-1.0-338.0","0","0","92530","","196","","","68","37","","","1","37","training","adjacent","DC","4","3","N.jpg","Q.jpg","1","0","0","",""
"","feedback","","html-keyboard-response","246","287808","0.0-1.0-339.0-0.0","0","0","92530","","null","","","null","37","","","","","","","","","","","","","","","",""
"","time_out","","html-keyboard-response","247","289810","0.0-1.0-341.0-0.0","0","0","92530","","null","","","null","37","","","","","","","","","","","","","","","",""
"","ITI","","html-keyboard-response","248","290815","0.0-1.0-342.0","0","0","92530","","null","","","null","37","","","","","","","","","","","","","","","NaN",""
"","S1","","html-keyboard-response","249","291067","0.0-1.0-344.0","0","0","92530","","null","","","null","38","","","","","","","","","","","","","","","",""
"","ISI","","html-keyboard-response","250","293071","0.0-1.0-345.0","0","0","92530","","null","","","null","38","NaN","","","","","","","","","","","","","","",""
"","S2","","html-keyboard-response","251","293335","0.0-1.0-346.0","0","0","92530","","null","","","null","38","","NaN","","","","","","","","","","","","","",""
"","response","","html-keyboard-response","252","293719","0.0-1.0-347.0","0","0","92530","","382","","","68","38","","","1","38","training","adjacent","CB","3","2","Q.jpg","M.jpg","1","0","0","",""
"","feedback","","html-keyboard-response","253","294723","0.0-1.0-348.0-0.0","0","0","92530","","null","","","null","38","","","","","","","","","","","","","","","",""
"","time_out","","html-keyboard-response","254","296726","0.0-1.0-350.0-0.0","0","0","92530","","null","","","null","38","","","","","","","","","","","","","","","",""
"","ITI","","html-keyboard-response","255","297729","0.0-1.0-351.0","0","0","92530","","null","","","null","38","","","","","","","","","","","","","","","NaN",""
"","S1","","html-keyboard-response","256","297982","0.0-1.0-353.0","0","0","92530","","null","","","null","39","","","","","","","","","","","","","","","",""
"","ISI","","html-keyboard-response","257","299985","0.0-1.0-354.0","0","0","92530","","null","","","null","39","NaN","","","","","","","","","","","","","","",""
"","S2","","html-keyboard-response","258","300249","0.0-1.0-355.0","0","0","92530","","null","","","null","39","","NaN","","","","","","","","","","","","","",""
"","response","","html-keyboard-response","259","300603","0.0-1.0-356.0","0","0","92530","","352","","","68","39","","","1","39","training","adjacent","FE","6","5","R.jpg","P.jpg","1","0","0","",""
"","feedback","","html-keyboard-response","260","301606","0.0-1.0-357.0-0.0","0","0","92530","","null","","","null","39","","","","","","","","","","","","","","","",""
"","time_out","","html-keyboard-response","261","303609","0.0-1.0-359.0-0.0","0","0","92530","","null","","","null","39","","","","","","","","","","","","","","","",""
"","ITI","","html-keyboard-response","262","304612","0.0-1.0-360.0","0","0","92530","","null","","","null","39","","","","","","","","","","","","","","","NaN",""
"","S1","","html-keyboard-response","263","304865","0.0-1.0-362.0","0","0","92530","","null","","","null","40","","","","","","","","","","","","","","","",""
"","ISI","","html-keyboard-response","264","306868","0.0-1.0-363.0","0","0","92530","","null","","","null","40","NaN","","","","","","","","","","","","","","",""
"","S2","","html-keyboard-response","265","307121","0.0-1.0-364.0","0","0","92530","","null","","","null","40","","NaN","","","","","","","","","","","","","",""
"","response","","html-keyboard-response","266","307709","0.0-1.0-365.0","0","0","92530","","586","","","75","40","","","1","40","training","adjacent","BA","2","1","M.jpg","L.jpg","0","0","1","",""
"","feedback","","html-keyboard-response","267","308711","0.0-1.0-366.0-0.0","0","0","92530","","null","","","null","40","","","","","","","","","","","","","","","",""
"","ITI","","html-keyboard-response","268","309714","0.0-1.0-369.0","0","0","92530","","null","","","null","40","","","","","","","","","","","","","","","NaN",""
"","S1","","html-keyboard-response","269","309967","0.0-1.0-371.0","0","0","92530","","null","","","null","41","","","","","","","","","","","","","","","",""
"","ISI","","html-keyboard-response","270","311969","0.0-1.0-372.0","0","0","92530","","null","","","null","41","NaN","","","","","","","","","","","","","","",""
"","S2","","html-keyboard-response","271","312222","0.0-1.0-373.0","0","0","92530","","null","","","null","41","","NaN","","","","","","","","","","","","","",""
"","response","","html-keyboard-response","272","312349","0.0-1.0-374.0","0","0","92530","","125","","","75","41","","","1","41","training","adjacent","BA","2","1","M.jpg","L.jpg","0","0","1","",""
"","feedback","","html-keyboard-response","273","313353","0.0-1.0-375.0-0.0","0","0","92530","","null","","","null","41","","","","","","","","","","","","","","","",""
"","ITI","","html-keyboard-response","274","314356","0.0-1.0-378.0","0","0","92530","","null","","","null","41","","","","","","","","","","","","","","","NaN",""
"","S1","","html-keyboard-response","275","314608","0.0-1.0-380.0","0","0","92530","","null","","","null","42","","","","","","","","","","","","","","","",""
"","ISI","","html-keyboard-response","276","316610","0.0-1.0-381.0","0","0","92530","","null","","","null","42","NaN","","","","","","","","","","","","","","",""
"","S2","","html-keyboard-response","277","316864","0.0-1.0-382.0","0","0","92530","","null","","","null","42","","NaN","","","","","","","","","","","","","",""
"","response","","html-keyboard-response","278","317167","0.0-1.0-383.0","0","0","92530","","302","","","68","42","","","1","42","training","adjacent","AB","1","2","L.jpg","M.jpg","1","1","1","",""
"","feedback","","html-keyboard-response","279","318169","0.0-1.0-384.0-0.0","0","0","92530","","null","","","null","42","","","","","","","","","","","","","","","",""
"","ITI","","html-keyboard-response","280","319172","0.0-1.0-387.0","0","0","92530","","null","","","null","42","","","","","","","","","","","","","","","NaN",""
"","S1","","html-keyboard-response","281","319425","0.0-1.0-389.0","0","0","92530","","null","","","null","43","","","","","","","","","","","","","","","",""
"","ISI","","html-keyboard-response","282","321427","0.0-1.0-390.0","0","0","92530","","null","","","null","43","NaN","","","","","","","","","","","","","","",""
"","S2","","html-keyboard-response","283","321680","0.0-1.0-391.0","0","0","92530","","null","","","null","43","","NaN","","","","","","","","","","","","","",""
"","response","","html-keyboard-response","284","322002","0.0-1.0-392.0","0","0","92530","","320","","","75","43","","","1","43","training","adjacent","GF","7","6","O.jpg","R.jpg","0","0","1","",""
"","feedback","","html-keyboard-response","285","323005","0.0-1.0-393.0-0.0","0","0","92530","","null","","","null","43","","","","","","","","","","","","","","","",""
"","ITI","","html-keyboard-response","286","324007","0.0-1.0-396.0","0","0","92530","","null","","","null","43","","","","","","","","","","","","","","","NaN",""
"","S1","","html-keyboard-response","287","324260","0.0-1.0-398.0","0","0","92530","","null","","","null","44","","","","","","","","","","","","","","","",""
"","ISI","","html-keyboard-response","288","326263","0.0-1.0-399.0","0","0","92530","","null","","","null","44","NaN","","","","","","","","","","","","","","",""
"","S2","","html-keyboard-response","289","326516","0.0-1.0-400.0","0","0","92530","","null","","","null","44","","NaN","","","","","","","","","","","","","",""
"","response","","html-keyboard-response","290","326871","0.0-1.0-401.0","0","0","92530","","352","","","68","44","","","1","44","training","adjacent","ED","5","4","P.jpg","N.jpg","1","0","0","",""
"","feedback","","html-keyboard-response","291","327875","0.0-1.0-402.0-0.0","0","0","92530","","null","","","null","44","","","","","","","","","","","","","","","",""
"","time_out","","html-keyboard-response","292","329889","0.0-1.0-404.0-0.0","0","0","92530","","null","","","null","44","","","","","","","","","","","","","","","",""
"","ITI","","html-keyboard-response","293","330892","0.0-1.0-405.0","0","0","92530","","null","","","null","44","","","","","","","","","","","","","","","NaN",""
"","S1","","html-keyboard-response","294","331145","0.0-1.0-407.0","0","0","92530","","null","","","null","45","","","","","","","","","","","","","","","",""
"","ISI","","html-keyboard-response","295","333148","0.0-1.0-408.0","0","0","92530","","null","","","null","45","NaN","","","","","","","","","","","","","","",""
"","S2","","html-keyboard-response","296","333400","0.0-1.0-409.0","0","0","92530","","null","","","null","45","","NaN","","","","","","","","","","","","","",""
"","response","","html-keyboard-response","297","333721","0.0-1.0-410.0","0","0","92530","","319","","","68","45","","","1","45","training","adjacent","FG","6","7","R.jpg","O.jpg","1","1","1","",""
"","feedback","","html-keyboard-response","298","334723","0.0-1.0-411.0-0.0","0","0","92530","","null","","","null","45","","","","","","","","","","","","","","","",""
"","ITI","","html-keyboard-response","299","335725","0.0-1.0-414.0","0","0","92530","","null","","","null","45","","","","","","","","","","","","","","","NaN",""
"","S1","","html-keyboard-response","300","335979","0.0-1.0-416.0","0","0","92530","","null","","","null","46","","","","","","","","","","","","","","","",""
"","ISI","","html-keyboard-response","301","337981","0.0-1.0-417.0","0","0","92530","","null","","","null","46","NaN","","","","","","","","","","","","","","",""
"","S2","","html-keyboard-response","302","338233","0.0-1.0-418.0","0","0","92530","","null","","","null","46","","NaN","","","","","","","","","","","","","",""
"","response","","html-keyboard-response","303","338520","0.0-1.0-419.0","0","0","92530","","285","","","75","46","","","1","46","training","adjacent","CD","3","4","Q.jpg","N.jpg","0","1","0","",""
"","feedback","","html-keyboard-response","304","339524","0.0-1.0-420.0-0.0","0","0","92530","","null","","","null","46","","","","","","","","","","","","","","","",""
"","time_out","","html-keyboard-response","305","341527","0.0-1.0-422.0-0.0","0","0","92530","","null","","","null","46","","","","","","","","","","","","","","","",""
"","ITI","","html-keyboard-response","306","342529","0.0-1.0-423.0","0","0","92530","","null","","","null","46","","","","","","","","","","","","","","","NaN",""
"","S1","","html-keyboard-response","307","342782","0.0-1.0-425.0","0","0","92530","","null","","","null","47","","","","","","","","","","","","","","","",""
"","ISI","","html-keyboard-response","308","344785","0.0-1.0-426.0","0","0","92530","","null","","","null","47","NaN","","","","","","","","","","","","","","",""
"","S2","","html-keyboard-response","309","345037","0.0-1.0-427.0","0","0","92530","","null","","","null","47","","NaN","","","","","","","","","","","","","",""
"","response","","html-keyboard-response","310","345281","0.0-1.0-428.0","0","0","92530","","242","","","75","47","","","1","47","training","adjacent","GF","7","6","O.jpg","R.jpg","0","0","1","",""
"","feedback","","html-keyboard-response","311","346300","0.0-1.0-429.0-0.0","0","0","92530","","null","","","null","47","","","","","","","","","","","","","","","",""
"","ITI","","html-keyboard-response","312","347305","0.0-1.0-432.0","0","0","92530","","null","","","null","47","","","","","","","","","","","","","","","NaN",""
"","block_over","","html-keyboard-response","313","367857","0.0-1.0-433.0-0.0","0","0","92530","","20551","","","32","47","","","","","","","","","","","","","","","",""
"","S1","","html-keyboard-response","314","368110","0.0-1.0-434.0","0","0","92530","","null","","","null","48","","","","","","","","","","","","","","","",""
"","ISI","","html-keyboard-response","315","370112","0.0-1.0-435.0","0","0","92530","","null","","","null","48","NaN","","","","","","","","","","","","","","",""
"","S2","","html-keyboard-response","316","370382","0.0-1.0-436.0","0","0","92530","","null","","","null","48","","NaN","","","","","","","","","","","","","",""
"","response","","html-keyboard-response","317","370761","0.0-1.0-437.0","0","0","92530","","377","","","68","48","","","2","48","training","adjacent","DC","4","3","N.jpg","Q.jpg","1","0","0","",""
"","feedback","","html-keyboard-response","318","371764","0.0-1.0-438.0-0.0","0","0","92530","","null","","","null","48","","","","","","","","","","","","","","","",""
"","time_out","","html-keyboard-response","319","373766","0.0-1.0-440.0-0.0","0","0","92530","","null","","","null","48","","","","","","","","","","","","","","","",""
"","ITI","","html-keyboard-response","320","374768","0.0-1.0-441.0","0","0","92530","","null","","","null","48","","","","","","","","","","","","","","","NaN",""
"","S1","","html-keyboard-response","321","375021","0.0-1.0-443.0","0","0","92530","","null","","","null","49","","","","","","","","","","","","","","","",""
"","ISI","","html-keyboard-response","322","377023","0.0-1.0-444.0","0","0","92530","","null","","","null","49","NaN","","","","","","","","","","","","","","",""
"","S2","","html-keyboard-response","323","377276","0.0-1.0-445.0","0","0","92530","","null","","","null","49","","NaN","","","","","","","","","","","","","",""
"","response","","html-keyboard-response","324","377605","0.0-1.0-446.0","0","0","92530","","328","","","75","49","","","2","49","training","adjacent","AB","1","2","L.jpg","M.jpg","0","1","0","",""
"","feedback","","html-keyboard-response","325","378608","0.0-1.0-447.0-0.0","0","0","92530","","null","","","null","49","","","","","","","","","","","","","","","",""
"","time_out","","html-keyboard-response","326","380611","0.0-1.0-449.0-0.0","0","0","92530","","null","","","null","49","","","","","","","","","","","","","","","",""
"","ITI","","html-keyboard-response","327","381613","0.0-1.0-450.0","0","0","92530","","null","","","null","49","","","","","","","","","","","","","","","NaN",""
"","S1","","html-keyboard-response","328","381886","0.0-1.0-452.0","0","0","92530","","null","","","null","50","","","","","","","","","","","","","","","",""
"","ISI","","html-keyboard-response","329","383896","0.0-1.0-453.0","0","0","92530","","null","","","null","50","NaN","","","","","","","","","","","","","","",""
"","S2","","html-keyboard-response","330","384148","0.0-1.0-454.0","0","0","92530","","null","","","null","50","","NaN","","","","","","","","","","","","","",""
"","response","","html-keyboard-response","331","384429","0.0-1.0-455.0","0","0","92530","","279","","","75","50","","","2","50","training","adjacent","DC","4","3","N.jpg","Q.jpg","0","0","1","",""
"","feedback","","html-keyboard-response","332","385432","0.0-1.0-456.0-0.0","0","0","92530","","null","","","null","50","","","","","","","","","","","","","","","",""
"","ITI","","html-keyboard-response","333","386434","0.0-1.0-459.0","0","0","92530","","null","","","null","50","","","","","","","","","","","","","","","NaN",""
"","S1","","html-keyboard-response","334","386689","0.0-1.0-461.0","0","0","92530","","null","","","null","51","","","","","","","","","","","","","","","",""
"","ISI","","html-keyboard-response","335","388694","0.0-1.0-462.0","0","0","92530","","null","","","null","51","NaN","","","","","","","","","","","","","","",""
"","S2","","html-keyboard-response","336","388945","0.0-1.0-463.0","0","0","92530","","null","","","null","51","","NaN","","","","","","","","","","","","","",""
"","response","","html-keyboard-response","337","389289","0.0-1.0-464.0","0","0","92530","","342","","","75","51","","","2","51","training","adjacent","ED","5","4","P.jpg","N.jpg","0","0","1","",""
"","feedback","","html-keyboard-response","338","390293","0.0-1.0-465.0-0.0","0","0","92530","","null","","","null","51","","","","","","","","","","","","","","","",""
"","ITI","","html-keyboard-response","339","391295","0.0-1.0-468.0","0","0","92530","","null","","","null","51","","","","","","","","","","","","","","","NaN",""
"","S1","","html-keyboard-response","340","391548","0.0-1.0-470.0","0","0","92530","","null","","","null","52","","","","","","","","","","","","","","","",""
"","ISI","","html-keyboard-response","341","393550","0.0-1.0-471.0","0","0","92530","","null","","","null","52","NaN","","","","","","","","","","","","","","",""
"","S2","","html-keyboard-response","342","393802","0.0-1.0-472.0","0","0","92530","","null","","","null","52","","NaN","","","","","","","","","","","","","",""
"","response","","html-keyboard-response","343","393891","0.0-1.0-473.0","0","0","92530","","87","","","68","52","","","2","52","training","adjacent","DE","4","5","N.jpg","P.jpg","1","1","1","",""
"","feedback","","html-keyboard-response","344","394893","0.0-1.0-474.0-0.0","0","0","92530","","null","","","null","52","","","","","","","","","","","","","","","",""
"","ITI","","html-keyboard-response","345","395897","0.0-1.0-477.0","0","0","92530","","null","","","null","52","","","","","","","","","","","","","","","NaN",""
"","S1","","html-keyboard-response","346","396150","0.0-1.0-479.0","0","0","92530","","null","","","null","53","","","","","","","","","","","","","","","",""
"","ISI","","html-keyboard-response","347","398152","0.0-1.0-480.0","0","0","92530","","null","","","null","53","NaN","","","","","","","","","","","","","","",""
"","S2","","html-keyboard-response","348","398405","0.0-1.0-481.0","0","0","92530","","null","","","null","53","","NaN","","","","","","","","","","","","","",""
"","response","","html-keyboard-response","349","398673","0.0-1.0-482.0","0","0","92530","","267","","","75","53","","","2","53","training","adjacent","GF","7","6","O.jpg","R.jpg","0","0","1","",""
"","feedback","","html-keyboard-response","350","399677","0.0-1.0-483.0-0.0","0","0","92530","","null","","","null","53","","","","","","","","","","","","","","","",""
"","ITI","","html-keyboard-response","351","400679","0.0-1.0-486.0","0","0","92530","","null","","","null","53","","","","","","","","","","","","","","","NaN",""
"","S1","","html-keyboard-response","352","400947","0.0-1.0-488.0","0","0","92530","","null","","","null","54","","","","","","","","","","","","","","","",""
"","ISI","","html-keyboard-response","353","402950","0.0-1.0-489.0","0","0","92530","","null","","","null","54","NaN","","","","","","","","","","","","","","",""
"","S2","","html-keyboard-response","354","403203","0.0-1.0-490.0","0","0","92530","","null","","","null","54","","NaN","","","","","","","","","","","","","",""
"","response","","html-keyboard-response","355","403407","0.0-1.0-491.0","0","0","92530","","203","","","68","54","","","2","54","training","adjacent","FG","6","7","R.jpg","O.jpg","1","1","1","",""
"","feedback","","html-keyboard-response","356","404410","0.0-1.0-492.0-0.0","0","0","92530","","null","","","null","54","","","","","","","","","","","","","","","",""
"","ITI","","html-keyboard-response","357","405412","0.0-1.0-495.0","0","0","92530","","null","","","null","54","","","","","","","","","","","","","","","NaN",""
"","S1","","html-keyboard-response","358","405664","0.0-1.0-497.0","0","0","92530","","null","","","null","55","","","","","","","","","","","","","","","",""
"","ISI","","html-keyboard-response","359","407667","0.0-1.0-498.0","0","0","92530","","null","","","null","55","NaN","","","","","","","","","","","","","","",""
"","S2","","html-keyboard-response","360","407919","0.0-1.0-499.0","0","0","92530","","null","","","null","55","","NaN","","","","","","","","","","","","","",""
"","response","","html-keyboard-response","361","408390","0.0-1.0-500.0","0","0","92530","","469","","","68","55","","","2","55","training","adjacent","FE","6","5","R.jpg","P.jpg","1","0","0","",""
"","feedback","","html-keyboard-response","362","409393","0.0-1.0-501.0-0.0","0","0","92530","","null","","","null","55","","","","","","","","","","","","","","","",""
"","time_out","","html-keyboard-response","363","411397","0.0-1.0-503.0-0.0","0","0","92530","","null","","","null","55","","","","","","","","","","","","","","","",""
"","ITI","","html-keyboard-response","364","412400","0.0-1.0-504.0","0","0","92530","","null","","","null","55","","","","","","","","","","","","","","","NaN",""
"","S1","","html-keyboard-response","365","412653","0.0-1.0-506.0","0","0","92530","","null","","","null","56","","","","","","","","","","","","","","","",""
"","ISI","","html-keyboard-response","366","414655","0.0-1.0-507.0","0","0","92530","","null","","","null","56","NaN","","","","","","","","","","","","","","",""
"","S2","","html-keyboard-response","367","414907","0.0-1.0-508.0","0","0","92530","","null","","","null","56","","NaN","","","","","","","","","","","","","",""
"","response","","html-keyboard-response","368","415239","0.0-1.0-509.0","0","0","92530","","330","","","75","56","","","2","56","training","adjacent","BA","2","1","M.jpg","L.jpg","0","0","1","",""
"","feedback","","html-keyboard-response","369","416242","0.0-1.0-510.0-0.0","0","0","92530","","null","","","null","56","","","","","","","","","","","","","","","",""
"","ITI","","html-keyboard-response","370","417244","0.0-1.0-513.0","0","0","92530","","null","","","null","56","","","","","","","","","","","","","","","NaN",""
"","S1","","html-keyboard-response","371","417498","0.0-1.0-515.0","0","0","92530","","null","","","null","57","","","","","","","","","","","","","","","",""
"","ISI","","html-keyboard-response","372","419499","0.0-1.0-516.0","0","0","92530","","null","","","null","57","NaN","","","","","","","","","","","","","","",""
"","S2","","html-keyboard-response","373","419752","0.0-1.0-517.0","0","0","92530","","null","","","null","57","","NaN","","","","","","","","","","","","","",""
"","response","","html-keyboard-response","374","419824","0.0-1.0-518.0","0","0","92530","","70","","","68","57","","","2","57","training","adjacent","AB","1","2","L.jpg","M.jpg","1","1","1","",""
"","feedback","","html-keyboard-response","375","420827","0.0-1.0-519.0-0.0","0","0","92530","","null","","","null","57","","","","","","","","","","","","","","","",""
"","ITI","","html-keyboard-response","376","421829","0.0-1.0-522.0","0","0","92530","","null","","","null","57","","","","","","","","","","","","","","","NaN",""
"","S1","","html-keyboard-response","377","422082","0.0-1.0-524.0","0","0","92530","","null","","","null","58","","","","","","","","","","","","","","","",""
"","ISI","","html-keyboard-response","378","424091","0.0-1.0-525.0","0","0","92530","","null","","","null","58","NaN","","","","","","","","","","","","","","",""
"","S2","","html-keyboard-response","379","424343","0.0-1.0-526.0","0","0","92530","","null","","","null","58","","NaN","","","","","","","","","","","","","",""
"","response","","html-keyboard-response","380","424791","0.0-1.0-527.0","0","0","92530","","447","","","75","58","","","2","58","training","adjacent","DC","4","3","N.jpg","Q.jpg","0","0","1","",""
"","feedback","","html-keyboard-response","381","425794","0.0-1.0-528.0-0.0","0","0","92530","","null","","","null","58","","","","","","","","","","","","","","","",""
"","ITI","","html-keyboard-response","382","426797","0.0-1.0-531.0","0","0","92530","","null","","","null","58","","","","","","","","","","","","","","","NaN",""
"","S1","","html-keyboard-response","383","427048","0.0-1.0-533.0","0","0","92530","","null","","","null","59","","","","","","","","","","","","","","","",""
"","ISI","","html-keyboard-response","384","429051","0.0-1.0-534.0","0","0","92530","","null","","","null","59","NaN","","","","","","","","","","","","","","",""
"","S2","","html-keyboard-response","385","429304","0.0-1.0-535.0","0","0","92530","","null","","","null","59","","NaN","","","","","","","","","","","","","",""
"","response","","html-keyboard-response","386","429963","0.0-1.0-536.0","0","0","92530","","656","","","75","59","","","2","59","training","adjacent","EF","5","6","P.jpg","R.jpg","0","1","0","",""
"","feedback","","html-keyboard-response","387","430966","0.0-1.0-537.0-0.0","0","0","92530","","null","","","null","59","","","","","","","","","","","","","","","",""
"","time_out","","html-keyboard-response","388","432984","0.0-1.0-539.0-0.0","0","0","92530","","null","","","null","59","","","","","","","","","","","","","","","",""
"","ITI","","html-keyboard-response","389","433987","0.0-1.0-540.0","0","0","92530","","null","","","null","59","","","","","","","","","","","","","","","NaN",""
"","S1","","html-keyboard-response","390","434239","0.0-1.0-542.0","0","0","92530","","null","","","null","60","","","","","","","","","","","","","","","",""
"","ISI","","html-keyboard-response","391","436241","0.0-1.0-543.0","0","0","92530","","null","","","null","60","NaN","","","","","","","","","","","","","","",""
"","S2","","html-keyboard-response","392","436495","0.0-1.0-544.0","0","0","92530","","null","","","null","60","","NaN","","","","","","","","","","","","","",""
"","response","","html-keyboard-response","393","436853","0.0-1.0-545.0","0","0","92530","","357","","","68","60","","","2","60","training","adjacent","FE","6","5","R.jpg","P.jpg","1","0","0","",""
"","feedback","","html-keyboard-response","394","437856","0.0-1.0-546.0-0.0","0","0","92530","","null","","","null","60","","","","","","","","","","","","","","","",""
"","time_out","","html-keyboard-response","395","439859","0.0-1.0-548.0-0.0","0","0","92530","","null","","","null","60","","","","","","","","","","","","","","","",""
"","ITI","","html-keyboard-response","396","440862","0.0-1.0-549.0","0","0","92530","","null","","","null","60","","","","","","","","","","","","","","","NaN",""
"","S1","","html-keyboard-response","397","441115","0.0-1.0-551.0","0","0","92530","","null","","","null","61","","","","","","","","","","","","","","","",""
"","ISI","","html-keyboard-response","398","443123","0.0-1.0-552.0","0","0","92530","","null","","","null","61","NaN","","","","","","","","","","","","","","",""
"","S2","","html-keyboard-response","399","443376","0.0-1.0-553.0","0","0","92530","","null","","","null","61","","NaN","","","","","","","","","","","","","",""
"","response","","html-keyboard-response","400","443683","0.0-1.0-554.0","0","0","92530","","306","","","75","61","","","2","61","training","adjacent","GF","7","6","O.jpg","R.jpg","0","0","1","",""
"","feedback","","html-keyboard-response","401","444687","0.0-1.0-555.0-0.0","0","0","92530","","null","","","null","61","","","","","","","","","","","","","","","",""
"","ITI","","html-keyboard-response","402","445690","0.0-1.0-558.0","0","0","92530","","null","","","null","61","","","","","","","","","","","","","","","NaN",""
"","S1","","html-keyboard-response","403","445942","0.0-1.0-560.0","0","0","92530","","null","","","null","62","","","","","","","","","","","","","","","",""
"","ISI","","html-keyboard-response","404","447945","0.0-1.0-561.0","0","0","92530","","null","","","null","62","NaN","","","","","","","","","","","","","","",""
"","S2","","html-keyboard-response","405","448197","0.0-1.0-562.0","0","0","92530","","null","","","null","62","","NaN","","","","","","","","","","","","","",""
"","response","","html-keyboard-response","406","448471","0.0-1.0-563.0","0","0","92530","","272","","","75","62","","","2","62","training","adjacent","ED","5","4","P.jpg","N.jpg","0","0","1","",""
"","feedback","","html-keyboard-response","407","449474","0.0-1.0-564.0-0.0","0","0","92530","","null","","","null","62","","","","","","","","","","","","","","","",""
"","ITI","","html-keyboard-response","408","450477","0.0-1.0-567.0","0","0","92530","","null","","","null","62","","","","","","","","","","","","","","","NaN",""
"","S1","","html-keyboard-response","409","450729","0.0-1.0-569.0","0","0","92530","","null","","","null","63","","","","","","","","","","","","","","","",""
"","ISI","","html-keyboard-response","410","452733","0.0-1.0-570.0","0","0","92530","","null","","","null","63","NaN","","","","","","","","","","","","","","",""
"","S2","","html-keyboard-response","411","452992","0.0-1.0-571.0","0","0","92530","","null","","","null","63","","NaN","","","","","","","","","","","","","",""
"","response","","html-keyboard-response","412","453080","0.0-1.0-572.0","0","0","92530","","87","","","68","63","","","2","63","training","adjacent","CB","3","2","Q.jpg","M.jpg","1","0","0","",""
"","feedback","","html-keyboard-response","413","454083","0.0-1.0-573.0-0.0","0","0","92530","","null","","","null","63","","","","","","","","","","","","","","","",""
"","time_out","","html-keyboard-response","414","456086","0.0-1.0-575.0-0.0","0","0","92530","","null","","","null","63","","","","","","","","","","","","","","","",""
"","ITI","","html-keyboard-response","415","457090","0.0-1.0-576.0","0","0","92530","","null","","","null","63","","","","","","","","","","","","","","","NaN",""
"","S1","","html-keyboard-response","416","457343","0.0-1.0-578.0","0","0","92530","","null","","","null","64","","","","","","","","","","","","","","","",""
"","ISI","","html-keyboard-response","417","459345","0.0-1.0-579.0","0","0","92530","","null","","","null","64","NaN","","","","","","","","","","","","","","",""
"","S2","","html-keyboard-response","418","459598","0.0-1.0-580.0","0","0","92530","","null","","","null","64","","NaN","","","","","","","","","","","","","",""
"","response","","html-keyboard-response","419","460002","0.0-1.0-581.0","0","0","92530","","403","","","75","64","","","2","64","training","adjacent","DE","4","5","N.jpg","P.jpg","0","1","0","",""
"","feedback","","html-keyboard-response","420","461007","0.0-1.0-582.0-0.0","0","0","92530","","null","","","null","64","","","","","","","","","","","","","","","",""
"","time_out","","html-keyboard-response","421","463012","0.0-1.0-584.0-0.0","0","0","92530","","null","","","null","64","","","","","","","","","","","","","","","",""
"","ITI","","html-keyboard-response","422","464016","0.0-1.0-585.0","0","0","92530","","null","","","null","64","","","","","","","","","","","","","","","NaN",""
"","S1","","html-keyboard-response","423","464269","0.0-1.0-587.0","0","0","92530","","null","","","null","65","","","","","","","","","","","","","","","",""
"","ISI","","html-keyboard-response","424","466271","0.0-1.0-588.0","0","0","92530","","null","","","null","65","NaN","","","","","","","","","","","","","","",""
"","S2","","html-keyboard-response","425","466524","0.0-1.0-589.0","0","0","92530","","null","","","null","65","","NaN","","","","","","","","","","","","","",""
"","response","","html-keyboard-response","426","466998","0.0-1.0-590.0","0","0","92530","","473","","","68","65","","","2","65","training","adjacent","FE","6","5","R.jpg","P.jpg","1","0","0","",""
"","feedback","","html-keyboard-response","427","468000","0.0-1.0-591.0-0.0","0","0","92530","","null","","","null","65","","","","","","","","","","","","","","","",""
"","time_out","","html-keyboard-response","428","470004","0.0-1.0-593.0-0.0","0","0","92530","","null","","","null","65","","","","","","","","","","","","","","","",""
"","ITI","","html-keyboard-response","429","471008","0.0-1.0-594.0","0","0","92530","","null","","","null","65","","","","","","","","","","","","","","","NaN",""
"","S1","","html-keyboard-response","430","471261","0.0-1.0-596.0","0","0","92530","","null","","","null","66","","","","","","","","","","","","","","","",""
"","ISI","","html-keyboard-response","431","473264","0.0-1.0-597.0","0","0","92530","","null","","","null","66","NaN","","","","","","","","","","","","","","",""
"","S2","","html-keyboard-response","432","473517","0.0-1.0-598.0","0","0","92530","","null","","","null","66","","NaN","","","","","","","","","","","","","",""
"","response","","html-keyboard-response","433","473783","0.0-1.0-599.0","0","0","92530","","265","","","75","66","","","2","66","training","adjacent","CB","3","2","Q.jpg","M.jpg","0","0","1","",""
"","feedback","","html-keyboard-response","434","474786","0.0-1.0-600.0-0.0","0","0","92530","","null","","","null","66","","","","","","","","","","","","","","","",""
"","ITI","","html-keyboard-response","435","475789","0.0-1.0-603.0","0","0","92530","","null","","","null","66","","","","","","","","","","","","","","","NaN",""
"","S1","","html-keyboard-response","436","476042","0.0-1.0-605.0","0","0","92530","","null","","","null","67","","","","","","","","","","","","","","","",""
"","ISI","","html-keyboard-response","437","478044","0.0-1.0-606.0","0","0","92530","","null","","","null","67","NaN","","","","","","","","","","","","","","",""
"","S2","","html-keyboard-response","438","478297","0.0-1.0-607.0","0","0","92530","","null","","","null","67","","NaN","","","","","","","","","","","","","",""
"","response","","html-keyboard-response","439","478568","0.0-1.0-608.0","0","0","92530","","269","","","75","67","","","2","67","training","adjacent","AB","1","2","L.jpg","M.jpg","0","1","0","",""
"","feedback","","html-keyboard-response","440","479571","0.0-1.0-609.0-0.0","0","0","92530","","null","","","null","67","","","","","","","","","","","","","","","",""
"","time_out","","html-keyboard-response","441","481574","0.0-1.0-611.0-0.0","0","0","92530","","null","","","null","67","","","","","","","","","","","","","","","",""
"","ITI","","html-keyboard-response","442","482576","0.0-1.0-612.0","0","0","92530","","null","","","null","67","","","","","","","","","","","","","","","NaN",""
"","S1","","html-keyboard-response","443","482828","0.0-1.0-614.0","0","0","92530","","null","","","null","68","","","","","","","","","","","","","","","",""
"","ISI","","html-keyboard-response","444","484831","0.0-1.0-615.0","0","0","92530","","null","","","null","68","NaN","","","","","","","","","","","","","","",""
"","S2","","html-keyboard-response","445","485083","0.0-1.0-616.0","0","0","92530","","null","","","null","68","","NaN","","","","","","","","","","","","","",""
"","response","","html-keyboard-response","446","485490","0.0-1.0-617.0","0","0","92530","","405","","","75","68","","","2","68","training","adjacent","EF","5","6","P.jpg","R.jpg","0","1","0","",""
"","feedback","","html-keyboard-response","447","486494","0.0-1.0-618.0-0.0","0","0","92530","","null","","","null","68","","","","","","","","","","","","","","","",""
"","time_out","","html-keyboard-response","448","488497","0.0-1.0-620.0-0.0","0","0","92530","","null","","","null","68","","","","","","","","","","","","","","","",""
"","ITI","","html-keyboard-response","449","489500","0.0-1.0-621.0","0","0","92530","","null","","","null","68","","","","","","","","","","","","","","","NaN",""
"","S1","","html-keyboard-response","450","489752","0.0-1.0-623.0","0","0","92530","","null","","","null","69","","","","","","","","","","","","","","","",""
"","ISI","","html-keyboard-response","451","491757","0.0-1.0-624.0","0","0","92530","","null","","","null","69","NaN","","","","","","","","","","","","","","",""
"","S2","","html-keyboard-response","452","492009","0.0-1.0-625.0","0","0","92530","","null","","","null","69","","NaN","","","","","","","","","","","","","",""
"","response","","html-keyboard-response","453","492576","0.0-1.0-626.0","0","0","92530","","565","","","68","69","","","2","69","training","adjacent","BA","2","1","M.jpg","L.jpg","1","0","0","",""
"","feedback","","html-keyboard-response","454","493579","0.0-1.0-627.0-0.0","0","0","92530","","null","","","null","69","","","","","","","","","","","","","","","",""
"","time_out","","html-keyboard-response","455","495582","0.0-1.0-629.0-0.0","0","0","92530","","null","","","null","69","","","","","","","","","","","","","","","",""
"","ITI","","html-keyboard-response","456","496584","0.0-1.0-630.0","0","0","92530","","null","","","null","69","","","","","","","","","","","","","","","NaN",""
"","S1","","html-keyboard-response","457","496837","0.0-1.0-632.0","0","0","92530","","null","","","null","70","","","","","","","","","","","","","","","",""
"","ISI","","html-keyboard-response","458","498841","0.0-1.0-633.0","0","0","92530","","null","","","null","70","NaN","","","","","","","","","","","","","","",""
"","S2","","html-keyboard-response","459","499093","0.0-1.0-634.0","0","0","92530","","null","","","null","70","","NaN","","","","","","","","","","","","","",""
"","response","","html-keyboard-response","460","499539","0.0-1.0-635.0","0","0","92530","","444","","","75","70","","","2","70","training","adjacent","BA","2","1","M.jpg","L.jpg","0","0","1","",""
"","feedback","","html-keyboard-response","461","500542","0.0-1.0-636.0-0.0","0","0","92530","","null","","","null","70","","","","","","","","","","","","","","","",""
"","ITI","","html-keyboard-response","462","501544","0.0-1.0-639.0","0","0","92530","","null","","","null","70","","","","","","","","","","","","","","","NaN",""
"","S1","","html-keyboard-response","463","501797","0.0-1.0-641.0","0","0","92530","","null","","","null","71","","","","","","","","","","","","","","","",""
"","ISI","","html-keyboard-response","464","503800","0.0-1.0-642.0","0","0","92530","","null","","","null","71","NaN","","","","","","","","","","","","","","",""
"","S2","","html-keyboard-response","465","504053","0.0-1.0-643.0","0","0","92530","","null","","","null","71","","NaN","","","","","","","","","","","","","",""
"","response","","html-keyboard-response","466","504181","0.0-1.0-644.0","0","0","92530","","126","","","75","71","","","2","71","training","adjacent","GF","7","6","O.jpg","R.jpg","0","0","1","",""
"","feedback","","html-keyboard-response","467","505185","0.0-1.0-645.0-0.0","0","0","92530","","null","","","null","71","","","","","","","","","","","","","","","",""
"","ITI","","html-keyboard-response","468","506187","0.0-1.0-648.0","0","0","92530","","null","","","null","71","","","","","","","","","","","","","","","NaN",""
"","S1","","html-keyboard-response","469","506439","0.0-1.0-650.0","0","0","92530","","null","","","null","72","","","","","","","","","","","","","","","",""
"","ISI","","html-keyboard-response","470","508441","0.0-1.0-651.0","0","0","92530","","null","","","null","72","NaN","","","","","","","","","","","","","","",""
"","S2","","html-keyboard-response","471","508694","0.0-1.0-652.0","0","0","92530","","null","","","null","72","","NaN","","","","","","","","","","","","","",""
"","response","","html-keyboard-response","472","509218","0.0-1.0-653.0","0","0","92530","","523","","","75","72","","","2","72","training","adjacent","EF","5","6","P.jpg","R.jpg","0","1","0","",""
"","feedback","","html-keyboard-response","473","510235","0.0-1.0-654.0-0.0","0","0","92530","","null","","","null","72","","","","","","","","","","","","","","","",""
"","time_out","","html-keyboard-response","474","512238","0.0-1.0-656.0-0.0","0","0","92530","","null","","","null","72","","","","","","","","","","","","","","","",""
"","ITI","","html-keyboard-response","475","513240","0.0-1.0-657.0","0","0","92530","","null","","","null","72","","","","","","","","","","","","","","","NaN",""
"","S1","","html-keyboard-response","476","513497","0.0-1.0-659.0","0","0","92530","","null","","","null","73","","","","","","","","","","","","","","","",""
"","ISI","","html-keyboard-response","477","515501","0.0-1.0-660.0","0","0","92530","","null","","","null","73","NaN","","","","","","","","","","","","","","",""
"","S2","","html-keyboard-response","478","515753","0.0-1.0-661.0","0","0","92530","","null","","","null","73","","NaN","","","","","","","","","","","","","",""
"","response","","html-keyboard-response","479","516223","0.0-1.0-662.0","0","0","92530","","467","","","75","73","","","2","73","training","adjacent","FE","6","5","R.jpg","P.jpg","0","0","1","",""
"","feedback","","html-keyboard-response","480","517226","0.0-1.0-663.0-0.0","0","0","92530","","null","","","null","73","","","","","","","","","","","","","","","",""
"","ITI","","html-keyboard-response","481","518230","0.0-1.0-666.0","0","0","92530","","null","","","null","73","","","","","","","","","","","","","","","NaN",""
"","S1","","html-keyboard-response","482","518483","0.0-1.0-668.0","0","0","92530","","null","","","null","74","","","","","","","","","","","","","","","",""
"","ISI","","html-keyboard-response","483","520485","0.0-1.0-669.0","0","0","92530","","null","","","null","74","NaN","","","","","","","","","","","","","","",""
"","S2","","html-keyboard-response","484","520738","0.0-1.0-670.0","0","0","92530","","null","","","null","74","","NaN","","","","","","","","","","","","","",""
"","response","","html-keyboard-response","485","521193","0.0-1.0-671.0","0","0","92530","","453","","","68","74","","","2","74","training","adjacent","CD","3","4","Q.jpg","N.jpg","1","1","1","",""
"","feedback","","html-keyboard-response","486","522197","0.0-1.0-672.0-0.0","0","0","92530","","null","","","null","74","","","","","","","","","","","","","","","",""
"","ITI","","html-keyboard-response","487","523199","0.0-1.0-675.0","0","0","92530","","null","","","null","74","","","","","","","","","","","","","","","NaN",""
"","S1","","html-keyboard-response","488","523453","0.0-1.0-677.0","0","0","92530","","null","","","null","75","","","","","","","","","","","","","","","",""
"","ISI","","html-keyboard-response","489","525455","0.0-1.0-678.0","0","0","92530","","null","","","null","75","NaN","","","","","","","","","","","","","","",""
"","S2","","html-keyboard-response","490","525707","0.0-1.0-679.0","0","0","92530","","null","","","null","75","","NaN","","","","","","","","","","","","","",""
"","response","","html-keyboard-response","491","526122","0.0-1.0-680.0","0","0","92530","","413","","","75","75","","","2","75","training","adjacent","FG","6","7","R.jpg","O.jpg","0","1","0","",""
"","feedback","","html-keyboard-response","492","527125","0.0-1.0-681.0-0.0","0","0","92530","","null","","","null","75","","","","","","","","","","","","","","","",""
"","time_out","","html-keyboard-response","493","529127","0.0-1.0-683.0-0.0","0","0","92530","","null","","","null","75","","","","","","","","","","","","","","","",""
"","ITI","","html-keyboard-response","494","530144","0.0-1.0-684.0","0","0","92530","","null","","","null","75","","","","","","","","","","","","","","","NaN",""
"","S1","","html-keyboard-response","495","530398","0.0-1.0-686.0","0","0","92530","","null","","","null","76","","","","","","","","","","","","","","","",""
"","ISI","","html-keyboard-response","496","532400","0.0-1.0-687.0","0","0","92530","","null","","","null","76","NaN","","","","","","","","","","","","","","",""
"","S2","","html-keyboard-response","497","532652","0.0-1.0-688.0","0","0","92530","","null","","","null","76","","NaN","","","","","","","","","","","","","",""
"","response","","html-keyboard-response","498","533260","0.0-1.0-689.0","0","0","92530","","606","","","68","76","","","2","76","training","adjacent","GF","7","6","O.jpg","R.jpg","1","0","0","",""
"","feedback","","html-keyboard-response","499","534263","0.0-1.0-690.0-0.0","0","0","92530","","null","","","null","76","","","","","","","","","","","","","","","",""
"","time_out","","html-keyboard-response","500","536266","0.0-1.0-692.0-0.0","0","0","92530","","null","","","null","76","","","","","","","","","","","","","","","",""
"","ITI","","html-keyboard-response","501","537269","0.0-1.0-693.0","0","0","92530","","null","","","null","76","","","","","","","","","","","","","","","NaN",""
"","S1","","html-keyboard-response","502","537522","0.0-1.0-695.0","0","0","92530","","null","","","null","77","","","","","","","","","","","","","","","",""
"","ISI","","html-keyboard-response","503","539525","0.0-1.0-696.0","0","0","92530","","null","","","null","77","NaN","","","","","","","","","","","","","","",""
"","S2","","html-keyboard-response","504","539778","0.0-1.0-697.0","0","0","92530","","null","","","null","77","","NaN","","","","","","","","","","","","","",""
"","response","","html-keyboard-response","505","540023","0.0-1.0-698.0","0","0","92530","","243","","","75","77","","","2","77","training","adjacent","FG","6","7","R.jpg","O.jpg","0","1","0","",""
"","feedback","","html-keyboard-response","506","541025","0.0-1.0-699.0-0.0","0","0","92530","","null","","","null","77","","","","","","","","","","","","","","","",""
"","time_out","","html-keyboard-response","507","543028","0.0-1.0-701.0-0.0","0","0","92530","","null","","","null","77","","","","","","","","","","","","","","","",""
"","ITI","","html-keyboard-response","508","544034","0.0-1.0-702.0","0","0","92530","","null","","","null","77","","","","","","","","","","","","","","","NaN",""
"","S1","","html-keyboard-response","509","544287","0.0-1.0-704.0","0","0","92530","","null","","","null","78","","","","","","","","","","","","","","","",""
"","ISI","","html-keyboard-response","510","546291","0.0-1.0-705.0","0","0","92530","","null","","","null","78","NaN","","","","","","","","","","","","","","",""
"","S2","","html-keyboard-response","511","546545","0.0-1.0-706.0","0","0","92530","","null","","","null","78","","NaN","","","","","","","","","","","","","",""
"","response","","html-keyboard-response","512","546873","0.0-1.0-707.0","0","0","92530","","325","","","75","78","","","2","78","training","adjacent","DC","4","3","N.jpg","Q.jpg","0","0","1","",""
"","feedback","","html-keyboard-response","513","547881","0.0-1.0-708.0-0.0","0","0","92530","","null","","","null","78","","","","","","","","","","","","","","","",""
"","ITI","","html-keyboard-response","514","548890","0.0-1.0-711.0","0","0","92530","","null","","","null","78","","","","","","","","","","","","","","","NaN",""
"","S1","","html-keyboard-response","515","549143","0.0-1.0-713.0","0","0","92530","","null","","","null","79","","","","","","","","","","","","","","","",""
"","ISI","","html-keyboard-response","516","551146","0.0-1.0-714.0","0","0","92530","","null","","","null","79","NaN","","","","","","","","","","","","","","",""
"","S2","","html-keyboard-response","517","551397","0.0-1.0-715.0","0","0","92530","","null","","","null","79","","NaN","","","","","","","","","","","","","",""
"","response","","html-keyboard-response","518","551597","0.0-1.0-716.0","0","0","92530","","197","","","68","79","","","2","79","training","adjacent","CD","3","4","Q.jpg","N.jpg","1","1","1","",""
"","feedback","","html-keyboard-response","519","552599","0.0-1.0-717.0-0.0","0","0","92530","","null","","","null","79","","","","","","","","","","","","","","","",""
"","ITI","","html-keyboard-response","520","553601","0.0-1.0-720.0","0","0","92530","","null","","","null","79","","","","","","","","","","","","","","","NaN",""
"","S1","","html-keyboard-response","521","553854","0.0-1.0-722.0","0","0","92530","","null","","","null","80","","","","","","","","","","","","","","","",""
"","ISI","","html-keyboard-response","522","555856","0.0-1.0-723.0","0","0","92530","","null","","","null","80","NaN","","","","","","","","","","","","","","",""
"","S2","","html-keyboard-response","523","556109","0.0-1.0-724.0","0","0","92530","","null","","","null","80","","NaN","","","","","","","","","","","","","",""
"","response","","html-keyboard-response","524","556717","0.0-1.0-725.0","0","0","92530","","607","","","68","80","","","2","80","training","adjacent","EF","5","6","P.jpg","R.jpg","1","1","1","",""
"","feedback","","html-keyboard-response","525","557719","0.0-1.0-726.0-0.0","0","0","92530","","null","","","null","80","","","","","","","","","","","","","","","",""
"","ITI","","html-keyboard-response","526","558722","0.0-1.0-729.0","0","0","92530","","null","","","null","80","","","","","","","","","","","","","","","NaN",""
"","S1","","html-keyboard-response","527","558975","0.0-1.0-731.0","0","0","92530","","null","","","null","81","","","","","","","","","","","","","","","",""
"","ISI","","html-keyboard-response","528","560978","0.0-1.0-732.0","0","0","92530","","null","","","null","81","NaN","","","","","","","","","","","","","","",""
"","S2","","html-keyboard-response","529","561231","0.0-1.0-733.0","0","0","92530","","null","","","null","81","","NaN","","","","","","","","","","","","","",""
"","response","","html-keyboard-response","530","561746","0.0-1.0-734.0","0","0","92530","","513","","","75","81","","","2","81","training","adjacent","DE","4","5","N.jpg","P.jpg","0","1","0","",""
"","feedback","","html-keyboard-response","531","562749","0.0-1.0-735.0-0.0","0","0","92530","","null","","","null","81","","","","","","","","","","","","","","","",""
"","time_out","","html-keyboard-response","532","564753","0.0-1.0-737.0-0.0","0","0","92530","","null","","","null","81","","","","","","","","","","","","","","","",""
"","ITI","","html-keyboard-response","533","565755","0.0-1.0-738.0","0","0","92530","","null","","","null","81","","","","","","","","","","","","","","","NaN",""
"","S1","","html-keyboard-response","534","566006","0.0-1.0-740.0","0","0","92530","","null","","","null","82","","","","","","","","","","","","","","","",""
"","ISI","","html-keyboard-response","535","568009","0.0-1.0-741.0","0","0","92530","","null","","","null","82","NaN","","","","","","","","","","","","","","",""
"","S2","","html-keyboard-response","536","568261","0.0-1.0-742.0","0","0","92530","","null","","","null","82","","NaN","","","","","","","","","","","","","",""
"","response","","html-keyboard-response","537","568701","0.0-1.0-743.0","0","0","92530","","439","","","68","82","","","2","82","training","adjacent","ED","5","4","P.jpg","N.jpg","1","0","0","",""
"","feedback","","html-keyboard-response","538","569703","0.0-1.0-744.0-0.0","0","0","92530","","null","","","null","82","","","","","","","","","","","","","","","",""
"","time_out","","html-keyboard-response","539","571705","0.0-1.0-746.0-0.0","0","0","92530","","null","","","null","82","","","","","","","","","","","","","","","",""
"","ITI","","html-keyboard-response","540","572708","0.0-1.0-747.0","0","0","92530","","null","","","null","82","","","","","","","","","","","","","","","NaN",""
"","S1","","html-keyboard-response","541","572960","0.0-1.0-749.0","0","0","92530","","null","","","null","83","","","","","","","","","","","","","","","",""
"","ISI","","html-keyboard-response","542","574966","0.0-1.0-750.0","0","0","92530","","null","","","null","83","NaN","","","","","","","","","","","","","","",""
"","S2","","html-keyboard-response","543","575220","0.0-1.0-751.0","0","0","92530","","null","","","null","83","","NaN","","","","","","","","","","","","","",""
"","response","","html-keyboard-response","544","575659","0.0-1.0-752.0","0","0","92530","","438","","","75","83","","","2","83","training","adjacent","DE","4","5","N.jpg","P.jpg","0","1","0","",""
"","feedback","","html-keyboard-response","545","576662","0.0-1.0-753.0-0.0","0","0","92530","","null","","","null","83","","","","","","","","","","","","","","","",""
"","time_out","","html-keyboard-response","546","578665","0.0-1.0-755.0-0.0","0","0","92530","","null","","","null","83","","","","","","","","","","","","","","","",""
"","ITI","","html-keyboard-response","547","579668","0.0-1.0-756.0","0","0","92530","","null","","","null","83","","","","","","","","","","","","","","","NaN",""
"","S1","","html-keyboard-response","548","579920","0.0-1.0-758.0","0","0","92530","","null","","","null","84","","","","","","","","","","","","","","","",""
"","ISI","","html-keyboard-response","549","581928","0.0-1.0-759.0","0","0","92530","","null","","","null","84","NaN","","","","","","","","","","","","","","",""
"","S2","","html-keyboard-response","550","582180","0.0-1.0-760.0","0","0","92530","","null","","","null","84","","NaN","","","","","","","","","","","","","",""
"","response","","html-keyboard-response","551","582774","0.0-1.0-761.0","0","0","92530","","592","","","68","84","","","2","84","training","adjacent","BC","2","3","M.jpg","Q.jpg","1","1","1","",""
"","feedback","","html-keyboard-response","552","583776","0.0-1.0-762.0-0.0","0","0","92530","","null","","","null","84","","","","","","","","","","","","","","","",""
"","ITI","","html-keyboard-response","553","584779","0.0-1.0-765.0","0","0","92530","","null","","","null","84","","","","","","","","","","","","","","","NaN",""
"","S1","","html-keyboard-response","554","585031","0.0-1.0-767.0","0","0","92530","","null","","","null","85","","","","","","","","","","","","","","","",""
"","ISI","","html-keyboard-response","555","587033","0.0-1.0-768.0","0","0","92530","","null","","","null","85","NaN","","","","","","","","","","","","","","",""
"","S2","","html-keyboard-response","556","587285","0.0-1.0-769.0","0","0","92530","","null","","","null","85","","NaN","","","","","","","","","","","","","",""
"","response","","html-keyboard-response","557","587904","0.0-1.0-770.0","0","0","92530","","617","","","75","85","","","2","85","training","adjacent","CB","3","2","Q.jpg","M.jpg","0","0","1","",""
"","feedback","","html-keyboard-response","558","588914","0.0-1.0-771.0-0.0","0","0","92530","","null","","","null","85","","","","","","","","","","","","","","","",""
"","ITI","","html-keyboard-response","559","589928","0.0-1.0-774.0","0","0","92530","","null","","","null","85","","","","","","","","","","","","","","","NaN",""
"","S1","","html-keyboard-response","560","590181","0.0-1.0-776.0","0","0","92530","","null","","","null","86","","","","","","","","","","","","","","","",""
"","ISI","","html-keyboard-response","561","592184","0.0-1.0-777.0","0","0","92530","","null","","","null","86","NaN","","","","","","","","","","","","","","",""
"","S2","","html-keyboard-response","562","592437","0.0-1.0-778.0","0","0","92530","","null","","","null","86","","NaN","","","","","","","","","","","","","",""
"","response","","html-keyboard-response","563","592813","0.0-1.0-779.0","0","0","92530","","375","","","75","86","","","2","86","training","adjacent","CB","3","2","Q.jpg","M.jpg","0","0","1","",""
"","feedback","","html-keyboard-response","564","593817","0.0-1.0-780.0-0.0","0","0","92530","","null","","","null","86","","","","","","","","","","","","","","","",""
"","ITI","","html-keyboard-response","565","594821","0.0-1.0-783.0","0","0","92530","","null","","","null","86","","","","","","","","","","","","","","","NaN",""
"","S1","","html-keyboard-response","566","595073","0.0-1.0-785.0","0","0","92530","","null","","","null","87","","","","","","","","","","","","","","","",""
"","ISI","","html-keyboard-response","567","597076","0.0-1.0-786.0","0","0","92530","","null","","","null","87","NaN","","","","","","","","","","","","","","",""
"","S2","","html-keyboard-response","568","597333","0.0-1.0-787.0","0","0","92530","","null","","","null","87","","NaN","","","","","","","","","","","","","",""
"","response","","html-keyboard-response","569","597673","0.0-1.0-788.0","0","0","92530","","338","","","68","87","","","2","87","training","adjacent","BC","2","3","M.jpg","Q.jpg","1","1","1","",""
"","feedback","","html-keyboard-response","570","598676","0.0-1.0-789.0-0.0","0","0","92530","","null","","","null","87","","","","","","","","","","","","","","","",""
"","ITI","","html-keyboard-response","571","599678","0.0-1.0-792.0","0","0","92530","","null","","","null","87","","","","","","","","","","","","","","","NaN",""
"","S1","","html-keyboard-response","572","599933","0.0-1.0-794.0","0","0","92530","","null","","","null","88","","","","","","","","","","","","","","","",""
"","ISI","","html-keyboard-response","573","601936","0.0-1.0-795.0","0","0","92530","","null","","","null","88","NaN","","","","","","","","","","","","","","",""
"","S2","","html-keyboard-response","574","602191","0.0-1.0-796.0","0","0","92530","","null","","","null","88","","NaN","","","","","","","","","","","","","",""
"","response","","html-keyboard-response","575","602782","0.0-1.0-797.0","0","0","92530","","588","","","68","88","","","2","88","training","adjacent","CD","3","4","Q.jpg","N.jpg","1","1","1","",""
"","feedback","","html-keyboard-response","576","603785","0.0-1.0-798.0-0.0","0","0","92530","","null","","","null","88","","","","","","","","","","","","","","","",""
"","ITI","","html-keyboard-response","577","604790","0.0-1.0-801.0","0","0","92530","","null","","","null","88","","","","","","","","","","","","","","","NaN",""
"","S1","","html-keyboard-response","578","605042","0.0-1.0-803.0","0","0","92530","","null","","","null","89","","","","","","","","","","","","","","","",""
"","ISI","","html-keyboard-response","579","607044","0.0-1.0-804.0","0","0","92530","","null","","","null","89","NaN","","","","","","","","","","","","","","",""
"","S2","","html-keyboard-response","580","607297","0.0-1.0-805.0","0","0","92530","","null","","","null","89","","NaN","","","","","","","","","","","","","",""
"","response","","html-keyboard-response","581","607934","0.0-1.0-806.0","0","0","92530","","636","","","75","89","","","2","89","training","adjacent","ED","5","4","P.jpg","N.jpg","0","0","1","",""
"","feedback","","html-keyboard-response","582","608937","0.0-1.0-807.0-0.0","0","0","92530","","null","","","null","89","","","","","","","","","","","","","","","",""
"","ITI","","html-keyboard-response","583","609940","0.0-1.0-810.0","0","0","92530","","null","","","null","89","","","","","","","","","","","","","","","NaN",""
"","S1","","html-keyboard-response","584","610193","0.0-1.0-812.0","0","0","92530","","null","","","null","90","","","","","","","","","","","","","","","",""
"","ISI","","html-keyboard-response","585","612195","0.0-1.0-813.0","0","0","92530","","518","","","75","90","k","","","","","","","","","","","","","","",""
