"success","ttype","start_time","trial_type","trial_index","time_elapsed","internal_node_id","warning","missed_checkup","PID","view_history","rt","responses","repeat_instructions","key_press","index","keypress_isi","keypress_S2","block","trial_num","phase","group_type","pair_type","S1_stim","S2_stim","S1_img","S2_img","S1_chosen","S1_higher","accuracy","keypress_iti","total_bonus_tally"
"true","full_screen","d03032023hr1942","fullscreen","0","13559","0.0-0.0","0","0","97500","","","","","","","","","","","","","","","","","","","","","",""
"","instructions","","instructions","1","62729","0.0-1.0-0.0-0.0","0","0","97500","[{""page_index"":0,""viewing_time"":5920},{""page_index"":1,""viewing_time"":27130},{""page_index"":2,""viewing_time"":13417},{""page_index"":3,""viewing_time"":2701}]","49168","","","","","","","","","","","","","","","","","","","",""
"","comprehension_check","","survey-multi-choice","2","84428","0.0-1.0-0.0-1.0","0","0","97500","","21692","{""Q0"":""True"",""Q1"":""D"",""Q2"":""Only when the screen 'MAKE A CHOICE' is shown"",""Q3"":""Green mark"",""Q4"":""either D or K""}","1","","","","","","","","","","","","","","","","","",""
"","missed_instruction_checkup","","html-keyboard-response","3","87325","0.0-1.0-0.0-2.0-0.0","0","1","97500","","2894","","","32","","","","","","","","","","","","","","","","",""
"","instructions","","instructions","4","112181","0.0-1.0-0.1-0.1","0","0","97500","[{""page_index"":0,""viewing_time"":9174},{""page_index"":1,""viewing_time"":12448},{""page_index"":2,""viewing_time"":1970},{""page_index"":3,""viewing_time"":1262}]","24854","","","","","","","","","","","","","","","","","","","",""
"","comprehension_check","","survey-multi-choice","5","121520","0.0-1.0-0.1-1.1","0","0","97500","","9330","{""Q0"":""True"",""Q1"":""D"",""Q2"":""Only while the second image is shown"",""Q3"":""Green mark"",""Q4"":""either D or K""}","1","","","","","","","","","","","","","","","","","",""
"","missed_instruction_checkup","","html-keyboard-response","6","123360","0.0-1.0-0.1-2.1-0.1","0","1","97500","","1839","","","32","","","","","","","","","","","","","","","","",""
"","instructions","","instructions","7","157951","0.0-1.0-0.2-0.2","0","0","97500","[{""page_index"":0,""viewing_time"":1306},{""page_index"":1,""viewing_time"":24150},{""page_index"":2,""viewing_time"":7821},{""page_index"":3,""viewing_time"":1312}]","34589","","","","","","","","","","","","","","","","","","","",""
"","comprehension_check","","survey-multi-choice","8","180982","0.0-1.0-0.2-1.2","0","0","97500","","23025","{""Q0"":""True"",""Q1"":""D"",""Q2"":""Once the second image appears and while the screen 'MAKE A CHOICE' is shown"",""Q3"":""Green mark"",""Q4"":""either D or K""}","0","","","","","","","","","","","","","","","","","",""
"","start_exp","","html-keyboard-response","9","182851","0.0-1.0-1.0","0","0","97500","","1868","","","32","","","","","","","","","","","","","","","","",""
"","S1","","html-keyboard-response","10","183104","0.0-1.0-2.0","0","0","97500","","null","","","null","0","","","","","","","","","","","","","","","",""
"","ISI","","html-keyboard-response","11","183606","0.0-1.0-3.0","0","0","97500","","null","","","null","0","NaN","","","","","","","","","","","","","","",""
"","S2","","html-keyboard-response","12","183858","0.0-1.0-4.0","0","0","97500","","null","","","null","0","","NaN","","","","","","","","","","","","","",""
"","response","","html-keyboard-response","13","184697","0.0-1.0-5.0-0.0","0","0","97500","","837","","","68","0","","","1","0","training","adjacent","BC","2","3","O.jpg","P.jpg","1","1","1","",""
"","feedback","","html-keyboard-response","14","185700","0.0-1.0-6.0-0.0","0","0","97500","","null","","","null","0","","","","","","","","","","","","","","","",""
"","ITI","","html-keyboard-response","15","186702","0.0-1.0-9.0","0","0","97500","","null","","","null","0","","","","","","","","","","","","","","","NaN",""
"","S1","","html-keyboard-response","16","186954","0.0-1.0-11.0","0","0","97500","","null","","","null","1","","","","","","","","","","","","","","","",""
"","ISI","","html-keyboard-response","17","187456","0.0-1.0-12.0","0","0","97500","","null","","","null","1","NaN","","","","","","","","","","","","","","",""
"","S2","","html-keyboard-response","18","187708","0.0-1.0-13.0","0","0","97500","","null","","","null","1","","NaN","","","","","","","","","","","","","",""
"","response","","html-keyboard-response","19","188357","0.0-1.0-14.0-0.0","0","0","97500","","648","","","68","1","","","1","1","training","adjacent","DE","4","5","Q.jpg","R.jpg","1","1","1","",""
"","feedback","","html-keyboard-response","20","189358","0.0-1.0-15.0-0.0","0","0","97500","","null","","","null","1","","","","","","","","","","","","","","","",""
"","ITI","","html-keyboard-response","21","190361","0.0-1.0-18.0","0","0","97500","","null","","","null","1","","","","","","","","","","","","","","","NaN",""
"","S1","","html-keyboard-response","22","190613","0.0-1.0-20.0","0","0","97500","","null","","","null","2","","","","","","","","","","","","","","","",""
"","ISI","","html-keyboard-response","23","191115","0.0-1.0-21.0","0","0","97500","","null","","","null","2","NaN","","","","","","","","","","","","","","",""
"","S2","","html-keyboard-response","24","191367","0.0-1.0-22.0","0","0","97500","","null","","","null","2","","NaN","","","","","","","","","","","","","",""
"","response","","html-keyboard-response","25","191857","0.0-1.0-23.0-0.0","0","0","97500","","488","","","75","2","","","1","2","training","adjacent","CD","3","4","P.jpg","Q.jpg","0","1","0","",""
"","feedback","","html-keyboard-response","26","192859","0.0-1.0-24.0-0.0","0","0","97500","","null","","","null","2","","","","","","","","","","","","","","","",""
"","time_out","","html-keyboard-response","27","194861","0.0-1.0-26.0-0.0","0","0","97500","","null","","","null","2","","","","","","","","","","","","","","","",""
"","ITI","","html-keyboard-response","28","195863","0.0-1.0-27.0","0","0","97500","","null","","","null","2","","","","","","","","","","","","","","","NaN",""
"","S1","","html-keyboard-response","29","196115","0.0-1.0-29.0","0","0","97500","","null","","","null","3","","","","","","","","","","","","","","","",""
"","ISI","","html-keyboard-response","30","196617","0.0-1.0-30.0","0","0","97500","","null","","","null","3","NaN","","","","","","","","","","","","","","",""
"","S2","","html-keyboard-response","31","196869","0.0-1.0-31.0","0","0","97500","","null","","","null","3","","NaN","","","","","","","","","","","","","",""
"","response","","html-keyboard-response","32","197722","0.0-1.0-32.0-0.0","0","0","97500","","851","","","68","3","","","1","3","training","adjacent","BC","2","3","O.jpg","P.jpg","1","1","1","",""
"","feedback","","html-keyboard-response","33","198724","0.0-1.0-33.0-0.0","0","0","97500","","null","","","null","3","","","","","","","","","","","","","","","",""
"","ITI","","html-keyboard-response","34","199727","0.0-1.0-36.0","0","0","97500","","null","","","null","3","","","","","","","","","","","","","","","NaN",""
"","S1","","html-keyboard-response","35","199979","0.0-1.0-38.0","0","0","97500","","null","","","null","4","","","","","","","","","","","","","","","",""
"","ISI","","html-keyboard-response","36","200481","0.0-1.0-39.0","0","0","97500","","null","","","null","4","NaN","","","","","","","","","","","","","","",""
"","S2","","html-keyboard-response","37","200733","0.0-1.0-40.0","0","0","97500","","null","","","null","4","","NaN","","","","","","","","","","","","","",""
"","response","","html-keyboard-response","38","201274","0.0-1.0-41.0-0.0","0","0","97500","","540","","","68","4","","","1","4","training","adjacent","EF","5","6","R.jpg","N.jpg","1","1","1","",""
"","feedback","","html-keyboard-response","39","202276","0.0-1.0-42.0-0.0","0","0","97500","","null","","","null","4","","","","","","","","","","","","","","","",""
"","ITI","","html-keyboard-response","40","203278","0.0-1.0-45.0","0","0","97500","","null","","","null","4","","","","","","","","","","","","","","","NaN",""
"","S1","","html-keyboard-response","41","203531","0.0-1.0-47.0","0","0","97500","","null","","","null","5","","","","","","","","","","","","","","","",""
"","ISI","","html-keyboard-response","42","204033","0.0-1.0-48.0","0","0","97500","","null","","","null","5","NaN","","","","","","","","","","","","","","",""
"","S2","","html-keyboard-response","43","204285","0.0-1.0-49.0","0","0","97500","","null","","","null","5","","NaN","","","","","","","","","","","","","",""
"","response","","html-keyboard-response","44","204662","0.0-1.0-50.0-0.0","0","0","97500","","375","","","68","5","","","1","5","training","adjacent","CB","3","2","P.jpg","O.jpg","1","0","0","",""
"","feedback","","html-keyboard-response","45","205664","0.0-1.0-51.0-0.0","0","0","97500","","null","","","null","5","","","","","","","","","","","","","","","",""
"","time_out","","html-keyboard-response","46","207665","0.0-1.0-53.0-0.0","0","0","97500","","null","","","null","5","","","","","","","","","","","","","","","",""
"","ITI","","html-keyboard-response","47","208668","0.0-1.0-54.0","0","0","97500","","null","","","null","5","","","","","","","","","","","","","","","NaN",""
"","S1","","html-keyboard-response","48","208920","0.0-1.0-56.0","0","0","97500","","null","","","null","6","","","","","","","","","","","","","","","",""
"","ISI","","html-keyboard-response","49","209422","0.0-1.0-57.0","0","0","97500","","null","","","null","6","NaN","","","","","","","","","","","","","","",""
"","S2","","html-keyboard-response","50","209674","0.0-1.0-58.0","0","0","97500","","null","","","null","6","","NaN","","","","","","","","","","","","","",""
"","response","","html-keyboard-response","51","210528","0.0-1.0-59.0-0.0","0","0","97500","","853","","","68","6","","","1","6","training","adjacent","ED","5","4","R.jpg","Q.jpg","1","0","0","",""
"","feedback","","html-keyboard-response","52","211530","0.0-1.0-60.0-0.0","0","0","97500","","null","","","null","6","","","","","","","","","","","","","","","",""
"","time_out","","html-keyboard-response","53","213532","0.0-1.0-62.0-0.0","0","0","97500","","null","","","null","6","","","","","","","","","","","","","","","",""
"","ITI","","html-keyboard-response","54","214534","0.0-1.0-63.0","0","0","97500","","null","","","null","6","","","","","","","","","","","","","","","NaN",""
"","S1","","html-keyboard-response","55","214786","0.0-1.0-65.0","0","0","97500","","null","","","null","7","","","","","","","","","","","","","","","",""
"","ISI","","html-keyboard-response","56","215288","0.0-1.0-66.0","0","0","97500","","null","","","null","7","NaN","","","","","","","","","","","","","","",""
"","S2","","html-keyboard-response","57","215540","0.0-1.0-67.0","0","0","97500","","null","","","null","7","","NaN","","","","","","","","","","","","","",""
"","response","","html-keyboard-response","58","215943","0.0-1.0-68.0-0.0","0","0","97500","","401","","","75","7","","","1","7","training","adjacent","AB","1","2","L.jpg","O.jpg","0","1","0","",""
"","feedback","","html-keyboard-response","59","216945","0.0-1.0-69.0-0.0","0","0","97500","","null","","","null","7","","","","","","","","","","","","","","","",""
"","time_out","","html-keyboard-response","60","218946","0.0-1.0-71.0-0.0","0","0","97500","","null","","","null","7","","","","","","","","","","","","","","","",""
"","ITI","","html-keyboard-response","61","219948","0.0-1.0-72.0","0","0","97500","","null","","","null","7","","","","","","","","","","","","","","","NaN",""
"","S1","","html-keyboard-response","62","220200","0.0-1.0-74.0","0","0","97500","","null","","","null","8","","","","","","","","","","","","","","","",""
"","ISI","","html-keyboard-response","63","220703","0.0-1.0-75.0","0","0","97500","","null","","","null","8","NaN","","","","","","","","","","","","","","",""
"","S2","","html-keyboard-response","64","220955","0.0-1.0-76.0","0","0","97500","","null","","","null","8","","NaN","","","","","","","","","","","","","",""
"","response","","html-keyboard-response","65","221511","0.0-1.0-77.0-0.0","0","0","97500","","555","","","68","8","","","1","8","training","adjacent","FE","6","5","N.jpg","R.jpg","1","0","0","",""
"","feedback","","html-keyboard-response","66","222514","0.0-1.0-78.0-0.0","0","0","97500","","null","","","null","8","","","","","","","","","","","","","","","",""
"","time_out","","html-keyboard-response","67","224516","0.0-1.0-80.0-0.0","0","0","97500","","null","","","null","8","","","","","","","","","","","","","","","",""
"","ITI","","html-keyboard-response","68","225518","0.0-1.0-81.0","0","0","97500","","null","","","null","8","","","","","","","","","","","","","","","NaN",""
"","S1","","html-keyboard-response","69","225770","0.0-1.0-83.0","0","0","97500","","null","","","null","9","","","","","","","","","","","","","","","",""
"","ISI","","html-keyboard-response","70","226272","0.0-1.0-84.0","0","0","97500","","null","","","null","9","NaN","","","","","","","","","","","","","","",""
"","S2","","html-keyboard-response","71","226524","0.0-1.0-85.0","0","0","97500","","null","","","null","9","","NaN","","","","","","","","","","","","","",""
"","response","","html-keyboard-response","72","226776","0.0-1.0-86.0-0.0","0","0","97500","","250","","","68","9","","","1","9","training","adjacent","BA","2","1","O.jpg","L.jpg","1","0","0","",""
"","feedback","","html-keyboard-response","73","227778","0.0-1.0-87.0-0.0","0","0","97500","","null","","","null","9","","","","","","","","","","","","","","","",""
"","time_out","","html-keyboard-response","74","229780","0.0-1.0-89.0-0.0","0","0","97500","","null","","","null","9","","","","","","","","","","","","","","","",""
"","ITI","","html-keyboard-response","75","230782","0.0-1.0-90.0","0","0","97500","","null","","","null","9","","","","","","","","","","","","","","","NaN",""
"","S1","","html-keyboard-response","76","231035","0.0-1.0-92.0","0","0","97500","","null","","","null","10","","","","","","","","","","","","","","","",""
"","ISI","","html-keyboard-response","77","231537","0.0-1.0-93.0","0","0","97500","","null","","","null","10","NaN","","","","","","","","","","","","","","",""
"","S2","","html-keyboard-response","78","231789","0.0-1.0-94.0","0","0","97500","","null","","","null","10","","NaN","","","","","","","","","","","","","",""
"","response","","html-keyboard-response","79","232272","0.0-1.0-95.0-0.0","0","0","97500","","482","","","68","10","","","1","10","training","adjacent","FG","6","7","N.jpg","M.jpg","1","1","1","",""
"","feedback","","html-keyboard-response","80","233274","0.0-1.0-96.0-0.0","0","0","97500","","null","","","null","10","","","","","","","","","","","","","","","",""
"","ITI","","html-keyboard-response","81","234276","0.0-1.0-99.0","0","0","97500","","null","","","null","10","","","","","","","","","","","","","","","NaN",""
"","S1","","html-keyboard-response","82","234529","0.0-1.0-101.0","0","0","97500","","null","","","null","11","","","","","","","","","","","","","","","",""
"","ISI","","html-keyboard-response","83","235031","0.0-1.0-102.0","0","0","97500","","null","","","null","11","NaN","","","","","","","","","","","","","","",""
"","S2","","html-keyboard-response","84","235283","0.0-1.0-103.0","0","0","97500","","null","","","null","11","","NaN","","","","","","","","","","","","","",""
"","response","","html-keyboard-response","85","235927","0.0-1.0-104.0-0.0","0","0","97500","","643","","","68","11","","","1","11","training","adjacent","FE","6","5","N.jpg","R.jpg","1","0","0","",""
"","feedback","","html-keyboard-response","86","236929","0.0-1.0-105.0-0.0","0","0","97500","","null","","","null","11","","","","","","","","","","","","","","","",""
"","time_out","","html-keyboard-response","87","238930","0.0-1.0-107.0-0.0","0","0","97500","","null","","","null","11","","","","","","","","","","","","","","","",""
"","ITI","","html-keyboard-response","88","239932","0.0-1.0-108.0","0","0","97500","","null","","","null","11","","","","","","","","","","","","","","","NaN",""
"","S1","","html-keyboard-response","89","240184","0.0-1.0-110.0","0","0","97500","","null","","","null","12","","","","","","","","","","","","","","","",""
"","ISI","","html-keyboard-response","90","240686","0.0-1.0-111.0","0","0","97500","","null","","","null","12","NaN","","","","","","","","","","","","","","",""
"","S2","","html-keyboard-response","91","240938","0.0-1.0-112.0","0","0","97500","","null","","","null","12","","NaN","","","","","","","","","","","","","",""
"","response","","html-keyboard-response","92","241261","0.0-1.0-113.0-0.0","0","0","97500","","322","","","75","12","","","1","12","training","adjacent","DE","4","5","Q.jpg","R.jpg","0","1","0","",""
"","feedback","","html-keyboard-response","93","242269","0.0-1.0-114.0-0.0","0","0","97500","","null","","","null","12","","","","","","","","","","","","","","","",""
"","time_out","","html-keyboard-response","94","244271","0.0-1.0-116.0-0.0","0","0","97500","","null","","","null","12","","","","","","","","","","","","","","","",""
"","ITI","","html-keyboard-response","95","245273","0.0-1.0-117.0","0","0","97500","","null","","","null","12","","","","","","","","","","","","","","","NaN",""
"","S1","","html-keyboard-response","96","245525","0.0-1.0-119.0","0","0","97500","","null","","","null","13","","","","","","","","","","","","","","","",""
"","ISI","","html-keyboard-response","97","246027","0.0-1.0-120.0","0","0","97500","","null","","","null","13","NaN","","","","","","","","","","","","","","",""
"","S2","","html-keyboard-response","98","246279","0.0-1.0-121.0","0","0","97500","","null","","","null","13","","NaN","","","","","","","","","","","","","",""
"","response","","html-keyboard-response","99","246602","0.0-1.0-122.0-0.0","0","0","97500","","322","","","75","13","","","1","13","training","adjacent","AB","1","2","L.jpg","O.jpg","0","1","0","",""
"","feedback","","html-keyboard-response","100","247605","0.0-1.0-123.0-0.0","0","0","97500","","null","","","null","13","","","","","","","","","","","","","","","",""
"","time_out","","html-keyboard-response","101","249607","0.0-1.0-125.0-0.0","0","0","97500","","null","","","null","13","","","","","","","","","","","","","","","",""
"","ITI","","html-keyboard-response","102","250609","0.0-1.0-126.0","0","0","97500","","null","","","null","13","","","","","","","","","","","","","","","NaN",""
"","S1","","html-keyboard-response","103","250862","0.0-1.0-128.0","0","0","97500","","null","","","null","14","","","","","","","","","","","","","","","",""
"","ISI","","html-keyboard-response","104","251364","0.0-1.0-129.0","0","0","97500","","null","","","null","14","NaN","","","","","","","","","","","","","","",""
"","S2","","html-keyboard-response","105","251617","0.0-1.0-130.0","0","0","97500","","null","","","null","14","","NaN","","","","","","","","","","","","","",""
"","response","","html-keyboard-response","106","252009","0.0-1.0-131.0-0.0","0","0","97500","","392","","","75","14","","","1","14","training","adjacent","AB","1","2","L.jpg","O.jpg","0","1","0","",""
"","feedback","","html-keyboard-response","107","253011","0.0-1.0-132.0-0.0","0","0","97500","","null","","","null","14","","","","","","","","","","","","","","","",""
"","time_out","","html-keyboard-response","108","255012","0.0-1.0-134.0-0.0","0","0","97500","","null","","","null","14","","","","","","","","","","","","","","","",""
"","ITI","","html-keyboard-response","109","256015","0.0-1.0-135.0","0","0","97500","","null","","","null","14","","","","","","","","","","","","","","","NaN",""
"","S1","","html-keyboard-response","110","256267","0.0-1.0-137.0","0","0","97500","","null","","","null","15","","","","","","","","","","","","","","","",""
"","ISI","","html-keyboard-response","111","256769","0.0-1.0-138.0","0","0","97500","","null","","","null","15","NaN","","","","","","","","","","","","","","",""
"","S2","","html-keyboard-response","112","257021","0.0-1.0-139.0","0","0","97500","","null","","","null","15","","NaN","","","","","","","","","","","","","",""
"","response","","html-keyboard-response","113","257303","0.0-1.0-140.0-0.0","0","0","97500","","282","","","68","15","","","1","15","training","adjacent","DC","4","3","Q.jpg","P.jpg","1","0","0","",""
"","feedback","","html-keyboard-response","114","258305","0.0-1.0-141.0-0.0","0","0","97500","","null","","","null","15","","","","","","","","","","","","","","","",""
"","time_out","","html-keyboard-response","115","260308","0.0-1.0-143.0-0.0","0","0","97500","","null","","","null","15","","","","","","","","","","","","","","","",""
"","ITI","","html-keyboard-response","116","261310","0.0-1.0-144.0","0","0","97500","","null","","","null","15","","","","","","","","","","","","","","","NaN",""
"","S1","","html-keyboard-response","117","261562","0.0-1.0-146.0","0","0","97500","","null","","","null","16","","","","","","","","","","","","","","","",""
"","ISI","","html-keyboard-response","118","262064","0.0-1.0-147.0","0","0","97500","","null","","","null","16","NaN","","","","","","","","","","","","","","",""
"","S2","","html-keyboard-response","119","262316","0.0-1.0-148.0","0","0","97500","","null","","","null","16","","NaN","","","","","","","","","","","","","",""
"","response","","html-keyboard-response","120","262902","0.0-1.0-149.0-0.0","0","0","97500","","584","","","68","16","","","1","16","training","adjacent","FG","6","7","N.jpg","M.jpg","1","1","1","",""
"","feedback","","html-keyboard-response","121","263904","0.0-1.0-150.0-0.0","0","0","97500","","null","","","null","16","","","","","","","","","","","","","","","",""
"","ITI","","html-keyboard-response","122","264907","0.0-1.0-153.0","0","0","97500","","null","","","null","16","","","","","","","","","","","","","","","NaN",""
"","S1","","html-keyboard-response","123","265159","0.0-1.0-155.0","0","0","97500","","null","","","null","17","","","","","","","","","","","","","","","",""
"","ISI","","html-keyboard-response","124","265661","0.0-1.0-156.0","0","0","97500","","null","","","null","17","NaN","","","","","","","","","","","","","","",""
"","S2","","html-keyboard-response","125","265913","0.0-1.0-157.0","0","0","97500","","null","","","null","17","","NaN","","","","","","","","","","","","","",""
"","response","","html-keyboard-response","126","266262","0.0-1.0-158.0-0.0","0","0","97500","","349","","","68","17","","","1","17","training","adjacent","CB","3","2","P.jpg","O.jpg","1","0","0","",""
"","feedback","","html-keyboard-response","127","267264","0.0-1.0-159.0-0.0","0","0","97500","","null","","","null","17","","","","","","","","","","","","","","","",""
"","time_out","","html-keyboard-response","128","269267","0.0-1.0-161.0-0.0","0","0","97500","","null","","","null","17","","","","","","","","","","","","","","","",""
"","ITI","","html-keyboard-response","129","270269","0.0-1.0-162.0","0","0","97500","","null","","","null","17","","","","","","","","","","","","","","","NaN",""
"","S1","","html-keyboard-response","130","270521","0.0-1.0-164.0","0","0","97500","","null","","","null","18","","","","","","","","","","","","","","","",""
"","ISI","","html-keyboard-response","131","271023","0.0-1.0-165.0","0","0","97500","","null","","","null","18","NaN","","","","","","","","","","","","","","",""
"","S2","","html-keyboard-response","132","271275","0.0-1.0-166.0","0","0","97500","","null","","","null","18","","NaN","","","","","","","","","","","","","",""
"","response","","html-keyboard-response","133","271834","0.0-1.0-167.0-0.0","0","0","97500","","557","","","68","18","","","1","18","training","adjacent","GF","7","6","M.jpg","N.jpg","1","0","0","",""
"","feedback","","html-keyboard-response","134","272836","0.0-1.0-168.0-0.0","0","0","97500","","null","","","null","18","","","","","","","","","","","","","","","",""
"","time_out","","html-keyboard-response","135","274838","0.0-1.0-170.0-0.0","0","0","97500","","null","","","null","18","","","","","","","","","","","","","","","",""
"","ITI","","html-keyboard-response","136","275854","0.0-1.0-171.0","0","0","97500","","null","","","null","18","","","","","","","","","","","","","","","NaN",""
"","S1","","html-keyboard-response","137","276106","0.0-1.0-173.0","0","0","97500","","null","","","null","19","","","","","","","","","","","","","","","",""
"","ISI","","html-keyboard-response","138","276608","0.0-1.0-174.0","0","0","97500","","null","","","null","19","NaN","","","","","","","","","","","","","","",""
"","S2","","html-keyboard-response","139","276861","0.0-1.0-175.0","0","0","97500","","null","","","null","19","","NaN","","","","","","","","","","","","","",""
"","response","","html-keyboard-response","140","277058","0.0-1.0-176.0-0.0","0","0","97500","","196","","","75","19","","","1","19","training","adjacent","AB","1","2","L.jpg","O.jpg","0","1","0","",""
"","feedback","","html-keyboard-response","141","278060","0.0-1.0-177.0-0.0","0","0","97500","","null","","","null","19","","","","","","","","","","","","","","","",""
"","time_out","","html-keyboard-response","142","280062","0.0-1.0-179.0-0.0","0","0","97500","","null","","","null","19","","","","","","","","","","","","","","","",""
"","ITI","","html-keyboard-response","143","281064","0.0-1.0-180.0","0","0","97500","","null","","","null","19","","","","","","","","","","","","","","","NaN",""
"","S1","","html-keyboard-response","144","281317","0.0-1.0-182.0","0","0","97500","","null","","","null","20","","","","","","","","","","","","","","","",""
"","ISI","","html-keyboard-response","145","281819","0.0-1.0-183.0","0","0","97500","","null","","","null","20","NaN","","","","","","","","","","","","","","",""
"","S2","","html-keyboard-response","146","282071","0.0-1.0-184.0","0","0","97500","","null","","","null","20","","NaN","","","","","","","","","","","","","",""
"","response","","html-keyboard-response","147","282364","0.0-1.0-185.0-0.0","0","0","97500","","292","","","68","20","","","1","20","training","adjacent","CD","3","4","P.jpg","Q.jpg","1","1","1","",""
"","feedback","","html-keyboard-response","148","283366","0.0-1.0-186.0-0.0","0","0","97500","","null","","","null","20","","","","","","","","","","","","","","","",""
"","ITI","","html-keyboard-response","149","284368","0.0-1.0-189.0","0","0","97500","","null","","","null","20","","","","","","","","","","","","","","","NaN",""
"","S1","","html-keyboard-response","150","284620","0.0-1.0-191.0","0","0","97500","","null","","","null","21","","","","","","","","","","","","","","","",""
"","ISI","","html-keyboard-response","151","285123","0.0-1.0-192.0","0","0","97500","","null","","","null","21","NaN","","","","","","","","","","","","","","",""
"","S2","","html-keyboard-response","152","285374","0.0-1.0-193.0","0","0","97500","","null","","","null","21","","NaN","","","","","","","","","","","","","",""
"","response","","html-keyboard-response","153","285437","0.0-1.0-194.0-0.0","0","0","97500","","61","","","68","21","","","1","21","training","adjacent","DC","4","3","Q.jpg","P.jpg","1","0","0","",""
"","feedback","","html-keyboard-response","154","286440","0.0-1.0-195.0-0.0","0","0","97500","","null","","","null","21","","","","","","","","","","","","","","","",""
"","time_out","","html-keyboard-response","155","288441","0.0-1.0-197.0-0.0","0","0","97500","","null","","","null","21","","","","","","","","","","","","","","","",""
"","ITI","","html-keyboard-response","156","289443","0.0-1.0-198.0","0","0","97500","","null","","","null","21","","","","","","","","","","","","","","","NaN",""
"","S1","","html-keyboard-response","157","289695","0.0-1.0-200.0","0","0","97500","","null","","","null","22","","","","","","","","","","","","","","","",""
"","ISI","","html-keyboard-response","158","290197","0.0-1.0-201.0","0","0","97500","","null","","","null","22","NaN","","","","","","","","","","","","","","",""
"","S2","","html-keyboard-response","159","290450","0.0-1.0-202.0","0","0","97500","","null","","","null","22","","NaN","","","","","","","","","","","","","",""
"","response","","html-keyboard-response","160","290650","0.0-1.0-203.0-0.0","0","0","97500","","199","","","68","22","","","1","22","training","adjacent","CD","3","4","P.jpg","Q.jpg","1","1","1","",""
"","feedback","","html-keyboard-response","161","291652","0.0-1.0-204.0-0.0","0","0","97500","","null","","","null","22","","","","","","","","","","","","","","","",""
"","ITI","","html-keyboard-response","162","292654","0.0-1.0-207.0","0","0","97500","","null","","","null","22","","","","","","","","","","","","","","","NaN",""
"","S1","","html-keyboard-response","163","292906","0.0-1.0-209.0","0","0","97500","","null","","","null","23","","","","","","","","","","","","","","","",""
"","ISI","","html-keyboard-response","164","293408","0.0-1.0-210.0","0","0","97500","","null","","","null","23","NaN","","","","","","","","","","","","","","",""
"","S2","","html-keyboard-response","165","293660","0.0-1.0-211.0","0","0","97500","","null","","","null","23","","NaN","","","","","","","","","","","","","",""
"","response","","html-keyboard-response","166","293964","0.0-1.0-212.0-0.0","0","0","97500","","303","","","68","23","","","1","23","training","adjacent","EF","5","6","R.jpg","N.jpg","1","1","1","",""
"","feedback","","html-keyboard-response","167","294967","0.0-1.0-213.0-0.0","0","0","97500","","null","","","null","23","","","","","","","","","","","","","","","",""
"","ITI","","html-keyboard-response","168","295969","0.0-1.0-216.0","0","0","97500","","null","","","null","23","","","","","","","","","","","","","","","NaN",""
"","S1","","html-keyboard-response","169","296221","0.0-1.0-218.0","0","0","97500","","null","","","null","24","","","","","","","","","","","","","","","",""
"","ISI","","html-keyboard-response","170","296723","0.0-1.0-219.0","0","0","97500","","null","","","null","24","NaN","","","","","","","","","","","","","","",""
"","S2","","html-keyboard-response","171","296975","0.0-1.0-220.0","0","0","97500","","null","","","null","24","","NaN","","","","","","","","","","","","","",""
"","response","","html-keyboard-response","172","297231","0.0-1.0-221.0-0.0","0","0","97500","","254","","","68","24","","","1","24","training","adjacent","FG","6","7","N.jpg","M.jpg","1","1","1","",""
"","feedback","","html-keyboard-response","173","298233","0.0-1.0-222.0-0.0","0","0","97500","","null","","","null","24","","","","","","","","","","","","","","","",""
"","ITI","","html-keyboard-response","174","299236","0.0-1.0-225.0","0","0","97500","","null","","","null","24","","","","","","","","","","","","","","","NaN",""
"","S1","","html-keyboard-response","175","299488","0.0-1.0-227.0","0","0","97500","","null","","","null","25","","","","","","","","","","","","","","","",""
"","ISI","","html-keyboard-response","176","299990","0.0-1.0-228.0","0","0","97500","","null","","","null","25","NaN","","","","","","","","","","","","","","",""
"","S2","","html-keyboard-response","177","300242","0.0-1.0-229.0","0","0","97500","","null","","","null","25","","NaN","","","","","","","","","","","","","",""
"","response","","html-keyboard-response","178","300702","0.0-1.0-230.0-0.0","0","0","97500","","459","","","68","25","","","1","25","training","adjacent","FE","6","5","N.jpg","R.jpg","1","0","0","",""
"","feedback","","html-keyboard-response","179","301704","0.0-1.0-231.0-0.0","0","0","97500","","null","","","null","25","","","","","","","","","","","","","","","",""
"","time_out","","html-keyboard-response","180","303707","0.0-1.0-233.0-0.0","0","0","97500","","null","","","null","25","","","","","","","","","","","","","","","",""
"","ITI","","html-keyboard-response","181","304709","0.0-1.0-234.0","0","0","97500","","null","","","null","25","","","","","","","","","","","","","","","NaN",""
"","S1","","html-keyboard-response","182","304961","0.0-1.0-236.0","0","0","97500","","null","","","null","26","","","","","","","","","","","","","","","",""
"","ISI","","html-keyboard-response","183","305463","0.0-1.0-237.0","0","0","97500","","null","","","null","26","NaN","","","","","","","","","","","","","","",""
"","S2","","html-keyboard-response","184","305715","0.0-1.0-238.0","0","0","97500","","null","","","null","26","","NaN","","","","","","","","","","","","","",""
"","response","","html-keyboard-response","185","305857","0.0-1.0-239.0-0.0","0","0","97500","","140","","","75","26","","","1","26","training","adjacent","FE","6","5","N.jpg","R.jpg","0","0","1","",""
"","feedback","","html-keyboard-response","186","306859","0.0-1.0-240.0-0.0","0","0","97500","","null","","","null","26","","","","","","","","","","","","","","","",""
"","ITI","","html-keyboard-response","187","307861","0.0-1.0-243.0","0","0","97500","","null","","","null","26","","","","","","","","","","","","","","","NaN",""
"","S1","","html-keyboard-response","188","308113","0.0-1.0-245.0","0","0","97500","","null","","","null","27","","","","","","","","","","","","","","","",""
"","ISI","","html-keyboard-response","189","308615","0.0-1.0-246.0","0","0","97500","","null","","","null","27","NaN","","","","","","","","","","","","","","",""
"","S2","","html-keyboard-response","190","308867","0.0-1.0-247.0","0","0","97500","","null","","","null","27","","NaN","","","","","","","","","","","","","",""
"","response","","html-keyboard-response","191","309224","0.0-1.0-248.0-0.0","0","0","97500","","355","","","68","27","","","1","27","training","adjacent","GF","7","6","M.jpg","N.jpg","1","0","0","",""
"","feedback","","html-keyboard-response","192","310227","0.0-1.0-249.0-0.0","0","0","97500","","null","","","null","27","","","","","","","","","","","","","","","",""
"","time_out","","html-keyboard-response","193","312230","0.0-1.0-251.0-0.0","0","0","97500","","null","","","null","27","","","","","","","","","","","","","","","",""
"","ITI","","html-keyboard-response","194","313232","0.0-1.0-252.0","0","0","97500","","null","","","null","27","","","","","","","","","","","","","","","NaN",""
"","S1","","html-keyboard-response","195","313484","0.0-1.0-254.0","0","0","97500","","null","","","null","28","","","","","","","","","","","","","","","",""
"","ISI","","html-keyboard-response","196","313986","0.0-1.0-255.0","0","0","97500","","null","","","null","28","NaN","","","","","","","","","","","","","","",""
"","S2","","html-keyboard-response","197","314238","0.0-1.0-256.0","0","0","97500","","null","","","null","28","","NaN","","","","","","","","","","","","","",""
"","response","","html-keyboard-response","198","314534","0.0-1.0-257.0-0.0","0","0","97500","","294","","","68","28","","","1","28","training","adjacent","BA","2","1","O.jpg","L.jpg","1","0","0","",""
"","feedback","","html-keyboard-response","199","315536","0.0-1.0-258.0-0.0","0","0","97500","","null","","","null","28","","","","","","","","","","","","","","","",""
"","time_out","","html-keyboard-response","200","317539","0.0-1.0-260.0-0.0","0","0","97500","","null","","","null","28","","","","","","","","","","","","","","","",""
"","ITI","","html-keyboard-response","201","318541","0.0-1.0-261.0","0","0","97500","","null","","","null","28","","","","","","","","","","","","","","","NaN",""
"","S1","","html-keyboard-response","202","318794","0.0-1.0-263.0","0","0","97500","","null","","","null","29","","","","","","","","","","","","","","","",""
"","ISI","","html-keyboard-response","203","319308","0.0-1.0-264.0","0","0","97500","","null","","","null","29","NaN","","","","","","","","","","","","","","",""
"","S2","","html-keyboard-response","204","319560","0.0-1.0-265.0","0","0","97500","","null","","","null","29","","NaN","","","","","","","","","","","","","",""
"","response","","html-keyboard-response","205","319805","0.0-1.0-266.0-0.0","0","0","97500","","243","","","68","29","","","1","29","training","adjacent","GF","7","6","M.jpg","N.jpg","1","0","0","",""
"","feedback","","html-keyboard-response","206","320807","0.0-1.0-267.0-0.0","0","0","97500","","null","","","null","29","","","","","","","","","","","","","","","",""
"","time_out","","html-keyboard-response","207","322810","0.0-1.0-269.0-0.0","0","0","97500","","null","","","null","29","","","","","","","","","","","","","","","",""
"","ITI","","html-keyboard-response","208","323812","0.0-1.0-270.0","0","0","97500","","null","","","null","29","","","","","","","","","","","","","","","NaN",""
"","S1","","html-keyboard-response","209","324064","0.0-1.0-272.0","0","0","97500","","null","","","null","30","","","","","","","","","","","","","","","",""
"","ISI","","html-keyboard-response","210","324566","0.0-1.0-273.0","0","0","97500","","null","","","null","30","NaN","","","","","","","","","","","","","","",""
"","S2","","html-keyboard-response","211","324818","0.0-1.0-274.0","0","0","97500","","null","","","null","30","","NaN","","","","","","","","","","","","","",""
"","response","","html-keyboard-response","212","325166","0.0-1.0-275.0-0.0","0","0","97500","","346","","","75","30","","","1","30","training","adjacent","EF","5","6","R.jpg","N.jpg","0","1","0","",""
"","feedback","","html-keyboard-response","213","326168","0.0-1.0-276.0-0.0","0","0","97500","","null","","","null","30","","","","","","","","","","","","","","","",""
"","time_out","","html-keyboard-response","214","328171","0.0-1.0-278.0-0.0","0","0","97500","","null","","","null","30","","","","","","","","","","","","","","","",""
"","ITI","","html-keyboard-response","215","329173","0.0-1.0-279.0","0","0","97500","","null","","","null","30","","","","","","","","","","","","","","","NaN",""
"","S1","","html-keyboard-response","216","329425","0.0-1.0-281.0","0","0","97500","","null","","","null","31","","","","","","","","","","","","","","","",""
"","ISI","","html-keyboard-response","217","329927","0.0-1.0-282.0","0","0","97500","","null","","","null","31","NaN","","","","","","","","","","","","","","",""
"","S2","","html-keyboard-response","218","330179","0.0-1.0-283.0","0","0","97500","","null","","","null","31","","NaN","","","","","","","","","","","","","",""
"","response","","html-keyboard-response","219","330425","0.0-1.0-284.0-0.0","0","0","97500","","244","","","68","31","","","1","31","training","adjacent","FG","6","7","N.jpg","M.jpg","1","1","1","",""
"","feedback","","html-keyboard-response","220","331428","0.0-1.0-285.0-0.0","0","0","97500","","null","","","null","31","","","","","","","","","","","","","","","",""
"","ITI","","html-keyboard-response","221","332430","0.0-1.0-288.0","0","0","97500","","null","","","null","31","","","","","","","","","","","","","","","NaN",""
"","S1","","html-keyboard-response","222","332682","0.0-1.0-290.0","0","0","97500","","null","","","null","32","","","","","","","","","","","","","","","",""
"","ISI","","html-keyboard-response","223","333184","0.0-1.0-291.0","0","0","97500","","null","","","null","32","NaN","","","","","","","","","","","","","","",""
"","S2","","html-keyboard-response","224","333436","0.0-1.0-292.0","0","0","97500","","null","","","null","32","","NaN","","","","","","","","","","","","","",""
"","response","","html-keyboard-response","225","333728","0.0-1.0-293.0-0.0","0","0","97500","","290","","","68","32","","","1","32","training","adjacent","BA","2","1","O.jpg","L.jpg","1","0","0","",""
"","feedback","","html-keyboard-response","226","334730","0.0-1.0-294.0-0.0","0","0","97500","","null","","","null","32","","","","","","","","","","","","","","","",""
"","time_out","","html-keyboard-response","227","336733","0.0-1.0-296.0-0.0","0","0","97500","","null","","","null","32","","","","","","","","","","","","","","","",""
"","ITI","","html-keyboard-response","228","337735","0.0-1.0-297.0","0","0","97500","","null","","","null","32","","","","","","","","","","","","","","","NaN",""
"","S1","","html-keyboard-response","229","337987","0.0-1.0-299.0","0","0","97500","","null","","","null","33","","","","","","","","","","","","","","","",""
"","ISI","","html-keyboard-response","230","338490","0.0-1.0-300.0","0","0","97500","","null","","","null","33","NaN","","","","","","","","","","","","","","",""
"","S2","","html-keyboard-response","231","338742","0.0-1.0-301.0","0","0","97500","","null","","","null","33","","NaN","","","","","","","","","","","","","",""
"","response","","html-keyboard-response","232","338933","0.0-1.0-302.0-0.0","0","0","97500","","190","","","68","33","","","1","33","training","adjacent","ED","5","4","R.jpg","Q.jpg","1","0","0","",""
"","feedback","","html-keyboard-response","233","339935","0.0-1.0-303.0-0.0","0","0","97500","","null","","","null","33","","","","","","","","","","","","","","","",""
"","time_out","","html-keyboard-response","234","341937","0.0-1.0-305.0-0.0","0","0","97500","","null","","","null","33","","","","","","","","","","","","","","","",""
"","ITI","","html-keyboard-response","235","342940","0.0-1.0-306.0","0","0","97500","","null","","","null","33","","","","","","","","","","","","","","","NaN",""
"","S1","","html-keyboard-response","236","343192","0.0-1.0-308.0","0","0","97500","","null","","","null","34","","","","","","","","","","","","","","","",""
"","ISI","","html-keyboard-response","237","343694","0.0-1.0-309.0","0","0","97500","","null","","","null","34","NaN","","","","","","","","","","","","","","",""
"","S2","","html-keyboard-response","238","343946","0.0-1.0-310.0","0","0","97500","","null","","","null","34","","NaN","","","","","","","","","","","","","",""
"","response","","html-keyboard-response","239","344284","0.0-1.0-311.0-0.0","0","0","97500","","337","","","68","34","","","1","34","training","adjacent","DE","4","5","Q.jpg","R.jpg","1","1","1","",""
"","feedback","","html-keyboard-response","240","345287","0.0-1.0-312.0-0.0","0","0","97500","","null","","","null","34","","","","","","","","","","","","","","","",""
"","ITI","","html-keyboard-response","241","346289","0.0-1.0-315.0","0","0","97500","","null","","","null","34","","","","","","","","","","","","","","","NaN",""
"","S1","","html-keyboard-response","242","346541","0.0-1.0-317.0","0","0","97500","","null","","","null","35","","","","","","","","","","","","","","","",""
"","ISI","","html-keyboard-response","243","347043","0.0-1.0-318.0","0","0","97500","","null","","","null","35","NaN","","","","","","","","","","","","","","",""
"","S2","","html-keyboard-response","244","347295","0.0-1.0-319.0","0","0","97500","","null","","","null","35","","NaN","","","","","","","","","","","","","",""
"","response","","html-keyboard-response","245","347621","0.0-1.0-320.0-0.0","0","0","97500","","324","","","75","35","","","1","35","training","adjacent","GF","7","6","M.jpg","N.jpg","0","0","1","",""
"","feedback","","html-keyboard-response","246","348627","0.0-1.0-321.0-0.0","0","0","97500","","null","","","null","35","","","","","","","","","","","","","","","",""
"","ITI","","html-keyboard-response","247","349629","0.0-1.0-324.0","0","0","97500","","null","","","null","35","","","","","","","","","","","","","","","NaN",""
"","S1","","html-keyboard-response","248","349881","0.0-1.0-326.0","0","0","97500","","null","","","null","36","","","","","","","","","","","","","","","",""
"","ISI","","html-keyboard-response","249","350384","0.0-1.0-327.0","0","0","97500","","null","","","null","36","NaN","","","","","","","","","","","","","","",""
"","S2","","html-keyboard-response","250","350636","0.0-1.0-328.0","0","0","97500","","null","","","null","36","","NaN","","","","","","","","","","","","","",""
"","response","","html-keyboard-response","251","351037","0.0-1.0-329.0-0.0","0","0","97500","","400","","","75","36","","","1","36","training","adjacent","CD","3","4","P.jpg","Q.jpg","0","1","0","",""
"","feedback","","html-keyboard-response","252","352040","0.0-1.0-330.0-0.0","0","0","97500","","null","","","null","36","","","","","","","","","","","","","","","",""
"","time_out","","html-keyboard-response","253","354042","0.0-1.0-332.0-0.0","0","0","97500","","null","","","null","36","","","","","","","","","","","","","","","",""
"","ITI","","html-keyboard-response","254","355045","0.0-1.0-333.0","0","0","97500","","null","","","null","36","","","","","","","","","","","","","","","NaN",""
"","S1","","html-keyboard-response","255","355297","0.0-1.0-335.0","0","0","97500","","null","","","null","37","","","","","","","","","","","","","","","",""
"","ISI","","html-keyboard-response","256","355799","0.0-1.0-336.0","0","0","97500","","null","","","null","37","NaN","","","","","","","","","","","","","","",""
"","S2","","html-keyboard-response","257","356051","0.0-1.0-337.0","0","0","97500","","null","","","null","37","","NaN","","","","","","","","","","","","","",""
"","response","","html-keyboard-response","258","356374","0.0-1.0-338.0-0.0","0","0","97500","","322","","","68","37","","","1","37","training","adjacent","BA","2","1","O.jpg","L.jpg","1","0","0","",""
"","feedback","","html-keyboard-response","259","357376","0.0-1.0-339.0-0.0","0","0","97500","","null","","","null","37","","","","","","","","","","","","","","","",""
"","time_out","","html-keyboard-response","260","359379","0.0-1.0-341.0-0.0","0","0","97500","","null","","","null","37","","","","","","","","","","","","","","","",""
"","ITI","","html-keyboard-response","261","360381","0.0-1.0-342.0","0","0","97500","","null","","","null","37","","","","","","","","","","","","","","","NaN",""
"","S1","","html-keyboard-response","262","360633","0.0-1.0-344.0","0","0","97500","","null","","","null","38","","","","","","","","","","","","","","","",""
"","ISI","","html-keyboard-response","263","361135","0.0-1.0-345.0","0","0","97500","","null","","","null","38","NaN","","","","","","","","","","","","","","",""
"","S2","","html-keyboard-response","264","361388","0.0-1.0-346.0","0","0","97500","","null","","","null","38","","NaN","","","","","","","","","","","","","",""
"","response","","html-keyboard-response","265","361744","0.0-1.0-347.0-0.0","0","0","97500","","355","","","68","38","","","1","38","training","adjacent","BC","2","3","O.jpg","P.jpg","1","1","1","",""
"","feedback","","html-keyboard-response","266","362747","0.0-1.0-348.0-0.0","0","0","97500","","null","","","null","38","","","","","","","","","","","","","","","",""
"","ITI","","html-keyboard-response","267","363749","0.0-1.0-351.0","0","0","97500","","null","","","null","38","","","","","","","","","","","","","","","NaN",""
"","S1","","html-keyboard-response","268","364001","0.0-1.0-353.0","0","0","97500","","null","","","null","39","","","","","","","","","","","","","","","",""
"","ISI","","html-keyboard-response","269","364503","0.0-1.0-354.0","0","0","97500","","null","","","null","39","NaN","","","","","","","","","","","","","","",""
"","S2","","html-keyboard-response","270","364755","0.0-1.0-355.0","0","0","97500","","null","","","null","39","","NaN","","","","","","","","","","","","","",""
"","response","","html-keyboard-response","271","364925","0.0-1.0-356.0-0.0","0","0","97500","","169","","","68","39","","","1","39","training","adjacent","BC","2","3","O.jpg","P.jpg","1","1","1","",""
"","feedback","","html-keyboard-response","272","365927","0.0-1.0-357.0-0.0","0","0","97500","","null","","","null","39","","","","","","","","","","","","","","","",""
"","ITI","","html-keyboard-response","273","366930","0.0-1.0-360.0","0","0","97500","","null","","","null","39","","","","","","","","","","","","","","","NaN",""
"","S1","","html-keyboard-response","274","367182","0.0-1.0-362.0","0","0","97500","","null","","","null","40","","","","","","","","","","","","","","","",""
"","ISI","","html-keyboard-response","275","367684","0.0-1.0-363.0","0","0","97500","","null","","","null","40","NaN","","","","","","","","","","","","","","",""
"","S2","","html-keyboard-response","276","367936","0.0-1.0-364.0","0","0","97500","","null","","","null","40","","NaN","","","","","","","","","","","","","",""
"","response","","html-keyboard-response","277","368198","0.0-1.0-365.0-0.0","0","0","97500","","260","","","68","40","","","1","40","training","adjacent","CB","3","2","P.jpg","O.jpg","1","0","0","",""
"","feedback","","html-keyboard-response","278","369200","0.0-1.0-366.0-0.0","0","0","97500","","null","","","null","40","","","","","","","","","","","","","","","",""
"","time_out","","html-keyboard-response","279","371201","0.0-1.0-368.0-0.0","0","0","97500","","null","","","null","40","","","","","","","","","","","","","","","",""
"","ITI","","html-keyboard-response","280","372203","0.0-1.0-369.0","0","0","97500","","null","","","null","40","","","","","","","","","","","","","","","NaN",""
"","S1","","html-keyboard-response","281","372456","0.0-1.0-371.0","0","0","97500","","null","","","null","41","","","","","","","","","","","","","","","",""
"","ISI","","html-keyboard-response","282","372958","0.0-1.0-372.0","0","0","97500","","null","","","null","41","NaN","","","","","","","","","","","","","","",""
"","S2","","html-keyboard-response","283","373210","0.0-1.0-373.0","0","0","97500","","null","","","null","41","","NaN","","","","","","","","","","","","","",""
"","response","","html-keyboard-response","284","373424","0.0-1.0-374.0-0.0","0","0","97500","","213","","","75","41","","","1","41","training","adjacent","DC","4","3","Q.jpg","P.jpg","0","0","1","",""
"","feedback","","html-keyboard-response","285","374426","0.0-1.0-375.0-0.0","0","0","97500","","null","","","null","41","","","","","","","","","","","","","","","",""
"","ITI","","html-keyboard-response","286","375428","0.0-1.0-378.0","0","0","97500","","null","","","null","41","","","","","","","","","","","","","","","NaN",""
"","S1","","html-keyboard-response","287","375680","0.0-1.0-380.0","0","0","97500","","null","","","null","42","","","","","","","","","","","","","","","",""
"","ISI","","html-keyboard-response","288","376182","0.0-1.0-381.0","0","0","97500","","null","","","null","42","NaN","","","","","","","","","","","","","","",""
"","S2","","html-keyboard-response","289","376434","0.0-1.0-382.0","0","0","97500","","null","","","null","42","","NaN","","","","","","","","","","","","","",""
"","response","","html-keyboard-response","290","376764","0.0-1.0-383.0-0.0","0","0","97500","","328","","","68","42","","","1","42","training","adjacent","ED","5","4","R.jpg","Q.jpg","1","0","0","",""
"","feedback","","html-keyboard-response","291","377767","0.0-1.0-384.0-0.0","0","0","97500","","null","","","null","42","","","","","","","","","","","","","","","",""
"","time_out","","html-keyboard-response","292","379769","0.0-1.0-386.0-0.0","0","0","97500","","null","","","null","42","","","","","","","","","","","","","","","",""
"","ITI","","html-keyboard-response","293","380771","0.0-1.0-387.0","0","0","97500","","null","","","null","42","","","","","","","","","","","","","","","NaN",""
"","S1","","html-keyboard-response","294","381023","0.0-1.0-389.0","0","0","97500","","null","","","null","43","","","","","","","","","","","","","","","",""
"","ISI","","html-keyboard-response","295","381525","0.0-1.0-390.0","0","0","97500","","null","","","null","43","NaN","","","","","","","","","","","","","","",""
"","S2","","html-keyboard-response","296","381777","0.0-1.0-391.0","0","0","97500","","null","","","null","43","","NaN","","","","","","","","","","","","","",""
"","response","","html-keyboard-response","297","382055","0.0-1.0-392.0-0.0","0","0","97500","","275","","","68","43","","","1","43","training","adjacent","DC","4","3","Q.jpg","P.jpg","1","0","0","",""
"","feedback","","html-keyboard-response","298","383056","0.0-1.0-393.0-0.0","0","0","97500","","null","","","null","43","","","","","","","","","","","","","","","",""
"","time_out","","html-keyboard-response","299","385058","0.0-1.0-395.0-0.0","0","0","97500","","null","","","null","43","","","","","","","","","","","","","","","",""
"","ITI","","html-keyboard-response","300","386060","0.0-1.0-396.0","0","0","97500","","null","","","null","43","","","","","","","","","","","","","","","NaN",""
"","S1","","html-keyboard-response","301","386312","0.0-1.0-398.0","0","0","97500","","null","","","null","44","","","","","","","","","","","","","","","",""
"","ISI","","html-keyboard-response","302","386814","0.0-1.0-399.0","0","0","97500","","null","","","null","44","NaN","","","","","","","","","","","","","","",""
"","S2","","html-keyboard-response","303","387066","0.0-1.0-400.0","0","0","97500","","null","","","null","44","","NaN","","","","","","","","","","","","","",""
"","response","","html-keyboard-response","304","387716","0.0-1.0-401.0-0.0","0","0","97500","","648","","","75","44","","","1","44","training","adjacent","EF","5","6","R.jpg","N.jpg","0","1","0","",""
"","feedback","","html-keyboard-response","305","388719","0.0-1.0-402.0-0.0","0","0","97500","","null","","","null","44","","","","","","","","","","","","","","","",""
"","time_out","","html-keyboard-response","306","390722","0.0-1.0-404.0-0.0","0","0","97500","","null","","","null","44","","","","","","","","","","","","","","","",""
"","ITI","","html-keyboard-response","307","391723","0.0-1.0-405.0","0","0","97500","","null","","","null","44","","","","","","","","","","","","","","","NaN",""
"","S1","","html-keyboard-response","308","391976","0.0-1.0-407.0","0","0","97500","","null","","","null","45","","","","","","","","","","","","","","","",""
"","ISI","","html-keyboard-response","309","392478","0.0-1.0-408.0","0","0","97500","","null","","","null","45","NaN","","","","","","","","","","","","","","",""
"","S2","","html-keyboard-response","310","392730","0.0-1.0-409.0","0","0","97500","","null","","","null","45","","NaN","","","","","","","","","","","","","",""
"","response","","html-keyboard-response","311","392956","0.0-1.0-410.0-0.0","0","0","97500","","225","","","68","45","","","1","45","training","adjacent","ED","5","4","R.jpg","Q.jpg","1","0","0","",""
"","feedback","","html-keyboard-response","312","393958","0.0-1.0-411.0-0.0","0","0","97500","","null","","","null","45","","","","","","","","","","","","","","","",""
"","time_out","","html-keyboard-response","313","395960","0.0-1.0-413.0-0.0","0","0","97500","","null","","","null","45","","","","","","","","","","","","","","","",""
"","ITI","","html-keyboard-response","314","396963","0.0-1.0-414.0","0","0","97500","","null","","","null","45","","","","","","","","","","","","","","","NaN",""
"","S1","","html-keyboard-response","315","397215","0.0-1.0-416.0","0","0","97500","","null","","","null","46","","","","","","","","","","","","","","","",""
"","ISI","","html-keyboard-response","316","397717","0.0-1.0-417.0","0","0","97500","","null","","","null","46","NaN","","","","","","","","","","","","","","",""
"","S2","","html-keyboard-response","317","397969","0.0-1.0-418.0","0","0","97500","","null","","","null","46","","NaN","","","","","","","","","","","","","",""
"","response","","html-keyboard-response","318","398121","0.0-1.0-419.0-0.0","0","0","97500","","151","","","68","46","","","1","46","training","adjacent","DE","4","5","Q.jpg","R.jpg","1","1","1","",""
"","feedback","","html-keyboard-response","319","399123","0.0-1.0-420.0-0.0","0","0","97500","","null","","","null","46","","","","","","","","","","","","","","","",""
"","ITI","","html-keyboard-response","320","400127","0.0-1.0-423.0","0","0","97500","","null","","","null","46","","","","","","","","","","","","","","","NaN",""
"","S1","","html-keyboard-response","321","400379","0.0-1.0-425.0","0","0","97500","","null","","","null","47","","","","","","","","","","","","","","","",""
"","ISI","","html-keyboard-response","322","400881","0.0-1.0-426.0","0","0","97500","","null","","","null","47","NaN","","","","","","","","","","","","","","",""
"","S2","","html-keyboard-response","323","401133","0.0-1.0-427.0","0","0","97500","","null","","","null","47","","NaN","","","","","","","","","","","","","",""
"","response","","html-keyboard-response","324","401577","0.0-1.0-428.0-0.0","0","0","97500","","442","","","75","47","","","1","47","training","adjacent","CB","3","2","P.jpg","O.jpg","0","0","1","",""
"","feedback","","html-keyboard-response","325","402580","0.0-1.0-429.0-0.0","0","0","97500","","null","","","null","47","","","","","","","","","","","","","","","",""
"","ITI","","html-keyboard-response","326","403582","0.0-1.0-432.0","0","0","97500","","null","","","null","47","","","","","","","","","","","","","","","NaN",""
"","block_over","","html-keyboard-response","327","408643","0.0-1.0-433.0-0.0","0","0","97500","","5059","","","32","47","","","","","","","","","","","","","","","",""
"","S1","","html-keyboard-response","328","408895","0.0-1.0-434.0","0","0","97500","","null","","","null","48","","","","","","","","","","","","","","","",""
"","ISI","","html-keyboard-response","329","409397","0.0-1.0-435.0","0","0","97500","","null","","","null","48","NaN","","","","","","","","","","","","","","",""
"","S2","","html-keyboard-response","330","409650","0.0-1.0-436.0","0","0","97500","","null","","","null","48","","NaN","","","","","","","","","","","","","",""
"","response","","html-keyboard-response","331","409945","0.0-1.0-437.0-0.0","0","0","97500","","293","","","68","48","","","2","48","training","adjacent","FG","6","7","N.jpg","M.jpg","1","1","1","",""
"","feedback","","html-keyboard-response","332","410947","0.0-1.0-438.0-0.0","0","0","97500","","null","","","null","48","","","","","","","","","","","","","","","",""
"","ITI","","html-keyboard-response","333","411950","0.0-1.0-441.0","0","0","97500","","null","","","null","48","","","","","","","","","","","","","","","NaN",""
"","S1","","html-keyboard-response","334","412202","0.0-1.0-443.0","0","0","97500","","null","","","null","49","","","","","","","","","","","","","","","",""
"","ISI","","html-keyboard-response","335","412704","0.0-1.0-444.0","0","0","97500","","null","","","null","49","NaN","","","","","","","","","","","","","","",""
"","S2","","html-keyboard-response","336","412956","0.0-1.0-445.0","0","0","97500","","null","","","null","49","","NaN","","","","","","","","","","","","","",""
"","response","","html-keyboard-response","337","413201","0.0-1.0-446.0-0.0","0","0","97500","","244","","","75","49","","","2","49","training","adjacent","CB","3","2","P.jpg","O.jpg","0","0","1","",""
"","feedback","","html-keyboard-response","338","414203","0.0-1.0-447.0-0.0","0","0","97500","","null","","","null","49","","","","","","","","","","","","","","","",""
"","ITI","","html-keyboard-response","339","415206","0.0-1.0-450.0","0","0","97500","","null","","","null","49","","","","","","","","","","","","","","","NaN",""
"","S1","","html-keyboard-response","340","415458","0.0-1.0-452.0","0","0","97500","","null","","","null","50","","","","","","","","","","","","","","","",""
"","ISI","","html-keyboard-response","341","415960","0.0-1.0-453.0","0","0","97500","","null","","","null","50","NaN","","","","","","","","","","","","","","",""
"","S2","","html-keyboard-response","342","416213","0.0-1.0-454.0","0","0","97500","","null","","","null","50","","NaN","","","","","","","","","","","","","",""
"","response","","html-keyboard-response","343","416562","0.0-1.0-455.0-0.0","0","0","97500","","348","","","68","50","","","2","50","training","adjacent","BC","2","3","O.jpg","P.jpg","1","1","1","",""
"","feedback","","html-keyboard-response","344","417565","0.0-1.0-456.0-0.0","0","0","97500","","null","","","null","50","","","","","","","","","","","","","","","",""
"","ITI","","html-keyboard-response","345","418567","0.0-1.0-459.0","0","0","97500","","null","","","null","50","","","","","","","","","","","","","","","NaN",""
"","S1","","html-keyboard-response","346","418819","0.0-1.0-461.0","0","0","97500","","null","","","null","51","","","","","","","","","","","","","","","",""
"","ISI","","html-keyboard-response","347","419321","0.0-1.0-462.0","0","0","97500","","null","","","null","51","NaN","","","","","","","","","","","","","","",""
"","S2","","html-keyboard-response","348","419573","0.0-1.0-463.0","0","0","97500","","null","","","null","51","","NaN","","","","","","","","","","","","","",""
"","response","","html-keyboard-response","349","419910","0.0-1.0-464.0-0.0","0","0","97500","","335","","","68","51","","","2","51","training","adjacent","DE","4","5","Q.jpg","R.jpg","1","1","1","",""
"","feedback","","html-keyboard-response","350","420913","0.0-1.0-465.0-0.0","0","0","97500","","null","","","null","51","","","","","","","","","","","","","","","",""
"","ITI","","html-keyboard-response","351","421915","0.0-1.0-468.0","0","0","97500","","null","","","null","51","","","","","","","","","","","","","","","NaN",""
"","S1","","html-keyboard-response","352","422167","0.0-1.0-470.0","0","0","97500","","null","","","null","52","","","","","","","","","","","","","","","",""
"","ISI","","html-keyboard-response","353","422669","0.0-1.0-471.0","0","0","97500","","null","","","null","52","NaN","","","","","","","","","","","","","","",""
"","S2","","html-keyboard-response","354","422921","0.0-1.0-472.0","0","0","97500","","null","","","null","52","","NaN","","","","","","","","","","","","","",""
"","response","","html-keyboard-response","355","423423","0.0-1.0-473.0-0.0","0","0","97500","","500","","","68","52","","","2","52","training","adjacent","EF","5","6","R.jpg","N.jpg","1","1","1","",""
"","feedback","","html-keyboard-response","356","424425","0.0-1.0-474.0-0.0","0","0","97500","","null","","","null","52","","","","","","","","","","","","","","","",""
"","ITI","","html-keyboard-response","357","425428","0.0-1.0-477.0","0","0","97500","","null","","","null","52","","","","","","","","","","","","","","","NaN",""
"","S1","","html-keyboard-response","358","425680","0.0-1.0-479.0","0","0","97500","","null","","","null","53","","","","","","","","","","","","","","","",""
"","ISI","","html-keyboard-response","359","426182","0.0-1.0-480.0","0","0","97500","","null","","","null","53","NaN","","","","","","","","","","","","","","",""
"","S2","","html-keyboard-response","360","426434","0.0-1.0-481.0","0","0","97500","","null","","","null","53","","NaN","","","","","","","","","","","","","",""
"","response","","html-keyboard-response","361","426783","0.0-1.0-482.0-0.0","0","0","97500","","347","","","75","53","","","2","53","training","adjacent","GF","7","6","M.jpg","N.jpg","0","0","1","",""
"","feedback","","html-keyboard-response","362","427785","0.0-1.0-483.0-0.0","0","0","97500","","null","","","null","53","","","","","","","","","","","","","","","",""
"","ITI","","html-keyboard-response","363","428787","0.0-1.0-486.0","0","0","97500","","null","","","null","53","","","","","","","","","","","","","","","NaN",""
"","S1","","html-keyboard-response","364","429039","0.0-1.0-488.0","0","0","97500","","null","","","null","54","","","","","","","","","","","","","","","",""
"","ISI","","html-keyboard-response","365","429541","0.0-1.0-489.0","0","0","97500","","null","","","null","54","NaN","","","","","","","","","","","","","","",""
"","S2","","html-keyboard-response","366","429794","0.0-1.0-490.0","0","0","97500","","null","","","null","54","","NaN","","","","","","","","","","","","","",""
"","response","","html-keyboard-response","367","430030","0.0-1.0-491.0-0.0","0","0","97500","","235","","","75","54","","","2","54","training","adjacent","GF","7","6","M.jpg","N.jpg","0","0","1","",""
"","feedback","","html-keyboard-response","368","431032","0.0-1.0-492.0-0.0","0","0","97500","","null","","","null","54","","","","","","","","","","","","","","","",""
"","ITI","","html-keyboard-response","369","432034","0.0-1.0-495.0","0","0","97500","","null","","","null","54","","","","","","","","","","","","","","","NaN",""
"","S1","","html-keyboard-response","370","432286","0.0-1.0-497.0","0","0","97500","","null","","","null","55","","","","","","","","","","","","","","","",""
"","ISI","","html-keyboard-response","371","432788","0.0-1.0-498.0","0","0","97500","","null","","","null","55","NaN","","","","","","","","","","","","","","",""
"","S2","","html-keyboard-response","372","433040","0.0-1.0-499.0","0","0","97500","","null","","","null","55","","NaN","","","","","","","","","","","","","",""
"","response","","html-keyboard-response","373","433247","0.0-1.0-500.0-0.0","0","0","97500","","205","","","68","55","","","2","55","training","adjacent","FG","6","7","N.jpg","M.jpg","1","1","1","",""
"","feedback","","html-keyboard-response","374","434250","0.0-1.0-501.0-0.0","0","0","97500","","null","","","null","55","","","","","","","","","","","","","","","",""
"","ITI","","html-keyboard-response","375","435252","0.0-1.0-504.0","0","0","97500","","null","","","null","55","","","","","","","","","","","","","","","NaN",""
"","S1","","html-keyboard-response","376","435504","0.0-1.0-506.0","0","0","97500","","null","","","null","56","","","","","","","","","","","","","","","",""
"","ISI","","html-keyboard-response","377","436006","0.0-1.0-507.0","0","0","97500","","null","","","null","56","NaN","","","","","","","","","","","","","","",""
"","S2","","html-keyboard-response","378","436258","0.0-1.0-508.0","0","0","97500","","null","","","null","56","","NaN","","","","","","","","","","","","","",""
"","response","","html-keyboard-response","379","436426","0.0-1.0-509.0-0.0","0","0","97500","","166","","","75","56","","","2","56","training","adjacent","CB","3","2","P.jpg","O.jpg","0","0","1","",""
"","feedback","","html-keyboard-response","380","437428","0.0-1.0-510.0-0.0","0","0","97500","","null","","","null","56","","","","","","","","","","","","","","","",""
"","ITI","","html-keyboard-response","381","438434","0.0-1.0-513.0","0","0","97500","","null","","","null","56","","","","","","","","","","","","","","","NaN",""
"","S1","","html-keyboard-response","382","438687","0.0-1.0-515.0","0","0","97500","","null","","","null","57","","","","","","","","","","","","","","","",""
"","ISI","","html-keyboard-response","383","439189","0.0-1.0-516.0","0","0","97500","","null","","","null","57","NaN","","","","","","","","","","","","","","",""
"","S2","","html-keyboard-response","384","439441","0.0-1.0-517.0","0","0","97500","","null","","","null","57","","NaN","","","","","","","","","","","","","",""
"","response","","html-keyboard-response","385","439998","0.0-1.0-518.0-0.0","0","0","97500","","556","","","68","57","","","2","57","training","adjacent","FE","6","5","N.jpg","R.jpg","1","0","0","",""
"","feedback","","html-keyboard-response","386","441000","0.0-1.0-519.0-0.0","0","0","97500","","null","","","null","57","","","","","","","","","","","","","","","",""
"","time_out","","html-keyboard-response","387","443003","0.0-1.0-521.0-0.0","0","0","97500","","null","","","null","57","","","","","","","","","","","","","","","",""
"","ITI","","html-keyboard-response","388","444006","0.0-1.0-522.0","0","0","97500","","null","","","null","57","","","","","","","","","","","","","","","NaN",""
"","S1","","html-keyboard-response","389","444258","0.0-1.0-524.0","0","0","97500","","null","","","null","58","","","","","","","","","","","","","","","",""
"","ISI","","html-keyboard-response","390","444760","0.0-1.0-525.0","0","0","97500","","null","","","null","58","NaN","","","","","","","","","","","","","","",""
"","S2","","html-keyboard-response","391","445012","0.0-1.0-526.0","0","0","97500","","null","","","null","58","","NaN","","","","","","","","","","","","","",""
"","response","","html-keyboard-response","392","445619","0.0-1.0-527.0-0.0","0","0","97500","","606","","","68","58","","","2","58","training","adjacent","DE","4","5","Q.jpg","R.jpg","1","1","1","",""
"","feedback","","html-keyboard-response","393","446621","0.0-1.0-528.0-0.0","0","0","97500","","null","","","null","58","","","","","","","","","","","","","","","",""
"","ITI","","html-keyboard-response","394","447623","0.0-1.0-531.0","0","0","97500","","null","","","null","58","","","","","","","","","","","","","","","NaN",""
"","S1","","html-keyboard-response","395","447877","0.0-1.0-533.0","0","0","97500","","null","","","null","59","","","","","","","","","","","","","","","",""
"","ISI","","html-keyboard-response","396","448379","0.0-1.0-534.0","0","0","97500","","null","","","null","59","NaN","","","","","","","","","","","","","","",""
"","S2","","html-keyboard-response","397","448631","0.0-1.0-535.0","0","0","97500","","null","","","null","59","","NaN","","","","","","","","","","","","","",""
"","response","","html-keyboard-response","398","448792","0.0-1.0-536.0-0.0","0","0","97500","","160","","","75","59","","","2","59","training","adjacent","GF","7","6","M.jpg","N.jpg","0","0","1","",""
"","feedback","","html-keyboard-response","399","449794","0.0-1.0-537.0-0.0","0","0","97500","","null","","","null","59","","","","","","","","","","","","","","","",""
"","ITI","","html-keyboard-response","400","450796","0.0-1.0-540.0","0","0","97500","","null","","","null","59","","","","","","","","","","","","","","","NaN",""
"","S1","","html-keyboard-response","401","451050","0.0-1.0-542.0","0","0","97500","","null","","","null","60","","","","","","","","","","","","","","","",""
"","ISI","","html-keyboard-response","402","451552","0.0-1.0-543.0","0","0","97500","","null","","","null","60","NaN","","","","","","","","","","","","","","",""
"","S2","","html-keyboard-response","403","451804","0.0-1.0-544.0","0","0","97500","","null","","","null","60","","NaN","","","","","","","","","","","","","",""
"","response","","html-keyboard-response","404","452457","0.0-1.0-545.0-0.0","0","0","97500","","651","","","75","60","","","2","60","training","adjacent","CD","3","4","P.jpg","Q.jpg","0","1","0","",""
"","feedback","","html-keyboard-response","405","453459","0.0-1.0-546.0-0.0","0","0","97500","","null","","","null","60","","","","","","","","","","","","","","","",""
"","time_out","","html-keyboard-response","406","455461","0.0-1.0-548.0-0.0","0","0","97500","","null","","","null","60","","","","","","","","","","","","","","","",""
"","ITI","","html-keyboard-response","407","456464","0.0-1.0-549.0","0","0","97500","","null","","","null","60","","","","","","","","","","","","","","","NaN",""
"","S1","","html-keyboard-response","408","456716","0.0-1.0-551.0","0","0","97500","","null","","","null","61","","","","","","","","","","","","","","","",""
"","ISI","","html-keyboard-response","409","457218","0.0-1.0-552.0","0","0","97500","","null","","","null","61","NaN","","","","","","","","","","","","","","",""
"","S2","","html-keyboard-response","410","457470","0.0-1.0-553.0","0","0","97500","","null","","","null","61","","NaN","","","","","","","","","","","","","",""
"","response","","html-keyboard-response","411","457705","0.0-1.0-554.0-0.0","0","0","97500","","234","","","68","61","","","2","61","training","adjacent","DC","4","3","Q.jpg","P.jpg","1","0","0","",""
"","feedback","","html-keyboard-response","412","458708","0.0-1.0-555.0-0.0","0","0","97500","","null","","","null","61","","","","","","","","","","","","","","","",""
"","time_out","","html-keyboard-response","413","460710","0.0-1.0-557.0-0.0","0","0","97500","","null","","","null","61","","","","","","","","","","","","","","","",""
"","ITI","","html-keyboard-response","414","461713","0.0-1.0-558.0","0","0","97500","","null","","","null","61","","","","","","","","","","","","","","","NaN",""
"","S1","","html-keyboard-response","415","461965","0.0-1.0-560.0","0","0","97500","","null","","","null","62","","","","","","","","","","","","","","","",""
"","ISI","","html-keyboard-response","416","462467","0.0-1.0-561.0","0","0","97500","","null","","","null","62","NaN","","","","","","","","","","","","","","",""
"","S2","","html-keyboard-response","417","462719","0.0-1.0-562.0","0","0","97500","","null","","","null","62","","NaN","","","","","","","","","","","","","",""
"","response","","html-keyboard-response","418","463287","0.0-1.0-563.0-0.0","0","0","97500","","568","","","68","62","","","2","62","training","adjacent","DE","4","5","Q.jpg","R.jpg","1","1","1","",""
"","feedback","","html-keyboard-response","419","464289","0.0-1.0-564.0-0.0","0","0","97500","","null","","","null","62","","","","","","","","","","","","","","","",""
"","ITI","","html-keyboard-response","420","465291","0.0-1.0-567.0","0","0","97500","","null","","","null","62","","","","","","","","","","","","","","","NaN",""
"","S1","","html-keyboard-response","421","465543","0.0-1.0-569.0","0","0","97500","","null","","","null","63","","","","","","","","","","","","","","","",""
"","ISI","","html-keyboard-response","422","466046","0.0-1.0-570.0","0","0","97500","","null","","","null","63","NaN","","","","","","","","","","","","","","",""
"","S2","","html-keyboard-response","423","466298","0.0-1.0-571.0","0","0","97500","","null","","","null","63","","NaN","","","","","","","","","","","","","",""
"","response","","html-keyboard-response","424","466584","0.0-1.0-572.0-0.0","0","0","97500","","285","","","68","63","","","2","63","training","adjacent","DC","4","3","Q.jpg","P.jpg","1","0","0","",""
"","feedback","","html-keyboard-response","425","467586","0.0-1.0-573.0-0.0","0","0","97500","","null","","","null","63","","","","","","","","","","","","","","","",""
"","time_out","","html-keyboard-response","426","469588","0.0-1.0-575.0-0.0","0","0","97500","","null","","","null","63","","","","","","","","","","","","","","","",""
"","ITI","","html-keyboard-response","427","470591","0.0-1.0-576.0","0","0","97500","","null","","","null","63","","","","","","","","","","","","","","","NaN",""
"","S1","","html-keyboard-response","428","470842","0.0-1.0-578.0","0","0","97500","","null","","","null","64","","","","","","","","","","","","","","","",""
"","ISI","","html-keyboard-response","429","471344","0.0-1.0-579.0","0","0","97500","","null","","","null","64","NaN","","","","","","","","","","","","","","",""
"","S2","","html-keyboard-response","430","471597","0.0-1.0-580.0","0","0","97500","","null","","","null","64","","NaN","","","","","","","","","","","","","",""
"","response","","html-keyboard-response","431","471824","0.0-1.0-581.0-0.0","0","0","97500","","226","","","75","64","","","2","64","training","adjacent","EF","5","6","R.jpg","N.jpg","0","1","0","",""
"","feedback","","html-keyboard-response","432","472827","0.0-1.0-582.0-0.0","0","0","97500","","null","","","null","64","","","","","","","","","","","","","","","",""
"","time_out","","html-keyboard-response","433","474829","0.0-1.0-584.0-0.0","0","0","97500","","null","","","null","64","","","","","","","","","","","","","","","",""
"","ITI","","html-keyboard-response","434","475831","0.0-1.0-585.0","0","0","97500","","null","","","null","64","","","","","","","","","","","","","","","NaN",""
"","S1","","html-keyboard-response","435","476083","0.0-1.0-587.0","0","0","97500","","null","","","null","65","","","","","","","","","","","","","","","",""
"","ISI","","html-keyboard-response","436","476586","0.0-1.0-588.0","0","0","97500","","null","","","null","65","NaN","","","","","","","","","","","","","","",""
"","S2","","html-keyboard-response","437","476838","0.0-1.0-589.0","0","0","97500","","null","","","null","65","","NaN","","","","","","","","","","","","","",""
"","response","","html-keyboard-response","438","477079","0.0-1.0-590.0-0.0","0","0","97500","","240","","","75","65","","","2","65","training","adjacent","AB","1","2","L.jpg","O.jpg","0","1","0","",""
"","feedback","","html-keyboard-response","439","478081","0.0-1.0-591.0-0.0","0","0","97500","","null","","","null","65","","","","","","","","","","","","","","","",""
"","time_out","","html-keyboard-response","440","480083","0.0-1.0-593.0-0.0","0","0","97500","","null","","","null","65","","","","","","","","","","","","","","","",""
"","ITI","","html-keyboard-response","441","481086","0.0-1.0-594.0","0","0","97500","","null","","","null","65","","","","","","","","","","","","","","","NaN",""
"","S1","","html-keyboard-response","442","481338","0.0-1.0-596.0","0","0","97500","","null","","","null","66","","","","","","","","","","","","","","","",""
"","ISI","","html-keyboard-response","443","481840","0.0-1.0-597.0","0","0","97500","","null","","","null","66","NaN","","","","","","","","","","","","","","",""
"","S2","","html-keyboard-response","444","482092","0.0-1.0-598.0","0","0","97500","","null","","","null","66","","NaN","","","","","","","","","","","","","",""
"","response","","html-keyboard-response","445","482435","0.0-1.0-599.0-0.0","0","0","97500","","341","","","68","66","","","2","66","training","adjacent","BC","2","3","O.jpg","P.jpg","1","1","1","",""
"","feedback","","html-keyboard-response","446","483437","0.0-1.0-600.0-0.0","0","0","97500","","null","","","null","66","","","","","","","","","","","","","","","",""
"","ITI","","html-keyboard-response","447","484439","0.0-1.0-603.0","0","0","97500","","null","","","null","66","","","","","","","","","","","","","","","NaN",""
"","S1","","html-keyboard-response","448","484691","0.0-1.0-605.0","0","0","97500","","null","","","null","67","","","","","","","","","","","","","","","",""
"","ISI","","html-keyboard-response","449","485193","0.0-1.0-606.0","0","0","97500","","null","","","null","67","NaN","","","","","","","","","","","","","","",""
"","S2","","html-keyboard-response","450","485445","0.0-1.0-607.0","0","0","97500","","null","","","null","67","","NaN","","","","","","","","","","","","","",""
"","response","","html-keyboard-response","451","485860","0.0-1.0-608.0-0.0","0","0","97500","","413","","","68","67","","","2","67","training","adjacent","FE","6","5","N.jpg","R.jpg","1","0","0","",""
"","feedback","","html-keyboard-response","452","486863","0.0-1.0-609.0-0.0","0","0","97500","","null","","","null","67","","","","","","","","","","","","","","","",""
"","time_out","","html-keyboard-response","453","488865","0.0-1.0-611.0-0.0","0","0","97500","","null","","","null","67","","","","","","","","","","","","","","","",""
"","ITI","","html-keyboard-response","454","489867","0.0-1.0-612.0","0","0","97500","","null","","","null","67","","","","","","","","","","","","","","","NaN",""
"","S1","","html-keyboard-response","455","490125","0.0-1.0-614.0","0","0","97500","","null","","","null","68","","","","","","","","","","","","","","","",""
"","ISI","","html-keyboard-response","456","490627","0.0-1.0-615.0","0","0","97500","","null","","","null","68","NaN","","","","","","","","","","","","","","",""
"","S2","","html-keyboard-response","457","490879","0.0-1.0-616.0","0","0","97500","","null","","","null","68","","NaN","","","","","","","","","","","","","",""
"","response","","html-keyboard-response","458","491181","0.0-1.0-617.0-0.0","0","0","97500","","301","","","68","68","","","2","68","training","adjacent","CD","3","4","P.jpg","Q.jpg","1","1","1","",""
"","feedback","","html-keyboard-response","459","492184","0.0-1.0-618.0-0.0","0","0","97500","","null","","","null","68","","","","","","","","","","","","","","","",""
"","ITI","","html-keyboard-response","460","493195","0.0-1.0-621.0","0","0","97500","","null","","","null","68","","","","","","","","","","","","","","","NaN",""
"","S1","","html-keyboard-response","461","493447","0.0-1.0-623.0","0","0","97500","","null","","","null","69","","","","","","","","","","","","","","","",""
"","ISI","","html-keyboard-response","462","493950","0.0-1.0-624.0","0","0","97500","","null","","","null","69","NaN","","","","","","","","","","","","","","",""
"","S2","","html-keyboard-response","463","494202","0.0-1.0-625.0","0","0","97500","","null","","","null","69","","NaN","","","","","","","","","","","","","",""
"","response","","html-keyboard-response","464","494668","0.0-1.0-626.0-0.0","0","0","97500","","464","","","68","69","","","2","69","training","adjacent","CB","3","2","P.jpg","O.jpg","1","0","0","",""
"","feedback","","html-keyboard-response","465","495670","0.0-1.0-627.0-0.0","0","0","97500","","null","","","null","69","","","","","","","","","","","","","","","",""
"","time_out","","html-keyboard-response","466","497672","0.0-1.0-629.0-0.0","0","0","97500","","null","","","null","69","","","","","","","","","","","","","","","",""
"","ITI","","html-keyboard-response","467","498674","0.0-1.0-630.0","0","0","97500","","null","","","null","69","","","","","","","","","","","","","","","NaN",""
"","S1","","html-keyboard-response","468","498927","0.0-1.0-632.0","0","0","97500","","null","","","null","70","","","","","","","","","","","","","","","",""
"","ISI","","html-keyboard-response","469","499429","0.0-1.0-633.0","0","0","97500","","null","","","null","70","NaN","","","","","","","","","","","","","","",""
"","S2","","html-keyboard-response","470","499681","0.0-1.0-634.0","0","0","97500","","null","","","null","70","","NaN","","","","","","","","","","","","","",""
"","response","","html-keyboard-response","471","499942","0.0-1.0-635.0-0.0","0","0","97500","","260","","","68","70","","","2","70","training","adjacent","BA","2","1","O.jpg","L.jpg","1","0","0","",""
"","feedback","","html-keyboard-response","472","500944","0.0-1.0-636.0-0.0","0","0","97500","","null","","","null","70","","","","","","","","","","","","","","","",""
"","time_out","","html-keyboard-response","473","502945","0.0-1.0-638.0-0.0","0","0","97500","","null","","","null","70","","","","","","","","","","","","","","","",""
"","ITI","","html-keyboard-response","474","503948","0.0-1.0-639.0","0","0","97500","","null","","","null","70","","","","","","","","","","","","","","","NaN",""
"","S1","","html-keyboard-response","475","504200","0.0-1.0-641.0","0","0","97500","","null","","","null","71","","","","","","","","","","","","","","","",""
"","ISI","","html-keyboard-response","476","504702","0.0-1.0-642.0","0","0","97500","","null","","","null","71","NaN","","","","","","","","","","","","","","",""
"","S2","","html-keyboard-response","477","504954","0.0-1.0-643.0","0","0","97500","","null","","","null","71","","NaN","","","","","","","","","","","","","",""
"","response","","html-keyboard-response","478","505367","0.0-1.0-644.0-0.0","0","0","97500","","411","","","68","71","","","2","71","training","adjacent","FE","6","5","N.jpg","R.jpg","1","0","0","",""
"","feedback","","html-keyboard-response","479","506369","0.0-1.0-645.0-0.0","0","0","97500","","null","","","null","71","","","","","","","","","","","","","","","",""
"","time_out","","html-keyboard-response","480","508372","0.0-1.0-647.0-0.0","0","0","97500","","null","","","null","71","","","","","","","","","","","","","","","",""
"","ITI","","html-keyboard-response","481","509374","0.0-1.0-648.0","0","0","97500","","null","","","null","71","","","","","","","","","","","","","","","NaN",""
"","S1","","html-keyboard-response","482","509626","0.0-1.0-650.0","0","0","97500","","null","","","null","72","","","","","","","","","","","","","","","",""
"","ISI","","html-keyboard-response","483","510128","0.0-1.0-651.0","0","0","97500","","null","","","null","72","NaN","","","","","","","","","","","","","","",""
"","S2","","html-keyboard-response","484","510380","0.0-1.0-652.0","0","0","97500","","null","","","null","72","","NaN","","","","","","","","","","","","","",""
"","response","","html-keyboard-response","485","510585","0.0-1.0-653.0-0.0","0","0","97500","","203","","","75","72","","","2","72","training","adjacent","CB","3","2","P.jpg","O.jpg","0","0","1","",""
"","feedback","","html-keyboard-response","486","511587","0.0-1.0-654.0-0.0","0","0","97500","","null","","","null","72","","","","","","","","","","","","","","","",""
"","ITI","","html-keyboard-response","487","512590","0.0-1.0-657.0","0","0","97500","","null","","","null","72","","","","","","","","","","","","","","","NaN",""
"","S1","","html-keyboard-response","488","512842","0.0-1.0-659.0","0","0","97500","","null","","","null","73","","","","","","","","","","","","","","","",""
"","ISI","","html-keyboard-response","489","513344","0.0-1.0-660.0","0","0","97500","","null","","","null","73","NaN","","","","","","","","","","","","","","",""
"","S2","","html-keyboard-response","490","513598","0.0-1.0-661.0","0","0","97500","","null","","","null","73","","NaN","","","","","","","","","","","","","",""
"","response","","html-keyboard-response","491","514066","0.0-1.0-662.0-0.0","0","0","97500","","467","","","68","73","","","2","73","training","adjacent","DC","4","3","Q.jpg","P.jpg","1","0","0","",""
"","feedback","","html-keyboard-response","492","515068","0.0-1.0-663.0-0.0","0","0","97500","","null","","","null","73","","","","","","","","","","","","","","","",""
"","time_out","","html-keyboard-response","493","517071","0.0-1.0-665.0-0.0","0","0","97500","","null","","","null","73","","","","","","","","","","","","","","","",""
"","ITI","","html-keyboard-response","494","518073","0.0-1.0-666.0","0","0","97500","","null","","","null","73","","","","","","","","","","","","","","","NaN",""
"","S1","","html-keyboard-response","495","518325","0.0-1.0-668.0","0","0","97500","","null","","","null","74","","","","","","","","","","","","","","","",""
"","ISI","","html-keyboard-response","496","518827","0.0-1.0-669.0","0","0","97500","","null","","","null","74","NaN","","","","","","","","","","","","","","",""
"","S2","","html-keyboard-response","497","519079","0.0-1.0-670.0","0","0","97500","","null","","","null","74","","NaN","","","","","","","","","","","","","",""
"","response","","html-keyboard-response","498","519543","0.0-1.0-671.0-0.0","0","0","97500","","462","","","68","74","","","2","74","training","adjacent","FG","6","7","N.jpg","M.jpg","1","1","1","",""
"","feedback","","html-keyboard-response","499","520545","0.0-1.0-672.0-0.0","0","0","97500","","null","","","null","74","","","","","","","","","","","","","","","",""
"","ITI","","html-keyboard-response","500","521548","0.0-1.0-675.0","0","0","97500","","null","","","null","74","","","","","","","","","","","","","","","NaN",""
"","S1","","html-keyboard-response","501","521800","0.0-1.0-677.0","0","0","97500","","null","","","null","75","","","","","","","","","","","","","","","",""
"","ISI","","html-keyboard-response","502","522302","0.0-1.0-678.0","0","0","97500","","null","","","null","75","NaN","","","","","","","","","","","","","","",""
"","S2","","html-keyboard-response","503","522554","0.0-1.0-679.0","0","0","97500","","null","","","null","75","","NaN","","","","","","","","","","","","","",""
"","response","","html-keyboard-response","504","522796","0.0-1.0-680.0-0.0","0","0","97500","","239","","","68","75","","","2","75","training","adjacent","BA","2","1","O.jpg","L.jpg","1","0","0","",""
"","feedback","","html-keyboard-response","505","523798","0.0-1.0-681.0-0.0","0","0","97500","","null","","","null","75","","","","","","","","","","","","","","","",""
"","time_out","","html-keyboard-response","506","525801","0.0-1.0-683.0-0.0","0","0","97500","","null","","","null","75","","","","","","","","","","","","","","","",""
"","ITI","","html-keyboard-response","507","526803","0.0-1.0-684.0","0","0","97500","","null","","","null","75","","","","","","","","","","","","","","","NaN",""
"","S1","","html-keyboard-response","508","527055","0.0-1.0-686.0","0","0","97500","","null","","","null","76","","","","","","","","","","","","","","","",""
"","ISI","","html-keyboard-response","509","527557","0.0-1.0-687.0","0","0","97500","","null","","","null","76","NaN","","","","","","","","","","","","","","",""
"","S2","","html-keyboard-response","510","527809","0.0-1.0-688.0","0","0","97500","","null","","","null","76","","NaN","","","","","","","","","","","","","",""
"","response","","html-keyboard-response","511","528168","0.0-1.0-689.0-0.0","0","0","97500","","357","","","68","76","","","2","76","training","adjacent","FE","6","5","N.jpg","R.jpg","1","0","0","",""
"","feedback","","html-keyboard-response","512","529171","0.0-1.0-690.0-0.0","0","0","97500","","null","","","null","76","","","","","","","","","","","","","","","",""
"","time_out","","html-keyboard-response","513","531173","0.0-1.0-692.0-0.0","0","0","97500","","null","","","null","76","","","","","","","","","","","","","","","",""
"","ITI","","html-keyboard-response","514","532175","0.0-1.0-693.0","0","0","97500","","null","","","null","76","","","","","","","","","","","","","","","NaN",""
"","S1","","html-keyboard-response","515","532427","0.0-1.0-695.0","0","0","97500","","null","","","null","77","","","","","","","","","","","","","","","",""
"","ISI","","html-keyboard-response","516","532929","0.0-1.0-696.0","0","0","97500","","null","","","null","77","NaN","","","","","","","","","","","","","","",""
"","S2","","html-keyboard-response","517","533181","0.0-1.0-697.0","0","0","97500","","null","","","null","77","","NaN","","","","","","","","","","","","","",""
"","response","","html-keyboard-response","518","533465","0.0-1.0-698.0-0.0","0","0","97500","","282","","","68","77","","","2","77","training","adjacent","BA","2","1","O.jpg","L.jpg","1","0","0","",""
"","feedback","","html-keyboard-response","519","534468","0.0-1.0-699.0-0.0","0","0","97500","","null","","","null","77","","","","","","","","","","","","","","","",""
"","time_out","","html-keyboard-response","520","536476","0.0-1.0-701.0-0.0","0","0","97500","","null","","","null","77","","","","","","","","","","","","","","","",""
"","ITI","","html-keyboard-response","521","537478","0.0-1.0-702.0","0","0","97500","","null","","","null","77","","","","","","","","","","","","","","","NaN",""
"","S1","","html-keyboard-response","522","537730","0.0-1.0-704.0","0","0","97500","","null","","","null","78","","","","","","","","","","","","","","","",""
"","ISI","","html-keyboard-response","523","538233","0.0-1.0-705.0","0","0","97500","","null","","","null","78","NaN","","","","","","","","","","","","","","",""
"","S2","","html-keyboard-response","524","538485","0.0-1.0-706.0","0","0","97500","","null","","","null","78","","NaN","","","","","","","","","","","","","",""
"","response","","html-keyboard-response","525","539306","0.0-1.0-707.0-0.0","0","0","97500","","820","","","75","78","","","2","78","training","adjacent","DC","4","3","Q.jpg","P.jpg","0","0","1","",""
"","feedback","","html-keyboard-response","526","540308","0.0-1.0-708.0-0.0","0","0","97500","","null","","","null","78","","","","","","","","","","","","","","","",""
"","ITI","","html-keyboard-response","527","541310","0.0-1.0-711.0","0","0","97500","","null","","","null","78","","","","","","","","","","","","","","","NaN",""
"","S1","","html-keyboard-response","528","541562","0.0-1.0-713.0","0","0","97500","","null","","","null","79","","","","","","","","","","","","","","","",""
"","ISI","","html-keyboard-response","529","542064","0.0-1.0-714.0","0","0","97500","","null","","","null","79","NaN","","","","","","","","","","","","","","",""
"","S2","","html-keyboard-response","530","542316","0.0-1.0-715.0","0","0","97500","","null","","","null","79","","NaN","","","","","","","","","","","","","",""
"","response","","html-keyboard-response","531","542609","0.0-1.0-716.0-0.0","0","0","97500","","291","","","68","79","","","2","79","training","adjacent","AB","1","2","L.jpg","O.jpg","1","1","1","",""
"","feedback","","html-keyboard-response","532","543612","0.0-1.0-717.0-0.0","0","0","97500","","null","","","null","79","","","","","","","","","","","","","","","",""
"","ITI","","html-keyboard-response","533","544614","0.0-1.0-720.0","0","0","97500","","null","","","null","79","","","","","","","","","","","","","","","NaN",""
"","S1","","html-keyboard-response","534","544866","0.0-1.0-722.0","0","0","97500","","null","","","null","80","","","","","","","","","","","","","","","",""
"","ISI","","html-keyboard-response","535","545368","0.0-1.0-723.0","0","0","97500","","null","","","null","80","NaN","","","","","","","","","","","","","","",""
"","S2","","html-keyboard-response","536","545620","0.0-1.0-724.0","0","0","97500","","null","","","null","80","","NaN","","","","","","","","","","","","","",""
"","response","","html-keyboard-response","537","545830","0.0-1.0-725.0-0.0","0","0","97500","","208","","","75","80","","","2","80","training","adjacent","BA","2","1","O.jpg","L.jpg","0","0","1","",""
"","feedback","","html-keyboard-response","538","546832","0.0-1.0-726.0-0.0","0","0","97500","","null","","","null","80","","","","","","","","","","","","","","","",""
"","ITI","","html-keyboard-response","539","547835","0.0-1.0-729.0","0","0","97500","","null","","","null","80","","","","","","","","","","","","","","","NaN",""
"","S1","","html-keyboard-response","540","548087","0.0-1.0-731.0","0","0","97500","","null","","","null","81","","","","","","","","","","","","","","","",""
"","ISI","","html-keyboard-response","541","548589","0.0-1.0-732.0","0","0","97500","","null","","","null","81","NaN","","","","","","","","","","","","","","",""
"","S2","","html-keyboard-response","542","548841","0.0-1.0-733.0","0","0","97500","","null","","","null","81","","NaN","","","","","","","","","","","","","",""
"","response","","html-keyboard-response","543","549185","0.0-1.0-734.0-0.0","0","0","97500","","342","","","68","81","","","2","81","training","adjacent","ED","5","4","R.jpg","Q.jpg","1","0","0","",""
"","feedback","","html-keyboard-response","544","550187","0.0-1.0-735.0-0.0","0","0","97500","","null","","","null","81","","","","","","","","","","","","","","","",""
"","time_out","","html-keyboard-response","545","552190","0.0-1.0-737.0-0.0","0","0","97500","","null","","","null","81","","","","","","","","","","","","","","","",""
"","ITI","","html-keyboard-response","546","553192","0.0-1.0-738.0","0","0","97500","","null","","","null","81","","","","","","","","","","","","","","","NaN",""
"","S1","","html-keyboard-response","547","553444","0.0-1.0-740.0","0","0","97500","","null","","","null","82","","","","","","","","","","","","","","","",""
"","ISI","","html-keyboard-response","548","553946","0.0-1.0-741.0","0","0","97500","","null","","","null","82","NaN","","","","","","","","","","","","","","",""
"","S2","","html-keyboard-response","549","554198","0.0-1.0-742.0","0","0","97500","","null","","","null","82","","NaN","","","","","","","","","","","","","",""
"","response","","html-keyboard-response","550","554780","0.0-1.0-743.0-0.0","0","0","97500","","580","","","68","82","","","2","82","training","adjacent","BC","2","3","O.jpg","P.jpg","1","1","1","",""
"","feedback","","html-keyboard-response","551","555782","0.0-1.0-744.0-0.0","0","0","97500","","null","","","null","82","","","","","","","","","","","","","","","",""
"","ITI","","html-keyboard-response","552","556785","0.0-1.0-747.0","0","0","97500","","null","","","null","82","","","","","","","","","","","","","","","NaN",""
"","S1","","html-keyboard-response","553","557037","0.0-1.0-749.0","0","0","97500","","null","","","null","83","","","","","","","","","","","","","","","",""
"","ISI","","html-keyboard-response","554","557539","0.0-1.0-750.0","0","0","97500","","null","","","null","83","NaN","","","","","","","","","","","","","","",""
"","S2","","html-keyboard-response","555","557791","0.0-1.0-751.0","0","0","97500","","null","","","null","83","","NaN","","","","","","","","","","","","","",""
"","response","","html-keyboard-response","556","558284","0.0-1.0-752.0-0.0","0","0","97500","","491","","","68","83","","","2","83","training","adjacent","CD","3","4","P.jpg","Q.jpg","1","1","1","",""
"","feedback","","html-keyboard-response","557","559286","0.0-1.0-753.0-0.0","0","0","97500","","null","","","null","83","","","","","","","","","","","","","","","",""
"","ITI","","html-keyboard-response","558","560288","0.0-1.0-756.0","0","0","97500","","null","","","null","83","","","","","","","","","","","","","","","NaN",""
"","S1","","html-keyboard-response","559","560541","0.0-1.0-758.0","0","0","97500","","null","","","null","84","","","","","","","","","","","","","","","",""
"","ISI","","html-keyboard-response","560","561043","0.0-1.0-759.0","0","0","97500","","null","","","null","84","NaN","","","","","","","","","","","","","","",""
"","S2","","html-keyboard-response","561","561295","0.0-1.0-760.0","0","0","97500","","null","","","null","84","","NaN","","","","","","","","","","","","","",""
"","response","","html-keyboard-response","562","561624","0.0-1.0-761.0-0.0","0","0","97500","","328","","","68","84","","","2","84","training","adjacent","FG","6","7","N.jpg","M.jpg","1","1","1","",""
"","feedback","","html-keyboard-response","563","562626","0.0-1.0-762.0-0.0","0","0","97500","","null","","","null","84","","","","","","","","","","","","","","","",""
"","ITI","","html-keyboard-response","564","563628","0.0-1.0-765.0","0","0","97500","","null","","","null","84","","","","","","","","","","","","","","","NaN",""
"","S1","","html-keyboard-response","565","563880","0.0-1.0-767.0","0","0","97500","","null","","","null","85","","","","","","","","","","","","","","","",""
"","ISI","","html-keyboard-response","566","564382","0.0-1.0-768.0","0","0","97500","","null","","","null","85","NaN","","","","","","","","","","","","","","",""
"","S2","","html-keyboard-response","567","564636","0.0-1.0-769.0","0","0","97500","","null","","","null","85","","NaN","","","","","","","","","","","","","",""
"","response","","html-keyboard-response","568","565089","0.0-1.0-770.0-0.0","0","0","97500","","452","","","75","85","","","2","85","training","adjacent","ED","5","4","R.jpg","Q.jpg","0","0","1","",""
"","feedback","","html-keyboard-response","569","566092","0.0-1.0-771.0-0.0","0","0","97500","","null","","","null","85","","","","","","","","","","","","","","","",""
"","ITI","","html-keyboard-response","570","567094","0.0-1.0-774.0","0","0","97500","","null","","","null","85","","","","","","","","","","","","","","","NaN",""
"","S1","","html-keyboard-response","571","567346","0.0-1.0-776.0","0","0","97500","","null","","","null","86","","","","","","","","","","","","","","","",""
"","ISI","","html-keyboard-response","572","567848","0.0-1.0-777.0","0","0","97500","","null","","","null","86","NaN","","","","","","","","","","","","","","",""
"","S2","","html-keyboard-response","573","568100","0.0-1.0-778.0","0","0","97500","","null","","","null","86","","NaN","","","","","","","","","","","","","",""
"","response","","html-keyboard-response","574","568708","0.0-1.0-779.0-0.0","0","0","97500","","606","","","68","86","","","2","86","training","adjacent","GF","7","6","M.jpg","N.jpg","1","0","0","",""
"","feedback","","html-keyboard-response","575","569711","0.0-1.0-780.0-0.0","0","0","97500","","null","","","null","86","","","","","","","","","","","","","","","",""
"","time_out","","html-keyboard-response","576","571713","0.0-1.0-782.0-0.0","0","0","97500","","null","","","null","86","","","","","","","","","","","","","","","",""
"","ITI","","html-keyboard-response","577","572715","0.0-1.0-783.0","0","0","97500","","null","","","null","86","","","","","","","","","","","","","","","NaN",""
"","S1","","html-keyboard-response","578","572967","0.0-1.0-785.0","0","0","97500","","null","","","null","87","","","","","","","","","","","","","","","",""
"","ISI","","html-keyboard-response","579","573470","0.0-1.0-786.0","0","0","97500","","null","","","null","87","NaN","","","","","","","","","","","","","","",""
