"success","ttype","start_time","trial_type","trial_index","time_elapsed","internal_node_id","warning","missed_checkup","PID","view_history","rt","responses","repeat_instructions","key_press","index","keypress_isi","keypress_S2","block","trial_num","phase","group_type","pair_type","S1_stim","S2_stim","S1_img","S2_img","S1_chosen","S1_higher","accuracy","keypress_iti","total_bonus_tally"
"true","full_screen","d04132023hr1530","fullscreen","0","10102","0.0-0.0","0","0","94222","","","","","","","","","","","","","","","","","","","","","",""
"","instructions","","instructions","1","37468","0.0-1.0-0.0-0.0","0","0","94222","[{""page_index"":0,""viewing_time"":4185},{""page_index"":1,""viewing_time"":17043},{""page_index"":2,""viewing_time"":4401},{""page_index"":3,""viewing_time"":1735}]","27365","","","","","","","","","","","","","","","","","","","",""
"","comprehension_check","","survey-multi-choice","2","58681","0.0-1.0-0.0-1.0","0","0","94222","","21204","{""Q0"":""True"",""Q1"":""D"",""Q2"":""Only when the screen 'MAKE A CHOICE' is shown"",""Q3"":""Green mark"",""Q4"":""either D or K""}","1","","","","","","","","","","","","","","","","","",""
"","missed_instruction_checkup","","html-keyboard-response","3","61190","0.0-1.0-0.0-2.0-0.0","0","1","94222","","2505","","","32","","","","","","","","","","","","","","","","",""
"","instructions","","instructions","4","88779","0.0-1.0-0.1-0.1","0","0","94222","[{""page_index"":0,""viewing_time"":7737},{""page_index"":1,""viewing_time"":15189},{""page_index"":2,""viewing_time"":3438},{""page_index"":3,""viewing_time"":1223}]","27587","","","","","","","","","","","","","","","","","","","",""
"","comprehension_check","","survey-multi-choice","5","103955","0.0-1.0-0.1-1.1","0","0","94222","","15173","{""Q0"":""True"",""Q1"":""D"",""Q2"":""Once the second image appears and while the screen 'MAKE A CHOICE' is shown"",""Q3"":""Green mark"",""Q4"":""either D or K""}","0","","","","","","","","","","","","","","","","","",""
"","start_exp","","html-keyboard-response","6","107337","0.0-1.0-1.0","0","0","94222","","3381","","","32","","","","","","","","","","","","","","","","",""
"","S1","","html-keyboard-response","7","107589","0.0-1.0-2.0","0","0","94222","","null","","","null","0","","","","","","","","","","","","","","","",""
"","ISI","","html-keyboard-response","8","108593","0.0-1.0-3.0","0","0","94222","","null","","","null","0","NaN","","","","","","","","","","","","","","",""
"","S2","","html-keyboard-response","9","108847","0.0-1.0-4.0","0","0","94222","","null","","","null","0","","NaN","","","","","","","","","","","","","",""
"","response","","html-keyboard-response","10","108955","0.0-1.0-5.0-0.0","0","0","94222","","107","","","75","0","","","1","0","training","adjacent","CD","3","4","O.jpg","Q.jpg","0","1","0","",""
"","feedback","","html-keyboard-response","11","109959","0.0-1.0-6.0-0.0","0","0","94222","","null","","","null","0","","","","","","","","","","","","","","","",""
"","time_out","","html-keyboard-response","12","111964","0.0-1.0-8.0-0.0","0","0","94222","","null","","","null","0","","","","","","","","","","","","","","","",""
"","ITI","","html-keyboard-response","13","112967","0.0-1.0-9.0","0","0","94222","","null","","","null","0","","","","","","","","","","","","","","","NaN",""
"","S1","","html-keyboard-response","14","113222","0.0-1.0-11.0","0","0","94222","","null","","","null","1","","","","","","","","","","","","","","","",""
"","ISI","","html-keyboard-response","15","114256","0.0-1.0-12.0","0","0","94222","","null","","","null","1","NaN","","","","","","","","","","","","","","",""
"","S2","","html-keyboard-response","16","114519","0.0-1.0-13.0","0","0","94222","","null","","","null","1","","NaN","","","","","","","","","","","","","",""
"","response","","html-keyboard-response","17","114553","0.0-1.0-14.0-0.0","0","0","94222","","30","","","75","1","","","1","1","training","adjacent","DC","4","3","Q.jpg","O.jpg","0","0","1","",""
"","feedback","","html-keyboard-response","18","115556","0.0-1.0-15.0-0.0","0","0","94222","","null","","","null","1","","","","","","","","","","","","","","","",""
"","ITI","","html-keyboard-response","19","116559","0.0-1.0-18.0","0","0","94222","","null","","","null","1","","","","","","","","","","","","","","","NaN",""
"","S1","","html-keyboard-response","20","116813","0.0-1.0-20.0","0","0","94222","","null","","","null","2","","","","","","","","","","","","","","","",""
"","ISI","","html-keyboard-response","21","117816","0.0-1.0-21.0","0","0","94222","","null","","","null","2","NaN","","","","","","","","","","","","","","",""
"","S2","","html-keyboard-response","22","118070","0.0-1.0-22.0","0","0","94222","","null","","","null","2","","NaN","","","","","","","","","","","","","",""
"","response","","html-keyboard-response","23","118109","0.0-1.0-23.0-0.0","0","0","94222","","35","","","75","2","","","1","2","training","adjacent","ED","5","4","N.jpg","Q.jpg","0","0","1","",""
"","feedback","","html-keyboard-response","24","119112","0.0-1.0-24.0-0.0","0","0","94222","","null","","","null","2","","","","","","","","","","","","","","","",""
"","ITI","","html-keyboard-response","25","120115","0.0-1.0-27.0","0","0","94222","","null","","","null","2","","","","","","","","","","","","","","","NaN",""
"","S1","","html-keyboard-response","26","120368","0.0-1.0-29.0","0","0","94222","","null","","","null","3","","","","","","","","","","","","","","","",""
"","ISI","","html-keyboard-response","27","121372","0.0-1.0-30.0","0","0","94222","","null","","","null","3","NaN","","","","","","","","","","","","","","",""
"","S2","","html-keyboard-response","28","121625","0.0-1.0-31.0","0","0","94222","","null","","","null","3","","NaN","","","","","","","","","","","","","",""
"","response","","html-keyboard-response","29","121823","0.0-1.0-32.0-0.0","0","0","94222","","196","","","68","3","","","1","3","training","adjacent","DE","4","5","Q.jpg","N.jpg","1","1","1","",""
"","feedback","","html-keyboard-response","30","122828","0.0-1.0-33.0-0.0","0","0","94222","","null","","","null","3","","","","","","","","","","","","","","","",""
"","ITI","","html-keyboard-response","31","123832","0.0-1.0-36.0","0","0","94222","","null","","","null","3","","","","","","","","","","","","","","","NaN",""
"","S1","","html-keyboard-response","32","124085","0.0-1.0-38.0","0","0","94222","","null","","","null","4","","","","","","","","","","","","","","","",""
"","ISI","","html-keyboard-response","33","125090","0.0-1.0-39.0","0","0","94222","","null","","","null","4","NaN","","","","","","","","","","","","","","",""
"","S2","","html-keyboard-response","34","125345","0.0-1.0-40.0","0","0","94222","","null","","","null","4","","NaN","","","","","","","","","","","","","",""
"","response","","html-keyboard-response","35","125662","0.0-1.0-41.0-0.0","0","0","94222","","313","","","68","4","","","1","4","training","adjacent","CD","3","4","O.jpg","Q.jpg","1","1","1","",""
"","feedback","","html-keyboard-response","36","126665","0.0-1.0-42.0-0.0","0","0","94222","","null","","","null","4","","","","","","","","","","","","","","","",""
"","ITI","","html-keyboard-response","37","127670","0.0-1.0-45.0","0","0","94222","","null","","","null","4","","","","","","","","","","","","","","","NaN",""
"","S1","","html-keyboard-response","38","127924","0.0-1.0-47.0","0","0","94222","","null","","","null","5","","","","","","","","","","","","","","","",""
"","ISI","","html-keyboard-response","39","128928","0.0-1.0-48.0","0","0","94222","","null","","","null","5","NaN","","","","","","","","","","","","","","",""
"","S2","","html-keyboard-response","40","129182","0.0-1.0-49.0","0","0","94222","","null","","","null","5","","NaN","","","","","","","","","","","","","",""
"","response","","html-keyboard-response","41","129298","0.0-1.0-50.0-0.0","0","0","94222","","114","","","68","5","","","1","5","training","adjacent","FG","6","7","R.jpg","L.jpg","1","1","1","",""
"","feedback","","html-keyboard-response","42","130302","0.0-1.0-51.0-0.0","0","0","94222","","null","","","null","5","","","","","","","","","","","","","","","",""
"","ITI","","html-keyboard-response","43","131306","0.0-1.0-54.0","0","0","94222","","null","","","null","5","","","","","","","","","","","","","","","NaN",""
"","S1","","html-keyboard-response","44","131560","0.0-1.0-56.0","0","0","94222","","null","","","null","6","","","","","","","","","","","","","","","",""
"","ISI","","html-keyboard-response","45","132564","0.0-1.0-57.0","0","0","94222","","null","","","null","6","NaN","","","","","","","","","","","","","","",""
"","S2","","html-keyboard-response","46","132819","0.0-1.0-58.0","0","0","94222","","null","","","null","6","","NaN","","","","","","","","","","","","","",""
"","response","","html-keyboard-response","47","133078","0.0-1.0-59.0-0.0","0","0","94222","","257","","","75","6","","","1","6","training","adjacent","CB","3","2","O.jpg","M.jpg","0","0","1","",""
"","feedback","","html-keyboard-response","48","134082","0.0-1.0-60.0-0.0","0","0","94222","","null","","","null","6","","","","","","","","","","","","","","","",""
"","ITI","","html-keyboard-response","49","135089","0.0-1.0-63.0","0","0","94222","","null","","","null","6","","","","","","","","","","","","","","","NaN",""
"","S1","","html-keyboard-response","50","135343","0.0-1.0-65.0","0","0","94222","","null","","","null","7","","","","","","","","","","","","","","","",""
"","ISI","","html-keyboard-response","51","136346","0.0-1.0-66.0","0","0","94222","","null","","","null","7","NaN","","","","","","","","","","","","","","",""
"","S2","","html-keyboard-response","52","136600","0.0-1.0-67.0","0","0","94222","","null","","","null","7","","NaN","","","","","","","","","","","","","",""
"","response","","html-keyboard-response","53","136837","0.0-1.0-68.0-0.0","0","0","94222","","233","","","75","7","","","1","7","training","adjacent","FG","6","7","R.jpg","L.jpg","0","1","0","",""
"","feedback","","html-keyboard-response","54","137840","0.0-1.0-69.0-0.0","0","0","94222","","null","","","null","7","","","","","","","","","","","","","","","",""
"","time_out","","html-keyboard-response","55","139844","0.0-1.0-71.0-0.0","0","0","94222","","null","","","null","7","","","","","","","","","","","","","","","",""
"","ITI","","html-keyboard-response","56","140846","0.0-1.0-72.0","0","0","94222","","null","","","null","7","","","","","","","","","","","","","","","NaN",""
"","S1","","html-keyboard-response","57","141099","0.0-1.0-74.0","0","0","94222","","null","","","null","8","","","","","","","","","","","","","","","",""
"","ISI","","html-keyboard-response","58","142103","0.0-1.0-75.0","0","0","94222","","null","","","null","8","NaN","","","","","","","","","","","","","","",""
"","S2","","html-keyboard-response","59","142356","0.0-1.0-76.0","0","0","94222","","null","","","null","8","","NaN","","","","","","","","","","","","","",""
"","response","","html-keyboard-response","60","142618","0.0-1.0-77.0-0.0","0","0","94222","","260","","","68","8","","","1","8","training","adjacent","CB","3","2","O.jpg","M.jpg","1","0","0","",""
"","feedback","","html-keyboard-response","61","143621","0.0-1.0-78.0-0.0","0","0","94222","","null","","","null","8","","","","","","","","","","","","","","","",""
"","time_out","","html-keyboard-response","62","145624","0.0-1.0-80.0-0.0","0","0","94222","","null","","","null","8","","","","","","","","","","","","","","","",""
"","ITI","","html-keyboard-response","63","146628","0.0-1.0-81.0","0","0","94222","","null","","","null","8","","","","","","","","","","","","","","","NaN",""
"","S1","","html-keyboard-response","64","146882","0.0-1.0-83.0","0","0","94222","","null","","","null","9","","","","","","","","","","","","","","","",""
"","ISI","","html-keyboard-response","65","147885","0.0-1.0-84.0","0","0","94222","","null","","","null","9","NaN","","","","","","","","","","","","","","",""
"","S2","","html-keyboard-response","66","148139","0.0-1.0-85.0","0","0","94222","","null","","","null","9","","NaN","","","","","","","","","","","","","",""
"","response","","html-keyboard-response","67","148467","0.0-1.0-86.0-0.0","0","0","94222","","326","","","68","9","","","1","9","training","adjacent","GF","7","6","L.jpg","R.jpg","1","0","0","",""
"","feedback","","html-keyboard-response","68","149470","0.0-1.0-87.0-0.0","0","0","94222","","null","","","null","9","","","","","","","","","","","","","","","",""
"","time_out","","html-keyboard-response","69","151472","0.0-1.0-89.0-0.0","0","0","94222","","null","","","null","9","","","","","","","","","","","","","","","",""
"","ITI","","html-keyboard-response","70","152475","0.0-1.0-90.0","0","0","94222","","null","","","null","9","","","","","","","","","","","","","","","NaN",""
"","S1","","html-keyboard-response","71","152727","0.0-1.0-92.0","0","0","94222","","null","","","null","10","","","","","","","","","","","","","","","",""
"","ISI","","html-keyboard-response","72","153731","0.0-1.0-93.0","0","0","94222","","null","","","null","10","NaN","","","","","","","","","","","","","","",""
"","S2","","html-keyboard-response","73","153984","0.0-1.0-94.0","0","0","94222","","null","","","null","10","","NaN","","","","","","","","","","","","","",""
"","response","","html-keyboard-response","74","154214","0.0-1.0-95.0-0.0","0","0","94222","","228","","","75","10","","","1","10","training","adjacent","FE","6","5","R.jpg","N.jpg","0","0","1","",""
"","feedback","","html-keyboard-response","75","155219","0.0-1.0-96.0-0.0","0","0","94222","","null","","","null","10","","","","","","","","","","","","","","","",""
"","ITI","","html-keyboard-response","76","156224","0.0-1.0-99.0","0","0","94222","","null","","","null","10","","","","","","","","","","","","","","","NaN",""
"","S1","","html-keyboard-response","77","156478","0.0-1.0-101.0","0","0","94222","","null","","","null","11","","","","","","","","","","","","","","","",""
"","ISI","","html-keyboard-response","78","157480","0.0-1.0-102.0","0","0","94222","","null","","","null","11","NaN","","","","","","","","","","","","","","",""
"","S2","","html-keyboard-response","79","157734","0.0-1.0-103.0","0","0","94222","","null","","","null","11","","NaN","","","","","","","","","","","","","",""
"","response","","html-keyboard-response","80","157886","0.0-1.0-104.0-0.0","0","0","94222","","149","","","75","11","","","1","11","training","adjacent","GF","7","6","L.jpg","R.jpg","0","0","1","",""
"","feedback","","html-keyboard-response","81","158891","0.0-1.0-105.0-0.0","0","0","94222","","null","","","null","11","","","","","","","","","","","","","","","",""
"","ITI","","html-keyboard-response","82","159895","0.0-1.0-108.0","0","0","94222","","null","","","null","11","","","","","","","","","","","","","","","NaN",""
"","S1","","html-keyboard-response","83","160149","0.0-1.0-110.0","0","0","94222","","null","","","null","12","","","","","","","","","","","","","","","",""
"","ISI","","html-keyboard-response","84","161151","0.0-1.0-111.0","0","0","94222","","null","","","null","12","NaN","","","","","","","","","","","","","","",""
"","S2","","html-keyboard-response","85","161405","0.0-1.0-112.0","0","0","94222","","null","","","null","12","","NaN","","","","","","","","","","","","","",""
"","response","","html-keyboard-response","86","161554","0.0-1.0-113.0-0.0","0","0","94222","","147","","","68","12","","","1","12","training","adjacent","CD","3","4","O.jpg","Q.jpg","1","1","1","",""
"","feedback","","html-keyboard-response","87","162557","0.0-1.0-114.0-0.0","0","0","94222","","null","","","null","12","","","","","","","","","","","","","","","",""
"","ITI","","html-keyboard-response","88","163561","0.0-1.0-117.0","0","0","94222","","null","","","null","12","","","","","","","","","","","","","","","NaN",""
"","S1","","html-keyboard-response","89","163815","0.0-1.0-119.0","0","0","94222","","null","","","null","13","","","","","","","","","","","","","","","",""
"","ISI","","html-keyboard-response","90","164819","0.0-1.0-120.0","0","0","94222","","null","","","null","13","NaN","","","","","","","","","","","","","","",""
"","S2","","html-keyboard-response","91","165072","0.0-1.0-121.0","0","0","94222","","null","","","null","13","","NaN","","","","","","","","","","","","","",""
"","response","","html-keyboard-response","92","165213","0.0-1.0-122.0-0.0","0","0","94222","","139","","","75","13","","","1","13","training","adjacent","ED","5","4","N.jpg","Q.jpg","0","0","1","",""
"","feedback","","html-keyboard-response","93","166217","0.0-1.0-123.0-0.0","0","0","94222","","null","","","null","13","","","","","","","","","","","","","","","",""
"","ITI","","html-keyboard-response","94","167227","0.0-1.0-126.0","0","0","94222","","null","","","null","13","","","","","","","","","","","","","","","NaN",""
"","S1","","html-keyboard-response","95","167481","0.0-1.0-128.0","0","0","94222","","null","","","null","14","","","","","","","","","","","","","","","",""
"","ISI","","html-keyboard-response","96","168486","0.0-1.0-129.0","0","0","94222","","null","","","null","14","NaN","","","","","","","","","","","","","","",""
"","S2","","html-keyboard-response","97","168740","0.0-1.0-130.0","0","0","94222","","null","","","null","14","","NaN","","","","","","","","","","","","","",""
"","response","","html-keyboard-response","98","168807","0.0-1.0-131.0-0.0","0","0","94222","","65","","","68","14","","","1","14","training","adjacent","CD","3","4","O.jpg","Q.jpg","1","1","1","",""
"","feedback","","html-keyboard-response","99","169811","0.0-1.0-132.0-0.0","0","0","94222","","null","","","null","14","","","","","","","","","","","","","","","",""
"","ITI","","html-keyboard-response","100","170814","0.0-1.0-135.0","0","0","94222","","null","","","null","14","","","","","","","","","","","","","","","NaN",""
"","S1","","html-keyboard-response","101","171069","0.0-1.0-137.0","0","0","94222","","null","","","null","15","","","","","","","","","","","","","","","",""
"","ISI","","html-keyboard-response","102","172073","0.0-1.0-138.0","0","0","94222","","null","","","null","15","NaN","","","","","","","","","","","","","","",""
"","S2","","html-keyboard-response","103","172328","0.0-1.0-139.0","0","0","94222","","null","","","null","15","","NaN","","","","","","","","","","","","","",""
"","response","","html-keyboard-response","104","172639","0.0-1.0-140.0-0.0","0","0","94222","","308","","","75","15","","","1","15","training","adjacent","AB","1","2","P.jpg","M.jpg","0","1","0","",""
"","feedback","","html-keyboard-response","105","173646","0.0-1.0-141.0-0.0","0","0","94222","","null","","","null","15","","","","","","","","","","","","","","","",""
"","time_out","","html-keyboard-response","106","175649","0.0-1.0-143.0-0.0","0","0","94222","","null","","","null","15","","","","","","","","","","","","","","","",""
"","ITI","","html-keyboard-response","107","176654","0.0-1.0-144.0","0","0","94222","","null","","","null","15","","","","","","","","","","","","","","","NaN",""
"","S1","","html-keyboard-response","108","176907","0.0-1.0-146.0","0","0","94222","","null","","","null","16","","","","","","","","","","","","","","","",""
"","ISI","","html-keyboard-response","109","177911","0.0-1.0-147.0","0","0","94222","","null","","","null","16","NaN","","","","","","","","","","","","","","",""
"","S2","","html-keyboard-response","110","178164","0.0-1.0-148.0","0","0","94222","","null","","","null","16","","NaN","","","","","","","","","","","","","",""
"","response","","html-keyboard-response","111","178245","0.0-1.0-149.0-0.0","0","0","94222","","79","","","75","16","","","1","16","training","adjacent","FE","6","5","R.jpg","N.jpg","0","0","1","",""
"","feedback","","html-keyboard-response","112","179249","0.0-1.0-150.0-0.0","0","0","94222","","null","","","null","16","","","","","","","","","","","","","","","",""
"","ITI","","html-keyboard-response","113","180252","0.0-1.0-153.0","0","0","94222","","null","","","null","16","","","","","","","","","","","","","","","NaN",""
"","S1","","html-keyboard-response","114","180506","0.0-1.0-155.0","0","0","94222","","null","","","null","17","","","","","","","","","","","","","","","",""
"","ISI","","html-keyboard-response","115","181509","0.0-1.0-156.0","0","0","94222","","null","","","null","17","NaN","","","","","","","","","","","","","","",""
"","S2","","html-keyboard-response","116","181763","0.0-1.0-157.0","0","0","94222","","null","","","null","17","","NaN","","","","","","","","","","","","","",""
"","response","","html-keyboard-response","117","182089","0.0-1.0-158.0-0.0","0","0","94222","","324","","","68","17","","","1","17","training","adjacent","GF","7","6","L.jpg","R.jpg","1","0","0","",""
"","feedback","","html-keyboard-response","118","183094","0.0-1.0-159.0-0.0","0","0","94222","","null","","","null","17","","","","","","","","","","","","","","","",""
"","time_out","","html-keyboard-response","119","185097","0.0-1.0-161.0-0.0","0","0","94222","","null","","","null","17","","","","","","","","","","","","","","","",""
"","ITI","","html-keyboard-response","120","186101","0.0-1.0-162.0","0","0","94222","","null","","","null","17","","","","","","","","","","","","","","","NaN",""
"","S1","","html-keyboard-response","121","186354","0.0-1.0-164.0","0","0","94222","","null","","","null","18","","","","","","","","","","","","","","","",""
"","ISI","","html-keyboard-response","122","187358","0.0-1.0-165.0","0","0","94222","","null","","","null","18","NaN","","","","","","","","","","","","","","",""
"","S2","","html-keyboard-response","123","187612","0.0-1.0-166.0","0","0","94222","","null","","","null","18","","NaN","","","","","","","","","","","","","",""
"","response","","html-keyboard-response","124","187810","0.0-1.0-167.0-0.0","0","0","94222","","195","","","75","18","","","1","18","training","adjacent","AB","1","2","P.jpg","M.jpg","0","1","0","",""
"","feedback","","html-keyboard-response","125","188814","0.0-1.0-168.0-0.0","0","0","94222","","null","","","null","18","","","","","","","","","","","","","","","",""
"","time_out","","html-keyboard-response","126","190818","0.0-1.0-170.0-0.0","0","0","94222","","null","","","null","18","","","","","","","","","","","","","","","",""
"","ITI","","html-keyboard-response","127","191823","0.0-1.0-171.0","0","0","94222","","null","","","null","18","","","","","","","","","","","","","","","NaN",""
"","S1","","html-keyboard-response","128","192075","0.0-1.0-173.0","0","0","94222","","null","","","null","19","","","","","","","","","","","","","","","",""
"","ISI","","html-keyboard-response","129","193078","0.0-1.0-174.0","0","0","94222","","null","","","null","19","NaN","","","","","","","","","","","","","","",""
"","S2","","html-keyboard-response","130","193332","0.0-1.0-175.0","0","0","94222","","null","","","null","19","","NaN","","","","","","","","","","","","","",""
"","response","","html-keyboard-response","131","193485","0.0-1.0-176.0-0.0","0","0","94222","","152","","","75","19","","","1","19","training","adjacent","FE","6","5","R.jpg","N.jpg","0","0","1","",""
"","feedback","","html-keyboard-response","132","194488","0.0-1.0-177.0-0.0","0","0","94222","","null","","","null","19","","","","","","","","","","","","","","","",""
"","ITI","","html-keyboard-response","133","195491","0.0-1.0-180.0","0","0","94222","","null","","","null","19","","","","","","","","","","","","","","","NaN",""
"","S1","","html-keyboard-response","134","195744","0.0-1.0-182.0","0","0","94222","","null","","","null","20","","","","","","","","","","","","","","","",""
"","ISI","","html-keyboard-response","135","196749","0.0-1.0-183.0","0","0","94222","","null","","","null","20","NaN","","","","","","","","","","","","","","",""
"","S2","","html-keyboard-response","136","197002","0.0-1.0-184.0","0","0","94222","","null","","","null","20","","NaN","","","","","","","","","","","","","",""
"","response","","html-keyboard-response","137","197150","0.0-1.0-185.0-0.0","0","0","94222","","147","","","68","20","","","1","20","training","adjacent","DE","4","5","Q.jpg","N.jpg","1","1","1","",""
"","feedback","","html-keyboard-response","138","198153","0.0-1.0-186.0-0.0","0","0","94222","","null","","","null","20","","","","","","","","","","","","","","","",""
"","ITI","","html-keyboard-response","139","199154","0.0-1.0-189.0","0","0","94222","","null","","","null","20","","","","","","","","","","","","","","","NaN",""
"","S1","","html-keyboard-response","140","199409","0.0-1.0-191.0","0","0","94222","","null","","","null","21","","","","","","","","","","","","","","","",""
"","ISI","","html-keyboard-response","141","200413","0.0-1.0-192.0","0","0","94222","","null","","","null","21","NaN","","","","","","","","","","","","","","",""
"","S2","","html-keyboard-response","142","200666","0.0-1.0-193.0","0","0","94222","","null","","","null","21","","NaN","","","","","","","","","","","","","",""
"","response","","html-keyboard-response","143","200919","0.0-1.0-194.0-0.0","0","0","94222","","252","","","68","21","","","1","21","training","adjacent","FG","6","7","R.jpg","L.jpg","1","1","1","",""
"","feedback","","html-keyboard-response","144","201923","0.0-1.0-195.0-0.0","0","0","94222","","null","","","null","21","","","","","","","","","","","","","","","",""
"","ITI","","html-keyboard-response","145","202926","0.0-1.0-198.0","0","0","94222","","null","","","null","21","","","","","","","","","","","","","","","NaN",""
"","S1","","html-keyboard-response","146","203181","0.0-1.0-200.0","0","0","94222","","null","","","null","22","","","","","","","","","","","","","","","",""
"","ISI","","html-keyboard-response","147","204185","0.0-1.0-201.0","0","0","94222","","null","","","null","22","NaN","","","","","","","","","","","","","","",""
"","S2","","html-keyboard-response","148","204438","0.0-1.0-202.0","0","0","94222","","null","","","null","22","","NaN","","","","","","","","","","","","","",""
"","response","","html-keyboard-response","149","204492","0.0-1.0-203.0-0.0","0","0","94222","","53","","","68","22","","","1","22","training","adjacent","EF","5","6","N.jpg","R.jpg","1","1","1","",""
"","feedback","","html-keyboard-response","150","205495","0.0-1.0-204.0-0.0","0","0","94222","","null","","","null","22","","","","","","","","","","","","","","","",""
"","ITI","","html-keyboard-response","151","206498","0.0-1.0-207.0","0","0","94222","","null","","","null","22","","","","","","","","","","","","","","","NaN",""
"","S1","","html-keyboard-response","152","206751","0.0-1.0-209.0","0","0","94222","","null","","","null","23","","","","","","","","","","","","","","","",""
"","ISI","","html-keyboard-response","153","207767","0.0-1.0-210.0","0","0","94222","","null","","","null","23","NaN","","","","","","","","","","","","","","",""
"","S2","","html-keyboard-response","154","208020","0.0-1.0-211.0","0","0","94222","","null","","","null","23","","NaN","","","","","","","","","","","","","",""
"","response","","html-keyboard-response","155","208143","0.0-1.0-212.0-0.0","0","0","94222","","120","","","68","23","","","1","23","training","adjacent","ED","5","4","N.jpg","Q.jpg","1","0","0","",""
"","feedback","","html-keyboard-response","156","209147","0.0-1.0-213.0-0.0","0","0","94222","","null","","","null","23","","","","","","","","","","","","","","","",""
"","time_out","","html-keyboard-response","157","211149","0.0-1.0-215.0-0.0","0","0","94222","","null","","","null","23","","","","","","","","","","","","","","","",""
"","ITI","","html-keyboard-response","158","212152","0.0-1.0-216.0","0","0","94222","","null","","","null","23","","","","","","","","","","","","","","","NaN",""
"","S1","","html-keyboard-response","159","212406","0.0-1.0-218.0","0","0","94222","","null","","","null","24","","","","","","","","","","","","","","","",""
"","ISI","","html-keyboard-response","160","213408","0.0-1.0-219.0","0","0","94222","","null","","","null","24","NaN","","","","","","","","","","","","","","",""
"","S2","","html-keyboard-response","161","213662","0.0-1.0-220.0","0","0","94222","","null","","","null","24","","NaN","","","","","","","","","","","","","",""
"","response","","html-keyboard-response","162","213731","0.0-1.0-221.0-0.0","0","0","94222","","67","","","68","24","","","1","24","training","adjacent","EF","5","6","N.jpg","R.jpg","1","1","1","",""
"","feedback","","html-keyboard-response","163","214734","0.0-1.0-222.0-0.0","0","0","94222","","null","","","null","24","","","","","","","","","","","","","","","",""
"","ITI","","html-keyboard-response","164","215738","0.0-1.0-225.0","0","0","94222","","null","","","null","24","","","","","","","","","","","","","","","NaN",""
"","S1","","html-keyboard-response","165","215992","0.0-1.0-227.0","0","0","94222","","null","","","null","25","","","","","","","","","","","","","","","",""
"","ISI","","html-keyboard-response","166","216995","0.0-1.0-228.0","0","0","94222","","null","","","null","25","NaN","","","","","","","","","","","","","","",""
"","S2","","html-keyboard-response","167","217248","0.0-1.0-229.0","0","0","94222","","null","","","null","25","","NaN","","","","","","","","","","","","","",""
"","response","","html-keyboard-response","168","217653","0.0-1.0-230.0-0.0","0","0","94222","","403","","","75","25","","","1","25","training","adjacent","DC","4","3","Q.jpg","O.jpg","0","0","1","",""
"","feedback","","html-keyboard-response","169","218657","0.0-1.0-231.0-0.0","0","0","94222","","null","","","null","25","","","","","","","","","","","","","","","",""
"","ITI","","html-keyboard-response","170","219661","0.0-1.0-234.0","0","0","94222","","null","","","null","25","","","","","","","","","","","","","","","NaN",""
"","S1","","html-keyboard-response","171","219915","0.0-1.0-236.0","0","0","94222","","null","","","null","26","","","","","","","","","","","","","","","",""
"","ISI","","html-keyboard-response","172","220918","0.0-1.0-237.0","0","0","94222","","null","","","null","26","NaN","","","","","","","","","","","","","","",""
"","S2","","html-keyboard-response","173","221171","0.0-1.0-238.0","0","0","94222","","null","","","null","26","","NaN","","","","","","","","","","","","","",""
"","response","","html-keyboard-response","174","221412","0.0-1.0-239.0-0.0","0","0","94222","","237","","","75","26","","","1","26","training","adjacent","BC","2","3","M.jpg","O.jpg","0","1","0","",""
"","feedback","","html-keyboard-response","175","222415","0.0-1.0-240.0-0.0","0","0","94222","","null","","","null","26","","","","","","","","","","","","","","","",""
"","time_out","","html-keyboard-response","176","224419","0.0-1.0-242.0-0.0","0","0","94222","","null","","","null","26","","","","","","","","","","","","","","","",""
"","ITI","","html-keyboard-response","177","225423","0.0-1.0-243.0","0","0","94222","","null","","","null","26","","","","","","","","","","","","","","","NaN",""
"","S1","","html-keyboard-response","178","225677","0.0-1.0-245.0","0","0","94222","","null","","","null","27","","","","","","","","","","","","","","","",""
"","ISI","","html-keyboard-response","179","226680","0.0-1.0-246.0","0","0","94222","","null","","","null","27","NaN","","","","","","","","","","","","","","",""
"","S2","","html-keyboard-response","180","226936","0.0-1.0-247.0","0","0","94222","","null","","","null","27","","NaN","","","","","","","","","","","","","",""
"","response","","html-keyboard-response","181","227067","0.0-1.0-248.0-0.0","0","0","94222","","129","","","68","27","","","1","27","training","adjacent","GF","7","6","L.jpg","R.jpg","1","0","0","",""
"","feedback","","html-keyboard-response","182","228071","0.0-1.0-249.0-0.0","0","0","94222","","null","","","null","27","","","","","","","","","","","","","","","",""
"","time_out","","html-keyboard-response","183","230074","0.0-1.0-251.0-0.0","0","0","94222","","null","","","null","27","","","","","","","","","","","","","","","",""
"","ITI","","html-keyboard-response","184","231077","0.0-1.0-252.0","0","0","94222","","null","","","null","27","","","","","","","","","","","","","","","NaN",""
"","S1","","html-keyboard-response","185","231329","0.0-1.0-254.0","0","0","94222","","null","","","null","28","","","","","","","","","","","","","","","",""
"","ISI","","html-keyboard-response","186","232331","0.0-1.0-255.0","0","0","94222","","null","","","null","28","NaN","","","","","","","","","","","","","","",""
"","S2","","html-keyboard-response","187","232585","0.0-1.0-256.0","0","0","94222","","null","","","null","28","","NaN","","","","","","","","","","","","","",""
"","response","","html-keyboard-response","188","232640","0.0-1.0-257.0-0.0","0","0","94222","","54","","","75","28","","","1","28","training","adjacent","BC","2","3","M.jpg","O.jpg","0","1","0","",""
"","feedback","","html-keyboard-response","189","233644","0.0-1.0-258.0-0.0","0","0","94222","","null","","","null","28","","","","","","","","","","","","","","","",""
"","time_out","","html-keyboard-response","190","235648","0.0-1.0-260.0-0.0","0","0","94222","","null","","","null","28","","","","","","","","","","","","","","","",""
"","ITI","","html-keyboard-response","191","236652","0.0-1.0-261.0","0","0","94222","","null","","","null","28","","","","","","","","","","","","","","","NaN",""
"","S1","","html-keyboard-response","192","236906","0.0-1.0-263.0","0","0","94222","","null","","","null","29","","","","","","","","","","","","","","","",""
"","ISI","","html-keyboard-response","193","237910","0.0-1.0-264.0","0","0","94222","","null","","","null","29","NaN","","","","","","","","","","","","","","",""
"","S2","","html-keyboard-response","194","238164","0.0-1.0-265.0","0","0","94222","","null","","","null","29","","NaN","","","","","","","","","","","","","",""
"","response","","html-keyboard-response","195","238395","0.0-1.0-266.0-0.0","0","0","94222","","229","","","68","29","","","1","29","training","adjacent","FG","6","7","R.jpg","L.jpg","1","1","1","",""
"","feedback","","html-keyboard-response","196","239400","0.0-1.0-267.0-0.0","0","0","94222","","null","","","null","29","","","","","","","","","","","","","","","",""
"","ITI","","html-keyboard-response","197","240411","0.0-1.0-270.0","0","0","94222","","null","","","null","29","","","","","","","","","","","","","","","NaN",""
"","S1","","html-keyboard-response","198","240665","0.0-1.0-272.0","0","0","94222","","null","","","null","30","","","","","","","","","","","","","","","",""
"","ISI","","html-keyboard-response","199","241674","0.0-1.0-273.0","0","0","94222","","null","","","null","30","NaN","","","","","","","","","","","","","","",""
"","S2","","html-keyboard-response","200","241928","0.0-1.0-274.0","0","0","94222","","null","","","null","30","","NaN","","","","","","","","","","","","","",""
"","response","","html-keyboard-response","201","242045","0.0-1.0-275.0-0.0","0","0","94222","","113","","","75","30","","","1","30","training","adjacent","CB","3","2","O.jpg","M.jpg","0","0","1","",""
"","feedback","","html-keyboard-response","202","243048","0.0-1.0-276.0-0.0","0","0","94222","","null","","","null","30","","","","","","","","","","","","","","","",""
"","ITI","","html-keyboard-response","203","244052","0.0-1.0-279.0","0","0","94222","","null","","","null","30","","","","","","","","","","","","","","","NaN",""
"","S1","","html-keyboard-response","204","244305","0.0-1.0-281.0","0","0","94222","","null","","","null","31","","","","","","","","","","","","","","","",""
"","ISI","","html-keyboard-response","205","245309","0.0-1.0-282.0","0","0","94222","","null","","","null","31","NaN","","","","","","","","","","","","","","",""
"","S2","","html-keyboard-response","206","245563","0.0-1.0-283.0","0","0","94222","","null","","","null","31","","NaN","","","","","","","","","","","","","",""
"","response","","html-keyboard-response","207","245854","0.0-1.0-284.0-0.0","0","0","94222","","288","","","75","31","","","1","31","training","adjacent","BA","2","1","M.jpg","P.jpg","0","0","1","",""
"","feedback","","html-keyboard-response","208","246857","0.0-1.0-285.0-0.0","0","0","94222","","null","","","null","31","","","","","","","","","","","","","","","",""
"","ITI","","html-keyboard-response","209","247861","0.0-1.0-288.0","0","0","94222","","null","","","null","31","","","","","","","","","","","","","","","NaN",""
"","S1","","html-keyboard-response","210","248114","0.0-1.0-290.0","0","0","94222","","null","","","null","32","","","","","","","","","","","","","","","",""
"","ISI","","html-keyboard-response","211","249117","0.0-1.0-291.0","0","0","94222","","null","","","null","32","NaN","","","","","","","","","","","","","","",""
"","S2","","html-keyboard-response","212","249370","0.0-1.0-292.0","0","0","94222","","null","","","null","32","","NaN","","","","","","","","","","","","","",""
"","response","","html-keyboard-response","213","249844","0.0-1.0-293.0-0.0","0","0","94222","","472","","","68","32","","","1","32","training","adjacent","DE","4","5","Q.jpg","N.jpg","1","1","1","",""
"","feedback","","html-keyboard-response","214","250847","0.0-1.0-294.0-0.0","0","0","94222","","null","","","null","32","","","","","","","","","","","","","","","",""
"","ITI","","html-keyboard-response","215","251850","0.0-1.0-297.0","0","0","94222","","null","","","null","32","","","","","","","","","","","","","","","NaN",""
"","S1","","html-keyboard-response","216","252104","0.0-1.0-299.0","0","0","94222","","null","","","null","33","","","","","","","","","","","","","","","",""
"","ISI","","html-keyboard-response","217","253106","0.0-1.0-300.0","0","0","94222","","null","","","null","33","NaN","","","","","","","","","","","","","","",""
"","S2","","html-keyboard-response","218","253359","0.0-1.0-301.0","0","0","94222","","null","","","null","33","","NaN","","","","","","","","","","","","","",""
"","response","","html-keyboard-response","219","253385","0.0-1.0-302.0-0.0","0","0","94222","","25","","","75","33","","","1","33","training","adjacent","DC","4","3","Q.jpg","O.jpg","0","0","1","",""
"","feedback","","html-keyboard-response","220","254388","0.0-1.0-303.0-0.0","0","0","94222","","null","","","null","33","","","","","","","","","","","","","","","",""
"","ITI","","html-keyboard-response","221","255391","0.0-1.0-306.0","0","0","94222","","null","","","null","33","","","","","","","","","","","","","","","NaN",""
"","S1","","html-keyboard-response","222","255644","0.0-1.0-308.0","0","0","94222","","null","","","null","34","","","","","","","","","","","","","","","",""
"","ISI","","html-keyboard-response","223","256649","0.0-1.0-309.0","0","0","94222","","null","","","null","34","NaN","","","","","","","","","","","","","","",""
"","S2","","html-keyboard-response","224","256903","0.0-1.0-310.0","0","0","94222","","null","","","null","34","","NaN","","","","","","","","","","","","","",""
"","response","","html-keyboard-response","225","257161","0.0-1.0-311.0-0.0","0","0","94222","","254","","","68","34","","","1","34","training","adjacent","BA","2","1","M.jpg","P.jpg","1","0","0","",""
"","feedback","","html-keyboard-response","226","258166","0.0-1.0-312.0-0.0","0","0","94222","","null","","","null","34","","","","","","","","","","","","","","","",""
"","time_out","","html-keyboard-response","227","260170","0.0-1.0-314.0-0.0","0","0","94222","","null","","","null","34","","","","","","","","","","","","","","","",""
"","ITI","","html-keyboard-response","228","261174","0.0-1.0-315.0","0","0","94222","","null","","","null","34","","","","","","","","","","","","","","","NaN",""
"","S1","","html-keyboard-response","229","261429","0.0-1.0-317.0","0","0","94222","","null","","","null","35","","","","","","","","","","","","","","","",""
"","ISI","","html-keyboard-response","230","262433","0.0-1.0-318.0","0","0","94222","","null","","","null","35","NaN","","","","","","","","","","","","","","",""
"","S2","","html-keyboard-response","231","262686","0.0-1.0-319.0","0","0","94222","","null","","","null","35","","NaN","","","","","","","","","","","","","",""
"","response","","html-keyboard-response","232","262775","0.0-1.0-320.0-0.0","0","0","94222","","86","","","75","35","","","1","35","training","adjacent","EF","5","6","N.jpg","R.jpg","0","1","0","",""
"","feedback","","html-keyboard-response","233","263780","0.0-1.0-321.0-0.0","0","0","94222","","null","","","null","35","","","","","","","","","","","","","","","",""
"","time_out","","html-keyboard-response","234","265783","0.0-1.0-323.0-0.0","0","0","94222","","null","","","null","35","","","","","","","","","","","","","","","",""
"","ITI","","html-keyboard-response","235","266786","0.0-1.0-324.0","0","0","94222","","null","","","null","35","","","","","","","","","","","","","","","NaN",""
"","S1","","html-keyboard-response","236","267040","0.0-1.0-326.0","0","0","94222","","null","","","null","36","","","","","","","","","","","","","","","",""
"","ISI","","html-keyboard-response","237","268045","0.0-1.0-327.0","0","0","94222","","null","","","null","36","NaN","","","","","","","","","","","","","","",""
"","S2","","html-keyboard-response","238","268298","0.0-1.0-328.0","0","0","94222","","null","","","null","36","","NaN","","","","","","","","","","","","","",""
"","response","","html-keyboard-response","239","268559","0.0-1.0-329.0-0.0","0","0","94222","","259","","","75","36","","","1","36","training","adjacent","AB","1","2","P.jpg","M.jpg","0","1","0","",""
"","feedback","","html-keyboard-response","240","269561","0.0-1.0-330.0-0.0","0","0","94222","","null","","","null","36","","","","","","","","","","","","","","","",""
"","time_out","","html-keyboard-response","241","271564","0.0-1.0-332.0-0.0","0","0","94222","","null","","","null","36","","","","","","","","","","","","","","","",""
"","ITI","","html-keyboard-response","242","272568","0.0-1.0-333.0","0","0","94222","","null","","","null","36","","","","","","","","","","","","","","","NaN",""
"","S1","","html-keyboard-response","243","272837","0.0-1.0-335.0","0","0","94222","","null","","","null","37","","","","","","","","","","","","","","","",""
"","ISI","","html-keyboard-response","244","273840","0.0-1.0-336.0","0","0","94222","","null","","","null","37","NaN","","","","","","","","","","","","","","",""
"","S2","","html-keyboard-response","245","274094","0.0-1.0-337.0","0","0","94222","","null","","","null","37","","NaN","","","","","","","","","","","","","",""
"","response","","html-keyboard-response","246","274332","0.0-1.0-338.0-0.0","0","0","94222","","236","","","68","37","","","1","37","training","adjacent","FE","6","5","R.jpg","N.jpg","1","0","0","",""
"","feedback","","html-keyboard-response","247","275335","0.0-1.0-339.0-0.0","0","0","94222","","null","","","null","37","","","","","","","","","","","","","","","",""
"","time_out","","html-keyboard-response","248","277339","0.0-1.0-341.0-0.0","0","0","94222","","null","","","null","37","","","","","","","","","","","","","","","",""
"","ITI","","html-keyboard-response","249","278344","0.0-1.0-342.0","0","0","94222","","null","","","null","37","","","","","","","","","","","","","","","NaN",""
"","S1","","html-keyboard-response","250","278598","0.0-1.0-344.0","0","0","94222","","null","","","null","38","","","","","","","","","","","","","","","",""
"","ISI","","html-keyboard-response","251","279601","0.0-1.0-345.0","0","0","94222","","null","","","null","38","NaN","","","","","","","","","","","","","","",""
"","S2","","html-keyboard-response","252","279854","0.0-1.0-346.0","0","0","94222","","null","","","null","38","","NaN","","","","","","","","","","","","","",""
"","response","","html-keyboard-response","253","280154","0.0-1.0-347.0-0.0","0","0","94222","","298","","","68","38","","","1","38","training","adjacent","DE","4","5","Q.jpg","N.jpg","1","1","1","",""
"","feedback","","html-keyboard-response","254","281157","0.0-1.0-348.0-0.0","0","0","94222","","null","","","null","38","","","","","","","","","","","","","","","",""
"","ITI","","html-keyboard-response","255","282160","0.0-1.0-351.0","0","0","94222","","null","","","null","38","","","","","","","","","","","","","","","NaN",""
"","S1","","html-keyboard-response","256","282423","0.0-1.0-353.0","0","0","94222","","null","","","null","39","","","","","","","","","","","","","","","",""
"","ISI","","html-keyboard-response","257","283427","0.0-1.0-354.0","0","0","94222","","null","","","null","39","NaN","","","","","","","","","","","","","","",""
"","S2","","html-keyboard-response","258","283679","0.0-1.0-355.0","0","0","94222","","null","","","null","39","","NaN","","","","","","","","","","","","","",""
"","response","","html-keyboard-response","259","283751","0.0-1.0-356.0-0.0","0","0","94222","","68","","","75","39","","","1","39","training","adjacent","ED","5","4","N.jpg","Q.jpg","0","0","1","",""
"","feedback","","html-keyboard-response","260","284756","0.0-1.0-357.0-0.0","0","0","94222","","null","","","null","39","","","","","","","","","","","","","","","",""
"","ITI","","html-keyboard-response","261","285760","0.0-1.0-360.0","0","0","94222","","null","","","null","39","","","","","","","","","","","","","","","NaN",""
"","S1","","html-keyboard-response","262","286014","0.0-1.0-362.0","0","0","94222","","null","","","null","40","","","","","","","","","","","","","","","",""
"","ISI","","html-keyboard-response","263","287018","0.0-1.0-363.0","0","0","94222","","null","","","null","40","NaN","","","","","","","","","","","","","","",""
"","S2","","html-keyboard-response","264","287272","0.0-1.0-364.0","0","0","94222","","null","","","null","40","","NaN","","","","","","","","","","","","","",""
"","response","","html-keyboard-response","265","287298","0.0-1.0-365.0-0.0","0","0","94222","","25","","","75","40","","","1","40","training","adjacent","BA","2","1","M.jpg","P.jpg","0","0","1","",""
"","feedback","","html-keyboard-response","266","288301","0.0-1.0-366.0-0.0","0","0","94222","","null","","","null","40","","","","","","","","","","","","","","","",""
"","ITI","","html-keyboard-response","267","289304","0.0-1.0-369.0","0","0","94222","","null","","","null","40","","","","","","","","","","","","","","","NaN",""
"","S1","","html-keyboard-response","268","289558","0.0-1.0-371.0","0","0","94222","","null","","","null","41","","","","","","","","","","","","","","","",""
"","ISI","","html-keyboard-response","269","290560","0.0-1.0-372.0","0","0","94222","","null","","","null","41","NaN","","","","","","","","","","","","","","",""
"","S2","","html-keyboard-response","270","290813","0.0-1.0-373.0","0","0","94222","","null","","","null","41","","NaN","","","","","","","","","","","","","",""
"","response","","html-keyboard-response","271","290830","0.0-1.0-374.0-0.0","0","0","94222","","14","","","75","41","","","1","41","training","adjacent","EF","5","6","N.jpg","R.jpg","0","1","0","",""
"","feedback","","html-keyboard-response","272","291835","0.0-1.0-375.0-0.0","0","0","94222","","null","","","null","41","","","","","","","","","","","","","","","",""
"","time_out","","html-keyboard-response","273","293838","0.0-1.0-377.0-0.0","0","0","94222","","null","","","null","41","","","","","","","","","","","","","","","",""
"","ITI","","html-keyboard-response","274","294842","0.0-1.0-378.0","0","0","94222","","null","","","null","41","","","","","","","","","","","","","","","NaN",""
"","S1","","html-keyboard-response","275","295096","0.0-1.0-380.0","0","0","94222","","null","","","null","42","","","","","","","","","","","","","","","",""
"","ISI","","html-keyboard-response","276","296099","0.0-1.0-381.0","0","0","94222","","null","","","null","42","NaN","","","","","","","","","","","","","","",""
"","S2","","html-keyboard-response","277","296353","0.0-1.0-382.0","0","0","94222","","null","","","null","42","","NaN","","","","","","","","","","","","","",""
"","response","","html-keyboard-response","278","296410","0.0-1.0-383.0-0.0","0","0","94222","","55","","","75","42","","","1","42","training","adjacent","DC","4","3","Q.jpg","O.jpg","0","0","1","",""
"","feedback","","html-keyboard-response","279","297413","0.0-1.0-384.0-0.0","0","0","94222","","null","","","null","42","","","","","","","","","","","","","","","",""
"","ITI","","html-keyboard-response","280","298416","0.0-1.0-387.0","0","0","94222","","null","","","null","42","","","","","","","","","","","","","","","NaN",""
"","S1","","html-keyboard-response","281","298670","0.0-1.0-389.0","0","0","94222","","null","","","null","43","","","","","","","","","","","","","","","",""
"","ISI","","html-keyboard-response","282","299674","0.0-1.0-390.0","0","0","94222","","null","","","null","43","NaN","","","","","","","","","","","","","","",""
"","S2","","html-keyboard-response","283","299928","0.0-1.0-391.0","0","0","94222","","null","","","null","43","","NaN","","","","","","","","","","","","","",""
"","response","","html-keyboard-response","284","299975","0.0-1.0-392.0-0.0","0","0","94222","","44","","","75","43","","","1","43","training","adjacent","BC","2","3","M.jpg","O.jpg","0","1","0","",""
"","feedback","","html-keyboard-response","285","300980","0.0-1.0-393.0-0.0","0","0","94222","","null","","","null","43","","","","","","","","","","","","","","","",""
"","time_out","","html-keyboard-response","286","302983","0.0-1.0-395.0-0.0","0","0","94222","","null","","","null","43","","","","","","","","","","","","","","","",""
"","ITI","","html-keyboard-response","287","303986","0.0-1.0-396.0","0","0","94222","","null","","","null","43","","","","","","","","","","","","","","","NaN",""
"","S1","","html-keyboard-response","288","304241","0.0-1.0-398.0","0","0","94222","","null","","","null","44","","","","","","","","","","","","","","","",""
"","ISI","","html-keyboard-response","289","305247","0.0-1.0-399.0","0","0","94222","","null","","","null","44","NaN","","","","","","","","","","","","","","",""
"","S2","","html-keyboard-response","290","305501","0.0-1.0-400.0","0","0","94222","","null","","","null","44","","NaN","","","","","","","","","","","","","",""
"","response","","html-keyboard-response","291","305775","0.0-1.0-401.0-0.0","0","0","94222","","273","","","75","44","","","1","44","training","adjacent","CB","3","2","O.jpg","M.jpg","0","0","1","",""
"","feedback","","html-keyboard-response","292","306779","0.0-1.0-402.0-0.0","0","0","94222","","null","","","null","44","","","","","","","","","","","","","","","",""
"","ITI","","html-keyboard-response","293","307783","0.0-1.0-405.0","0","0","94222","","null","","","null","44","","","","","","","","","","","","","","","NaN",""
"","S1","","html-keyboard-response","294","308036","0.0-1.0-407.0","0","0","94222","","null","","","null","45","","","","","","","","","","","","","","","",""
"","ISI","","html-keyboard-response","295","309040","0.0-1.0-408.0","0","0","94222","","null","","","null","45","NaN","","","","","","","","","","","","","","",""
"","S2","","html-keyboard-response","296","309294","0.0-1.0-409.0","0","0","94222","","null","","","null","45","","NaN","","","","","","","","","","","","","",""
"","response","","html-keyboard-response","297","309382","0.0-1.0-410.0-0.0","0","0","94222","","86","","","75","45","","","1","45","training","adjacent","BC","2","3","M.jpg","O.jpg","0","1","0","",""
"","feedback","","html-keyboard-response","298","310385","0.0-1.0-411.0-0.0","0","0","94222","","null","","","null","45","","","","","","","","","","","","","","","",""
"","time_out","","html-keyboard-response","299","312388","0.0-1.0-413.0-0.0","0","0","94222","","null","","","null","45","","","","","","","","","","","","","","","",""
"","ITI","","html-keyboard-response","300","313394","0.0-1.0-414.0","0","0","94222","","null","","","null","45","","","","","","","","","","","","","","","NaN",""
"","S1","","html-keyboard-response","301","313648","0.0-1.0-416.0","0","0","94222","","null","","","null","46","","","","","","","","","","","","","","","",""
"","ISI","","html-keyboard-response","302","314651","0.0-1.0-417.0","0","0","94222","","null","","","null","46","NaN","","","","","","","","","","","","","","",""
"","S2","","html-keyboard-response","303","314903","0.0-1.0-418.0","0","0","94222","","null","","","null","46","","NaN","","","","","","","","","","","","","",""
"","response","","html-keyboard-response","304","314946","0.0-1.0-419.0-0.0","0","0","94222","","42","","","75","46","","","1","46","training","adjacent","AB","1","2","P.jpg","M.jpg","0","1","0","",""
"","feedback","","html-keyboard-response","305","315951","0.0-1.0-420.0-0.0","0","0","94222","","null","","","null","46","","","","","","","","","","","","","","","",""
"","time_out","","html-keyboard-response","306","317954","0.0-1.0-422.0-0.0","0","0","94222","","null","","","null","46","","","","","","","","","","","","","","","",""
"","ITI","","html-keyboard-response","307","318958","0.0-1.0-423.0","0","0","94222","","null","","","null","46","","","","","","","","","","","","","","","NaN",""
"","S1","","html-keyboard-response","308","319212","0.0-1.0-425.0","0","0","94222","","null","","","null","47","","","","","","","","","","","","","","","",""
"","ISI","","html-keyboard-response","309","320216","0.0-1.0-426.0","0","0","94222","","null","","","null","47","NaN","","","","","","","","","","","","","","",""
"","S2","","html-keyboard-response","310","320469","0.0-1.0-427.0","0","0","94222","","null","","","null","47","","NaN","","","","","","","","","","","","","",""
"","response","","html-keyboard-response","311","320533","0.0-1.0-428.0-0.0","0","0","94222","","59","","","75","47","","","1","47","training","adjacent","BA","2","1","M.jpg","P.jpg","0","0","1","",""
"","feedback","","html-keyboard-response","312","321536","0.0-1.0-429.0-0.0","0","0","94222","","null","","","null","47","","","","","","","","","","","","","","","",""
"","ITI","","html-keyboard-response","313","322540","0.0-1.0-432.0","0","0","94222","","null","","","null","47","","","","","","","","","","","","","","","NaN",""
"","block_over","","html-keyboard-response","314","326358","0.0-1.0-433.0-0.0","0","0","94222","","3815","","","32","47","","","","","","","","","","","","","","","",""
"","S1","","html-keyboard-response","315","326611","0.0-1.0-434.0","0","0","94222","","null","","","null","48","","","","","","","","","","","","","","","",""
"","ISI","","html-keyboard-response","316","327615","0.0-1.0-435.0","0","0","94222","","null","","","null","48","NaN","","","","","","","","","","","","","","",""
"","S2","","html-keyboard-response","317","327870","0.0-1.0-436.0","0","0","94222","","null","","","null","48","","NaN","","","","","","","","","","","","","",""
"","response","","html-keyboard-response","318","327928","0.0-1.0-437.0-0.0","0","0","94222","","57","","","75","48","","","2","48","training","adjacent","GF","7","6","L.jpg","R.jpg","0","0","1","",""
"","feedback","","html-keyboard-response","319","328932","0.0-1.0-438.0-0.0","0","0","94222","","null","","","null","48","","","","","","","","","","","","","","","",""
"","ITI","","html-keyboard-response","320","329935","0.0-1.0-441.0","0","0","94222","","null","","","null","48","","","","","","","","","","","","","","","NaN",""
"","S1","","html-keyboard-response","321","330189","0.0-1.0-443.0","0","0","94222","","null","","","null","49","","","","","","","","","","","","","","","",""
"","ISI","","html-keyboard-response","322","331193","0.0-1.0-444.0","0","0","94222","","null","","","null","49","NaN","","","","","","","","","","","","","","",""
"","S2","","html-keyboard-response","323","331357","0.0-1.0-445.0","0","0","94222","","162","","","75","49","","k","2","49","training","adjacent","FE","6","5","R.jpg","N.jpg","0","0","1","",""
"","feedback","","html-keyboard-response","324","332364","0.0-1.0-447.0-0.0","0","0","94222","","null","","","null","49","","","","","","","","","","","","","","","",""
"","ITI","","html-keyboard-response","325","333369","0.0-1.0-450.0","0","0","94222","","null","","","null","49","","","","","","","","","","","","","","","NaN",""
"","S1","","html-keyboard-response","326","333623","0.0-1.0-452.0","0","0","94222","","null","","","null","50","","","","","","","","","","","","","","","",""
"","ISI","","html-keyboard-response","327","334627","0.0-1.0-453.0","0","0","94222","","null","","","null","50","NaN","","","","","","","","","","","","","","",""
"","S2","","html-keyboard-response","328","334880","0.0-1.0-454.0","0","0","94222","","null","","","null","50","","NaN","","","","","","","","","","","","","",""
"","response","","html-keyboard-response","329","334916","0.0-1.0-455.0-0.0","0","0","94222","","32","","","75","50","","","2","50","training","adjacent","BC","2","3","M.jpg","O.jpg","0","1","0","",""
"","feedback","","html-keyboard-response","330","335921","0.0-1.0-456.0-0.0","0","0","94222","","null","","","null","50","","","","","","","","","","","","","","","",""
"","time_out","","html-keyboard-response","331","337925","0.0-1.0-458.0-0.0","0","0","94222","","null","","","null","50","","","","","","","","","","","","","","","",""
"","ITI","","html-keyboard-response","332","338929","0.0-1.0-459.0","0","0","94222","","null","","","null","50","","","","","","","","","","","","","","","NaN",""
"","S1","","html-keyboard-response","333","339182","0.0-1.0-461.0","0","0","94222","","null","","","null","51","","","","","","","","","","","","","","","",""
"","ISI","","html-keyboard-response","334","340186","0.0-1.0-462.0","0","0","94222","","null","","","null","51","NaN","","","","","","","","","","","","","","",""
"","S2","","html-keyboard-response","335","340440","0.0-1.0-463.0","0","0","94222","","null","","","null","51","","NaN","","","","","","","","","","","","","",""
"","response","","html-keyboard-response","336","340500","0.0-1.0-464.0-0.0","0","0","94222","","57","","","68","51","","","2","51","training","adjacent","EF","5","6","N.jpg","R.jpg","1","1","1","",""
"","feedback","","html-keyboard-response","337","341504","0.0-1.0-465.0-0.0","0","0","94222","","null","","","null","51","","","","","","","","","","","","","","","",""
"","ITI","","html-keyboard-response","338","342509","0.0-1.0-468.0","0","0","94222","","null","","","null","51","","","","","","","","","","","","","","","NaN",""
"","S1","","html-keyboard-response","339","342763","0.0-1.0-470.0","0","0","94222","","null","","","null","52","","","","","","","","","","","","","","","",""
"","ISI","","html-keyboard-response","340","343767","0.0-1.0-471.0","0","0","94222","","null","","","null","52","NaN","","","","","","","","","","","","","","",""
"","S2","","html-keyboard-response","341","344022","0.0-1.0-472.0","0","0","94222","","null","","","null","52","","NaN","","","","","","","","","","","","","",""
"","response","","html-keyboard-response","342","344055","0.0-1.0-473.0-0.0","0","0","94222","","30","","","75","52","","","2","52","training","adjacent","BA","2","1","M.jpg","P.jpg","0","0","1","",""
"","feedback","","html-keyboard-response","343","345071","0.0-1.0-474.0-0.0","0","0","94222","","null","","","null","52","","","","","","","","","","","","","","","",""
"","ITI","","html-keyboard-response","344","346074","0.0-1.0-477.0","0","0","94222","","null","","","null","52","","","","","","","","","","","","","","","NaN",""
"","S1","","html-keyboard-response","345","346328","0.0-1.0-479.0","0","0","94222","","null","","","null","53","","","","","","","","","","","","","","","",""
"","ISI","","html-keyboard-response","346","347332","0.0-1.0-480.0","0","0","94222","","null","","","null","53","NaN","","","","","","","","","","","","","","",""
"","S2","","html-keyboard-response","347","347586","0.0-1.0-481.0","0","0","94222","","null","","","null","53","","NaN","","","","","","","","","","","","","",""
"","response","","html-keyboard-response","348","347646","0.0-1.0-482.0-0.0","0","0","94222","","56","","","75","53","","","2","53","training","adjacent","BC","2","3","M.jpg","O.jpg","0","1","0","",""
"","feedback","","html-keyboard-response","349","348651","0.0-1.0-483.0-0.0","0","0","94222","","null","","","null","53","","","","","","","","","","","","","","","",""
"","time_out","","html-keyboard-response","350","350655","0.0-1.0-485.0-0.0","0","0","94222","","null","","","null","53","","","","","","","","","","","","","","","",""
"","ITI","","html-keyboard-response","351","351658","0.0-1.0-486.0","0","0","94222","","null","","","null","53","","","","","","","","","","","","","","","NaN",""
"","S1","","html-keyboard-response","352","351924","0.0-1.0-488.0","0","0","94222","","null","","","null","54","","","","","","","","","","","","","","","",""
"","ISI","","html-keyboard-response","353","352928","0.0-1.0-489.0","0","0","94222","","null","","","null","54","NaN","","","","","","","","","","","","","","",""
"","S2","","html-keyboard-response","354","353182","0.0-1.0-490.0","0","0","94222","","null","","","null","54","","NaN","","","","","","","","","","","","","",""
"","response","","html-keyboard-response","355","353271","0.0-1.0-491.0-0.0","0","0","94222","","87","","","75","54","","","2","54","training","adjacent","DE","4","5","Q.jpg","N.jpg","0","1","0","",""
"","feedback","","html-keyboard-response","356","354275","0.0-1.0-492.0-0.0","0","0","94222","","null","","","null","54","","","","","","","","","","","","","","","",""
"","time_out","","html-keyboard-response","357","356279","0.0-1.0-494.0-0.0","0","0","94222","","null","","","null","54","","","","","","","","","","","","","","","",""
"","ITI","","html-keyboard-response","358","357282","0.0-1.0-495.0","0","0","94222","","null","","","null","54","","","","","","","","","","","","","","","NaN",""
"","S1","","html-keyboard-response","359","357536","0.0-1.0-497.0","0","0","94222","","null","","","null","55","","","","","","","","","","","","","","","",""
"","ISI","","html-keyboard-response","360","358540","0.0-1.0-498.0","0","0","94222","","null","","","null","55","NaN","","","","","","","","","","","","","","",""
"","S2","","html-keyboard-response","361","358795","0.0-1.0-499.0","0","0","94222","","null","","","null","55","","NaN","","","","","","","","","","","","","",""
"","response","","html-keyboard-response","362","358924","0.0-1.0-500.0-0.0","0","0","94222","","127","","","75","55","","","2","55","training","adjacent","DE","4","5","Q.jpg","N.jpg","0","1","0","",""
"","feedback","","html-keyboard-response","363","359929","0.0-1.0-501.0-0.0","0","0","94222","","null","","","null","55","","","","","","","","","","","","","","","",""
"","time_out","","html-keyboard-response","364","361931","0.0-1.0-503.0-0.0","0","0","94222","","null","","","null","55","","","","","","","","","","","","","","","",""
"","ITI","","html-keyboard-response","365","362934","0.0-1.0-504.0","0","0","94222","","null","","","null","55","","","","","","","","","","","","","","","NaN",""
"","S1","","html-keyboard-response","366","363188","0.0-1.0-506.0","0","0","94222","","null","","","null","56","","","","","","","","","","","","","","","",""
"","ISI","","html-keyboard-response","367","364192","0.0-1.0-507.0","0","0","94222","","149","","","68","56","d","","","","","","","","","","","","","","",""
"","S2","","html-keyboard-response","368","364445","0.0-1.0-508.0","0","0","94222","","null","","","null","56","","NaN","","","","","","","","","","","","","",""
"","response","","html-keyboard-response","369","364576","0.0-1.0-509.0-0.0","0","0","94222","","129","","","68","56","","","2","56","training","adjacent","ED","5","4","N.jpg","Q.jpg","1","0","0","",""
"","feedback","","html-keyboard-response","370","365580","0.0-1.0-510.0-0.0","0","0","94222","","null","","","null","56","","","","","","","","","","","","","","","",""
"","time_out","","html-keyboard-response","371","367583","0.0-1.0-512.0-0.0","0","0","94222","","null","","","null","56","","","","","","","","","","","","","","","",""
"","ITI","","html-keyboard-response","372","368587","0.0-1.0-513.0","0","0","94222","","null","","","null","56","","","","","","","","","","","","","","","NaN",""
"","S1","","html-keyboard-response","373","368840","0.0-1.0-515.0","0","0","94222","","null","","","null","57","","","","","","","","","","","","","","","",""
"","ISI","","html-keyboard-response","374","369844","0.0-1.0-516.0","0","0","94222","","null","","","null","57","NaN","","","","","","","","","","","","","","",""
"","S2","","html-keyboard-response","375","370097","0.0-1.0-517.0","0","0","94222","","null","","","null","57","","NaN","","","","","","","","","","","","","",""
"","response","","html-keyboard-response","376","370101","0.0-1.0-518.0-0.0","0","0","94222","","2","","","75","57","","","2","57","training","adjacent","DC","4","3","Q.jpg","O.jpg","0","0","1","",""
"","feedback","","html-keyboard-response","377","371104","0.0-1.0-519.0-0.0","0","0","94222","","null","","","null","57","","","","","","","","","","","","","","","",""
"","ITI","","html-keyboard-response","378","372108","0.0-1.0-522.0","0","0","94222","","null","","","null","57","","","","","","","","","","","","","","","NaN",""
"","S1","","html-keyboard-response","379","372361","0.0-1.0-524.0","0","0","94222","","null","","","null","58","","","","","","","","","","","","","","","",""
"","ISI","","html-keyboard-response","380","373365","0.0-1.0-525.0","0","0","94222","","null","","","null","58","NaN","","","","","","","","","","","","","","",""
"","S2","","html-keyboard-response","381","373619","0.0-1.0-526.0","0","0","94222","","null","","","null","58","","NaN","","","","","","","","","","","","","",""
"","response","","html-keyboard-response","382","373695","0.0-1.0-527.0-0.0","0","0","94222","","74","","","75","58","","","2","58","training","adjacent","DE","4","5","Q.jpg","N.jpg","0","1","0","",""
"","feedback","","html-keyboard-response","383","374700","0.0-1.0-528.0-0.0","0","0","94222","","null","","","null","58","","","","","","","","","","","","","","","",""
"","time_out","","html-keyboard-response","384","376705","0.0-1.0-530.0-0.0","0","0","94222","","null","","","null","58","","","","","","","","","","","","","","","",""
"","ITI","","html-keyboard-response","385","377707","0.0-1.0-531.0","0","0","94222","","643","","","83","58","","","","","","","","","","","","","","","s",""
"","S1","","html-keyboard-response","386","377960","0.0-1.0-533.0","0","0","94222","","null","","","null","59","","","","","","","","","","","","","","","",""
"","ISI","","html-keyboard-response","387","378975","0.0-1.0-534.0","0","0","94222","","null","","","null","59","NaN","","","","","","","","","","","","","","",""
"","S2","","html-keyboard-response","388","379228","0.0-1.0-535.0","0","0","94222","","null","","","null","59","","NaN","","","","","","","","","","","","","",""
"","response","","html-keyboard-response","389","379301","0.0-1.0-536.0-0.0","0","0","94222","","71","","","68","59","","","2","59","training","adjacent","EF","5","6","N.jpg","R.jpg","1","1","1","",""
"","feedback","","html-keyboard-response","390","380306","0.0-1.0-537.0-0.0","0","0","94222","","null","","","null","59","","","","","","","","","","","","","","","",""
"","ITI","","html-keyboard-response","391","381309","0.0-1.0-540.0","0","0","94222","","null","","","null","59","","","","","","","","","","","","","","","NaN",""
"","S1","","html-keyboard-response","392","381562","0.0-1.0-542.0","0","0","94222","","null","","","null","60","","","","","","","","","","","","","","","",""
"","ISI","","html-keyboard-response","393","382564","0.0-1.0-543.0","0","0","94222","","null","","","null","60","NaN","","","","","","","","","","","","","","",""
"","S2","","html-keyboard-response","394","382818","0.0-1.0-544.0","0","0","94222","","null","","","null","60","","NaN","","","","","","","","","","","","","",""
"","response","","html-keyboard-response","395","383113","0.0-1.0-545.0-0.0","0","0","94222","","292","","","75","60","","","2","60","training","adjacent","BA","2","1","M.jpg","P.jpg","0","0","1","",""
"","feedback","","html-keyboard-response","396","384118","0.0-1.0-546.0-0.0","0","0","94222","","null","","","null","60","","","","","","","","","","","","","","","",""
"","ITI","","html-keyboard-response","397","385123","0.0-1.0-549.0","0","0","94222","","null","","","null","60","","","","","","","","","","","","","","","NaN",""
"","S1","","html-keyboard-response","398","385375","0.0-1.0-551.0","0","0","94222","","null","","","null","61","","","","","","","","","","","","","","","",""
"","ISI","","html-keyboard-response","399","386377","0.0-1.0-552.0","0","0","94222","","null","","","null","61","NaN","","","","","","","","","","","","","","",""
"","S2","","html-keyboard-response","400","386631","0.0-1.0-553.0","0","0","94222","","null","","","null","61","","NaN","","","","","","","","","","","","","",""
"","response","","html-keyboard-response","401","387185","0.0-1.0-554.0-0.0","0","0","94222","","551","","","75","61","","","2","61","training","adjacent","BA","2","1","M.jpg","P.jpg","0","0","1","",""
"","feedback","","html-keyboard-response","402","388190","0.0-1.0-555.0-0.0","0","0","94222","","null","","","null","61","","","","","","","","","","","","","","","",""
"","ITI","","html-keyboard-response","403","389194","0.0-1.0-558.0","0","0","94222","","null","","","null","61","","","","","","","","","","","","","","","NaN",""
"","S1","","html-keyboard-response","404","389447","0.0-1.0-560.0","0","0","94222","","null","","","null","62","","","","","","","","","","","","","","","",""
"","ISI","","html-keyboard-response","405","390449","0.0-1.0-561.0","0","0","94222","","null","","","null","62","NaN","","","","","","","","","","","","","","",""
"","S2","","html-keyboard-response","406","390704","0.0-1.0-562.0","0","0","94222","","null","","","null","62","","NaN","","","","","","","","","","","","","",""
"","response","","html-keyboard-response","407","390827","0.0-1.0-563.0-0.0","0","0","94222","","121","","","75","62","","","2","62","training","adjacent","AB","1","2","P.jpg","M.jpg","0","1","0","",""
"","feedback","","html-keyboard-response","408","391830","0.0-1.0-564.0-0.0","0","0","94222","","null","","","null","62","","","","","","","","","","","","","","","",""
"","time_out","","html-keyboard-response","409","393833","0.0-1.0-566.0-0.0","0","0","94222","","null","","","null","62","","","","","","","","","","","","","","","",""
"","ITI","","html-keyboard-response","410","394837","0.0-1.0-567.0","0","0","94222","","null","","","null","62","","","","","","","","","","","","","","","NaN",""
"","S1","","html-keyboard-response","411","395091","0.0-1.0-569.0","0","0","94222","","null","","","null","63","","","","","","","","","","","","","","","",""
"","ISI","","html-keyboard-response","412","396093","0.0-1.0-570.0","0","0","94222","","null","","","null","63","NaN","","","","","","","","","","","","","","",""
"","S2","","html-keyboard-response","413","396347","0.0-1.0-571.0","0","0","94222","","null","","","null","63","","NaN","","","","","","","","","","","","","",""
"","response","","html-keyboard-response","414","396403","0.0-1.0-572.0-0.0","0","0","94222","","53","","","75","63","","","2","63","training","adjacent","GF","7","6","L.jpg","R.jpg","0","0","1","",""
"","feedback","","html-keyboard-response","415","397408","0.0-1.0-573.0-0.0","0","0","94222","","null","","","null","63","","","","","","","","","","","","","","","",""
"","ITI","","html-keyboard-response","416","398412","0.0-1.0-576.0","0","0","94222","","null","","","null","63","","","","","","","","","","","","","","","NaN",""
"","S1","","html-keyboard-response","417","398665","0.0-1.0-578.0","0","0","94222","","null","","","null","64","","","","","","","","","","","","","","","",""
"","ISI","","html-keyboard-response","418","399669","0.0-1.0-579.0","0","0","94222","","null","","","null","64","NaN","","","","","","","","","","","","","","",""
"","S2","","html-keyboard-response","419","399924","0.0-1.0-580.0","0","0","94222","","null","","","null","64","","NaN","","","","","","","","","","","","","",""
"","response","","html-keyboard-response","420","400030","0.0-1.0-581.0-0.0","0","0","94222","","104","","","68","64","","","2","64","training","adjacent","ED","5","4","N.jpg","Q.jpg","1","0","0","",""
"","feedback","","html-keyboard-response","421","401035","0.0-1.0-582.0-0.0","0","0","94222","","null","","","null","64","","","","","","","","","","","","","","","",""
"","time_out","","html-keyboard-response","422","403039","0.0-1.0-584.0-0.0","0","0","94222","","null","","","null","64","","","","","","","","","","","","","","","",""
"","ITI","","html-keyboard-response","423","404058","0.0-1.0-585.0","0","0","94222","","null","","","null","64","","","","","","","","","","","","","","","NaN",""
"","S1","","html-keyboard-response","424","404311","0.0-1.0-587.0","0","0","94222","","null","","","null","65","","","","","","","","","","","","","","","",""
"","ISI","","html-keyboard-response","425","405315","0.0-1.0-588.0","0","0","94222","","12","","","75","65","k","","","","","","","","","","","","","","",""
"","S2","","html-keyboard-response","426","405551","0.0-1.0-589.0","0","0","94222","","232","","","75","65","","k","2","65","training","adjacent","AB","1","2","P.jpg","M.jpg","0","1","0","",""
"","feedback","","html-keyboard-response","427","406556","0.0-1.0-591.0-0.0","0","0","94222","","null","","","null","65","","","","","","","","","","","","","","","",""
"","time_out","","html-keyboard-response","428","408560","0.0-1.0-593.0-0.0","0","0","94222","","null","","","null","65","","","","","","","","","","","","","","","",""
"","ITI","","html-keyboard-response","429","409562","0.0-1.0-594.0","0","0","94222","","null","","","null","65","","","","","","","","","","","","","","","NaN",""
"","S1","","html-keyboard-response","430","409816","0.0-1.0-596.0","0","0","94222","","null","","","null","66","","","","","","","","","","","","","","","",""
"","ISI","","html-keyboard-response","431","410819","0.0-1.0-597.0","0","0","94222","","92","","","75","66","k","","","","","","","","","","","","","","",""
"","S2","","html-keyboard-response","432","411072","0.0-1.0-598.0","0","0","94222","","null","","","null","66","","NaN","","","","","","","","","","","","","",""
"","response","","html-keyboard-response","433","411139","0.0-1.0-599.0-0.0","0","0","94222","","65","","","75","66","","","2","66","training","adjacent","BC","2","3","M.jpg","O.jpg","0","1","0","",""
"","feedback","","html-keyboard-response","434","412142","0.0-1.0-600.0-0.0","0","0","94222","","null","","","null","66","","","","","","","","","","","","","","","",""
"","time_out","","html-keyboard-response","435","414145","0.0-1.0-602.0-0.0","0","0","94222","","null","","","null","66","","","","","","","","","","","","","","","",""
"","ITI","","html-keyboard-response","436","415147","0.0-1.0-603.0","0","0","94222","","null","","","null","66","","","","","","","","","","","","","","","NaN",""
"","S1","","html-keyboard-response","437","415401","0.0-1.0-605.0","0","0","94222","","null","","","null","67","","","","","","","","","","","","","","","",""
"","ISI","","html-keyboard-response","438","416417","0.0-1.0-606.0","0","0","94222","","211","","","75","67","k","","","","","","","","","","","","","","",""
"","S2","","html-keyboard-response","439","416670","0.0-1.0-607.0","0","0","94222","","null","","","null","67","","NaN","","","","","","","","","","","","","",""
"","response","","html-keyboard-response","440","416961","0.0-1.0-608.0-0.0","0","0","94222","","289","","","75","67","","","2","67","training","adjacent","FE","6","5","R.jpg","N.jpg","0","0","1","",""
"","feedback","","html-keyboard-response","441","417966","0.0-1.0-609.0-0.0","0","0","94222","","null","","","null","67","","","","","","","","","","","","","","","",""
"","ITI","","html-keyboard-response","442","418971","0.0-1.0-612.0","0","0","94222","","null","","","null","67","","","","","","","","","","","","","","","NaN",""
"","S1","","html-keyboard-response","443","419224","0.0-1.0-614.0","0","0","94222","","null","","","null","68","","","","","","","","","","","","","","","",""
"","ISI","","html-keyboard-response","444","420227","0.0-1.0-615.0","0","0","94222","","null","","","null","68","NaN","","","","","","","","","","","","","","",""
"","S2","","html-keyboard-response","445","420481","0.0-1.0-616.0","0","0","94222","","null","","","null","68","","NaN","","","","","","","","","","","","","",""
"","response","","html-keyboard-response","446","420708","0.0-1.0-617.0-0.0","0","0","94222","","224","","","75","68","","","2","68","training","adjacent","CD","3","4","O.jpg","Q.jpg","0","1","0","",""
"","feedback","","html-keyboard-response","447","421713","0.0-1.0-618.0-0.0","0","0","94222","","null","","","null","68","","","","","","","","","","","","","","","",""
"","time_out","","html-keyboard-response","448","423717","0.0-1.0-620.0-0.0","0","0","94222","","null","","","null","68","","","","","","","","","","","","","","","",""
"","ITI","","html-keyboard-response","449","424721","0.0-1.0-621.0","0","0","94222","","null","","","null","68","","","","","","","","","","","","","","","NaN",""
"","S1","","html-keyboard-response","450","424974","0.0-1.0-623.0","0","0","94222","","null","","","null","69","","","","","","","","","","","","","","","",""
"","ISI","","html-keyboard-response","451","425978","0.0-1.0-624.0","0","0","94222","","null","","","null","69","NaN","","","","","","","","","","","","","","",""
"","S2","","html-keyboard-response","452","426239","0.0-1.0-625.0","0","0","94222","","null","","","null","69","","NaN","","","","","","","","","","","","","",""
"","response","","html-keyboard-response","453","426287","0.0-1.0-626.0-0.0","0","0","94222","","46","","","75","69","","","2","69","training","adjacent","DE","4","5","Q.jpg","N.jpg","0","1","0","",""
"","feedback","","html-keyboard-response","454","427293","0.0-1.0-627.0-0.0","0","0","94222","","null","","","null","69","","","","","","","","","","","","","","","",""
"","time_out","","html-keyboard-response","455","429298","0.0-1.0-629.0-0.0","0","0","94222","","null","","","null","69","","","","","","","","","","","","","","","",""
"","ITI","","html-keyboard-response","456","430302","0.0-1.0-630.0","0","0","94222","","null","","","null","69","","","","","","","","","","","","","","","NaN",""
"","S1","","html-keyboard-response","457","430555","0.0-1.0-632.0","0","0","94222","","null","","","null","70","","","","","","","","","","","","","","","",""
"","ISI","","html-keyboard-response","458","431557","0.0-1.0-633.0","0","0","94222","","null","","","null","70","NaN","","","","","","","","","","","","","","",""
"","S2","","html-keyboard-response","459","431817","0.0-1.0-634.0","0","0","94222","","null","","","null","70","","NaN","","","","","","","","","","","","","",""
"","response","","html-keyboard-response","460","431909","0.0-1.0-635.0-0.0","0","0","94222","","90","","","75","70","","","2","70","training","adjacent","GF","7","6","L.jpg","R.jpg","0","0","1","",""
"","feedback","","html-keyboard-response","461","432915","0.0-1.0-636.0-0.0","0","0","94222","","null","","","null","70","","","","","","","","","","","","","","","",""
"","ITI","","html-keyboard-response","462","433920","0.0-1.0-639.0","0","0","94222","","null","","","null","70","","","","","","","","","","","","","","","NaN",""
"","S1","","html-keyboard-response","463","434174","0.0-1.0-641.0","0","0","94222","","null","","","null","71","","","","","","","","","","","","","","","",""
"","ISI","","html-keyboard-response","464","435178","0.0-1.0-642.0","0","0","94222","","null","","","null","71","NaN","","","","","","","","","","","","","","",""
"","S2","","html-keyboard-response","465","435433","0.0-1.0-643.0","0","0","94222","","null","","","null","71","","NaN","","","","","","","","","","","","","",""
"","response","","html-keyboard-response","466","435611","0.0-1.0-644.0-0.0","0","0","94222","","175","","","75","71","","","2","71","training","adjacent","FG","6","7","R.jpg","L.jpg","0","1","0","",""
"","feedback","","html-keyboard-response","467","436615","0.0-1.0-645.0-0.0","0","0","94222","","null","","","null","71","","","","","","","","","","","","","","","",""
"","time_out","","html-keyboard-response","468","438620","0.0-1.0-647.0-0.0","0","0","94222","","null","","","null","71","","","","","","","","","","","","","","","",""
"","ITI","","html-keyboard-response","469","439622","0.0-1.0-648.0","0","0","94222","","null","","","null","71","","","","","","","","","","","","","","","NaN",""
"","S1","","html-keyboard-response","470","439875","0.0-1.0-650.0","0","0","94222","","null","","","null","72","","","","","","","","","","","","","","","",""
"","ISI","","html-keyboard-response","471","440877","0.0-1.0-651.0","0","0","94222","","null","","","null","72","NaN","","","","","","","","","","","","","","",""
"","S2","","html-keyboard-response","472","441130","0.0-1.0-652.0","0","0","94222","","null","","","null","72","","NaN","","","","","","","","","","","","","",""
"","response","","html-keyboard-response","473","441482","0.0-1.0-653.0-0.0","0","0","94222","","350","","","75","72","","","2","72","training","adjacent","CD","3","4","O.jpg","Q.jpg","0","1","0","",""
"","feedback","","html-keyboard-response","474","442488","0.0-1.0-654.0-0.0","0","0","94222","","null","","","null","72","","","","","","","","","","","","","","","",""
"","time_out","","html-keyboard-response","475","444491","0.0-1.0-656.0-0.0","0","0","94222","","null","","","null","72","","","","","","","","","","","","","","","",""
"","ITI","","html-keyboard-response","476","445494","0.0-1.0-657.0","0","0","94222","","null","","","null","72","","","","","","","","","","","","","","","NaN",""
"","S1","","html-keyboard-response","477","445748","0.0-1.0-659.0","0","0","94222","","null","","","null","73","","","","","","","","","","","","","","","",""
"","ISI","","html-keyboard-response","478","446757","0.0-1.0-660.0","0","0","94222","","null","","","null","73","NaN","","","","","","","","","","","","","","",""
"","S2","","html-keyboard-response","479","447010","0.0-1.0-661.0","0","0","94222","","null","","","null","73","","NaN","","","","","","","","","","","","","",""
"","response","","html-keyboard-response","480","447047","0.0-1.0-662.0-0.0","0","0","94222","","36","","","75","73","","","2","73","training","adjacent","FE","6","5","R.jpg","N.jpg","0","0","1","",""
"","feedback","","html-keyboard-response","481","448051","0.0-1.0-663.0-0.0","0","0","94222","","null","","","null","73","","","","","","","","","","","","","","","",""
"","ITI","","html-keyboard-response","482","449054","0.0-1.0-666.0","0","0","94222","","null","","","null","73","","","","","","","","","","","","","","","NaN",""
"","S1","","html-keyboard-response","483","449307","0.0-1.0-668.0","0","0","94222","","null","","","null","74","","","","","","","","","","","","","","","",""
"","ISI","","html-keyboard-response","484","450310","0.0-1.0-669.0","0","0","94222","","null","","","null","74","NaN","","","","","","","","","","","","","","",""
"","S2","","html-keyboard-response","485","450564","0.0-1.0-670.0","0","0","94222","","null","","","null","74","","NaN","","","","","","","","","","","","","",""
"","response","","html-keyboard-response","486","450924","0.0-1.0-671.0-0.0","0","0","94222","","357","","","75","74","","","2","74","training","adjacent","CB","3","2","O.jpg","M.jpg","0","0","1","",""
"","feedback","","html-keyboard-response","487","451928","0.0-1.0-672.0-0.0","0","0","94222","","null","","","null","74","","","","","","","","","","","","","","","",""
"","ITI","","html-keyboard-response","488","452931","0.0-1.0-675.0","0","0","94222","","null","","","null","74","","","","","","","","","","","","","","","NaN",""
"","S1","","html-keyboard-response","489","453184","0.0-1.0-677.0","0","0","94222","","null","","","null","75","","","","","","","","","","","","","","","",""
"","ISI","","html-keyboard-response","490","454189","0.0-1.0-678.0","0","0","94222","","null","","","null","75","NaN","","","","","","","","","","","","","","",""
"","S2","","html-keyboard-response","491","454443","0.0-1.0-679.0","0","0","94222","","null","","","null","75","","NaN","","","","","","","","","","","","","",""
"","response","","html-keyboard-response","492","454713","0.0-1.0-680.0-0.0","0","0","94222","","268","","","75","75","","","2","75","training","adjacent","DC","4","3","Q.jpg","O.jpg","0","0","1","",""
"","feedback","","html-keyboard-response","493","455718","0.0-1.0-681.0-0.0","0","0","94222","","null","","","null","75","","","","","","","","","","","","","","","",""
"","ITI","","html-keyboard-response","494","456723","0.0-1.0-684.0","0","0","94222","","null","","","null","75","","","","","","","","","","","","","","","NaN",""
"","S1","","html-keyboard-response","495","456978","0.0-1.0-686.0","0","0","94222","","null","","","null","76","","","","","","","","","","","","","","","",""
"","ISI","","html-keyboard-response","496","457983","0.0-1.0-687.0","0","0","94222","","null","","","null","76","NaN","","","","","","","","","","","","","","",""
"","S2","","html-keyboard-response","497","458237","0.0-1.0-688.0","0","0","94222","","null","","","null","76","","NaN","","","","","","","","","","","","","",""
"","response","","html-keyboard-response","498","458571","0.0-1.0-689.0-0.0","0","0","94222","","332","","","75","76","","","2","76","training","adjacent","FG","6","7","R.jpg","L.jpg","0","1","0","",""
"","feedback","","html-keyboard-response","499","459574","0.0-1.0-690.0-0.0","0","0","94222","","null","","","null","76","","","","","","","","","","","","","","","",""
"","time_out","","html-keyboard-response","500","461577","0.0-1.0-692.0-0.0","0","0","94222","","null","","","null","76","","","","","","","","","","","","","","","",""
"","ITI","","html-keyboard-response","501","462580","0.0-1.0-693.0","0","0","94222","","null","","","null","76","","","","","","","","","","","","","","","NaN",""
"","S1","","html-keyboard-response","502","462835","0.0-1.0-695.0","0","0","94222","","null","","","null","77","","","","","","","","","","","","","","","",""
"","ISI","","html-keyboard-response","503","463839","0.0-1.0-696.0","0","0","94222","","null","","","null","77","NaN","","","","","","","","","","","","","","",""
"","S2","","html-keyboard-response","504","464093","0.0-1.0-697.0","0","0","94222","","null","","","null","77","","NaN","","","","","","","","","","","","","",""
"","response","","html-keyboard-response","505","464346","0.0-1.0-698.0-0.0","0","0","94222","","250","","","75","77","","","2","77","training","adjacent","CD","3","4","O.jpg","Q.jpg","0","1","0","",""
"","feedback","","html-keyboard-response","506","465350","0.0-1.0-699.0-0.0","0","0","94222","","null","","","null","77","","","","","","","","","","","","","","","",""
"","time_out","","html-keyboard-response","507","467353","0.0-1.0-701.0-0.0","0","0","94222","","null","","","null","77","","","","","","","","","","","","","","","",""
"","ITI","","html-keyboard-response","508","468357","0.0-1.0-702.0","0","0","94222","","null","","","null","77","","","","","","","","","","","","","","","NaN",""
"","S1","","html-keyboard-response","509","468611","0.0-1.0-704.0","0","0","94222","","null","","","null","78","","","","","","","","","","","","","","","",""
"","ISI","","html-keyboard-response","510","469613","0.0-1.0-705.0","0","0","94222","","null","","","null","78","NaN","","","","","","","","","","","","","","",""
"","S2","","html-keyboard-response","511","469867","0.0-1.0-706.0","0","0","94222","","null","","","null","78","","NaN","","","","","","","","","","","","","",""
"","response","","html-keyboard-response","512","470069","0.0-1.0-707.0-0.0","0","0","94222","","199","","","75","78","","","2","78","training","adjacent","AB","1","2","P.jpg","M.jpg","0","1","0","",""
"","feedback","","html-keyboard-response","513","471074","0.0-1.0-708.0-0.0","0","0","94222","","null","","","null","78","","","","","","","","","","","","","","","",""
"","time_out","","html-keyboard-response","514","473077","0.0-1.0-710.0-0.0","0","0","94222","","null","","","null","78","","","","","","","","","","","","","","","",""
"","ITI","","html-keyboard-response","515","474079","0.0-1.0-711.0","0","0","94222","","null","","","null","78","","","","","","","","","","","","","","","NaN",""
"","S1","","html-keyboard-response","516","474334","0.0-1.0-713.0","0","0","94222","","null","","","null","79","","","","","","","","","","","","","","","",""
"","ISI","","html-keyboard-response","517","475337","0.0-1.0-714.0","0","0","94222","","null","","","null","79","NaN","","","","","","","","","","","","","","",""
"","S2","","html-keyboard-response","518","475590","0.0-1.0-715.0","0","0","94222","","null","","","null","79","","NaN","","","","","","","","","","","","","",""
"","response","","html-keyboard-response","519","475874","0.0-1.0-716.0-0.0","0","0","94222","","281","","","75","79","","","2","79","training","adjacent","CB","3","2","O.jpg","M.jpg","0","0","1","",""
"","feedback","","html-keyboard-response","520","476879","0.0-1.0-717.0-0.0","0","0","94222","","null","","","null","79","","","","","","","","","","","","","","","",""
"","ITI","","html-keyboard-response","521","477882","0.0-1.0-720.0","0","0","94222","","null","","","null","79","","","","","","","","","","","","","","","NaN",""
"","S1","","html-keyboard-response","522","478136","0.0-1.0-722.0","0","0","94222","","null","","","null","80","","","","","","","","","","","","","","","",""
"","ISI","","html-keyboard-response","523","479140","0.0-1.0-723.0","0","0","94222","","null","","","null","80","NaN","","","","","","","","","","","","","","",""
"","S2","","html-keyboard-response","524","479393","0.0-1.0-724.0","0","0","94222","","null","","","null","80","","NaN","","","","","","","","","","","","","",""
"","response","","html-keyboard-response","525","479758","0.0-1.0-725.0-0.0","0","0","94222","","361","","","68","80","","","2","80","training","adjacent","FG","6","7","R.jpg","L.jpg","1","1","1","",""
"","feedback","","html-keyboard-response","526","480761","0.0-1.0-726.0-0.0","0","0","94222","","null","","","null","80","","","","","","","","","","","","","","","",""
"","ITI","","html-keyboard-response","527","481764","0.0-1.0-729.0","0","0","94222","","null","","","null","80","","","","","","","","","","","","","","","NaN",""
"","S1","","html-keyboard-response","528","482019","0.0-1.0-731.0","0","0","94222","","null","","","null","81","","","","","","","","","","","","","","","",""
"","ISI","","html-keyboard-response","529","483022","0.0-1.0-732.0","0","0","94222","","null","","","null","81","NaN","","","","","","","","","","","","","","",""
"","S2","","html-keyboard-response","530","483276","0.0-1.0-733.0","0","0","94222","","null","","","null","81","","NaN","","","","","","","","","","","","","",""
"","response","","html-keyboard-response","531","483518","0.0-1.0-734.0-0.0","0","0","94222","","239","","","75","81","","","2","81","training","adjacent","ED","5","4","N.jpg","Q.jpg","0","0","1","",""
"","feedback","","html-keyboard-response","532","484522","0.0-1.0-735.0-0.0","0","0","94222","","null","","","null","81","","","","","","","","","","","","","","","",""
"","ITI","","html-keyboard-response","533","485526","0.0-1.0-738.0","0","0","94222","","null","","","null","81","","","","","","","","","","","","","","","NaN",""
"","S1","","html-keyboard-response","534","485780","0.0-1.0-740.0","0","0","94222","","null","","","null","82","","","","","","","","","","","","","","","",""
"","ISI","","html-keyboard-response","535","486785","0.0-1.0-741.0","0","0","94222","","null","","","null","82","NaN","","","","","","","","","","","","","","",""
"","S2","","html-keyboard-response","536","487038","0.0-1.0-742.0","0","0","94222","","null","","","null","82","","NaN","","","","","","","","","","","","","",""
"","response","","html-keyboard-response","537","487369","0.0-1.0-743.0-0.0","0","0","94222","","328","","","75","82","","","2","82","training","adjacent","AB","1","2","P.jpg","M.jpg","0","1","0","",""
"","feedback","","html-keyboard-response","538","488373","0.0-1.0-744.0-0.0","0","0","94222","","null","","","null","82","","","","","","","","","","","","","","","",""
"","time_out","","html-keyboard-response","539","490377","0.0-1.0-746.0-0.0","0","0","94222","","null","","","null","82","","","","","","","","","","","","","","","",""
"","ITI","","html-keyboard-response","540","491382","0.0-1.0-747.0","0","0","94222","","null","","","null","82","","","","","","","","","","","","","","","NaN",""
"","S1","","html-keyboard-response","541","491635","0.0-1.0-749.0","0","0","94222","","null","","","null","83","","","","","","","","","","","","","","","",""
"","ISI","","html-keyboard-response","542","492639","0.0-1.0-750.0","0","0","94222","","null","","","null","83","NaN","","","","","","","","","","","","","","",""
"","S2","","html-keyboard-response","543","492892","0.0-1.0-751.0","0","0","94222","","null","","","null","83","","NaN","","","","","","","","","","","","","",""
"","response","","html-keyboard-response","544","493114","0.0-1.0-752.0-0.0","0","0","94222","","220","","","68","83","","","2","83","training","adjacent","BC","2","3","M.jpg","O.jpg","1","1","1","",""
"","feedback","","html-keyboard-response","545","494117","0.0-1.0-753.0-0.0","0","0","94222","","null","","","null","83","","","","","","","","","","","","","","","",""
"","ITI","","html-keyboard-response","546","495121","0.0-1.0-756.0","0","0","94222","","null","","","null","83","","","","","","","","","","","","","","","NaN",""
"","S1","","html-keyboard-response","547","495375","0.0-1.0-758.0","0","0","94222","","null","","","null","84","","","","","","","","","","","","","","","",""
"","ISI","","html-keyboard-response","548","496393","0.0-1.0-759.0","0","0","94222","","null","","","null","84","NaN","","","","","","","","","","","","","","",""
"","S2","","html-keyboard-response","549","496648","0.0-1.0-760.0","0","0","94222","","null","","","null","84","","NaN","","","","","","","","","","","","","",""
"","response","","html-keyboard-response","550","496694","0.0-1.0-761.0-0.0","0","0","94222","","44","","","75","84","","","2","84","training","adjacent","FE","6","5","R.jpg","N.jpg","0","0","1","",""
"","feedback","","html-keyboard-response","551","497697","0.0-1.0-762.0-0.0","0","0","94222","","null","","","null","84","","","","","","","","","","","","","","","",""
"","ITI","","html-keyboard-response","552","498701","0.0-1.0-765.0","0","0","94222","","null","","","null","84","","","","","","","","","","","","","","","NaN",""
"","S1","","html-keyboard-response","553","498956","0.0-1.0-767.0","0","0","94222","","null","","","null","85","","","","","","","","","","","","","","","",""
"","ISI","","html-keyboard-response","554","499961","0.0-1.0-768.0","0","0","94222","","null","","","null","85","NaN","","","","","","","","","","","","","","",""
"","S2","","html-keyboard-response","555","500215","0.0-1.0-769.0","0","0","94222","","null","","","null","85","","NaN","","","","","","","","","","","","","",""
"","response","","html-keyboard-response","556","500535","0.0-1.0-770.0-0.0","0","0","94222","","317","","","75","85","","","2","85","training","adjacent","BA","2","1","M.jpg","P.jpg","0","0","1","",""
"","feedback","","html-keyboard-response","557","501538","0.0-1.0-771.0-0.0","0","0","94222","","null","","","null","85","","","","","","","","","","","","","","","",""
"","ITI","","html-keyboard-response","558","502543","0.0-1.0-774.0","0","0","94222","","null","","","null","85","","","","","","","","","","","","","","","NaN",""
"","S1","","html-keyboard-response","559","502797","0.0-1.0-776.0","0","0","94222","","null","","","null","86","","","","","","","","","","","","","","","",""
"","ISI","","html-keyboard-response","560","503799","0.0-1.0-777.0","0","0","94222","","null","","","null","86","NaN","","","","","","","","","","","","","","",""
"","S2","","html-keyboard-response","561","504057","0.0-1.0-778.0","0","0","94222","","null","","","null","86","","NaN","","","","","","","","","","","","","",""
"","response","","html-keyboard-response","562","504387","0.0-1.0-779.0-0.0","0","0","94222","","328","","","75","86","","","2","86","training","adjacent","CD","3","4","O.jpg","Q.jpg","0","1","0","",""
"","feedback","","html-keyboard-response","563","505391","0.0-1.0-780.0-0.0","0","0","94222","","null","","","null","86","","","","","","","","","","","","","","","",""
"","time_out","","html-keyboard-response","564","507395","0.0-1.0-782.0-0.0","0","0","94222","","null","","","null","86","","","","","","","","","","","","","","","",""
"","ITI","","html-keyboard-response","565","508399","0.0-1.0-783.0","0","0","94222","","null","","","null","86","","","","","","","","","","","","","","","NaN",""
"","S1","","html-keyboard-response","566","508654","0.0-1.0-785.0","0","0","94222","","null","","","null","87","","","","","","","","","","","","","","","",""
"","ISI","","html-keyboard-response","567","509657","0.0-1.0-786.0","0","0","94222","","null","","","null","87","NaN","","","","","","","","","","","","","","",""
"","S2","","html-keyboard-response","568","509901","0.0-1.0-787.0","0","0","94222","","241","","","75","87","","k","2","87","training","adjacent","EF","5","6","N.jpg","R.jpg","0","1","0","",""
"","feedback","","html-keyboard-response","569","510905","0.0-1.0-789.0-0.0","0","0","94222","","null","","","null","87","","","","","","","","","","","","","","","",""
"","time_out","","html-keyboard-response","570","512908","0.0-1.0-791.0-0.0","0","0","94222","","null","","","null","87","","","","","","","","","","","","","","","",""
"","ITI","","html-keyboard-response","571","513912","0.0-1.0-792.0","0","0","94222","","null","","","null","87","","","","","","","","","","","","","","","NaN",""
"","S1","","html-keyboard-response","572","514166","0.0-1.0-794.0","0","0","94222","","null","","","null","88","","","","","","","","","","","","","","","",""
"","ISI","","html-keyboard-response","573","515170","0.0-1.0-795.0","0","0","94222","","null","","","null","88","NaN","","","","","","","","","","","","","","",""
"","S2","","html-keyboard-response","574","515425","0.0-1.0-796.0","0","0","94222","","null","","","null","88","","NaN","","","","","","","","","","","","","",""
"","response","","html-keyboard-response","575","515735","0.0-1.0-797.0-0.0","0","0","94222","","308","","","68","88","","","2","88","training","adjacent","FG","6","7","R.jpg","L.jpg","1","1","1","",""
"","feedback","","html-keyboard-response","576","516738","0.0-1.0-798.0-0.0","0","0","94222","","null","","","null","88","","","","","","","","","","","","","","","",""
"","ITI","","html-keyboard-response","577","517741","0.0-1.0-801.0","0","0","94222","","null","","","null","88","","","","","","","","","","","","","","","NaN",""
"","S1","","html-keyboard-response","578","517995","0.0-1.0-803.0","0","0","94222","","null","","","null","89","","","","","","","","","","","","","","","",""
"","ISI","","html-keyboard-response","579","519003","0.0-1.0-804.0","0","0","94222","","null","","","null","89","NaN","","","","","","","","","","","","","","",""
"","S2","","html-keyboard-response","580","519257","0.0-1.0-805.0","0","0","94222","","null","","","null","89","","NaN","","","","","","","","","","","","","",""
"","response","","html-keyboard-response","581","519854","0.0-1.0-806.0-0.0","0","0","94222","","595","","","68","89","","","2","89","training","adjacent","CB","3","2","O.jpg","M.jpg","1","0","0","",""
