"success","ttype","start_time","trial_type","trial_index","time_elapsed","internal_node_id","warning","missed_checkup","PID","view_history","rt","responses","repeat_instructions","key_press","index","keypress_isi","keypress_S2","block","trial_num","phase","group_type","pair_type","S1_stim","S2_stim","S1_img","S2_img","S1_chosen","S1_higher","accuracy","keypress_iti","total_bonus_tally"
"true","full_screen","d03042023hr1435","fullscreen","0","5406","0.0-0.0","0","0","74365","","","","","","","","","","","","","","","","","","","","","",""
"","instructions","","instructions","1","48535","0.0-1.0-0.0-0.0","0","0","74365","[{""page_index"":0,""viewing_time"":6350},{""page_index"":1,""viewing_time"":25468},{""page_index"":2,""viewing_time"":8638},{""page_index"":3,""viewing_time"":2652}]","43111","","","","","","","","","","","","","","","","","","","",""
"","comprehension_check","","survey-multi-choice","2","104108","0.0-1.0-0.0-1.0","0","0","74365","","55543","{""Q0"":""True"",""Q1"":""K"",""Q2"":""Only when the screen 'MAKE A CHOICE' is shown"",""Q3"":""Green mark"",""Q4"":""either D or K""}","1","","","","","","","","","","","","","","","","","",""
"","missed_instruction_checkup","","html-keyboard-response","3","108019","0.0-1.0-0.0-2.0-0.0","0","1","74365","","3898","","","32","","","","","","","","","","","","","","","","",""
"","instructions","","instructions","4","174231","0.0-1.0-0.1-0.1","0","0","74365","[{""page_index"":0,""viewing_time"":55822},{""page_index"":1,""viewing_time"":7720},{""page_index"":2,""viewing_time"":1762},{""page_index"":3,""viewing_time"":888}]","66193","","","","","","","","","","","","","","","","","","","",""
"","comprehension_check","","survey-multi-choice","5","191369","0.0-1.0-0.1-1.1","0","0","74365","","17111","{""Q0"":""True"",""Q1"":""K"",""Q2"":""Once the second image appears and while the screen 'MAKE A CHOICE' is shown"",""Q3"":""Green mark"",""Q4"":""either D or K""}","0","","","","","","","","","","","","","","","","","",""
"","start_exp","","html-keyboard-response","6","194151","0.0-1.0-1.0","0","0","74365","","2774","","","32","","","","","","","","","","","","","","","","",""
"","S1","","html-keyboard-response","7","194411","0.0-1.0-2.0","0","0","74365","","null","","","null","0","","","","","","","","","","","","","","","",""
"","ISI","","html-keyboard-response","8","194917","0.0-1.0-3.0","0","0","74365","","null","","","null","0","NaN","","","","","","","","","","","","","","",""
"","S2","","html-keyboard-response","9","195174","0.0-1.0-4.0","0","0","74365","","null","","","null","0","","NaN","","","","","","","","","","","","","",""
"","response","","html-keyboard-response","10","196932","0.0-1.0-5.0-0.0","0","0","74365","","null","","","null","0","","","1","0","training","adjacent","ED","5","4","O.jpg","M.jpg","NaN","0","0","",""
"","too_slow_prompt","","html-keyboard-response","11","197942","0.0-1.0-7.0-0.0","1","0","74365","","null","","","null","","","","","","","","","","","","","","","","",""
"","time_out","","html-keyboard-response","12","199950","0.0-1.0-8.0-0.0","0","0","74365","","null","","","null","0","","","","","","","","","","","","","","","",""
"","ITI","","html-keyboard-response","13","200955","0.0-1.0-9.0","0","0","74365","","null","","","null","0","","","","","","","","","","","","","","","NaN",""
"","S1","","html-keyboard-response","14","201213","0.0-1.0-11.0","0","0","74365","","null","","","null","1","","","","","","","","","","","","","","","",""
"","ISI","","html-keyboard-response","15","201722","0.0-1.0-12.0","0","0","74365","","null","","","null","1","NaN","","","","","","","","","","","","","","",""
"","S2","","html-keyboard-response","16","201980","0.0-1.0-13.0","0","0","74365","","null","","","null","1","","NaN","","","","","","","","","","","","","",""
"","response","","html-keyboard-response","17","202324","0.0-1.0-14.0-0.0","0","0","74365","","338","","","75","1","","","1","1","training","adjacent","BA","2","1","N.jpg","L.jpg","1","0","0","",""
"","feedback","","html-keyboard-response","18","203333","0.0-1.0-15.0-0.0","0","0","74365","","null","","","null","1","","","","","","","","","","","","","","","",""
"","time_out","","html-keyboard-response","19","205338","0.0-1.0-17.0-0.0","0","0","74365","","null","","","null","1","","","","","","","","","","","","","","","",""
"","ITI","","html-keyboard-response","20","206343","0.0-1.0-18.0","0","0","74365","","null","","","null","1","","","","","","","","","","","","","","","NaN",""
"","S1","","html-keyboard-response","21","206597","0.0-1.0-20.0","0","0","74365","","null","","","null","2","","","","","","","","","","","","","","","",""
"","ISI","","html-keyboard-response","22","207102","0.0-1.0-21.0","0","0","74365","","null","","","null","2","NaN","","","","","","","","","","","","","","",""
"","S2","","html-keyboard-response","23","207359","0.0-1.0-22.0","0","0","74365","","null","","","null","2","","NaN","","","","","","","","","","","","","",""
"","response","","html-keyboard-response","24","207815","0.0-1.0-23.0-0.0","0","0","74365","","452","","","75","2","","","1","2","training","adjacent","CB","3","2","R.jpg","N.jpg","1","0","0","",""
"","feedback","","html-keyboard-response","25","208822","0.0-1.0-24.0-0.0","0","0","74365","","null","","","null","2","","","","","","","","","","","","","","","",""
"","time_out","","html-keyboard-response","26","210830","0.0-1.0-26.0-0.0","0","0","74365","","null","","","null","2","","","","","","","","","","","","","","","",""
"","ITI","","html-keyboard-response","27","211837","0.0-1.0-27.0","0","0","74365","","null","","","null","2","","","","","","","","","","","","","","","NaN",""
"","S1","","html-keyboard-response","28","212093","0.0-1.0-29.0","0","0","74365","","null","","","null","3","","","","","","","","","","","","","","","",""
"","ISI","","html-keyboard-response","29","212598","0.0-1.0-30.0","0","0","74365","","null","","","null","3","NaN","","","","","","","","","","","","","","",""
"","S2","","html-keyboard-response","30","212854","0.0-1.0-31.0","0","0","74365","","null","","","null","3","","NaN","","","","","","","","","","","","","",""
"","response","","html-keyboard-response","31","213479","0.0-1.0-32.0-0.0","0","0","74365","","620","","","68","3","","","1","3","training","adjacent","FE","6","5","Q.jpg","O.jpg","0","0","1","",""
"","feedback","","html-keyboard-response","32","214486","0.0-1.0-33.0-0.0","0","0","74365","","null","","","null","3","","","","","","","","","","","","","","","",""
"","ITI","","html-keyboard-response","33","215492","0.0-1.0-36.0","0","0","74365","","null","","","null","3","","","","","","","","","","","","","","","NaN",""
"","S1","","html-keyboard-response","34","215746","0.0-1.0-38.0","0","0","74365","","null","","","null","4","","","","","","","","","","","","","","","",""
"","ISI","","html-keyboard-response","35","216253","0.0-1.0-39.0","0","0","74365","","null","","","null","4","NaN","","","","","","","","","","","","","","",""
"","S2","","html-keyboard-response","36","216509","0.0-1.0-40.0","0","0","74365","","null","","","null","4","","NaN","","","","","","","","","","","","","",""
"","response","","html-keyboard-response","37","217002","0.0-1.0-41.0-0.0","0","0","74365","","487","","","68","4","","","1","4","training","adjacent","FG","6","7","Q.jpg","P.jpg","0","1","0","",""
"","feedback","","html-keyboard-response","38","218006","0.0-1.0-42.0-0.0","0","0","74365","","null","","","null","4","","","","","","","","","","","","","","","",""
"","time_out","","html-keyboard-response","39","220010","0.0-1.0-44.0-0.0","0","0","74365","","null","","","null","4","","","","","","","","","","","","","","","",""
"","ITI","","html-keyboard-response","40","221015","0.0-1.0-45.0","0","0","74365","","null","","","null","4","","","","","","","","","","","","","","","NaN",""
"","S1","","html-keyboard-response","41","221272","0.0-1.0-47.0","0","0","74365","","null","","","null","5","","","","","","","","","","","","","","","",""
"","ISI","","html-keyboard-response","42","221777","0.0-1.0-48.0","0","0","74365","","null","","","null","5","NaN","","","","","","","","","","","","","","",""
"","S2","","html-keyboard-response","43","222031","0.0-1.0-49.0","0","0","74365","","null","","","null","5","","NaN","","","","","","","","","","","","","",""
"","response","","html-keyboard-response","44","222464","0.0-1.0-50.0-0.0","0","0","74365","","428","","","75","5","","","1","5","training","adjacent","DC","4","3","M.jpg","R.jpg","1","0","0","",""
"","feedback","","html-keyboard-response","45","223470","0.0-1.0-51.0-0.0","0","0","74365","","null","","","null","5","","","","","","","","","","","","","","","",""
"","time_out","","html-keyboard-response","46","225478","0.0-1.0-53.0-0.0","0","0","74365","","null","","","null","5","","","","","","","","","","","","","","","",""
"","ITI","","html-keyboard-response","47","226484","0.0-1.0-54.0","0","0","74365","","null","","","null","5","","","","","","","","","","","","","","","NaN",""
"","S1","","html-keyboard-response","48","226742","0.0-1.0-56.0","0","0","74365","","null","","","null","6","","","","","","","","","","","","","","","",""
"","ISI","","html-keyboard-response","49","227247","0.0-1.0-57.0","0","0","74365","","null","","","null","6","NaN","","","","","","","","","","","","","","",""
"","S2","","html-keyboard-response","50","227504","0.0-1.0-58.0","0","0","74365","","null","","","null","6","","NaN","","","","","","","","","","","","","",""
"","response","","html-keyboard-response","51","227814","0.0-1.0-59.0-0.0","0","0","74365","","305","","","75","6","","","1","6","training","adjacent","DE","4","5","M.jpg","O.jpg","1","1","1","",""
"","feedback","","html-keyboard-response","52","228820","0.0-1.0-60.0-0.0","0","0","74365","","null","","","null","6","","","","","","","","","","","","","","","",""
"","ITI","","html-keyboard-response","53","229826","0.0-1.0-63.0","0","0","74365","","null","","","null","6","","","","","","","","","","","","","","","NaN",""
"","S1","","html-keyboard-response","54","230080","0.0-1.0-65.0","0","0","74365","","null","","","null","7","","","","","","","","","","","","","","","",""
"","ISI","","html-keyboard-response","55","230584","0.0-1.0-66.0","0","0","74365","","null","","","null","7","NaN","","","","","","","","","","","","","","",""
"","S2","","html-keyboard-response","56","230839","0.0-1.0-67.0","0","0","74365","","null","","","null","7","","NaN","","","","","","","","","","","","","",""
"","response","","html-keyboard-response","57","231125","0.0-1.0-68.0-0.0","0","0","74365","","281","","","68","7","","","1","7","training","adjacent","EF","5","6","O.jpg","Q.jpg","0","1","0","",""
"","feedback","","html-keyboard-response","58","232130","0.0-1.0-69.0-0.0","0","0","74365","","null","","","null","7","","","","","","","","","","","","","","","",""
"","time_out","","html-keyboard-response","59","234134","0.0-1.0-71.0-0.0","0","0","74365","","null","","","null","7","","","","","","","","","","","","","","","",""
"","ITI","","html-keyboard-response","60","235138","0.0-1.0-72.0","0","0","74365","","null","","","null","7","","","","","","","","","","","","","","","NaN",""
"","S1","","html-keyboard-response","61","235392","0.0-1.0-74.0","0","0","74365","","null","","","null","8","","","","","","","","","","","","","","","",""
"","ISI","","html-keyboard-response","62","235898","0.0-1.0-75.0","0","0","74365","","null","","","null","8","NaN","","","","","","","","","","","","","","",""
"","S2","","html-keyboard-response","63","236156","0.0-1.0-76.0","0","0","74365","","null","","","null","8","","NaN","","","","","","","","","","","","","",""
"","response","","html-keyboard-response","64","236427","0.0-1.0-77.0-0.0","0","0","74365","","267","","","75","8","","","1","8","training","adjacent","ED","5","4","O.jpg","M.jpg","1","0","0","",""
"","feedback","","html-keyboard-response","65","237432","0.0-1.0-78.0-0.0","0","0","74365","","null","","","null","8","","","","","","","","","","","","","","","",""
"","time_out","","html-keyboard-response","66","239438","0.0-1.0-80.0-0.0","0","0","74365","","null","","","null","8","","","","","","","","","","","","","","","",""
"","ITI","","html-keyboard-response","67","240444","0.0-1.0-81.0","0","0","74365","","null","","","null","8","","","","","","","","","","","","","","","NaN",""
"","S1","","html-keyboard-response","68","240701","0.0-1.0-83.0","0","0","74365","","null","","","null","9","","","","","","","","","","","","","","","",""
"","ISI","","html-keyboard-response","69","241204","0.0-1.0-84.0","0","0","74365","","null","","","null","9","NaN","","","","","","","","","","","","","","",""
"","S2","","html-keyboard-response","70","241459","0.0-1.0-85.0","0","0","74365","","null","","","null","9","","NaN","","","","","","","","","","","","","",""
"","response","","html-keyboard-response","71","241914","0.0-1.0-86.0-0.0","0","0","74365","","453","","","75","9","","","1","9","training","adjacent","DE","4","5","M.jpg","O.jpg","1","1","1","",""
"","feedback","","html-keyboard-response","72","242919","0.0-1.0-87.0-0.0","0","0","74365","","null","","","null","9","","","","","","","","","","","","","","","",""
"","ITI","","html-keyboard-response","73","243928","0.0-1.0-90.0","0","0","74365","","null","","","null","9","","","","","","","","","","","","","","","NaN",""
"","S1","","html-keyboard-response","74","244187","0.0-1.0-92.0","0","0","74365","","null","","","null","10","","","","","","","","","","","","","","","",""
"","ISI","","html-keyboard-response","75","244692","0.0-1.0-93.0","0","0","74365","","null","","","null","10","NaN","","","","","","","","","","","","","","",""
"","S2","","html-keyboard-response","76","244953","0.0-1.0-94.0","0","0","74365","","null","","","null","10","","NaN","","","","","","","","","","","","","",""
"","response","","html-keyboard-response","77","245314","0.0-1.0-95.0-0.0","0","0","74365","","357","","","68","10","","","1","10","training","adjacent","EF","5","6","O.jpg","Q.jpg","0","1","0","",""
"","feedback","","html-keyboard-response","78","246319","0.0-1.0-96.0-0.0","0","0","74365","","null","","","null","10","","","","","","","","","","","","","","","",""
"","time_out","","html-keyboard-response","79","248324","0.0-1.0-98.0-0.0","0","0","74365","","null","","","null","10","","","","","","","","","","","","","","","",""
"","ITI","","html-keyboard-response","80","249329","0.0-1.0-99.0","0","0","74365","","null","","","null","10","","","","","","","","","","","","","","","NaN",""
"","S1","","html-keyboard-response","81","249583","0.0-1.0-101.0","0","0","74365","","null","","","null","11","","","","","","","","","","","","","","","",""
"","ISI","","html-keyboard-response","82","250088","0.0-1.0-102.0","0","0","74365","","null","","","null","11","NaN","","","","","","","","","","","","","","",""
"","S2","","html-keyboard-response","83","250344","0.0-1.0-103.0","0","0","74365","","null","","","null","11","","NaN","","","","","","","","","","","","","",""
"","response","","html-keyboard-response","84","250715","0.0-1.0-104.0-0.0","0","0","74365","","366","","","75","11","","","1","11","training","adjacent","BC","2","3","N.jpg","R.jpg","1","1","1","",""
"","feedback","","html-keyboard-response","85","251722","0.0-1.0-105.0-0.0","0","0","74365","","null","","","null","11","","","","","","","","","","","","","","","",""
"","ITI","","html-keyboard-response","86","252727","0.0-1.0-108.0","0","0","74365","","null","","","null","11","","","","","","","","","","","","","","","NaN",""
"","S1","","html-keyboard-response","87","252982","0.0-1.0-110.0","0","0","74365","","null","","","null","12","","","","","","","","","","","","","","","",""
"","ISI","","html-keyboard-response","88","253486","0.0-1.0-111.0","0","0","74365","","null","","","null","12","NaN","","","","","","","","","","","","","","",""
"","S2","","html-keyboard-response","89","253744","0.0-1.0-112.0","0","0","74365","","null","","","null","12","","NaN","","","","","","","","","","","","","",""
"","response","","html-keyboard-response","90","254358","0.0-1.0-113.0-0.0","0","0","74365","","607","","","68","12","","","1","12","training","adjacent","AB","1","2","L.jpg","N.jpg","0","1","0","",""
"","feedback","","html-keyboard-response","91","255367","0.0-1.0-114.0-0.0","0","0","74365","","null","","","null","12","","","","","","","","","","","","","","","",""
"","time_out","","html-keyboard-response","92","257372","0.0-1.0-116.0-0.0","0","0","74365","","null","","","null","12","","","","","","","","","","","","","","","",""
"","ITI","","html-keyboard-response","93","258376","0.0-1.0-117.0","0","0","74365","","null","","","null","12","","","","","","","","","","","","","","","NaN",""
"","S1","","html-keyboard-response","94","258631","0.0-1.0-119.0","0","0","74365","","null","","","null","13","","","","","","","","","","","","","","","",""
"","ISI","","html-keyboard-response","95","259134","0.0-1.0-120.0","0","0","74365","","null","","","null","13","NaN","","","","","","","","","","","","","","",""
"","S2","","html-keyboard-response","96","259387","0.0-1.0-121.0","0","0","74365","","null","","","null","13","","NaN","","","","","","","","","","","","","",""
"","response","","html-keyboard-response","97","259752","0.0-1.0-122.0-0.0","0","0","74365","","362","","","75","13","","","1","13","training","adjacent","AB","1","2","L.jpg","N.jpg","1","1","1","",""
"","feedback","","html-keyboard-response","98","260757","0.0-1.0-123.0-0.0","0","0","74365","","null","","","null","13","","","","","","","","","","","","","","","",""
"","ITI","","html-keyboard-response","99","261762","0.0-1.0-126.0","0","0","74365","","null","","","null","13","","","","","","","","","","","","","","","NaN",""
"","S1","","html-keyboard-response","100","262017","0.0-1.0-128.0","0","0","74365","","null","","","null","14","","","","","","","","","","","","","","","",""
"","ISI","","html-keyboard-response","101","262522","0.0-1.0-129.0","0","0","74365","","null","","","null","14","NaN","","","","","","","","","","","","","","",""
"","S2","","html-keyboard-response","102","262780","0.0-1.0-130.0","0","0","74365","","null","","","null","14","","NaN","","","","","","","","","","","","","",""
"","response","","html-keyboard-response","103","263074","0.0-1.0-131.0-0.0","0","0","74365","","289","","","68","14","","","1","14","training","adjacent","CD","3","4","R.jpg","M.jpg","0","1","0","",""
"","feedback","","html-keyboard-response","104","264079","0.0-1.0-132.0-0.0","0","0","74365","","null","","","null","14","","","","","","","","","","","","","","","",""
"","time_out","","html-keyboard-response","105","266087","0.0-1.0-134.0-0.0","0","0","74365","","null","","","null","14","","","","","","","","","","","","","","","",""
"","ITI","","html-keyboard-response","106","267094","0.0-1.0-135.0","0","0","74365","","null","","","null","14","","","","","","","","","","","","","","","NaN",""
"","S1","","html-keyboard-response","107","267353","0.0-1.0-137.0","0","0","74365","","null","","","null","15","","","","","","","","","","","","","","","",""
"","ISI","","html-keyboard-response","108","267858","0.0-1.0-138.0","0","0","74365","","null","","","null","15","NaN","","","","","","","","","","","","","","",""
"","S2","","html-keyboard-response","109","268115","0.0-1.0-139.0","0","0","74365","","null","","","null","15","","NaN","","","","","","","","","","","","","",""
"","response","","html-keyboard-response","110","268477","0.0-1.0-140.0-0.0","0","0","74365","","355","","","75","15","","","1","15","training","adjacent","FG","6","7","Q.jpg","P.jpg","1","1","1","",""
"","feedback","","html-keyboard-response","111","269486","0.0-1.0-141.0-0.0","0","0","74365","","null","","","null","15","","","","","","","","","","","","","","","",""
"","ITI","","html-keyboard-response","112","270492","0.0-1.0-144.0","0","0","74365","","null","","","null","15","","","","","","","","","","","","","","","NaN",""
"","S1","","html-keyboard-response","113","270747","0.0-1.0-146.0","0","0","74365","","null","","","null","16","","","","","","","","","","","","","","","",""
"","ISI","","html-keyboard-response","114","271253","0.0-1.0-147.0","0","0","74365","","null","","","null","16","NaN","","","","","","","","","","","","","","",""
"","S2","","html-keyboard-response","115","271507","0.0-1.0-148.0","0","0","74365","","null","","","null","16","","NaN","","","","","","","","","","","","","",""
"","response","","html-keyboard-response","116","271936","0.0-1.0-149.0-0.0","0","0","74365","","424","","","75","16","","","1","16","training","adjacent","EF","5","6","O.jpg","Q.jpg","1","1","1","",""
"","feedback","","html-keyboard-response","117","272944","0.0-1.0-150.0-0.0","0","0","74365","","null","","","null","16","","","","","","","","","","","","","","","",""
"","ITI","","html-keyboard-response","118","273949","0.0-1.0-153.0","0","0","74365","","null","","","null","16","","","","","","","","","","","","","","","NaN",""
"","S1","","html-keyboard-response","119","274204","0.0-1.0-155.0","0","0","74365","","null","","","null","17","","","","","","","","","","","","","","","",""
"","ISI","","html-keyboard-response","120","274708","0.0-1.0-156.0","0","0","74365","","null","","","null","17","NaN","","","","","","","","","","","","","","",""
"","S2","","html-keyboard-response","121","274964","0.0-1.0-157.0","0","0","74365","","null","","","null","17","","NaN","","","","","","","","","","","","","",""
"","response","","html-keyboard-response","122","275318","0.0-1.0-158.0-0.0","0","0","74365","","350","","","75","17","","","1","17","training","adjacent","DC","4","3","M.jpg","R.jpg","1","0","0","",""
"","feedback","","html-keyboard-response","123","276325","0.0-1.0-159.0-0.0","0","0","74365","","null","","","null","17","","","","","","","","","","","","","","","",""
"","time_out","","html-keyboard-response","124","278333","0.0-1.0-161.0-0.0","0","0","74365","","null","","","null","17","","","","","","","","","","","","","","","",""
"","ITI","","html-keyboard-response","125","279340","0.0-1.0-162.0","0","0","74365","","null","","","null","17","","","","","","","","","","","","","","","NaN",""
"","S1","","html-keyboard-response","126","279595","0.0-1.0-164.0","0","0","74365","","null","","","null","18","","","","","","","","","","","","","","","",""
"","ISI","","html-keyboard-response","127","280100","0.0-1.0-165.0","0","0","74365","","null","","","null","18","NaN","","","","","","","","","","","","","","",""
"","S2","","html-keyboard-response","128","280356","0.0-1.0-166.0","0","0","74365","","null","","","null","18","","NaN","","","","","","","","","","","","","",""
"","response","","html-keyboard-response","129","280629","0.0-1.0-167.0-0.0","0","0","74365","","269","","","75","18","","","1","18","training","adjacent","CD","3","4","R.jpg","M.jpg","1","1","1","",""
"","feedback","","html-keyboard-response","130","281635","0.0-1.0-168.0-0.0","0","0","74365","","null","","","null","18","","","","","","","","","","","","","","","",""
"","ITI","","html-keyboard-response","131","282641","0.0-1.0-171.0","0","0","74365","","null","","","null","18","","","","","","","","","","","","","","","NaN",""
"","S1","","html-keyboard-response","132","282894","0.0-1.0-173.0","0","0","74365","","null","","","null","19","","","","","","","","","","","","","","","",""
"","ISI","","html-keyboard-response","133","283399","0.0-1.0-174.0","0","0","74365","","null","","","null","19","NaN","","","","","","","","","","","","","","",""
"","S2","","html-keyboard-response","134","283657","0.0-1.0-175.0","0","0","74365","","null","","","null","19","","NaN","","","","","","","","","","","","","",""
"","response","","html-keyboard-response","135","284156","0.0-1.0-176.0-0.0","0","0","74365","","494","","","68","19","","","1","19","training","adjacent","DC","4","3","M.jpg","R.jpg","0","0","1","",""
"","feedback","","html-keyboard-response","136","285164","0.0-1.0-177.0-0.0","0","0","74365","","null","","","null","19","","","","","","","","","","","","","","","",""
"","ITI","","html-keyboard-response","137","286170","0.0-1.0-180.0","0","0","74365","","null","","","null","19","","","","","","","","","","","","","","","NaN",""
"","S1","","html-keyboard-response","138","286425","0.0-1.0-182.0","0","0","74365","","null","","","null","20","","","","","","","","","","","","","","","",""
"","ISI","","html-keyboard-response","139","286928","0.0-1.0-183.0","0","0","74365","","null","","","null","20","NaN","","","","","","","","","","","","","","",""
"","S2","","html-keyboard-response","140","287184","0.0-1.0-184.0","0","0","74365","","null","","","null","20","","NaN","","","","","","","","","","","","","",""
"","response","","html-keyboard-response","141","287444","0.0-1.0-185.0-0.0","0","0","74365","","256","","","75","20","","","1","20","training","adjacent","EF","5","6","O.jpg","Q.jpg","1","1","1","",""
"","feedback","","html-keyboard-response","142","288452","0.0-1.0-186.0-0.0","0","0","74365","","null","","","null","20","","","","","","","","","","","","","","","",""
"","ITI","","html-keyboard-response","143","289457","0.0-1.0-189.0","0","0","74365","","null","","","null","20","","","","","","","","","","","","","","","NaN",""
"","S1","","html-keyboard-response","144","289713","0.0-1.0-191.0","0","0","74365","","null","","","null","21","","","","","","","","","","","","","","","",""
"","ISI","","html-keyboard-response","145","290216","0.0-1.0-192.0","0","0","74365","","null","","","null","21","NaN","","","","","","","","","","","","","","",""
"","S2","","html-keyboard-response","146","290471","0.0-1.0-193.0","0","0","74365","","null","","","null","21","","NaN","","","","","","","","","","","","","",""
"","response","","html-keyboard-response","147","290829","0.0-1.0-194.0-0.0","0","0","74365","","353","","","75","21","","","1","21","training","adjacent","BA","2","1","N.jpg","L.jpg","1","0","0","",""
"","feedback","","html-keyboard-response","148","291832","0.0-1.0-195.0-0.0","0","0","74365","","null","","","null","21","","","","","","","","","","","","","","","",""
"","time_out","","html-keyboard-response","149","293836","0.0-1.0-197.0-0.0","0","0","74365","","null","","","null","21","","","","","","","","","","","","","","","",""
"","ITI","","html-keyboard-response","150","294840","0.0-1.0-198.0","0","0","74365","","null","","","null","21","","","","","","","","","","","","","","","NaN",""
"","S1","","html-keyboard-response","151","295097","0.0-1.0-200.0","0","0","74365","","null","","","null","22","","","","","","","","","","","","","","","",""
"","ISI","","html-keyboard-response","152","295602","0.0-1.0-201.0","0","0","74365","","null","","","null","22","NaN","","","","","","","","","","","","","","",""
"","S2","","html-keyboard-response","153","295858","0.0-1.0-202.0","0","0","74365","","null","","","null","22","","NaN","","","","","","","","","","","","","",""
"","response","","html-keyboard-response","154","296171","0.0-1.0-203.0-0.0","0","0","74365","","306","","","75","22","","","1","22","training","adjacent","ED","5","4","O.jpg","M.jpg","1","0","0","",""
"","feedback","","html-keyboard-response","155","297177","0.0-1.0-204.0-0.0","0","0","74365","","null","","","null","22","","","","","","","","","","","","","","","",""
"","time_out","","html-keyboard-response","156","299182","0.0-1.0-206.0-0.0","0","0","74365","","null","","","null","22","","","","","","","","","","","","","","","",""
"","ITI","","html-keyboard-response","157","300186","0.0-1.0-207.0","0","0","74365","","null","","","null","22","","","","","","","","","","","","","","","NaN",""
"","S1","","html-keyboard-response","158","300442","0.0-1.0-209.0","0","0","74365","","null","","","null","23","","","","","","","","","","","","","","","",""
"","ISI","","html-keyboard-response","159","300946","0.0-1.0-210.0","0","0","74365","","null","","","null","23","NaN","","","","","","","","","","","","","","",""
"","S2","","html-keyboard-response","160","301203","0.0-1.0-211.0","0","0","74365","","null","","","null","23","","NaN","","","","","","","","","","","","","",""
"","response","","html-keyboard-response","161","301534","0.0-1.0-212.0-0.0","0","0","74365","","325","","","68","23","","","1","23","training","adjacent","FE","6","5","Q.jpg","O.jpg","0","0","1","",""
"","feedback","","html-keyboard-response","162","302543","0.0-1.0-213.0-0.0","0","0","74365","","null","","","null","23","","","","","","","","","","","","","","","",""
"","ITI","","html-keyboard-response","163","303547","0.0-1.0-216.0","0","0","74365","","null","","","null","23","","","","","","","","","","","","","","","NaN",""
"","S1","","html-keyboard-response","164","303802","0.0-1.0-218.0","0","0","74365","","null","","","null","24","","","","","","","","","","","","","","","",""
"","ISI","","html-keyboard-response","165","304306","0.0-1.0-219.0","0","0","74365","","null","","","null","24","NaN","","","","","","","","","","","","","","",""
"","S2","","html-keyboard-response","166","304564","0.0-1.0-220.0","0","0","74365","","null","","","null","24","","NaN","","","","","","","","","","","","","",""
"","response","","html-keyboard-response","167","305295","0.0-1.0-221.0-0.0","0","0","74365","","723","","","68","24","","","1","24","training","adjacent","ED","5","4","O.jpg","M.jpg","0","0","1","",""
"","feedback","","html-keyboard-response","168","306301","0.0-1.0-222.0-0.0","0","0","74365","","null","","","null","24","","","","","","","","","","","","","","","",""
"","ITI","","html-keyboard-response","169","307306","0.0-1.0-225.0","0","0","74365","","null","","","null","24","","","","","","","","","","","","","","","NaN",""
"","S1","","html-keyboard-response","170","307560","0.0-1.0-227.0","0","0","74365","","null","","","null","25","","","","","","","","","","","","","","","",""
"","ISI","","html-keyboard-response","171","308065","0.0-1.0-228.0","0","0","74365","","null","","","null","25","NaN","","","","","","","","","","","","","","",""
"","S2","","html-keyboard-response","172","308319","0.0-1.0-229.0","0","0","74365","","null","","","null","25","","NaN","","","","","","","","","","","","","",""
"","response","","html-keyboard-response","173","308618","0.0-1.0-230.0-0.0","0","0","74365","","294","","","75","25","","","1","25","training","adjacent","DE","4","5","M.jpg","O.jpg","1","1","1","",""
"","feedback","","html-keyboard-response","174","309625","0.0-1.0-231.0-0.0","0","0","74365","","null","","","null","25","","","","","","","","","","","","","","","",""
"","ITI","","html-keyboard-response","175","310629","0.0-1.0-234.0","0","0","74365","","null","","","null","25","","","","","","","","","","","","","","","NaN",""
"","S1","","html-keyboard-response","176","310884","0.0-1.0-236.0","0","0","74365","","null","","","null","26","","","","","","","","","","","","","","","",""
"","ISI","","html-keyboard-response","177","311388","0.0-1.0-237.0","0","0","74365","","null","","","null","26","NaN","","","","","","","","","","","","","","",""
"","S2","","html-keyboard-response","178","311643","0.0-1.0-238.0","0","0","74365","","null","","","null","26","","NaN","","","","","","","","","","","","","",""
"","response","","html-keyboard-response","179","312067","0.0-1.0-239.0-0.0","0","0","74365","","419","","","68","26","","","1","26","training","adjacent","GF","7","6","P.jpg","Q.jpg","0","0","1","",""
"","feedback","","html-keyboard-response","180","313073","0.0-1.0-240.0-0.0","0","0","74365","","null","","","null","26","","","","","","","","","","","","","","","",""
"","ITI","","html-keyboard-response","181","314078","0.0-1.0-243.0","0","0","74365","","null","","","null","26","","","","","","","","","","","","","","","NaN",""
"","S1","","html-keyboard-response","182","314332","0.0-1.0-245.0","0","0","74365","","null","","","null","27","","","","","","","","","","","","","","","",""
"","ISI","","html-keyboard-response","183","314835","0.0-1.0-246.0","0","0","74365","","null","","","null","27","NaN","","","","","","","","","","","","","","",""
"","S2","","html-keyboard-response","184","315089","0.0-1.0-247.0","0","0","74365","","null","","","null","27","","NaN","","","","","","","","","","","","","",""
"","response","","html-keyboard-response","185","315514","0.0-1.0-248.0-0.0","0","0","74365","","420","","","68","27","","","1","27","training","adjacent","FE","6","5","Q.jpg","O.jpg","0","0","1","",""
"","feedback","","html-keyboard-response","186","316520","0.0-1.0-249.0-0.0","0","0","74365","","null","","","null","27","","","","","","","","","","","","","","","",""
"","ITI","","html-keyboard-response","187","317535","0.0-1.0-252.0","0","0","74365","","null","","","null","27","","","","","","","","","","","","","","","NaN",""
"","S1","","html-keyboard-response","188","317790","0.0-1.0-254.0","0","0","74365","","null","","","null","28","","","","","","","","","","","","","","","",""
"","ISI","","html-keyboard-response","189","318295","0.0-1.0-255.0","0","0","74365","","null","","","null","28","NaN","","","","","","","","","","","","","","",""
"","S2","","html-keyboard-response","190","318552","0.0-1.0-256.0","0","0","74365","","null","","","null","28","","NaN","","","","","","","","","","","","","",""
"","response","","html-keyboard-response","191","318948","0.0-1.0-257.0-0.0","0","0","74365","","392","","","75","28","","","1","28","training","adjacent","AB","1","2","L.jpg","N.jpg","1","1","1","",""
"","feedback","","html-keyboard-response","192","319956","0.0-1.0-258.0-0.0","0","0","74365","","null","","","null","28","","","","","","","","","","","","","","","",""
"","ITI","","html-keyboard-response","193","320960","0.0-1.0-261.0","0","0","74365","","null","","","null","28","","","","","","","","","","","","","","","NaN",""
"","S1","","html-keyboard-response","194","321217","0.0-1.0-263.0","0","0","74365","","null","","","null","29","","","","","","","","","","","","","","","",""
"","ISI","","html-keyboard-response","195","321721","0.0-1.0-264.0","0","0","74365","","null","","","null","29","NaN","","","","","","","","","","","","","","",""
"","S2","","html-keyboard-response","196","321979","0.0-1.0-265.0","0","0","74365","","null","","","null","29","","NaN","","","","","","","","","","","","","",""
"","response","","html-keyboard-response","197","322156","0.0-1.0-266.0-0.0","0","0","74365","","172","","","75","29","","","1","29","training","adjacent","CB","3","2","R.jpg","N.jpg","1","0","0","",""
"","feedback","","html-keyboard-response","198","323162","0.0-1.0-267.0-0.0","0","0","74365","","null","","","null","29","","","","","","","","","","","","","","","",""
"","time_out","","html-keyboard-response","199","325175","0.0-1.0-269.0-0.0","0","0","74365","","null","","","null","29","","","","","","","","","","","","","","","",""
"","ITI","","html-keyboard-response","200","326180","0.0-1.0-270.0","0","0","74365","","null","","","null","29","","","","","","","","","","","","","","","NaN",""
"","S1","","html-keyboard-response","201","326437","0.0-1.0-272.0","0","0","74365","","null","","","null","30","","","","","","","","","","","","","","","",""
"","ISI","","html-keyboard-response","202","326942","0.0-1.0-273.0","0","0","74365","","null","","","null","30","NaN","","","","","","","","","","","","","","",""
"","S2","","html-keyboard-response","203","327198","0.0-1.0-274.0","0","0","74365","","null","","","null","30","","NaN","","","","","","","","","","","","","",""
"","response","","html-keyboard-response","204","327379","0.0-1.0-275.0-0.0","0","0","74365","","176","","","75","30","","","1","30","training","adjacent","BA","2","1","N.jpg","L.jpg","1","0","0","",""
"","feedback","","html-keyboard-response","205","328384","0.0-1.0-276.0-0.0","0","0","74365","","null","","","null","30","","","","","","","","","","","","","","","",""
"","time_out","","html-keyboard-response","206","330390","0.0-1.0-278.0-0.0","0","0","74365","","null","","","null","30","","","","","","","","","","","","","","","",""
"","ITI","","html-keyboard-response","207","331397","0.0-1.0-279.0","0","0","74365","","null","","","null","30","","","","","","","","","","","","","","","NaN",""
"","S1","","html-keyboard-response","208","331654","0.0-1.0-281.0","0","0","74365","","null","","","null","31","","","","","","","","","","","","","","","",""
"","ISI","","html-keyboard-response","209","332161","0.0-1.0-282.0","0","0","74365","","null","","","null","31","NaN","","","","","","","","","","","","","","",""
"","S2","","html-keyboard-response","210","332418","0.0-1.0-283.0","0","0","74365","","null","","","null","31","","NaN","","","","","","","","","","","","","",""
"","response","","html-keyboard-response","211","332603","0.0-1.0-284.0-0.0","0","0","74365","","182","","","75","31","","","1","31","training","adjacent","AB","1","2","L.jpg","N.jpg","1","1","1","",""
"","feedback","","html-keyboard-response","212","333609","0.0-1.0-285.0-0.0","0","0","74365","","null","","","null","31","","","","","","","","","","","","","","","",""
"","ITI","","html-keyboard-response","213","334615","0.0-1.0-288.0","0","0","74365","","null","","","null","31","","","","","","","","","","","","","","","NaN",""
"","S1","","html-keyboard-response","214","334871","0.0-1.0-290.0","0","0","74365","","null","","","null","32","","","","","","","","","","","","","","","",""
"","ISI","","html-keyboard-response","215","335376","0.0-1.0-291.0","0","0","74365","","null","","","null","32","NaN","","","","","","","","","","","","","","",""
"","S2","","html-keyboard-response","216","335632","0.0-1.0-292.0","0","0","74365","","null","","","null","32","","NaN","","","","","","","","","","","","","",""
"","response","","html-keyboard-response","217","335709","0.0-1.0-293.0-0.0","0","0","74365","","73","","","68","32","","","1","32","training","adjacent","BA","2","1","N.jpg","L.jpg","0","0","1","",""
"","feedback","","html-keyboard-response","218","336714","0.0-1.0-294.0-0.0","0","0","74365","","null","","","null","32","","","","","","","","","","","","","","","",""
"","ITI","","html-keyboard-response","219","337721","0.0-1.0-297.0","0","0","74365","","null","","","null","32","","","","","","","","","","","","","","","NaN",""
"","S1","","html-keyboard-response","220","337979","0.0-1.0-299.0","0","0","74365","","null","","","null","33","","","","","","","","","","","","","","","",""
"","ISI","","html-keyboard-response","221","338485","0.0-1.0-300.0","0","0","74365","","null","","","null","33","NaN","","","","","","","","","","","","","","",""
"","S2","","html-keyboard-response","222","338718","0.0-1.0-301.0","0","0","74365","","228","","","75","33","","k","1","33","training","adjacent","GF","7","6","P.jpg","Q.jpg","1","0","0","",""
"","feedback","","html-keyboard-response","223","339725","0.0-1.0-303.0-0.0","0","0","74365","","null","","","null","33","","","","","","","","","","","","","","","",""
"","time_out","","html-keyboard-response","224","341732","0.0-1.0-305.0-0.0","0","0","74365","","null","","","null","33","","","","","","","","","","","","","","","",""
"","ITI","","html-keyboard-response","225","342736","0.0-1.0-306.0","0","0","74365","","null","","","null","33","","","","","","","","","","","","","","","NaN",""
"","S1","","html-keyboard-response","226","342993","0.0-1.0-308.0","0","0","74365","","null","","","null","34","","","","","","","","","","","","","","","",""
"","ISI","","html-keyboard-response","227","343499","0.0-1.0-309.0","0","0","74365","","null","","","null","34","NaN","","","","","","","","","","","","","","",""
"","S2","","html-keyboard-response","228","343735","0.0-1.0-310.0","0","0","74365","","229","","","68","34","","d","1","34","training","adjacent","CD","3","4","R.jpg","M.jpg","0","1","0","",""
"","feedback","","html-keyboard-response","229","344744","0.0-1.0-312.0-0.0","0","0","74365","","null","","","null","34","","","","","","","","","","","","","","","",""
"","time_out","","html-keyboard-response","230","346752","0.0-1.0-314.0-0.0","0","0","74365","","null","","","null","34","","","","","","","","","","","","","","","",""
"","ITI","","html-keyboard-response","231","347760","0.0-1.0-315.0","0","0","74365","","null","","","null","34","","","","","","","","","","","","","","","NaN",""
"","S1","","html-keyboard-response","232","348016","0.0-1.0-317.0","0","0","74365","","null","","","null","35","","","","","","","","","","","","","","","",""
"","ISI","","html-keyboard-response","233","348521","0.0-1.0-318.0","0","0","74365","","null","","","null","35","NaN","","","","","","","","","","","","","","",""
"","S2","","html-keyboard-response","234","348600","0.0-1.0-319.0","0","0","74365","","74","","","75","35","","k","1","35","training","adjacent","CB","3","2","R.jpg","N.jpg","1","0","0","",""
"","feedback","","html-keyboard-response","235","349610","0.0-1.0-321.0-0.0","0","0","74365","","null","","","null","35","","","","","","","","","","","","","","","",""
"","time_out","","html-keyboard-response","236","351616","0.0-1.0-323.0-0.0","0","0","74365","","null","","","null","35","","","","","","","","","","","","","","","",""
"","ITI","","html-keyboard-response","237","352621","0.0-1.0-324.0","0","0","74365","","null","","","null","35","","","","","","","","","","","","","","","NaN",""
"","S1","","html-keyboard-response","238","352874","0.0-1.0-326.0","0","0","74365","","null","","","null","36","","","","","","","","","","","","","","","",""
"","ISI","","html-keyboard-response","239","353380","0.0-1.0-327.0","0","0","74365","","null","","","null","36","NaN","","","","","","","","","","","","","","",""
"","S2","","html-keyboard-response","240","353431","0.0-1.0-328.0","0","0","74365","","46","","","68","36","","d","1","36","training","adjacent","CD","3","4","R.jpg","M.jpg","0","1","0","",""
"","feedback","","html-keyboard-response","241","354437","0.0-1.0-330.0-0.0","0","0","74365","","null","","","null","36","","","","","","","","","","","","","","","",""
"","time_out","","html-keyboard-response","242","356444","0.0-1.0-332.0-0.0","0","0","74365","","null","","","null","36","","","","","","","","","","","","","","","",""
"","ITI","","html-keyboard-response","243","357450","0.0-1.0-333.0","0","0","74365","","83","","","75","36","","","","","","","","","","","","","","","k",""
"","S1","","html-keyboard-response","244","357704","0.0-1.0-335.0","0","0","74365","","null","","","null","37","","","","","","","","","","","","","","","",""
"","ISI","","html-keyboard-response","245","358208","0.0-1.0-336.0","0","0","74365","","74","","","75","37","k","","","","","","","","","","","","","","",""
"","S2","","html-keyboard-response","246","358220","0.0-1.0-337.0","0","0","74365","","7","","","75","37","","k","1","37","training","adjacent","CB","3","2","R.jpg","N.jpg","1","0","0","",""
"","feedback","","html-keyboard-response","247","359228","0.0-1.0-339.0-0.0","0","0","74365","","null","","","null","37","","","","","","","","","","","","","","","",""
"","time_out","","html-keyboard-response","248","361236","0.0-1.0-341.0-0.0","0","0","74365","","null","","","null","37","","","","","","","","","","","","","","","",""
"","ITI","","html-keyboard-response","249","362239","0.0-1.0-342.0","0","0","74365","","null","","","null","37","","","","","","","","","","","","","","","NaN",""
"","S1","","html-keyboard-response","250","362495","0.0-1.0-344.0","0","0","74365","","null","","","null","38","","","","","","","","","","","","","","","",""
"","ISI","","html-keyboard-response","251","363001","0.0-1.0-345.0","0","0","74365","","null","","","null","38","NaN","","","","","","","","","","","","","","",""
"","S2","","html-keyboard-response","252","363256","0.0-1.0-346.0","0","0","74365","","null","","","null","38","","NaN","","","","","","","","","","","","","",""
"","response","","html-keyboard-response","253","363877","0.0-1.0-347.0-0.0","0","0","74365","","617","","","75","38","","","1","38","training","adjacent","FG","6","7","Q.jpg","P.jpg","1","1","1","",""
"","feedback","","html-keyboard-response","254","364882","0.0-1.0-348.0-0.0","0","0","74365","","null","","","null","38","","","","","","","","","","","","","","","",""
"","ITI","","html-keyboard-response","255","365887","0.0-1.0-351.0","0","0","74365","","null","","","null","38","","","","","","","","","","","","","","","NaN",""
"","S1","","html-keyboard-response","256","366141","0.0-1.0-353.0","0","0","74365","","null","","","null","39","","","","","","","","","","","","","","","",""
"","ISI","","html-keyboard-response","257","366644","0.0-1.0-354.0","0","0","74365","","null","","","null","39","NaN","","","","","","","","","","","","","","",""
"","S2","","html-keyboard-response","258","366901","0.0-1.0-355.0","0","0","74365","","null","","","null","39","","NaN","","","","","","","","","","","","","",""
"","response","","html-keyboard-response","259","366979","0.0-1.0-356.0-0.0","0","0","74365","","75","","","75","39","","","1","39","training","adjacent","DE","4","5","M.jpg","O.jpg","1","1","1","",""
"","feedback","","html-keyboard-response","260","367984","0.0-1.0-357.0-0.0","0","0","74365","","null","","","null","39","","","","","","","","","","","","","","","",""
"","ITI","","html-keyboard-response","261","368990","0.0-1.0-360.0","0","0","74365","","null","","","null","39","","","","","","","","","","","","","","","NaN",""
"","S1","","html-keyboard-response","262","369246","0.0-1.0-362.0","0","0","74365","","null","","","null","40","","","","","","","","","","","","","","","",""
"","ISI","","html-keyboard-response","263","369752","0.0-1.0-363.0","0","0","74365","","null","","","null","40","NaN","","","","","","","","","","","","","","",""
"","S2","","html-keyboard-response","264","370007","0.0-1.0-364.0","0","0","74365","","null","","","null","40","","NaN","","","","","","","","","","","","","",""
"","response","","html-keyboard-response","265","370902","0.0-1.0-365.0-0.0","0","0","74365","","888","","","75","40","","","1","40","training","adjacent","BC","2","3","N.jpg","R.jpg","1","1","1","",""
"","feedback","","html-keyboard-response","266","371910","0.0-1.0-366.0-0.0","0","0","74365","","null","","","null","40","","","","","","","","","","","","","","","",""
"","ITI","","html-keyboard-response","267","372918","0.0-1.0-369.0","0","0","74365","","null","","","null","40","","","","","","","","","","","","","","","NaN",""
"","S1","","html-keyboard-response","268","373174","0.0-1.0-371.0","0","0","74365","","null","","","null","41","","","","","","","","","","","","","","","",""
"","ISI","","html-keyboard-response","269","373679","0.0-1.0-372.0","0","0","74365","","null","","","null","41","NaN","","","","","","","","","","","","","","",""
"","S2","","html-keyboard-response","270","373946","0.0-1.0-373.0","0","0","74365","","null","","","null","41","","NaN","","","","","","","","","","","","","",""
"","response","","html-keyboard-response","271","374251","0.0-1.0-374.0-0.0","0","0","74365","","298","","","68","41","","","1","41","training","adjacent","BC","2","3","N.jpg","R.jpg","0","1","0","",""
"","feedback","","html-keyboard-response","272","375258","0.0-1.0-375.0-0.0","0","0","74365","","null","","","null","41","","","","","","","","","","","","","","","",""
"","time_out","","html-keyboard-response","273","377263","0.0-1.0-377.0-0.0","0","0","74365","","null","","","null","41","","","","","","","","","","","","","","","",""
"","ITI","","html-keyboard-response","274","378268","0.0-1.0-378.0","0","0","74365","","null","","","null","41","","","","","","","","","","","","","","","NaN",""
"","S1","","html-keyboard-response","275","378526","0.0-1.0-380.0","0","0","74365","","null","","","null","42","","","","","","","","","","","","","","","",""
"","ISI","","html-keyboard-response","276","379031","0.0-1.0-381.0","0","0","74365","","null","","","null","42","NaN","","","","","","","","","","","","","","",""
"","S2","","html-keyboard-response","277","379288","0.0-1.0-382.0","0","0","74365","","null","","","null","42","","NaN","","","","","","","","","","","","","",""
"","response","","html-keyboard-response","278","379466","0.0-1.0-383.0-0.0","0","0","74365","","173","","","75","42","","","1","42","training","adjacent","DC","4","3","M.jpg","R.jpg","1","0","0","",""
"","feedback","","html-keyboard-response","279","380471","0.0-1.0-384.0-0.0","0","0","74365","","null","","","null","42","","","","","","","","","","","","","","","",""
"","time_out","","html-keyboard-response","280","382477","0.0-1.0-386.0-0.0","0","0","74365","","null","","","null","42","","","","","","","","","","","","","","","",""
"","ITI","","html-keyboard-response","281","383482","0.0-1.0-387.0","0","0","74365","","null","","","null","42","","","","","","","","","","","","","","","NaN",""
"","S1","","html-keyboard-response","282","383738","0.0-1.0-389.0","0","0","74365","","null","","","null","43","","","","","","","","","","","","","","","",""
"","ISI","","html-keyboard-response","283","384243","0.0-1.0-390.0","0","0","74365","","null","","","null","43","NaN","","","","","","","","","","","","","","",""
"","S2","","html-keyboard-response","284","384493","0.0-1.0-391.0","0","0","74365","","242","","","68","43","","d","1","43","training","adjacent","GF","7","6","P.jpg","Q.jpg","0","0","1","",""
"","feedback","","html-keyboard-response","285","385500","0.0-1.0-393.0-0.0","0","0","74365","","null","","","null","43","","","","","","","","","","","","","","","",""
"","ITI","","html-keyboard-response","286","386504","0.0-1.0-396.0","0","0","74365","","null","","","null","43","","","","","","","","","","","","","","","NaN",""
"","S1","","html-keyboard-response","287","386766","0.0-1.0-398.0","0","0","74365","","null","","","null","44","","","","","","","","","","","","","","","",""
"","ISI","","html-keyboard-response","288","387271","0.0-1.0-399.0","0","0","74365","","null","","","null","44","NaN","","","","","","","","","","","","","","",""
"","S2","","html-keyboard-response","289","387527","0.0-1.0-400.0","0","0","74365","","null","","","null","44","","NaN","","","","","","","","","","","","","",""
"","response","","html-keyboard-response","290","387715","0.0-1.0-401.0-0.0","0","0","74365","","184","","","75","44","","","1","44","training","adjacent","FG","6","7","Q.jpg","P.jpg","1","1","1","",""
"","feedback","","html-keyboard-response","291","388720","0.0-1.0-402.0-0.0","0","0","74365","","null","","","null","44","","","","","","","","","","","","","","","",""
"","ITI","","html-keyboard-response","292","389727","0.0-1.0-405.0","0","0","74365","","null","","","null","44","","","","","","","","","","","","","","","NaN",""
"","S1","","html-keyboard-response","293","389983","0.0-1.0-407.0","0","0","74365","","null","","","null","45","","","","","","","","","","","","","","","",""
"","ISI","","html-keyboard-response","294","390488","0.0-1.0-408.0","0","0","74365","","null","","","null","45","NaN","","","","","","","","","","","","","","",""
"","S2","","html-keyboard-response","295","390745","0.0-1.0-409.0","0","0","74365","","null","","","null","45","","NaN","","","","","","","","","","","","","",""
"","response","","html-keyboard-response","296","390840","0.0-1.0-410.0-0.0","0","0","74365","","91","","","75","45","","","1","45","training","adjacent","BC","2","3","N.jpg","R.jpg","1","1","1","",""
"","feedback","","html-keyboard-response","297","391847","0.0-1.0-411.0-0.0","0","0","74365","","null","","","null","45","","","","","","","","","","","","","","","",""
"","ITI","","html-keyboard-response","298","392852","0.0-1.0-414.0","0","0","74365","","null","","","null","45","","","","","","","","","","","","","","","NaN",""
"","S1","","html-keyboard-response","299","393108","0.0-1.0-416.0","0","0","74365","","null","","","null","46","","","","","","","","","","","","","","","",""
"","ISI","","html-keyboard-response","300","393612","0.0-1.0-417.0","0","0","74365","","null","","","null","46","NaN","","","","","","","","","","","","","","",""
"","S2","","html-keyboard-response","301","393869","0.0-1.0-418.0","0","0","74365","","null","","","null","46","","NaN","","","","","","","","","","","","","",""
"","response","","html-keyboard-response","302","394261","0.0-1.0-419.0-0.0","0","0","74365","","386","","","68","46","","","1","46","training","adjacent","GF","7","6","P.jpg","Q.jpg","0","0","1","",""
"","feedback","","html-keyboard-response","303","395266","0.0-1.0-420.0-0.0","0","0","74365","","null","","","null","46","","","","","","","","","","","","","","","",""
"","ITI","","html-keyboard-response","304","396273","0.0-1.0-423.0","0","0","74365","","null","","","null","46","","","","","","","","","","","","","","","NaN",""
"","S1","","html-keyboard-response","305","396528","0.0-1.0-425.0","0","0","74365","","null","","","null","47","","","","","","","","","","","","","","","",""
"","ISI","","html-keyboard-response","306","397033","0.0-1.0-426.0","0","0","74365","","null","","","null","47","NaN","","","","","","","","","","","","","","",""
"","S2","","html-keyboard-response","307","397289","0.0-1.0-427.0","0","0","74365","","null","","","null","47","","NaN","","","","","","","","","","","","","",""
"","response","","html-keyboard-response","308","397564","0.0-1.0-428.0-0.0","0","0","74365","","268","","","75","47","","","1","47","training","adjacent","FE","6","5","Q.jpg","O.jpg","1","0","0","",""
"","feedback","","html-keyboard-response","309","398572","0.0-1.0-429.0-0.0","0","0","74365","","null","","","null","47","","","","","","","","","","","","","","","",""
"","time_out","","html-keyboard-response","310","400579","0.0-1.0-431.0-0.0","0","0","74365","","null","","","null","47","","","","","","","","","","","","","","","",""
"","ITI","","html-keyboard-response","311","401586","0.0-1.0-432.0","0","0","74365","","null","","","null","47","","","","","","","","","","","","","","","NaN",""
"","block_over","","html-keyboard-response","312","451510","0.0-1.0-433.0-0.0","0","0","74365","","49909","","","32","47","","","","","","","","","","","","","","","",""
"","S1","","html-keyboard-response","313","451769","0.0-1.0-434.0","0","0","74365","","null","","","null","48","","","","","","","","","","","","","","","",""
"","ISI","","html-keyboard-response","314","452273","0.0-1.0-435.0","0","0","74365","","null","","","null","48","NaN","","","","","","","","","","","","","","",""
"","S2","","html-keyboard-response","315","452527","0.0-1.0-436.0","0","0","74365","","null","","","null","48","","NaN","","","","","","","","","","","","","",""
"","response","","html-keyboard-response","316","453119","0.0-1.0-437.0-0.0","0","0","74365","","587","","","75","48","","","2","48","training","adjacent","GF","7","6","P.jpg","Q.jpg","1","0","0","",""
"","feedback","","html-keyboard-response","317","454125","0.0-1.0-438.0-0.0","0","0","74365","","null","","","null","48","","","","","","","","","","","","","","","",""
"","time_out","","html-keyboard-response","318","456129","0.0-1.0-440.0-0.0","0","0","74365","","null","","","null","48","","","","","","","","","","","","","","","",""
"","ITI","","html-keyboard-response","319","457135","0.0-1.0-441.0","0","0","74365","","null","","","null","48","","","","","","","","","","","","","","","NaN",""
"","S1","","html-keyboard-response","320","457389","0.0-1.0-443.0","0","0","74365","","null","","","null","49","","","","","","","","","","","","","","","",""
"","ISI","","html-keyboard-response","321","457892","0.0-1.0-444.0","0","0","74365","","null","","","null","49","NaN","","","","","","","","","","","","","","",""
"","S2","","html-keyboard-response","322","458147","0.0-1.0-445.0","0","0","74365","","null","","","null","49","","NaN","","","","","","","","","","","","","",""
"","response","","html-keyboard-response","323","458496","0.0-1.0-446.0-0.0","0","0","74365","","345","","","75","49","","","2","49","training","adjacent","BC","2","3","N.jpg","R.jpg","1","1","1","",""
"","feedback","","html-keyboard-response","324","459509","0.0-1.0-447.0-0.0","0","0","74365","","null","","","null","49","","","","","","","","","","","","","","","",""
"","ITI","","html-keyboard-response","325","460514","0.0-1.0-450.0","0","0","74365","","null","","","null","49","","","","","","","","","","","","","","","NaN",""
"","S1","","html-keyboard-response","326","460771","0.0-1.0-452.0","0","0","74365","","null","","","null","50","","","","","","","","","","","","","","","",""
"","ISI","","html-keyboard-response","327","461276","0.0-1.0-453.0","0","0","74365","","null","","","null","50","NaN","","","","","","","","","","","","","","",""
"","S2","","html-keyboard-response","328","461533","0.0-1.0-454.0","0","0","74365","","null","","","null","50","","NaN","","","","","","","","","","","","","",""
"","response","","html-keyboard-response","329","461733","0.0-1.0-455.0-0.0","0","0","74365","","196","","","68","50","","","2","50","training","adjacent","DE","4","5","M.jpg","O.jpg","0","1","0","",""
"","feedback","","html-keyboard-response","330","462738","0.0-1.0-456.0-0.0","0","0","74365","","null","","","null","50","","","","","","","","","","","","","","","",""
"","time_out","","html-keyboard-response","331","464743","0.0-1.0-458.0-0.0","0","0","74365","","null","","","null","50","","","","","","","","","","","","","","","",""
"","ITI","","html-keyboard-response","332","465747","0.0-1.0-459.0","0","0","74365","","null","","","null","50","","","","","","","","","","","","","","","NaN",""
"","S1","","html-keyboard-response","333","466002","0.0-1.0-461.0","0","0","74365","","null","","","null","51","","","","","","","","","","","","","","","",""
"","ISI","","html-keyboard-response","334","466507","0.0-1.0-462.0","0","0","74365","","null","","","null","51","NaN","","","","","","","","","","","","","","",""
"","S2","","html-keyboard-response","335","466770","0.0-1.0-463.0","0","0","74365","","null","","","null","51","","NaN","","","","","","","","","","","","","",""
"","response","","html-keyboard-response","336","466925","0.0-1.0-464.0-0.0","0","0","74365","","151","","","75","51","","","2","51","training","adjacent","AB","1","2","L.jpg","N.jpg","1","1","1","",""
"","feedback","","html-keyboard-response","337","467936","0.0-1.0-465.0-0.0","0","0","74365","","null","","","null","51","","","","","","","","","","","","","","","",""
"","ITI","","html-keyboard-response","338","468943","0.0-1.0-468.0","0","0","74365","","null","","","null","51","","","","","","","","","","","","","","","NaN",""
"","S1","","html-keyboard-response","339","469197","0.0-1.0-470.0","0","0","74365","","null","","","null","52","","","","","","","","","","","","","","","",""
"","ISI","","html-keyboard-response","340","469702","0.0-1.0-471.0","0","0","74365","","null","","","null","52","NaN","","","","","","","","","","","","","","",""
"","S2","","html-keyboard-response","341","469960","0.0-1.0-472.0","0","0","74365","","null","","","null","52","","NaN","","","","","","","","","","","","","",""
"","response","","html-keyboard-response","342","470425","0.0-1.0-473.0-0.0","0","0","74365","","460","","","68","52","","","2","52","training","adjacent","GF","7","6","P.jpg","Q.jpg","0","0","1","",""
"","feedback","","html-keyboard-response","343","471431","0.0-1.0-474.0-0.0","0","0","74365","","null","","","null","52","","","","","","","","","","","","","","","",""
"","ITI","","html-keyboard-response","344","472437","0.0-1.0-477.0","0","0","74365","","null","","","null","52","","","","","","","","","","","","","","","NaN",""
"","S1","","html-keyboard-response","345","472693","0.0-1.0-479.0","0","0","74365","","null","","","null","53","","","","","","","","","","","","","","","",""
"","ISI","","html-keyboard-response","346","473198","0.0-1.0-480.0","0","0","74365","","null","","","null","53","NaN","","","","","","","","","","","","","","",""
"","S2","","html-keyboard-response","347","473454","0.0-1.0-481.0","0","0","74365","","null","","","null","53","","NaN","","","","","","","","","","","","","",""
"","response","","html-keyboard-response","348","473725","0.0-1.0-482.0-0.0","0","0","74365","","264","","","75","53","","","2","53","training","adjacent","FG","6","7","Q.jpg","P.jpg","1","1","1","",""
"","feedback","","html-keyboard-response","349","474735","0.0-1.0-483.0-0.0","0","0","74365","","null","","","null","53","","","","","","","","","","","","","","","",""
"","ITI","","html-keyboard-response","350","475739","0.0-1.0-486.0","0","0","74365","","null","","","null","53","","","","","","","","","","","","","","","NaN",""
"","S1","","html-keyboard-response","351","475994","0.0-1.0-488.0","0","0","74365","","null","","","null","54","","","","","","","","","","","","","","","",""
"","ISI","","html-keyboard-response","352","476498","0.0-1.0-489.0","0","0","74365","","null","","","null","54","NaN","","","","","","","","","","","","","","",""
"","S2","","html-keyboard-response","353","476755","0.0-1.0-490.0","0","0","74365","","null","","","null","54","","NaN","","","","","","","","","","","","","",""
"","response","","html-keyboard-response","354","477164","0.0-1.0-491.0-0.0","0","0","74365","","405","","","68","54","","","2","54","training","adjacent","DE","4","5","M.jpg","O.jpg","0","1","0","",""
"","feedback","","html-keyboard-response","355","478170","0.0-1.0-492.0-0.0","0","0","74365","","null","","","null","54","","","","","","","","","","","","","","","",""
"","time_out","","html-keyboard-response","356","480175","0.0-1.0-494.0-0.0","0","0","74365","","null","","","null","54","","","","","","","","","","","","","","","",""
"","ITI","","html-keyboard-response","357","481185","0.0-1.0-495.0","0","0","74365","","null","","","null","54","","","","","","","","","","","","","","","NaN",""
"","S1","","html-keyboard-response","358","481445","0.0-1.0-497.0","0","0","74365","","null","","","null","55","","","","","","","","","","","","","","","",""
"","ISI","","html-keyboard-response","359","481951","0.0-1.0-498.0","0","0","74365","","null","","","null","55","NaN","","","","","","","","","","","","","","",""
"","S2","","html-keyboard-response","360","482207","0.0-1.0-499.0","0","0","74365","","null","","","null","55","","NaN","","","","","","","","","","","","","",""
"","response","","html-keyboard-response","361","482490","0.0-1.0-500.0-0.0","0","0","74365","","275","","","75","55","","","2","55","training","adjacent","AB","1","2","L.jpg","N.jpg","1","1","1","",""
"","feedback","","html-keyboard-response","362","483496","0.0-1.0-501.0-0.0","0","0","74365","","null","","","null","55","","","","","","","","","","","","","","","",""
"","ITI","","html-keyboard-response","363","484500","0.0-1.0-504.0","0","0","74365","","null","","","null","55","","","","","","","","","","","","","","","NaN",""
"","S1","","html-keyboard-response","364","484755","0.0-1.0-506.0","0","0","74365","","null","","","null","56","","","","","","","","","","","","","","","",""
"","ISI","","html-keyboard-response","365","485260","0.0-1.0-507.0","0","0","74365","","null","","","null","56","NaN","","","","","","","","","","","","","","",""
"","S2","","html-keyboard-response","366","485531","0.0-1.0-508.0","0","0","74365","","null","","","null","56","","NaN","","","","","","","","","","","","","",""
"","response","","html-keyboard-response","367","485813","0.0-1.0-509.0-0.0","0","0","74365","","277","","","75","56","","","2","56","training","adjacent","BC","2","3","N.jpg","R.jpg","1","1","1","",""
"","feedback","","html-keyboard-response","368","486820","0.0-1.0-510.0-0.0","0","0","74365","","null","","","null","56","","","","","","","","","","","","","","","",""
"","ITI","","html-keyboard-response","369","487826","0.0-1.0-513.0","0","0","74365","","null","","","null","56","","","","","","","","","","","","","","","NaN",""
"","S1","","html-keyboard-response","370","488079","0.0-1.0-515.0","0","0","74365","","null","","","null","57","","","","","","","","","","","","","","","",""
"","ISI","","html-keyboard-response","371","488582","0.0-1.0-516.0","0","0","74365","","null","","","null","57","NaN","","","","","","","","","","","","","","",""
"","S2","","html-keyboard-response","372","488838","0.0-1.0-517.0","0","0","74365","","null","","","null","57","","NaN","","","","","","","","","","","","","",""
"","response","","html-keyboard-response","373","489214","0.0-1.0-518.0-0.0","0","0","74365","","370","","","75","57","","","2","57","training","adjacent","BA","2","1","N.jpg","L.jpg","1","0","0","",""
"","feedback","","html-keyboard-response","374","490218","0.0-1.0-519.0-0.0","0","0","74365","","null","","","null","57","","","","","","","","","","","","","","","",""
"","time_out","","html-keyboard-response","375","492221","0.0-1.0-521.0-0.0","0","0","74365","","null","","","null","57","","","","","","","","","","","","","","","",""
"","ITI","","html-keyboard-response","376","493226","0.0-1.0-522.0","0","0","74365","","null","","","null","57","","","","","","","","","","","","","","","NaN",""
"","S1","","html-keyboard-response","377","493481","0.0-1.0-524.0","0","0","74365","","null","","","null","58","","","","","","","","","","","","","","","",""
"","ISI","","html-keyboard-response","378","493984","0.0-1.0-525.0","0","0","74365","","null","","","null","58","NaN","","","","","","","","","","","","","","",""
"","S2","","html-keyboard-response","379","494241","0.0-1.0-526.0","0","0","74365","","null","","","null","58","","NaN","","","","","","","","","","","","","",""
"","response","","html-keyboard-response","380","494711","0.0-1.0-527.0-0.0","0","0","74365","","462","","","68","58","","","2","58","training","adjacent","CD","3","4","R.jpg","M.jpg","0","1","0","",""
"","feedback","","html-keyboard-response","381","495720","0.0-1.0-528.0-0.0","0","0","74365","","null","","","null","58","","","","","","","","","","","","","","","",""
"","time_out","","html-keyboard-response","382","497726","0.0-1.0-530.0-0.0","0","0","74365","","null","","","null","58","","","","","","","","","","","","","","","",""
"","ITI","","html-keyboard-response","383","498730","0.0-1.0-531.0","0","0","74365","","null","","","null","58","","","","","","","","","","","","","","","NaN",""
"","S1","","html-keyboard-response","384","498985","0.0-1.0-533.0","0","0","74365","","null","","","null","59","","","","","","","","","","","","","","","",""
"","ISI","","html-keyboard-response","385","499488","0.0-1.0-534.0","0","0","74365","","null","","","null","59","NaN","","","","","","","","","","","","","","",""
"","S2","","html-keyboard-response","386","499741","0.0-1.0-535.0","0","0","74365","","null","","","null","59","","NaN","","","","","","","","","","","","","",""
"","response","","html-keyboard-response","387","500115","0.0-1.0-536.0-0.0","0","0","74365","","369","","","75","59","","","2","59","training","adjacent","AB","1","2","L.jpg","N.jpg","1","1","1","",""
"","feedback","","html-keyboard-response","388","501129","0.0-1.0-537.0-0.0","0","0","74365","","null","","","null","59","","","","","","","","","","","","","","","",""
"","ITI","","html-keyboard-response","389","502134","0.0-1.0-540.0","0","0","74365","","null","","","null","59","","","","","","","","","","","","","","","NaN",""
"","S1","","html-keyboard-response","390","502387","0.0-1.0-542.0","0","0","74365","","null","","","null","60","","","","","","","","","","","","","","","",""
"","ISI","","html-keyboard-response","391","502900","0.0-1.0-543.0","0","0","74365","","null","","","null","60","NaN","","","","","","","","","","","","","","",""
"","S2","","html-keyboard-response","392","503156","0.0-1.0-544.0","0","0","74365","","null","","","null","60","","NaN","","","","","","","","","","","","","",""
"","response","","html-keyboard-response","393","504234","0.0-1.0-545.0-0.0","0","0","74365","","1072","","","68","60","","","2","60","training","adjacent","DE","4","5","M.jpg","O.jpg","0","1","0","",""
"","feedback","","html-keyboard-response","394","505239","0.0-1.0-546.0-0.0","0","0","74365","","null","","","null","60","","","","","","","","","","","","","","","",""
"","time_out","","html-keyboard-response","395","507254","0.0-1.0-548.0-0.0","0","0","74365","","null","","","null","60","","","","","","","","","","","","","","","",""
"","ITI","","html-keyboard-response","396","508260","0.0-1.0-549.0","0","0","74365","","null","","","null","60","","","","","","","","","","","","","","","NaN",""
"","S1","","html-keyboard-response","397","508515","0.0-1.0-551.0","0","0","74365","","null","","","null","61","","","","","","","","","","","","","","","",""
"","ISI","","html-keyboard-response","398","509020","0.0-1.0-552.0","0","0","74365","","null","","","null","61","NaN","","","","","","","","","","","","","","",""
"","S2","","html-keyboard-response","399","509276","0.0-1.0-553.0","0","0","74365","","null","","","null","61","","NaN","","","","","","","","","","","","","",""
"","response","","html-keyboard-response","400","509703","0.0-1.0-554.0-0.0","0","0","74365","","422","","","75","61","","","2","61","training","adjacent","ED","5","4","O.jpg","M.jpg","1","0","0","",""
"","feedback","","html-keyboard-response","401","510707","0.0-1.0-555.0-0.0","0","0","74365","","null","","","null","61","","","","","","","","","","","","","","","",""
"","time_out","","html-keyboard-response","402","512714","0.0-1.0-557.0-0.0","0","0","74365","","null","","","null","61","","","","","","","","","","","","","","","",""
"","ITI","","html-keyboard-response","403","513721","0.0-1.0-558.0","0","0","74365","","null","","","null","61","","","","","","","","","","","","","","","NaN",""
"","S1","","html-keyboard-response","404","513976","0.0-1.0-560.0","0","0","74365","","null","","","null","62","","","","","","","","","","","","","","","",""
"","ISI","","html-keyboard-response","405","514483","0.0-1.0-561.0","0","0","74365","","null","","","null","62","NaN","","","","","","","","","","","","","","",""
"","S2","","html-keyboard-response","406","514739","0.0-1.0-562.0","0","0","74365","","null","","","null","62","","NaN","","","","","","","","","","","","","",""
"","response","","html-keyboard-response","407","515004","0.0-1.0-563.0-0.0","0","0","74365","","258","","","68","62","","","2","62","training","adjacent","GF","7","6","P.jpg","Q.jpg","0","0","1","",""
"","feedback","","html-keyboard-response","408","516010","0.0-1.0-564.0-0.0","0","0","74365","","null","","","null","62","","","","","","","","","","","","","","","",""
"","ITI","","html-keyboard-response","409","517017","0.0-1.0-567.0","0","0","74365","","null","","","null","62","","","","","","","","","","","","","","","NaN",""
"","S1","","html-keyboard-response","410","517271","0.0-1.0-569.0","0","0","74365","","null","","","null","63","","","","","","","","","","","","","","","",""
"","ISI","","html-keyboard-response","411","517776","0.0-1.0-570.0","0","0","74365","","null","","","null","63","NaN","","","","","","","","","","","","","","",""
"","S2","","html-keyboard-response","412","518032","0.0-1.0-571.0","0","0","74365","","null","","","null","63","","NaN","","","","","","","","","","","","","",""
"","response","","html-keyboard-response","413","518323","0.0-1.0-572.0-0.0","0","0","74365","","286","","","75","63","","","2","63","training","adjacent","AB","1","2","L.jpg","N.jpg","1","1","1","",""
"","feedback","","html-keyboard-response","414","519329","0.0-1.0-573.0-0.0","0","0","74365","","null","","","null","63","","","","","","","","","","","","","","","",""
"","ITI","","html-keyboard-response","415","520333","0.0-1.0-576.0","0","0","74365","","null","","","null","63","","","","","","","","","","","","","","","NaN",""
"","S1","","html-keyboard-response","416","520585","0.0-1.0-578.0","0","0","74365","","null","","","null","64","","","","","","","","","","","","","","","",""
"","ISI","","html-keyboard-response","417","521088","0.0-1.0-579.0","0","0","74365","","null","","","null","64","NaN","","","","","","","","","","","","","","",""
"","S2","","html-keyboard-response","418","521342","0.0-1.0-580.0","0","0","74365","","null","","","null","64","","NaN","","","","","","","","","","","","","",""
"","response","","html-keyboard-response","419","521534","0.0-1.0-581.0-0.0","0","0","74365","","187","","","68","64","","","2","64","training","adjacent","EF","5","6","O.jpg","Q.jpg","0","1","0","",""
"","feedback","","html-keyboard-response","420","522542","0.0-1.0-582.0-0.0","0","0","74365","","null","","","null","64","","","","","","","","","","","","","","","",""
"","time_out","","html-keyboard-response","421","524550","0.0-1.0-584.0-0.0","0","0","74365","","null","","","null","64","","","","","","","","","","","","","","","",""
"","ITI","","html-keyboard-response","422","525558","0.0-1.0-585.0","0","0","74365","","null","","","null","64","","","","","","","","","","","","","","","NaN",""
"","S1","","html-keyboard-response","423","525814","0.0-1.0-587.0","0","0","74365","","null","","","null","65","","","","","","","","","","","","","","","",""
"","ISI","","html-keyboard-response","424","526319","0.0-1.0-588.0","0","0","74365","","null","","","null","65","NaN","","","","","","","","","","","","","","",""
"","S2","","html-keyboard-response","425","526576","0.0-1.0-589.0","0","0","74365","","null","","","null","65","","NaN","","","","","","","","","","","","","",""
"","response","","html-keyboard-response","426","526656","0.0-1.0-590.0-0.0","0","0","74365","","75","","","75","65","","","2","65","training","adjacent","BA","2","1","N.jpg","L.jpg","1","0","0","",""
"","feedback","","html-keyboard-response","427","527662","0.0-1.0-591.0-0.0","0","0","74365","","null","","","null","65","","","","","","","","","","","","","","","",""
"","time_out","","html-keyboard-response","428","529669","0.0-1.0-593.0-0.0","0","0","74365","","null","","","null","65","","","","","","","","","","","","","","","",""
"","ITI","","html-keyboard-response","429","530674","0.0-1.0-594.0","0","0","74365","","null","","","null","65","","","","","","","","","","","","","","","NaN",""
"","S1","","html-keyboard-response","430","530932","0.0-1.0-596.0","0","0","74365","","null","","","null","66","","","","","","","","","","","","","","","",""
"","ISI","","html-keyboard-response","431","531435","0.0-1.0-597.0","0","0","74365","","null","","","null","66","NaN","","","","","","","","","","","","","","",""
"","S2","","html-keyboard-response","432","531691","0.0-1.0-598.0","0","0","74365","","null","","","null","66","","NaN","","","","","","","","","","","","","",""
"","response","","html-keyboard-response","433","533447","0.0-1.0-599.0-0.0","0","0","74365","","null","","","null","66","","","2","66","training","adjacent","EF","5","6","O.jpg","Q.jpg","NaN","1","0","",""
"","too_slow_prompt","","html-keyboard-response","434","534452","0.0-1.0-601.0-0.0","1","0","74365","","null","","","null","","","","","","","","","","","","","","","","",""
"","time_out","","html-keyboard-response","435","536457","0.0-1.0-602.0-0.0","0","0","74365","","null","","","null","66","","","","","","","","","","","","","","","",""
"","ITI","","html-keyboard-response","436","537465","0.0-1.0-603.0","0","0","74365","","424","","","75","66","","","","","","","","","","","","","","","k",""
"","S1","","html-keyboard-response","437","537726","0.0-1.0-605.0","0","0","74365","","null","","","null","67","","","","","","","","","","","","","","","",""
"","ISI","","html-keyboard-response","438","538231","0.0-1.0-606.0","0","0","74365","","342","","","75","67","k","","","","","","","","","","","","","","",""
"","S2","","html-keyboard-response","439","538487","0.0-1.0-607.0","0","0","74365","","null","","","null","67","","NaN","","","","","","","","","","","","","",""
"","response","","html-keyboard-response","440","539126","0.0-1.0-608.0-0.0","0","0","74365","","634","","","75","67","","","2","67","training","adjacent","BA","2","1","N.jpg","L.jpg","1","0","0","",""
"","feedback","","html-keyboard-response","441","540133","0.0-1.0-609.0-0.0","0","0","74365","","null","","","null","67","","","","","","","","","","","","","","","",""
"","time_out","","html-keyboard-response","442","542141","0.0-1.0-611.0-0.0","0","0","74365","","null","","","null","67","","","","","","","","","","","","","","","",""
"","ITI","","html-keyboard-response","443","543146","0.0-1.0-612.0","0","0","74365","","null","","","null","67","","","","","","","","","","","","","","","NaN",""
"","S1","","html-keyboard-response","444","543404","0.0-1.0-614.0","0","0","74365","","null","","","null","68","","","","","","","","","","","","","","","",""
"","ISI","","html-keyboard-response","445","543908","0.0-1.0-615.0","0","0","74365","","null","","","null","68","NaN","","","","","","","","","","","","","","",""
"","S2","","html-keyboard-response","446","544124","0.0-1.0-616.0","0","0","74365","","210","","","68","68","","d","2","68","training","adjacent","ED","5","4","O.jpg","M.jpg","0","0","1","",""
"","feedback","","html-keyboard-response","447","545131","0.0-1.0-618.0-0.0","0","0","74365","","null","","","null","68","","","","","","","","","","","","","","","",""
"","ITI","","html-keyboard-response","448","546136","0.0-1.0-621.0","0","0","74365","","null","","","null","68","","","","","","","","","","","","","","","NaN",""
"","S1","","html-keyboard-response","449","546390","0.0-1.0-623.0","0","0","74365","","null","","","null","69","","","","","","","","","","","","","","","",""
"","ISI","","html-keyboard-response","450","546894","0.0-1.0-624.0","0","0","74365","","null","","","null","69","NaN","","","","","","","","","","","","","","",""
"","S2","","html-keyboard-response","451","547151","0.0-1.0-625.0","0","0","74365","","null","","","null","69","","NaN","","","","","","","","","","","","","",""
"","response","","html-keyboard-response","452","548906","0.0-1.0-626.0-0.0","0","0","74365","","null","","","null","69","","","2","69","training","adjacent","GF","7","6","P.jpg","Q.jpg","NaN","0","0","",""
"","too_slow_prompt","","html-keyboard-response","453","549912","0.0-1.0-628.0-0.0","1","0","74365","","null","","","null","","","","","","","","","","","","","","","","",""
"","time_out","","html-keyboard-response","454","551919","0.0-1.0-629.0-0.0","0","0","74365","","null","","","null","69","","","","","","","","","","","","","","","",""
"","ITI","","html-keyboard-response","455","552924","0.0-1.0-630.0","0","0","74365","","null","","","null","69","","","","","","","","","","","","","","","NaN",""
"","S1","","html-keyboard-response","456","553184","0.0-1.0-632.0","0","0","74365","","null","","","null","70","","","","","","","","","","","","","","","",""
"","ISI","","html-keyboard-response","457","553689","0.0-1.0-633.0","0","0","74365","","null","","","null","70","NaN","","","","","","","","","","","","","","",""
"","S2","","html-keyboard-response","458","553698","0.0-1.0-634.0","0","0","74365","","4","","","68","70","","d","2","70","training","adjacent","CB","3","2","R.jpg","N.jpg","0","0","1","",""
"","feedback","","html-keyboard-response","459","554708","0.0-1.0-636.0-0.0","0","0","74365","","null","","","null","70","","","","","","","","","","","","","","","",""
"","ITI","","html-keyboard-response","460","555715","0.0-1.0-639.0","0","0","74365","","null","","","null","70","","","","","","","","","","","","","","","NaN",""
"","S1","","html-keyboard-response","461","555969","0.0-1.0-641.0","0","0","74365","","null","","","null","71","","","","","","","","","","","","","","","",""
"","ISI","","html-keyboard-response","462","556474","0.0-1.0-642.0","0","0","74365","","null","","","null","71","NaN","","","","","","","","","","","","","","",""
"","S2","","html-keyboard-response","463","556729","0.0-1.0-643.0","0","0","74365","","null","","","null","71","","NaN","","","","","","","","","","","","","",""
"","response","","html-keyboard-response","464","557138","0.0-1.0-644.0-0.0","0","0","74365","","404","","","68","71","","","2","71","training","adjacent","CD","3","4","R.jpg","M.jpg","0","1","0","",""
"","feedback","","html-keyboard-response","465","558144","0.0-1.0-645.0-0.0","0","0","74365","","null","","","null","71","","","","","","","","","","","","","","","",""
"","time_out","","html-keyboard-response","466","560151","0.0-1.0-647.0-0.0","0","0","74365","","null","","","null","71","","","","","","","","","","","","","","","",""
"","ITI","","html-keyboard-response","467","561157","0.0-1.0-648.0","0","0","74365","","null","","","null","71","","","","","","","","","","","","","","","NaN",""
"","S1","","html-keyboard-response","468","561415","0.0-1.0-650.0","0","0","74365","","null","","","null","72","","","","","","","","","","","","","","","",""
"","ISI","","html-keyboard-response","469","561920","0.0-1.0-651.0","0","0","74365","","null","","","null","72","NaN","","","","","","","","","","","","","","",""
"","S2","","html-keyboard-response","470","562176","0.0-1.0-652.0","0","0","74365","","null","","","null","72","","NaN","","","","","","","","","","","","","",""
"","response","","html-keyboard-response","471","563314","0.0-1.0-653.0-0.0","0","0","74365","","1132","","","75","72","","","2","72","training","adjacent","EF","5","6","O.jpg","Q.jpg","1","1","1","",""
"","feedback","","html-keyboard-response","472","564320","0.0-1.0-654.0-0.0","0","0","74365","","null","","","null","72","","","","","","","","","","","","","","","",""
"","ITI","","html-keyboard-response","473","565327","0.0-1.0-657.0","0","0","74365","","null","","","null","72","","","","","","","","","","","","","","","NaN",""
"","S1","","html-keyboard-response","474","565582","0.0-1.0-659.0","0","0","74365","","null","","","null","73","","","","","","","","","","","","","","","",""
"","ISI","","html-keyboard-response","475","566086","0.0-1.0-660.0","0","0","74365","","null","","","null","73","NaN","","","","","","","","","","","","","","",""
"","S2","","html-keyboard-response","476","566342","0.0-1.0-661.0","0","0","74365","","null","","","null","73","","NaN","","","","","","","","","","","","","",""
"","response","","html-keyboard-response","477","568099","0.0-1.0-662.0-0.0","0","0","74365","","null","","","null","73","","","2","73","training","adjacent","ED","5","4","O.jpg","M.jpg","NaN","0","0","",""
"","too_slow_prompt","","html-keyboard-response","478","569103","0.0-1.0-664.0-0.0","1","0","74365","","null","","","null","","","","","","","","","","","","","","","","",""
"","time_out","","html-keyboard-response","479","571108","0.0-1.0-665.0-0.0","0","0","74365","","null","","","null","73","","","","","","","","","","","","","","","",""
"","ITI","","html-keyboard-response","480","572113","0.0-1.0-666.0","0","0","74365","","null","","","null","73","","","","","","","","","","","","","","","NaN",""
"","S1","","html-keyboard-response","481","572368","0.0-1.0-668.0","0","0","74365","","null","","","null","74","","","","","","","","","","","","","","","",""
"","ISI","","html-keyboard-response","482","572871","0.0-1.0-669.0","0","0","74365","","null","","","null","74","NaN","","","","","","","","","","","","","","",""
"","S2","","html-keyboard-response","483","573130","0.0-1.0-670.0","0","0","74365","","null","","","null","74","","NaN","","","","","","","","","","","","","",""
"","response","","html-keyboard-response","484","574363","0.0-1.0-671.0-0.0","0","0","74365","","1225","","","75","74","","","2","74","training","adjacent","CD","3","4","R.jpg","M.jpg","1","1","1","",""
"","feedback","","html-keyboard-response","485","575369","0.0-1.0-672.0-0.0","0","0","74365","","null","","","null","74","","","","","","","","","","","","","","","",""
"","ITI","","html-keyboard-response","486","576374","0.0-1.0-675.0","0","0","74365","","null","","","null","74","","","","","","","","","","","","","","","NaN",""
"","S1","","html-keyboard-response","487","576629","0.0-1.0-677.0","0","0","74365","","null","","","null","75","","","","","","","","","","","","","","","",""
"","ISI","","html-keyboard-response","488","577133","0.0-1.0-678.0","0","0","74365","","null","","","null","75","NaN","","","","","","","","","","","","","","",""
"","S2","","html-keyboard-response","489","577390","0.0-1.0-679.0","0","0","74365","","null","","","null","75","","NaN","","","","","","","","","","","","","",""
"","response","","html-keyboard-response","490","578129","0.0-1.0-680.0-0.0","0","0","74365","","734","","","68","75","","","2","75","training","adjacent","FE","6","5","Q.jpg","O.jpg","0","0","1","",""
"","feedback","","html-keyboard-response","491","579134","0.0-1.0-681.0-0.0","0","0","74365","","null","","","null","75","","","","","","","","","","","","","","","",""
"","ITI","","html-keyboard-response","492","580142","0.0-1.0-684.0","0","0","74365","","null","","","null","75","","","","","","","","","","","","","","","NaN",""
"","S1","","html-keyboard-response","493","580398","0.0-1.0-686.0","0","0","74365","","null","","","null","76","","","","","","","","","","","","","","","",""
"","ISI","","html-keyboard-response","494","580902","0.0-1.0-687.0","0","0","74365","","null","","","null","76","NaN","","","","","","","","","","","","","","",""
"","S2","","html-keyboard-response","495","581158","0.0-1.0-688.0","0","0","74365","","null","","","null","76","","NaN","","","","","","","","","","","","","",""
"","response","","html-keyboard-response","496","581478","0.0-1.0-689.0-0.0","0","0","74365","","315","","","68","76","","","2","76","training","adjacent","FE","6","5","Q.jpg","O.jpg","0","0","1","",""
"","feedback","","html-keyboard-response","497","582486","0.0-1.0-690.0-0.0","0","0","74365","","null","","","null","76","","","","","","","","","","","","","","","",""
"","ITI","","html-keyboard-response","498","583495","0.0-1.0-693.0","0","0","74365","","null","","","null","76","","","","","","","","","","","","","","","NaN",""
"","S1","","html-keyboard-response","499","583750","0.0-1.0-695.0","0","0","74365","","null","","","null","77","","","","","","","","","","","","","","","",""
"","ISI","","html-keyboard-response","500","584255","0.0-1.0-696.0","0","0","74365","","null","","","null","77","NaN","","","","","","","","","","","","","","",""
"","S2","","html-keyboard-response","501","584510","0.0-1.0-697.0","0","0","74365","","null","","","null","77","","NaN","","","","","","","","","","","","","",""
"","response","","html-keyboard-response","502","584800","0.0-1.0-698.0-0.0","0","0","74365","","284","","","75","77","","","2","77","training","adjacent","ED","5","4","O.jpg","M.jpg","1","0","0","",""
"","feedback","","html-keyboard-response","503","585807","0.0-1.0-699.0-0.0","0","0","74365","","null","","","null","77","","","","","","","","","","","","","","","",""
"","time_out","","html-keyboard-response","504","587812","0.0-1.0-701.0-0.0","0","0","74365","","null","","","null","77","","","","","","","","","","","","","","","",""
"","ITI","","html-keyboard-response","505","588817","0.0-1.0-702.0","0","0","74365","","null","","","null","77","","","","","","","","","","","","","","","NaN",""
"","S1","","html-keyboard-response","506","589073","0.0-1.0-704.0","0","0","74365","","null","","","null","78","","","","","","","","","","","","","","","",""
"","ISI","","html-keyboard-response","507","589577","0.0-1.0-705.0","0","0","74365","","null","","","null","78","NaN","","","","","","","","","","","","","","",""
"","S2","","html-keyboard-response","508","589833","0.0-1.0-706.0","0","0","74365","","null","","","null","78","","NaN","","","","","","","","","","","","","",""
"","response","","html-keyboard-response","509","590149","0.0-1.0-707.0-0.0","0","0","74365","","312","","","68","78","","","2","78","training","adjacent","FE","6","5","Q.jpg","O.jpg","0","0","1","",""
"","feedback","","html-keyboard-response","510","591157","0.0-1.0-708.0-0.0","0","0","74365","","null","","","null","78","","","","","","","","","","","","","","","",""
"","ITI","","html-keyboard-response","511","592161","0.0-1.0-711.0","0","0","74365","","null","","","null","78","","","","","","","","","","","","","","","NaN",""
"","S1","","html-keyboard-response","512","592417","0.0-1.0-713.0","0","0","74365","","null","","","null","79","","","","","","","","","","","","","","","",""
"","ISI","","html-keyboard-response","513","592921","0.0-1.0-714.0","0","0","74365","","null","","","null","79","NaN","","","","","","","","","","","","","","",""
"","S2","","html-keyboard-response","514","593177","0.0-1.0-715.0","0","0","74365","","null","","","null","79","","NaN","","","","","","","","","","","","","",""
"","response","","html-keyboard-response","515","594932","0.0-1.0-716.0-0.0","0","0","74365","","null","","","null","79","","","2","79","training","adjacent","CB","3","2","R.jpg","N.jpg","NaN","0","0","",""
"","too_slow_prompt","","html-keyboard-response","516","595936","0.0-1.0-718.0-0.0","1","0","74365","","null","","","null","","","","","","","","","","","","","","","","",""
"","time_out","","html-keyboard-response","517","597941","0.0-1.0-719.0-0.0","0","0","74365","","null","","","null","79","","","","","","","","","","","","","","","",""
"","ITI","","html-keyboard-response","518","598946","0.0-1.0-720.0","0","0","74365","","null","","","null","79","","","","","","","","","","","","","","","NaN",""
"","S1","","html-keyboard-response","519","599201","0.0-1.0-722.0","0","0","74365","","null","","","null","80","","","","","","","","","","","","","","","",""
"","ISI","","html-keyboard-response","520","599705","0.0-1.0-723.0","0","0","74365","","null","","","null","80","NaN","","","","","","","","","","","","","","",""
"","S2","","html-keyboard-response","521","599962","0.0-1.0-724.0","0","0","74365","","null","","","null","80","","NaN","","","","","","","","","","","","","",""
"","response","","html-keyboard-response","522","600245","0.0-1.0-725.0-0.0","0","0","74365","","276","","","75","80","","","2","80","training","adjacent","CB","3","2","R.jpg","N.jpg","1","0","0","",""
"","feedback","","html-keyboard-response","523","601253","0.0-1.0-726.0-0.0","0","0","74365","","null","","","null","80","","","","","","","","","","","","","","","",""
"","time_out","","html-keyboard-response","524","603261","0.0-1.0-728.0-0.0","0","0","74365","","null","","","null","80","","","","","","","","","","","","","","","",""
"","ITI","","html-keyboard-response","525","604267","0.0-1.0-729.0","0","0","74365","","null","","","null","80","","","","","","","","","","","","","","","NaN",""
"","S1","","html-keyboard-response","526","604523","0.0-1.0-731.0","0","0","74365","","null","","","null","81","","","","","","","","","","","","","","","",""
"","ISI","","html-keyboard-response","527","605028","0.0-1.0-732.0","0","0","74365","","300","","","68","81","d","","","","","","","","","","","","","","",""
"","S2","","html-keyboard-response","528","605285","0.0-1.0-733.0","0","0","74365","","null","","","null","81","","NaN","","","","","","","","","","","","","",""
"","response","","html-keyboard-response","529","605960","0.0-1.0-734.0-0.0","0","0","74365","","669","","","68","81","","","2","81","training","adjacent","BA","2","1","N.jpg","L.jpg","0","0","1","",""
"","feedback","","html-keyboard-response","530","606967","0.0-1.0-735.0-0.0","0","0","74365","","null","","","null","81","","","","","","","","","","","","","","","",""
"","ITI","","html-keyboard-response","531","607973","0.0-1.0-738.0","0","0","74365","","null","","","null","81","","","","","","","","","","","","","","","NaN",""
"","S1","","html-keyboard-response","532","608229","0.0-1.0-740.0","0","0","74365","","null","","","null","82","","","","","","","","","","","","","","","",""
"","ISI","","html-keyboard-response","533","608734","0.0-1.0-741.0","0","0","74365","","null","","","null","82","NaN","","","","","","","","","","","","","","",""
"","S2","","html-keyboard-response","534","608989","0.0-1.0-742.0","0","0","74365","","null","","","null","82","","NaN","","","","","","","","","","","","","",""
"","response","","html-keyboard-response","535","610746","0.0-1.0-743.0-0.0","0","0","74365","","null","","","null","82","","","2","82","training","adjacent","BC","2","3","N.jpg","R.jpg","NaN","1","0","",""
"","too_slow_prompt","","html-keyboard-response","536","611755","0.0-1.0-745.0-0.0","1","0","74365","","null","","","null","","","","","","","","","","","","","","","","",""
"","time_out","","html-keyboard-response","537","613761","0.0-1.0-746.0-0.0","0","0","74365","","null","","","null","82","","","","","","","","","","","","","","","",""
"","ITI","","html-keyboard-response","538","614768","0.0-1.0-747.0","0","0","74365","","null","","","null","82","","","","","","","","","","","","","","","NaN",""
"","S1","","html-keyboard-response","539","615022","0.0-1.0-749.0","0","0","74365","","null","","","null","83","","","","","","","","","","","","","","","",""
"","ISI","","html-keyboard-response","540","615526","0.0-1.0-750.0","0","0","74365","","null","","","null","83","NaN","","","","","","","","","","","","","","",""
"","S2","","html-keyboard-response","541","615782","0.0-1.0-751.0","0","0","74365","","null","","","null","83","","NaN","","","","","","","","","","","","","",""
"","response","","html-keyboard-response","542","617299","0.0-1.0-752.0-0.0","0","0","74365","","1510","","","68","83","","","2","83","training","adjacent","DC","4","3","M.jpg","R.jpg","0","0","1","",""
"","feedback","","html-keyboard-response","543","618306","0.0-1.0-753.0-0.0","0","0","74365","","null","","","null","83","","","","","","","","","","","","","","","",""
"","ITI","","html-keyboard-response","544","619323","0.0-1.0-756.0","0","0","74365","","null","","","null","83","","","","","","","","","","","","","","","NaN",""
"","S1","","html-keyboard-response","545","619579","0.0-1.0-758.0","0","0","74365","","null","","","null","84","","","","","","","","","","","","","","","",""
"","ISI","","html-keyboard-response","546","620085","0.0-1.0-759.0","0","0","74365","","null","","","null","84","NaN","","","","","","","","","","","","","","",""
"","S2","","html-keyboard-response","547","620342","0.0-1.0-760.0","0","0","74365","","null","","","null","84","","NaN","","","","","","","","","","","","","",""
"","response","","html-keyboard-response","548","621848","0.0-1.0-761.0-0.0","0","0","74365","","1500","","","68","84","","","2","84","training","adjacent","BC","2","3","N.jpg","R.jpg","0","1","0","",""
"","feedback","","html-keyboard-response","549","622855","0.0-1.0-762.0-0.0","0","0","74365","","null","","","null","84","","","","","","","","","","","","","","","",""
"","time_out","","html-keyboard-response","550","624859","0.0-1.0-764.0-0.0","0","0","74365","","null","","","null","84","","","","","","","","","","","","","","","",""
"","ITI","","html-keyboard-response","551","625864","0.0-1.0-765.0","0","0","74365","","null","","","null","84","","","","","","","","","","","","","","","NaN",""
"","S1","","html-keyboard-response","552","626120","0.0-1.0-767.0","0","0","74365","","null","","","null","85","","","","","","","","","","","","","","","",""
"","ISI","","html-keyboard-response","553","626624","0.0-1.0-768.0","0","0","74365","","null","","","null","85","NaN","","","","","","","","","","","","","","",""
"","S2","","html-keyboard-response","554","626879","0.0-1.0-769.0","0","0","74365","","null","","","null","85","","NaN","","","","","","","","","","","","","",""
"","response","","html-keyboard-response","555","627959","0.0-1.0-770.0-0.0","0","0","74365","","1075","","","75","85","","","2","85","training","adjacent","CD","3","4","R.jpg","M.jpg","1","1","1","",""
"","feedback","","html-keyboard-response","556","628966","0.0-1.0-771.0-0.0","0","0","74365","","null","","","null","85","","","","","","","","","","","","","","","",""
"","ITI","","html-keyboard-response","557","629972","0.0-1.0-774.0","0","0","74365","","null","","","null","85","","","","","","","","","","","","","","","NaN",""
"","S1","","html-keyboard-response","558","630229","0.0-1.0-776.0","0","0","74365","","null","","","null","86","","","","","","","","","","","","","","","",""
"","ISI","","html-keyboard-response","559","630734","0.0-1.0-777.0","0","0","74365","","null","","","null","86","NaN","","","","","","","","","","","","","","",""
"","S2","","html-keyboard-response","560","630994","0.0-1.0-778.0","0","0","74365","","null","","","null","86","","NaN","","","","","","","","","","","","","",""
"","response","","html-keyboard-response","561","631384","0.0-1.0-779.0-0.0","0","0","74365","","383","","","68","86","","","2","86","training","adjacent","DC","4","3","M.jpg","R.jpg","0","0","1","",""
"","feedback","","html-keyboard-response","562","632392","0.0-1.0-780.0-0.0","0","0","74365","","null","","","null","86","","","","","","","","","","","","","","","",""
"","ITI","","html-keyboard-response","563","633398","0.0-1.0-783.0","0","0","74365","","null","","","null","86","","","","","","","","","","","","","","","NaN",""
"","S1","","html-keyboard-response","564","633653","0.0-1.0-785.0","0","0","74365","","null","","","null","87","","","","","","","","","","","","","","","",""
"","ISI","","html-keyboard-response","565","634157","0.0-1.0-786.0","0","0","74365","","null","","","null","87","NaN","","","","","","","","","","","","","","",""
"","S2","","html-keyboard-response","566","634413","0.0-1.0-787.0","0","0","74365","","null","","","null","87","","NaN","","","","","","","","","","","","","",""
"","response","","html-keyboard-response","567","634688","0.0-1.0-788.0-0.0","0","0","74365","","272","","","75","87","","","2","87","training","adjacent","CB","3","2","R.jpg","N.jpg","1","0","0","",""
"","feedback","","html-keyboard-response","568","635696","0.0-1.0-789.0-0.0","0","0","74365","","null","","","null","87","","","","","","","","","","","","","","","",""
"","time_out","","html-keyboard-response","569","637702","0.0-1.0-791.0-0.0","0","0","74365","","null","","","null","87","","","","","","","","","","","","","","","",""
"","ITI","","html-keyboard-response","570","638710","0.0-1.0-792.0","0","0","74365","","null","","","null","87","","","","","","","","","","","","","","","NaN",""
"","S1","","html-keyboard-response","571","638966","0.0-1.0-794.0","0","0","74365","","null","","","null","88","","","","","","","","","","","","","","","",""
"","ISI","","html-keyboard-response","572","639471","0.0-1.0-795.0","0","0","74365","","null","","","null","88","NaN","","","","","","","","","","","","","","",""
"","S2","","html-keyboard-response","573","639726","0.0-1.0-796.0","0","0","74365","","null","","","null","88","","NaN","","","","","","","","","","","","","",""
"","response","","html-keyboard-response","574","640013","0.0-1.0-797.0-0.0","0","0","74365","","282","","","68","88","","","2","88","training","adjacent","FG","6","7","Q.jpg","P.jpg","0","1","0","",""
"","feedback","","html-keyboard-response","575","641019","0.0-1.0-798.0-0.0","0","0","74365","","null","","","null","88","","","","","","","","","","","","","","","",""
"","time_out","","html-keyboard-response","576","643025","0.0-1.0-800.0-0.0","0","0","74365","","null","","","null","88","","","","","","","","","","","","","","","",""
"","ITI","","html-keyboard-response","577","644031","0.0-1.0-801.0","0","0","74365","","null","","","null","88","","","","","","","","","","","","","","","NaN",""
"","S1","","html-keyboard-response","578","644286","0.0-1.0-803.0","0","0","74365","","null","","","null","89","","","","","","","","","","","","","","","",""
"","ISI","","html-keyboard-response","579","644790","0.0-1.0-804.0","0","0","74365","","null","","","null","89","NaN","","","","","","","","","","","","","","",""
"","S2","","html-keyboard-response","580","645048","0.0-1.0-805.0","0","0","74365","","null","","","null","89","","NaN","","","","","","","","","","","","","",""
