"success","ttype","start_time","trial_type","trial_index","time_elapsed","internal_node_id","warning","missed_checkup","PID","view_history","rt","responses","repeat_instructions","key_press","index","keypress_isi","keypress_S2","block","trial_num","phase","group_type","pair_type","S1_stim","S2_stim","S1_img","S2_img","S1_chosen","S1_higher","accuracy","keypress_iti","total_bonus_tally"
"true","full_screen","d04142023hr1342","fullscreen","0","17028","0.0-0.0","0","0","39684","","","","","","","","","","","","","","","","","","","","","",""
"","instructions","","instructions","1","48124","0.0-1.0-0.0-0.0","0","0","39684","[{""page_index"":0,""viewing_time"":5020},{""page_index"":1,""viewing_time"":16352},{""page_index"":2,""viewing_time"":7632},{""page_index"":3,""viewing_time"":2090}]","31094","","","","","","","","","","","","","","","","","","","",""
"","comprehension_check","","survey-multi-choice","2","71979","0.0-1.0-0.0-1.0","0","0","39684","","23851","{""Q0"":""True"",""Q1"":""D"",""Q2"":""Only when the screen 'MAKE A CHOICE' is shown"",""Q3"":""Green mark"",""Q4"":""either D or K""}","1","","","","","","","","","","","","","","","","","",""
"","missed_instruction_checkup","","html-keyboard-response","3","74443","0.0-1.0-0.0-2.0-0.0","0","1","39684","","2461","","","32","","","","","","","","","","","","","","","","",""
"","instructions","","instructions","4","91148","0.0-1.0-0.1-0.1","0","0","39684","[{""page_index"":0,""viewing_time"":2628},{""page_index"":1,""viewing_time"":11541},{""page_index"":2,""viewing_time"":1274},{""page_index"":3,""viewing_time"":1260}]","16703","","","","","","","","","","","","","","","","","","","",""
"","comprehension_check","","survey-multi-choice","5","102719","0.0-1.0-0.1-1.1","0","0","39684","","11567","{""Q0"":""True"",""Q1"":""D"",""Q2"":""Once the second image appears and while the screen 'MAKE A CHOICE' is shown"",""Q3"":""Green mark"",""Q4"":""either D or K""}","0","","","","","","","","","","","","","","","","","",""
"","start_exp","","html-keyboard-response","6","103844","0.0-1.0-1.0","0","0","39684","","1123","","","32","","","","","","","","","","","","","","","","",""
"","S1","","html-keyboard-response","7","104105","0.0-1.0-2.0","0","0","39684","","null","","","null","0","","","","","","","","","","","","","","","",""
"","ISI","","html-keyboard-response","8","105111","0.0-1.0-3.0","0","0","39684","","null","","","null","0","NaN","","","","","","","","","","","","","","",""
"","S2","","html-keyboard-response","9","105368","0.0-1.0-4.0","0","0","39684","","null","","","null","0","","NaN","","","","","","","","","","","","","",""
"","response","","html-keyboard-response","10","107130","0.0-1.0-5.0-0.0","0","0","39684","","null","","","null","0","","","1","0","training","adjacent","AB","1","2","L.jpg","R.jpg","NaN","1","0","",""
"","too_slow_prompt","","html-keyboard-response","11","108135","0.0-1.0-7.0-0.0","1","0","39684","","null","","","null","","","","","","","","","","","","","","","","",""
"","time_out","","html-keyboard-response","12","110144","0.0-1.0-8.0-0.0","0","0","39684","","null","","","null","0","","","","","","","","","","","","","","","",""
"","ITI","","html-keyboard-response","13","111153","0.0-1.0-9.0","0","0","39684","","null","","","null","0","","","","","","","","","","","","","","","NaN",""
"","S1","","html-keyboard-response","14","111417","0.0-1.0-11.0","0","0","39684","","null","","","null","1","","","","","","","","","","","","","","","",""
"","ISI","","html-keyboard-response","15","112424","0.0-1.0-12.0","0","0","39684","","null","","","null","1","NaN","","","","","","","","","","","","","","",""
"","S2","","html-keyboard-response","16","112681","0.0-1.0-13.0","0","0","39684","","null","","","null","1","","NaN","","","","","","","","","","","","","",""
"","response","","html-keyboard-response","17","113304","0.0-1.0-14.0-0.0","0","0","39684","","620","","","68","1","","","1","1","training","adjacent","FE","6","5","P.jpg","Q.jpg","1","0","0","",""
"","feedback","","html-keyboard-response","18","114313","0.0-1.0-15.0-0.0","0","0","39684","","null","","","null","1","","","","","","","","","","","","","","","",""
"","time_out","","html-keyboard-response","19","116321","0.0-1.0-17.0-0.0","0","0","39684","","null","","","null","1","","","","","","","","","","","","","","","",""
"","ITI","","html-keyboard-response","20","117329","0.0-1.0-18.0","0","0","39684","","null","","","null","1","","","","","","","","","","","","","","","NaN",""
"","S1","","html-keyboard-response","21","117593","0.0-1.0-20.0","0","0","39684","","null","","","null","2","","","","","","","","","","","","","","","",""
"","ISI","","html-keyboard-response","22","118600","0.0-1.0-21.0","0","0","39684","","null","","","null","2","NaN","","","","","","","","","","","","","","",""
"","S2","","html-keyboard-response","23","118856","0.0-1.0-22.0","0","0","39684","","null","","","null","2","","NaN","","","","","","","","","","","","","",""
"","response","","html-keyboard-response","24","119221","0.0-1.0-23.0-0.0","0","0","39684","","363","","","75","2","","","1","2","training","adjacent","ED","5","4","Q.jpg","O.jpg","0","0","1","",""
"","feedback","","html-keyboard-response","25","120234","0.0-1.0-24.0-0.0","0","0","39684","","null","","","null","2","","","","","","","","","","","","","","","",""
"","ITI","","html-keyboard-response","26","121242","0.0-1.0-27.0","0","0","39684","","null","","","null","2","","","","","","","","","","","","","","","NaN",""
"","S1","","html-keyboard-response","27","121506","0.0-1.0-29.0","0","0","39684","","null","","","null","3","","","","","","","","","","","","","","","",""
"","ISI","","html-keyboard-response","28","122512","0.0-1.0-30.0","0","0","39684","","null","","","null","3","NaN","","","","","","","","","","","","","","",""
"","S2","","html-keyboard-response","29","122768","0.0-1.0-31.0","0","0","39684","","null","","","null","3","","NaN","","","","","","","","","","","","","",""
"","response","","html-keyboard-response","30","123261","0.0-1.0-32.0-0.0","0","0","39684","","491","","","68","3","","","1","3","training","adjacent","DC","4","3","O.jpg","M.jpg","1","0","0","",""
"","feedback","","html-keyboard-response","31","124271","0.0-1.0-33.0-0.0","0","0","39684","","null","","","null","3","","","","","","","","","","","","","","","",""
"","time_out","","html-keyboard-response","32","126280","0.0-1.0-35.0-0.0","0","0","39684","","null","","","null","3","","","","","","","","","","","","","","","",""
"","ITI","","html-keyboard-response","33","127287","0.0-1.0-36.0","0","0","39684","","null","","","null","3","","","","","","","","","","","","","","","NaN",""
"","S1","","html-keyboard-response","34","127546","0.0-1.0-38.0","0","0","39684","","null","","","null","4","","","","","","","","","","","","","","","",""
"","ISI","","html-keyboard-response","35","128552","0.0-1.0-39.0","0","0","39684","","null","","","null","4","NaN","","","","","","","","","","","","","","",""
"","S2","","html-keyboard-response","36","128807","0.0-1.0-40.0","0","0","39684","","null","","","null","4","","NaN","","","","","","","","","","","","","",""
"","response","","html-keyboard-response","37","129200","0.0-1.0-41.0-0.0","0","0","39684","","390","","","75","4","","","1","4","training","adjacent","AB","1","2","L.jpg","R.jpg","0","1","0","",""
"","feedback","","html-keyboard-response","38","130207","0.0-1.0-42.0-0.0","0","0","39684","","null","","","null","4","","","","","","","","","","","","","","","",""
"","time_out","","html-keyboard-response","39","132215","0.0-1.0-44.0-0.0","0","0","39684","","null","","","null","4","","","","","","","","","","","","","","","",""
"","ITI","","html-keyboard-response","40","133225","0.0-1.0-45.0","0","0","39684","","null","","","null","4","","","","","","","","","","","","","","","NaN",""
"","S1","","html-keyboard-response","41","133482","0.0-1.0-47.0","0","0","39684","","null","","","null","5","","","","","","","","","","","","","","","",""
"","ISI","","html-keyboard-response","42","134489","0.0-1.0-48.0","0","0","39684","","null","","","null","5","NaN","","","","","","","","","","","","","","",""
"","S2","","html-keyboard-response","43","134743","0.0-1.0-49.0","0","0","39684","","null","","","null","5","","NaN","","","","","","","","","","","","","",""
"","response","","html-keyboard-response","44","135110","0.0-1.0-50.0-0.0","0","0","39684","","366","","","75","5","","","1","5","training","adjacent","DC","4","3","O.jpg","M.jpg","0","0","1","",""
"","feedback","","html-keyboard-response","45","136120","0.0-1.0-51.0-0.0","0","0","39684","","null","","","null","5","","","","","","","","","","","","","","","",""
"","ITI","","html-keyboard-response","46","137131","0.0-1.0-54.0","0","0","39684","","null","","","null","5","","","","","","","","","","","","","","","NaN",""
"","S1","","html-keyboard-response","47","137395","0.0-1.0-56.0","0","0","39684","","null","","","null","6","","","","","","","","","","","","","","","",""
"","ISI","","html-keyboard-response","48","138400","0.0-1.0-57.0","0","0","39684","","null","","","null","6","NaN","","","","","","","","","","","","","","",""
"","S2","","html-keyboard-response","49","138656","0.0-1.0-58.0","0","0","39684","","null","","","null","6","","NaN","","","","","","","","","","","","","",""
"","response","","html-keyboard-response","50","139106","0.0-1.0-59.0-0.0","0","0","39684","","448","","","75","6","","","1","6","training","adjacent","FE","6","5","P.jpg","Q.jpg","0","0","1","",""
"","feedback","","html-keyboard-response","51","140114","0.0-1.0-60.0-0.0","0","0","39684","","null","","","null","6","","","","","","","","","","","","","","","",""
"","ITI","","html-keyboard-response","52","141121","0.0-1.0-63.0","0","0","39684","","null","","","null","6","","","","","","","","","","","","","","","NaN",""
"","S1","","html-keyboard-response","53","141377","0.0-1.0-65.0","0","0","39684","","null","","","null","7","","","","","","","","","","","","","","","",""
"","ISI","","html-keyboard-response","54","142383","0.0-1.0-66.0","0","0","39684","","null","","","null","7","NaN","","","","","","","","","","","","","","",""
"","S2","","html-keyboard-response","55","142642","0.0-1.0-67.0","0","0","39684","","null","","","null","7","","NaN","","","","","","","","","","","","","",""
"","response","","html-keyboard-response","56","143036","0.0-1.0-68.0-0.0","0","0","39684","","393","","","75","7","","","1","7","training","adjacent","EF","5","6","Q.jpg","P.jpg","0","1","0","",""
"","feedback","","html-keyboard-response","57","144050","0.0-1.0-69.0-0.0","0","0","39684","","null","","","null","7","","","","","","","","","","","","","","","",""
"","time_out","","html-keyboard-response","58","146057","0.0-1.0-71.0-0.0","0","0","39684","","null","","","null","7","","","","","","","","","","","","","","","",""
"","ITI","","html-keyboard-response","59","147065","0.0-1.0-72.0","0","0","39684","","null","","","null","7","","","","","","","","","","","","","","","NaN",""
"","S1","","html-keyboard-response","60","147321","0.0-1.0-74.0","0","0","39684","","null","","","null","8","","","","","","","","","","","","","","","",""
"","ISI","","html-keyboard-response","61","148328","0.0-1.0-75.0","0","0","39684","","null","","","null","8","NaN","","","","","","","","","","","","","","",""
"","S2","","html-keyboard-response","62","148587","0.0-1.0-76.0","0","0","39684","","null","","","null","8","","NaN","","","","","","","","","","","","","",""
"","response","","html-keyboard-response","63","149060","0.0-1.0-77.0-0.0","0","0","39684","","471","","","68","8","","","1","8","training","adjacent","EF","5","6","Q.jpg","P.jpg","1","1","1","",""
"","feedback","","html-keyboard-response","64","150063","0.0-1.0-78.0-0.0","0","0","39684","","null","","","null","8","","","","","","","","","","","","","","","",""
"","ITI","","html-keyboard-response","65","151073","0.0-1.0-81.0","0","0","39684","","null","","","null","8","","","","","","","","","","","","","","","NaN",""
"","S1","","html-keyboard-response","66","151330","0.0-1.0-83.0","0","0","39684","","null","","","null","9","","","","","","","","","","","","","","","",""
"","ISI","","html-keyboard-response","67","152335","0.0-1.0-84.0","0","0","39684","","null","","","null","9","NaN","","","","","","","","","","","","","","",""
"","S2","","html-keyboard-response","68","152591","0.0-1.0-85.0","0","0","39684","","null","","","null","9","","NaN","","","","","","","","","","","","","",""
"","response","","html-keyboard-response","69","153011","0.0-1.0-86.0-0.0","0","0","39684","","419","","","75","9","","","1","9","training","adjacent","AB","1","2","L.jpg","R.jpg","0","1","0","",""
"","feedback","","html-keyboard-response","70","154017","0.0-1.0-87.0-0.0","0","0","39684","","null","","","null","9","","","","","","","","","","","","","","","",""
"","time_out","","html-keyboard-response","71","156025","0.0-1.0-89.0-0.0","0","0","39684","","null","","","null","9","","","","","","","","","","","","","","","",""
"","ITI","","html-keyboard-response","72","157033","0.0-1.0-90.0","0","0","39684","","null","","","null","9","","","","","","","","","","","","","","","NaN",""
"","S1","","html-keyboard-response","73","157287","0.0-1.0-92.0","0","0","39684","","null","","","null","10","","","","","","","","","","","","","","","",""
"","ISI","","html-keyboard-response","74","158297","0.0-1.0-93.0","0","0","39684","","null","","","null","10","NaN","","","","","","","","","","","","","","",""
"","S2","","html-keyboard-response","75","158553","0.0-1.0-94.0","0","0","39684","","null","","","null","10","","NaN","","","","","","","","","","","","","",""
"","response","","html-keyboard-response","76","159068","0.0-1.0-95.0-0.0","0","0","39684","","513","","","68","10","","","1","10","training","adjacent","DC","4","3","O.jpg","M.jpg","1","0","0","",""
"","feedback","","html-keyboard-response","77","160071","0.0-1.0-96.0-0.0","0","0","39684","","null","","","null","10","","","","","","","","","","","","","","","",""
"","time_out","","html-keyboard-response","78","162080","0.0-1.0-98.0-0.0","0","0","39684","","null","","","null","10","","","","","","","","","","","","","","","",""
"","ITI","","html-keyboard-response","79","163089","0.0-1.0-99.0","0","0","39684","","null","","","null","10","","","","","","","","","","","","","","","NaN",""
"","S1","","html-keyboard-response","80","163345","0.0-1.0-101.0","0","0","39684","","null","","","null","11","","","","","","","","","","","","","","","",""
"","ISI","","html-keyboard-response","81","164353","0.0-1.0-102.0","0","0","39684","","null","","","null","11","NaN","","","","","","","","","","","","","","",""
"","S2","","html-keyboard-response","82","164606","0.0-1.0-103.0","0","0","39684","","null","","","null","11","","NaN","","","","","","","","","","","","","",""
"","response","","html-keyboard-response","83","165050","0.0-1.0-104.0-0.0","0","0","39684","","442","","","75","11","","","1","11","training","adjacent","FG","6","7","P.jpg","N.jpg","0","1","0","",""
"","feedback","","html-keyboard-response","84","166056","0.0-1.0-105.0-0.0","0","0","39684","","null","","","null","11","","","","","","","","","","","","","","","",""
"","time_out","","html-keyboard-response","85","168065","0.0-1.0-107.0-0.0","0","0","39684","","null","","","null","11","","","","","","","","","","","","","","","",""
"","ITI","","html-keyboard-response","86","169072","0.0-1.0-108.0","0","0","39684","","null","","","null","11","","","","","","","","","","","","","","","NaN",""
"","S1","","html-keyboard-response","87","169328","0.0-1.0-110.0","0","0","39684","","null","","","null","12","","","","","","","","","","","","","","","",""
"","ISI","","html-keyboard-response","88","170338","0.0-1.0-111.0","0","0","39684","","null","","","null","12","NaN","","","","","","","","","","","","","","",""
"","S2","","html-keyboard-response","89","170593","0.0-1.0-112.0","0","0","39684","","null","","","null","12","","NaN","","","","","","","","","","","","","",""
"","response","","html-keyboard-response","90","171134","0.0-1.0-113.0-0.0","0","0","39684","","540","","","75","12","","","1","12","training","adjacent","AB","1","2","L.jpg","R.jpg","0","1","0","",""
"","feedback","","html-keyboard-response","91","172145","0.0-1.0-114.0-0.0","0","0","39684","","null","","","null","12","","","","","","","","","","","","","","","",""
"","time_out","","html-keyboard-response","92","174152","0.0-1.0-116.0-0.0","0","0","39684","","null","","","null","12","","","","","","","","","","","","","","","",""
"","ITI","","html-keyboard-response","93","175162","0.0-1.0-117.0","0","0","39684","","null","","","null","12","","","","","","","","","","","","","","","NaN",""
"","S1","","html-keyboard-response","94","175416","0.0-1.0-119.0","0","0","39684","","null","","","null","13","","","","","","","","","","","","","","","",""
"","ISI","","html-keyboard-response","95","176425","0.0-1.0-120.0","0","0","39684","","null","","","null","13","NaN","","","","","","","","","","","","","","",""
"","S2","","html-keyboard-response","96","176683","0.0-1.0-121.0","0","0","39684","","null","","","null","13","","NaN","","","","","","","","","","","","","",""
"","response","","html-keyboard-response","97","177209","0.0-1.0-122.0-0.0","0","0","39684","","524","","","75","13","","","1","13","training","adjacent","DE","4","5","O.jpg","Q.jpg","0","1","0","",""
"","feedback","","html-keyboard-response","98","178219","0.0-1.0-123.0-0.0","0","0","39684","","null","","","null","13","","","","","","","","","","","","","","","",""
"","time_out","","html-keyboard-response","99","180223","0.0-1.0-125.0-0.0","0","0","39684","","null","","","null","13","","","","","","","","","","","","","","","",""
"","ITI","","html-keyboard-response","100","181233","0.0-1.0-126.0","0","0","39684","","null","","","null","13","","","","","","","","","","","","","","","NaN",""
"","S1","","html-keyboard-response","101","181488","0.0-1.0-128.0","0","0","39684","","null","","","null","14","","","","","","","","","","","","","","","",""
"","ISI","","html-keyboard-response","102","182498","0.0-1.0-129.0","0","0","39684","","null","","","null","14","NaN","","","","","","","","","","","","","","",""
"","S2","","html-keyboard-response","103","182754","0.0-1.0-130.0","0","0","39684","","null","","","null","14","","NaN","","","","","","","","","","","","","",""
"","response","","html-keyboard-response","104","183278","0.0-1.0-131.0-0.0","0","0","39684","","522","","","68","14","","","1","14","training","adjacent","FE","6","5","P.jpg","Q.jpg","1","0","0","",""
"","feedback","","html-keyboard-response","105","184292","0.0-1.0-132.0-0.0","0","0","39684","","null","","","null","14","","","","","","","","","","","","","","","",""
"","time_out","","html-keyboard-response","106","186296","0.0-1.0-134.0-0.0","0","0","39684","","null","","","null","14","","","","","","","","","","","","","","","",""
"","ITI","","html-keyboard-response","107","187306","0.0-1.0-135.0","0","0","39684","","null","","","null","14","","","","","","","","","","","","","","","NaN",""
"","S1","","html-keyboard-response","108","187561","0.0-1.0-137.0","0","0","39684","","null","","","null","15","","","","","","","","","","","","","","","",""
"","ISI","","html-keyboard-response","109","188569","0.0-1.0-138.0","0","0","39684","","null","","","null","15","NaN","","","","","","","","","","","","","","",""
"","S2","","html-keyboard-response","110","188828","0.0-1.0-139.0","0","0","39684","","null","","","null","15","","NaN","","","","","","","","","","","","","",""
"","response","","html-keyboard-response","111","189405","0.0-1.0-140.0-0.0","0","0","39684","","575","","","68","15","","","1","15","training","adjacent","ED","5","4","Q.jpg","O.jpg","1","0","0","",""
"","feedback","","html-keyboard-response","112","190417","0.0-1.0-141.0-0.0","0","0","39684","","null","","","null","15","","","","","","","","","","","","","","","",""
"","time_out","","html-keyboard-response","113","192427","0.0-1.0-143.0-0.0","0","0","39684","","null","","","null","15","","","","","","","","","","","","","","","",""
"","ITI","","html-keyboard-response","114","193433","0.0-1.0-144.0","0","0","39684","","null","","","null","15","","","","","","","","","","","","","","","NaN",""
"","S1","","html-keyboard-response","115","193689","0.0-1.0-146.0","0","0","39684","","null","","","null","16","","","","","","","","","","","","","","","",""
"","ISI","","html-keyboard-response","116","194699","0.0-1.0-147.0","0","0","39684","","null","","","null","16","NaN","","","","","","","","","","","","","","",""
"","S2","","html-keyboard-response","117","194962","0.0-1.0-148.0","0","0","39684","","null","","","null","16","","NaN","","","","","","","","","","","","","",""
"","response","","html-keyboard-response","118","195242","0.0-1.0-149.0-0.0","0","0","39684","","279","","","75","16","","","1","16","training","adjacent","FE","6","5","P.jpg","Q.jpg","0","0","1","",""
"","feedback","","html-keyboard-response","119","196248","0.0-1.0-150.0-0.0","0","0","39684","","null","","","null","16","","","","","","","","","","","","","","","",""
"","ITI","","html-keyboard-response","120","197259","0.0-1.0-153.0","0","0","39684","","null","","","null","16","","","","","","","","","","","","","","","NaN",""
"","S1","","html-keyboard-response","121","197523","0.0-1.0-155.0","0","0","39684","","null","","","null","17","","","","","","","","","","","","","","","",""
"","ISI","","html-keyboard-response","122","198532","0.0-1.0-156.0","0","0","39684","","null","","","null","17","NaN","","","","","","","","","","","","","","",""
"","S2","","html-keyboard-response","123","198795","0.0-1.0-157.0","0","0","39684","","null","","","null","17","","NaN","","","","","","","","","","","","","",""
"","response","","html-keyboard-response","124","199256","0.0-1.0-158.0-0.0","0","0","39684","","460","","","75","17","","","1","17","training","adjacent","CB","3","2","M.jpg","R.jpg","0","0","1","",""
"","feedback","","html-keyboard-response","125","200266","0.0-1.0-159.0-0.0","0","0","39684","","null","","","null","17","","","","","","","","","","","","","","","",""
"","ITI","","html-keyboard-response","126","201273","0.0-1.0-162.0","0","0","39684","","null","","","null","17","","","","","","","","","","","","","","","NaN",""
"","S1","","html-keyboard-response","127","201529","0.0-1.0-164.0","0","0","39684","","null","","","null","18","","","","","","","","","","","","","","","",""
"","ISI","","html-keyboard-response","128","202539","0.0-1.0-165.0","0","0","39684","","null","","","null","18","NaN","","","","","","","","","","","","","","",""
"","S2","","html-keyboard-response","129","202802","0.0-1.0-166.0","0","0","39684","","null","","","null","18","","NaN","","","","","","","","","","","","","",""
"","response","","html-keyboard-response","130","203496","0.0-1.0-167.0-0.0","0","0","39684","","691","","","68","18","","","1","18","training","adjacent","BC","2","3","R.jpg","M.jpg","1","1","1","",""
"","feedback","","html-keyboard-response","131","204506","0.0-1.0-168.0-0.0","0","0","39684","","null","","","null","18","","","","","","","","","","","","","","","",""
"","ITI","","html-keyboard-response","132","205514","0.0-1.0-171.0","0","0","39684","","null","","","null","18","","","","","","","","","","","","","","","NaN",""
"","S1","","html-keyboard-response","133","205769","0.0-1.0-173.0","0","0","39684","","null","","","null","19","","","","","","","","","","","","","","","",""
"","ISI","","html-keyboard-response","134","206776","0.0-1.0-174.0","0","0","39684","","null","","","null","19","NaN","","","","","","","","","","","","","","",""
"","S2","","html-keyboard-response","135","207035","0.0-1.0-175.0","0","0","39684","","null","","","null","19","","NaN","","","","","","","","","","","","","",""
"","response","","html-keyboard-response","136","207424","0.0-1.0-176.0-0.0","0","0","39684","","388","","","68","19","","","1","19","training","adjacent","BA","2","1","R.jpg","L.jpg","1","0","0","",""
"","feedback","","html-keyboard-response","137","208434","0.0-1.0-177.0-0.0","0","0","39684","","null","","","null","19","","","","","","","","","","","","","","","",""
"","time_out","","html-keyboard-response","138","210444","0.0-1.0-179.0-0.0","0","0","39684","","null","","","null","19","","","","","","","","","","","","","","","",""
"","ITI","","html-keyboard-response","139","211449","0.0-1.0-180.0","0","0","39684","","null","","","null","19","","","","","","","","","","","","","","","NaN",""
"","S1","","html-keyboard-response","140","211705","0.0-1.0-182.0","0","0","39684","","null","","","null","20","","","","","","","","","","","","","","","",""
"","ISI","","html-keyboard-response","141","212715","0.0-1.0-183.0","0","0","39684","","null","","","null","20","NaN","","","","","","","","","","","","","","",""
"","S2","","html-keyboard-response","142","212976","0.0-1.0-184.0","0","0","39684","","null","","","null","20","","NaN","","","","","","","","","","","","","",""
"","response","","html-keyboard-response","143","213410","0.0-1.0-185.0-0.0","0","0","39684","","433","","","75","20","","","1","20","training","adjacent","CB","3","2","M.jpg","R.jpg","0","0","1","",""
"","feedback","","html-keyboard-response","144","214420","0.0-1.0-186.0-0.0","0","0","39684","","null","","","null","20","","","","","","","","","","","","","","","",""
"","ITI","","html-keyboard-response","145","215425","0.0-1.0-189.0","0","0","39684","","null","","","null","20","","","","","","","","","","","","","","","NaN",""
"","S1","","html-keyboard-response","146","215681","0.0-1.0-191.0","0","0","39684","","null","","","null","21","","","","","","","","","","","","","","","",""
"","ISI","","html-keyboard-response","147","216692","0.0-1.0-192.0","0","0","39684","","null","","","null","21","NaN","","","","","","","","","","","","","","",""
"","S2","","html-keyboard-response","148","216953","0.0-1.0-193.0","0","0","39684","","null","","","null","21","","NaN","","","","","","","","","","","","","",""
"","response","","html-keyboard-response","149","217422","0.0-1.0-194.0-0.0","0","0","39684","","467","","","68","21","","","1","21","training","adjacent","EF","5","6","Q.jpg","P.jpg","1","1","1","",""
"","feedback","","html-keyboard-response","150","218433","0.0-1.0-195.0-0.0","0","0","39684","","null","","","null","21","","","","","","","","","","","","","","","",""
"","ITI","","html-keyboard-response","151","219443","0.0-1.0-198.0","0","0","39684","","null","","","null","21","","","","","","","","","","","","","","","NaN",""
"","S1","","html-keyboard-response","152","219698","0.0-1.0-200.0","0","0","39684","","null","","","null","22","","","","","","","","","","","","","","","",""
"","ISI","","html-keyboard-response","153","220705","0.0-1.0-201.0","0","0","39684","","null","","","null","22","NaN","","","","","","","","","","","","","","",""
"","S2","","html-keyboard-response","154","220962","0.0-1.0-202.0","0","0","39684","","null","","","null","22","","NaN","","","","","","","","","","","","","",""
"","response","","html-keyboard-response","155","221508","0.0-1.0-203.0-0.0","0","0","39684","","545","","","75","22","","","1","22","training","adjacent","CD","3","4","M.jpg","O.jpg","0","1","0","",""
"","feedback","","html-keyboard-response","156","222515","0.0-1.0-204.0-0.0","0","0","39684","","null","","","null","22","","","","","","","","","","","","","","","",""
"","time_out","","html-keyboard-response","157","224523","0.0-1.0-206.0-0.0","0","0","39684","","null","","","null","22","","","","","","","","","","","","","","","",""
"","ITI","","html-keyboard-response","158","225530","0.0-1.0-207.0","0","0","39684","","null","","","null","22","","","","","","","","","","","","","","","NaN",""
"","S1","","html-keyboard-response","159","225786","0.0-1.0-209.0","0","0","39684","","null","","","null","23","","","","","","","","","","","","","","","",""
"","ISI","","html-keyboard-response","160","226795","0.0-1.0-210.0","0","0","39684","","null","","","null","23","NaN","","","","","","","","","","","","","","",""
"","S2","","html-keyboard-response","161","227051","0.0-1.0-211.0","0","0","39684","","null","","","null","23","","NaN","","","","","","","","","","","","","",""
"","response","","html-keyboard-response","162","227568","0.0-1.0-212.0-0.0","0","0","39684","","516","","","68","23","","","1","23","training","adjacent","BA","2","1","R.jpg","L.jpg","1","0","0","",""
"","feedback","","html-keyboard-response","163","228578","0.0-1.0-213.0-0.0","0","0","39684","","null","","","null","23","","","","","","","","","","","","","","","",""
"","time_out","","html-keyboard-response","164","230584","0.0-1.0-215.0-0.0","0","0","39684","","null","","","null","23","","","","","","","","","","","","","","","",""
"","ITI","","html-keyboard-response","165","231591","0.0-1.0-216.0","0","0","39684","","null","","","null","23","","","","","","","","","","","","","","","NaN",""
"","S1","","html-keyboard-response","166","231851","0.0-1.0-218.0","0","0","39684","","null","","","null","24","","","","","","","","","","","","","","","",""
"","ISI","","html-keyboard-response","167","232859","0.0-1.0-219.0","0","0","39684","","null","","","null","24","NaN","","","","","","","","","","","","","","",""
"","S2","","html-keyboard-response","168","233114","0.0-1.0-220.0","0","0","39684","","null","","","null","24","","NaN","","","","","","","","","","","","","",""
"","response","","html-keyboard-response","169","233650","0.0-1.0-221.0-0.0","0","0","39684","","535","","","68","24","","","1","24","training","adjacent","BC","2","3","R.jpg","M.jpg","1","1","1","",""
"","feedback","","html-keyboard-response","170","234659","0.0-1.0-222.0-0.0","0","0","39684","","null","","","null","24","","","","","","","","","","","","","","","",""
"","ITI","","html-keyboard-response","171","235665","0.0-1.0-225.0","0","0","39684","","null","","","null","24","","","","","","","","","","","","","","","NaN",""
"","S1","","html-keyboard-response","172","235923","0.0-1.0-227.0","0","0","39684","","null","","","null","25","","","","","","","","","","","","","","","",""
"","ISI","","html-keyboard-response","173","236932","0.0-1.0-228.0","0","0","39684","","null","","","null","25","NaN","","","","","","","","","","","","","","",""
"","S2","","html-keyboard-response","174","237194","0.0-1.0-229.0","0","0","39684","","null","","","null","25","","NaN","","","","","","","","","","","","","",""
"","response","","html-keyboard-response","175","237629","0.0-1.0-230.0-0.0","0","0","39684","","433","","","68","25","","","1","25","training","adjacent","BC","2","3","R.jpg","M.jpg","1","1","1","",""
"","feedback","","html-keyboard-response","176","238635","0.0-1.0-231.0-0.0","0","0","39684","","null","","","null","25","","","","","","","","","","","","","","","",""
"","ITI","","html-keyboard-response","177","239641","0.0-1.0-234.0","0","0","39684","","null","","","null","25","","","","","","","","","","","","","","","NaN",""
"","S1","","html-keyboard-response","178","239897","0.0-1.0-236.0","0","0","39684","","null","","","null","26","","","","","","","","","","","","","","","",""
"","ISI","","html-keyboard-response","179","240908","0.0-1.0-237.0","0","0","39684","","null","","","null","26","NaN","","","","","","","","","","","","","","",""
"","S2","","html-keyboard-response","180","241172","0.0-1.0-238.0","0","0","39684","","null","","","null","26","","NaN","","","","","","","","","","","","","",""
"","response","","html-keyboard-response","181","241694","0.0-1.0-239.0-0.0","0","0","39684","","521","","","75","26","","","1","26","training","adjacent","CD","3","4","M.jpg","O.jpg","0","1","0","",""
"","feedback","","html-keyboard-response","182","242707","0.0-1.0-240.0-0.0","0","0","39684","","null","","","null","26","","","","","","","","","","","","","","","",""
"","time_out","","html-keyboard-response","183","244716","0.0-1.0-242.0-0.0","0","0","39684","","null","","","null","26","","","","","","","","","","","","","","","",""
"","ITI","","html-keyboard-response","184","245723","0.0-1.0-243.0","0","0","39684","","null","","","null","26","","","","","","","","","","","","","","","NaN",""
"","S1","","html-keyboard-response","185","245979","0.0-1.0-245.0","0","0","39684","","null","","","null","27","","","","","","","","","","","","","","","",""
"","ISI","","html-keyboard-response","186","246989","0.0-1.0-246.0","0","0","39684","","null","","","null","27","NaN","","","","","","","","","","","","","","",""
"","S2","","html-keyboard-response","187","247249","0.0-1.0-247.0","0","0","39684","","null","","","null","27","","NaN","","","","","","","","","","","","","",""
"","response","","html-keyboard-response","188","247669","0.0-1.0-248.0-0.0","0","0","39684","","419","","","68","27","","","1","27","training","adjacent","GF","7","6","N.jpg","P.jpg","1","0","0","",""
"","feedback","","html-keyboard-response","189","248684","0.0-1.0-249.0-0.0","0","0","39684","","null","","","null","27","","","","","","","","","","","","","","","",""
"","time_out","","html-keyboard-response","190","250692","0.0-1.0-251.0-0.0","0","0","39684","","null","","","null","27","","","","","","","","","","","","","","","",""
"","ITI","","html-keyboard-response","191","251699","0.0-1.0-252.0","0","0","39684","","null","","","null","27","","","","","","","","","","","","","","","NaN",""
"","S1","","html-keyboard-response","192","251955","0.0-1.0-254.0","0","0","39684","","null","","","null","28","","","","","","","","","","","","","","","",""
"","ISI","","html-keyboard-response","193","252964","0.0-1.0-255.0","0","0","39684","","null","","","null","28","NaN","","","","","","","","","","","","","","",""
"","S2","","html-keyboard-response","194","253225","0.0-1.0-256.0","0","0","39684","","null","","","null","28","","NaN","","","","","","","","","","","","","",""
"","response","","html-keyboard-response","195","253690","0.0-1.0-257.0-0.0","0","0","39684","","463","","","68","28","","","1","28","training","adjacent","CD","3","4","M.jpg","O.jpg","1","1","1","",""
"","feedback","","html-keyboard-response","196","254698","0.0-1.0-258.0-0.0","0","0","39684","","null","","","null","28","","","","","","","","","","","","","","","",""
"","ITI","","html-keyboard-response","197","255706","0.0-1.0-261.0","0","0","39684","","null","","","null","28","","","","","","","","","","","","","","","NaN",""
"","S1","","html-keyboard-response","198","255963","0.0-1.0-263.0","0","0","39684","","null","","","null","29","","","","","","","","","","","","","","","",""
"","ISI","","html-keyboard-response","199","256975","0.0-1.0-264.0","0","0","39684","","null","","","null","29","NaN","","","","","","","","","","","","","","",""
"","S2","","html-keyboard-response","200","257234","0.0-1.0-265.0","0","0","39684","","null","","","null","29","","NaN","","","","","","","","","","","","","",""
"","response","","html-keyboard-response","201","257897","0.0-1.0-266.0-0.0","0","0","39684","","661","","","75","29","","","1","29","training","adjacent","DE","4","5","O.jpg","Q.jpg","0","1","0","",""
"","feedback","","html-keyboard-response","202","258912","0.0-1.0-267.0-0.0","0","0","39684","","null","","","null","29","","","","","","","","","","","","","","","",""
"","time_out","","html-keyboard-response","203","260923","0.0-1.0-269.0-0.0","0","0","39684","","null","","","null","29","","","","","","","","","","","","","","","",""
"","ITI","","html-keyboard-response","204","261930","0.0-1.0-270.0","0","0","39684","","null","","","null","29","","","","","","","","","","","","","","","NaN",""
"","S1","","html-keyboard-response","205","262185","0.0-1.0-272.0","0","0","39684","","null","","","null","30","","","","","","","","","","","","","","","",""
"","ISI","","html-keyboard-response","206","263195","0.0-1.0-273.0","0","0","39684","","null","","","null","30","NaN","","","","","","","","","","","","","","",""
"","S2","","html-keyboard-response","207","263452","0.0-1.0-274.0","0","0","39684","","null","","","null","30","","NaN","","","","","","","","","","","","","",""
"","response","","html-keyboard-response","208","263847","0.0-1.0-275.0-0.0","0","0","39684","","394","","","75","30","","","1","30","training","adjacent","DE","4","5","O.jpg","Q.jpg","0","1","0","",""
"","feedback","","html-keyboard-response","209","264860","0.0-1.0-276.0-0.0","0","0","39684","","null","","","null","30","","","","","","","","","","","","","","","",""
"","time_out","","html-keyboard-response","210","266868","0.0-1.0-278.0-0.0","0","0","39684","","null","","","null","30","","","","","","","","","","","","","","","",""
"","ITI","","html-keyboard-response","211","267875","0.0-1.0-279.0","0","0","39684","","null","","","null","30","","","","","","","","","","","","","","","NaN",""
"","S1","","html-keyboard-response","212","268131","0.0-1.0-281.0","0","0","39684","","null","","","null","31","","","","","","","","","","","","","","","",""
"","ISI","","html-keyboard-response","213","269141","0.0-1.0-282.0","0","0","39684","","null","","","null","31","NaN","","","","","","","","","","","","","","",""
"","S2","","html-keyboard-response","214","269402","0.0-1.0-283.0","0","0","39684","","null","","","null","31","","NaN","","","","","","","","","","","","","",""
"","response","","html-keyboard-response","215","269777","0.0-1.0-284.0-0.0","0","0","39684","","374","","","75","31","","","1","31","training","adjacent","FG","6","7","P.jpg","N.jpg","0","1","0","",""
"","feedback","","html-keyboard-response","216","270789","0.0-1.0-285.0-0.0","0","0","39684","","null","","","null","31","","","","","","","","","","","","","","","",""
"","time_out","","html-keyboard-response","217","272795","0.0-1.0-287.0-0.0","0","0","39684","","null","","","null","31","","","","","","","","","","","","","","","",""
"","ITI","","html-keyboard-response","218","273801","0.0-1.0-288.0","0","0","39684","","null","","","null","31","","","","","","","","","","","","","","","NaN",""
"","S1","","html-keyboard-response","219","274060","0.0-1.0-290.0","0","0","39684","","null","","","null","32","","","","","","","","","","","","","","","",""
"","ISI","","html-keyboard-response","220","275068","0.0-1.0-291.0","0","0","39684","","null","","","null","32","NaN","","","","","","","","","","","","","","",""
"","S2","","html-keyboard-response","221","275323","0.0-1.0-292.0","0","0","39684","","null","","","null","32","","NaN","","","","","","","","","","","","","",""
"","response","","html-keyboard-response","222","275784","0.0-1.0-293.0-0.0","0","0","39684","","459","","","68","32","","","1","32","training","adjacent","BC","2","3","R.jpg","M.jpg","1","1","1","",""
"","feedback","","html-keyboard-response","223","276795","0.0-1.0-294.0-0.0","0","0","39684","","null","","","null","32","","","","","","","","","","","","","","","",""
"","ITI","","html-keyboard-response","224","277801","0.0-1.0-297.0","0","0","39684","","null","","","null","32","","","","","","","","","","","","","","","NaN",""
"","S1","","html-keyboard-response","225","278060","0.0-1.0-299.0","0","0","39684","","null","","","null","33","","","","","","","","","","","","","","","",""
"","ISI","","html-keyboard-response","226","279067","0.0-1.0-300.0","0","0","39684","","null","","","null","33","NaN","","","","","","","","","","","","","","",""
"","S2","","html-keyboard-response","227","279323","0.0-1.0-301.0","0","0","39684","","null","","","null","33","","NaN","","","","","","","","","","","","","",""
"","response","","html-keyboard-response","228","279675","0.0-1.0-302.0-0.0","0","0","39684","","351","","","68","33","","","1","33","training","adjacent","BA","2","1","R.jpg","L.jpg","1","0","0","",""
"","feedback","","html-keyboard-response","229","280684","0.0-1.0-303.0-0.0","0","0","39684","","null","","","null","33","","","","","","","","","","","","","","","",""
"","time_out","","html-keyboard-response","230","282690","0.0-1.0-305.0-0.0","0","0","39684","","null","","","null","33","","","","","","","","","","","","","","","",""
"","ITI","","html-keyboard-response","231","283700","0.0-1.0-306.0","0","0","39684","","null","","","null","33","","","","","","","","","","","","","","","NaN",""
"","S1","","html-keyboard-response","232","283955","0.0-1.0-308.0","0","0","39684","","null","","","null","34","","","","","","","","","","","","","","","",""
"","ISI","","html-keyboard-response","233","284962","0.0-1.0-309.0","0","0","39684","","null","","","null","34","NaN","","","","","","","","","","","","","","",""
"","S2","","html-keyboard-response","234","285221","0.0-1.0-310.0","0","0","39684","","null","","","null","34","","NaN","","","","","","","","","","","","","",""
"","response","","html-keyboard-response","235","285953","0.0-1.0-311.0-0.0","0","0","39684","","731","","","68","34","","","1","34","training","adjacent","CB","3","2","M.jpg","R.jpg","1","0","0","",""
"","feedback","","html-keyboard-response","236","286962","0.0-1.0-312.0-0.0","0","0","39684","","null","","","null","34","","","","","","","","","","","","","","","",""
"","time_out","","html-keyboard-response","237","288971","0.0-1.0-314.0-0.0","0","0","39684","","null","","","null","34","","","","","","","","","","","","","","","",""
"","ITI","","html-keyboard-response","238","289981","0.0-1.0-315.0","0","0","39684","","null","","","null","34","","","","","","","","","","","","","","","NaN",""
"","S1","","html-keyboard-response","239","290242","0.0-1.0-317.0","0","0","39684","","null","","","null","35","","","","","","","","","","","","","","","",""
"","ISI","","html-keyboard-response","240","291252","0.0-1.0-318.0","0","0","39684","","null","","","null","35","NaN","","","","","","","","","","","","","","",""
"","S2","","html-keyboard-response","241","291506","0.0-1.0-319.0","0","0","39684","","null","","","null","35","","NaN","","","","","","","","","","","","","",""
"","response","","html-keyboard-response","242","291987","0.0-1.0-320.0-0.0","0","0","39684","","479","","","75","35","","","1","35","training","adjacent","DE","4","5","O.jpg","Q.jpg","0","1","0","",""
"","feedback","","html-keyboard-response","243","292996","0.0-1.0-321.0-0.0","0","0","39684","","null","","","null","35","","","","","","","","","","","","","","","",""
"","time_out","","html-keyboard-response","244","295001","0.0-1.0-323.0-0.0","0","0","39684","","null","","","null","35","","","","","","","","","","","","","","","",""
"","ITI","","html-keyboard-response","245","296011","0.0-1.0-324.0","0","0","39684","","null","","","null","35","","","","","","","","","","","","","","","NaN",""
"","S1","","html-keyboard-response","246","296267","0.0-1.0-326.0","0","0","39684","","null","","","null","36","","","","","","","","","","","","","","","",""
"","ISI","","html-keyboard-response","247","297275","0.0-1.0-327.0","0","0","39684","","null","","","null","36","NaN","","","","","","","","","","","","","","",""
"","S2","","html-keyboard-response","248","297533","0.0-1.0-328.0","0","0","39684","","null","","","null","36","","NaN","","","","","","","","","","","","","",""
"","response","","html-keyboard-response","249","298333","0.0-1.0-329.0-0.0","0","0","39684","","799","","","75","36","","","1","36","training","adjacent","FG","6","7","P.jpg","N.jpg","0","1","0","",""
"","feedback","","html-keyboard-response","250","299338","0.0-1.0-330.0-0.0","0","0","39684","","null","","","null","36","","","","","","","","","","","","","","","",""
"","time_out","","html-keyboard-response","251","301346","0.0-1.0-332.0-0.0","0","0","39684","","null","","","null","36","","","","","","","","","","","","","","","",""
"","ITI","","html-keyboard-response","252","302357","0.0-1.0-333.0","0","0","39684","","null","","","null","36","","","","","","","","","","","","","","","NaN",""
"","S1","","html-keyboard-response","253","302613","0.0-1.0-335.0","0","0","39684","","null","","","null","37","","","","","","","","","","","","","","","",""
"","ISI","","html-keyboard-response","254","303620","0.0-1.0-336.0","0","0","39684","","146","","","68","37","d","","","","","","","","","","","","","","",""
"","S2","","html-keyboard-response","255","303884","0.0-1.0-337.0","0","0","39684","","null","","","null","37","","NaN","","","","","","","","","","","","","",""
"","response","","html-keyboard-response","256","304374","0.0-1.0-338.0-0.0","0","0","39684","","489","","","68","37","","","1","37","training","adjacent","CB","3","2","M.jpg","R.jpg","1","0","0","",""
"","feedback","","html-keyboard-response","257","305379","0.0-1.0-339.0-0.0","0","0","39684","","null","","","null","37","","","","","","","","","","","","","","","",""
"","time_out","","html-keyboard-response","258","307387","0.0-1.0-341.0-0.0","0","0","39684","","null","","","null","37","","","","","","","","","","","","","","","",""
"","ITI","","html-keyboard-response","259","308394","0.0-1.0-342.0","0","0","39684","","null","","","null","37","","","","","","","","","","","","","","","NaN",""
"","S1","","html-keyboard-response","260","308653","0.0-1.0-344.0","0","0","39684","","null","","","null","38","","","","","","","","","","","","","","","",""
"","ISI","","html-keyboard-response","261","309660","0.0-1.0-345.0","0","0","39684","","588","","","75","38","k","","","","","","","","","","","","","","",""
"","S2","","html-keyboard-response","262","309869","0.0-1.0-346.0","0","0","39684","","208","","","75","38","","k","1","38","training","adjacent","DC","4","3","O.jpg","M.jpg","0","0","1","",""
"","feedback","","html-keyboard-response","263","310882","0.0-1.0-348.0-0.0","0","0","39684","","null","","","null","38","","","","","","","","","","","","","","","",""
"","ITI","","html-keyboard-response","264","311893","0.0-1.0-351.0","0","0","39684","","null","","","null","38","","","","","","","","","","","","","","","NaN",""
"","S1","","html-keyboard-response","265","312148","0.0-1.0-353.0","0","0","39684","","null","","","null","39","","","","","","","","","","","","","","","",""
"","ISI","","html-keyboard-response","266","313154","0.0-1.0-354.0","0","0","39684","","null","","","null","39","NaN","","","","","","","","","","","","","","",""
"","S2","","html-keyboard-response","267","313409","0.0-1.0-355.0","0","0","39684","","null","","","null","39","","NaN","","","","","","","","","","","","","",""
"","response","","html-keyboard-response","268","313784","0.0-1.0-356.0-0.0","0","0","39684","","373","","","75","39","","","1","39","training","adjacent","BA","2","1","R.jpg","L.jpg","0","0","1","",""
"","feedback","","html-keyboard-response","269","314797","0.0-1.0-357.0-0.0","0","0","39684","","null","","","null","39","","","","","","","","","","","","","","","",""
"","ITI","","html-keyboard-response","270","315804","0.0-1.0-360.0","0","0","39684","","null","","","null","39","","","","","","","","","","","","","","","NaN",""
"","S1","","html-keyboard-response","271","316060","0.0-1.0-362.0","0","0","39684","","null","","","null","40","","","","","","","","","","","","","","","",""
"","ISI","","html-keyboard-response","272","317067","0.0-1.0-363.0","0","0","39684","","null","","","null","40","NaN","","","","","","","","","","","","","","",""
"","S2","","html-keyboard-response","273","317322","0.0-1.0-364.0","0","0","39684","","null","","","null","40","","NaN","","","","","","","","","","","","","",""
"","response","","html-keyboard-response","274","317473","0.0-1.0-365.0-0.0","0","0","39684","","150","","","75","40","","","1","40","training","adjacent","GF","7","6","N.jpg","P.jpg","0","0","1","",""
"","feedback","","html-keyboard-response","275","318481","0.0-1.0-366.0-0.0","0","0","39684","","null","","","null","40","","","","","","","","","","","","","","","",""
"","ITI","","html-keyboard-response","276","319486","0.0-1.0-369.0","0","0","39684","","null","","","null","40","","","","","","","","","","","","","","","NaN",""
"","S1","","html-keyboard-response","277","319749","0.0-1.0-371.0","0","0","39684","","null","","","null","41","","","","","","","","","","","","","","","",""
"","ISI","","html-keyboard-response","278","320756","0.0-1.0-372.0","0","0","39684","","null","","","null","41","NaN","","","","","","","","","","","","","","",""
"","S2","","html-keyboard-response","279","321013","0.0-1.0-373.0","0","0","39684","","null","","","null","41","","NaN","","","","","","","","","","","","","",""
"","response","","html-keyboard-response","280","321511","0.0-1.0-374.0-0.0","0","0","39684","","497","","","75","41","","","1","41","training","adjacent","CD","3","4","M.jpg","O.jpg","0","1","0","",""
"","feedback","","html-keyboard-response","281","322524","0.0-1.0-375.0-0.0","0","0","39684","","null","","","null","41","","","","","","","","","","","","","","","",""
"","time_out","","html-keyboard-response","282","324531","0.0-1.0-377.0-0.0","0","0","39684","","null","","","null","41","","","","","","","","","","","","","","","",""
"","ITI","","html-keyboard-response","283","325541","0.0-1.0-378.0","0","0","39684","","null","","","null","41","","","","","","","","","","","","","","","NaN",""
"","S1","","html-keyboard-response","284","325796","0.0-1.0-380.0","0","0","39684","","null","","","null","42","","","","","","","","","","","","","","","",""
"","ISI","","html-keyboard-response","285","326804","0.0-1.0-381.0","0","0","39684","","null","","","null","42","NaN","","","","","","","","","","","","","","",""
"","S2","","html-keyboard-response","286","327061","0.0-1.0-382.0","0","0","39684","","null","","","null","42","","NaN","","","","","","","","","","","","","",""
"","response","","html-keyboard-response","287","327207","0.0-1.0-383.0-0.0","0","0","39684","","144","","","68","42","","","1","42","training","adjacent","GF","7","6","N.jpg","P.jpg","1","0","0","",""
"","feedback","","html-keyboard-response","288","328220","0.0-1.0-384.0-0.0","0","0","39684","","null","","","null","42","","","","","","","","","","","","","","","",""
"","time_out","","html-keyboard-response","289","330228","0.0-1.0-386.0-0.0","0","0","39684","","null","","","null","42","","","","","","","","","","","","","","","",""
"","ITI","","html-keyboard-response","290","331238","0.0-1.0-387.0","0","0","39684","","null","","","null","42","","","","","","","","","","","","","","","NaN",""
"","S1","","html-keyboard-response","291","331498","0.0-1.0-389.0","0","0","39684","","null","","","null","43","","","","","","","","","","","","","","","",""
"","ISI","","html-keyboard-response","292","332509","0.0-1.0-390.0","0","0","39684","","null","","","null","43","NaN","","","","","","","","","","","","","","",""
"","S2","","html-keyboard-response","293","332762","0.0-1.0-391.0","0","0","39684","","null","","","null","43","","NaN","","","","","","","","","","","","","",""
"","response","","html-keyboard-response","294","332955","0.0-1.0-392.0-0.0","0","0","39684","","191","","","75","43","","","1","43","training","adjacent","EF","5","6","Q.jpg","P.jpg","0","1","0","",""
"","feedback","","html-keyboard-response","295","333964","0.0-1.0-393.0-0.0","0","0","39684","","null","","","null","43","","","","","","","","","","","","","","","",""
"","time_out","","html-keyboard-response","296","335972","0.0-1.0-395.0-0.0","0","0","39684","","null","","","null","43","","","","","","","","","","","","","","","",""
"","ITI","","html-keyboard-response","297","336978","0.0-1.0-396.0","0","0","39684","","null","","","null","43","","","","","","","","","","","","","","","NaN",""
"","S1","","html-keyboard-response","298","337238","0.0-1.0-398.0","0","0","39684","","null","","","null","44","","","","","","","","","","","","","","","",""
"","ISI","","html-keyboard-response","299","338245","0.0-1.0-399.0","0","0","39684","","null","","","null","44","NaN","","","","","","","","","","","","","","",""
"","S2","","html-keyboard-response","300","338509","0.0-1.0-400.0","0","0","39684","","null","","","null","44","","NaN","","","","","","","","","","","","","",""
"","response","","html-keyboard-response","301","339061","0.0-1.0-401.0-0.0","0","0","39684","","551","","","68","44","","","1","44","training","adjacent","ED","5","4","Q.jpg","O.jpg","1","0","0","",""
"","feedback","","html-keyboard-response","302","340066","0.0-1.0-402.0-0.0","0","0","39684","","null","","","null","44","","","","","","","","","","","","","","","",""
"","time_out","","html-keyboard-response","303","342076","0.0-1.0-404.0-0.0","0","0","39684","","null","","","null","44","","","","","","","","","","","","","","","",""
"","ITI","","html-keyboard-response","304","343085","0.0-1.0-405.0","0","0","39684","","null","","","null","44","","","","","","","","","","","","","","","NaN",""
"","S1","","html-keyboard-response","305","343340","0.0-1.0-407.0","0","0","39684","","null","","","null","45","","","","","","","","","","","","","","","",""
"","ISI","","html-keyboard-response","306","344349","0.0-1.0-408.0","0","0","39684","","null","","","null","45","NaN","","","","","","","","","","","","","","",""
"","S2","","html-keyboard-response","307","344604","0.0-1.0-409.0","0","0","39684","","null","","","null","45","","NaN","","","","","","","","","","","","","",""
"","response","","html-keyboard-response","308","345218","0.0-1.0-410.0-0.0","0","0","39684","","613","","","75","45","","","1","45","training","adjacent","FG","6","7","P.jpg","N.jpg","0","1","0","",""
"","feedback","","html-keyboard-response","309","346230","0.0-1.0-411.0-0.0","0","0","39684","","null","","","null","45","","","","","","","","","","","","","","","",""
"","time_out","","html-keyboard-response","310","348239","0.0-1.0-413.0-0.0","0","0","39684","","null","","","null","45","","","","","","","","","","","","","","","",""
"","ITI","","html-keyboard-response","311","349246","0.0-1.0-414.0","0","0","39684","","null","","","null","45","","","","","","","","","","","","","","","NaN",""
"","S1","","html-keyboard-response","312","349508","0.0-1.0-416.0","0","0","39684","","null","","","null","46","","","","","","","","","","","","","","","",""
"","ISI","","html-keyboard-response","313","350516","0.0-1.0-417.0","0","0","39684","","null","","","null","46","NaN","","","","","","","","","","","","","","",""
"","S2","","html-keyboard-response","314","350772","0.0-1.0-418.0","0","0","39684","","null","","","null","46","","NaN","","","","","","","","","","","","","",""
"","response","","html-keyboard-response","315","351934","0.0-1.0-419.0-0.0","0","0","39684","","1161","","","75","46","","","1","46","training","adjacent","ED","5","4","Q.jpg","O.jpg","0","0","1","",""
"","feedback","","html-keyboard-response","316","352939","0.0-1.0-420.0-0.0","0","0","39684","","null","","","null","46","","","","","","","","","","","","","","","",""
"","ITI","","html-keyboard-response","317","353946","0.0-1.0-423.0","0","0","39684","","null","","","null","46","","","","","","","","","","","","","","","NaN",""
"","S1","","html-keyboard-response","318","354204","0.0-1.0-425.0","0","0","39684","","null","","","null","47","","","","","","","","","","","","","","","",""
"","ISI","","html-keyboard-response","319","355228","0.0-1.0-426.0","0","0","39684","","null","","","null","47","NaN","","","","","","","","","","","","","","",""
"","S2","","html-keyboard-response","320","355481","0.0-1.0-427.0","0","0","39684","","null","","","null","47","","NaN","","","","","","","","","","","","","",""
"","response","","html-keyboard-response","321","356038","0.0-1.0-428.0-0.0","0","0","39684","","556","","","75","47","","","1","47","training","adjacent","GF","7","6","N.jpg","P.jpg","0","0","1","",""
"","feedback","","html-keyboard-response","322","357044","0.0-1.0-429.0-0.0","0","0","39684","","null","","","null","47","","","","","","","","","","","","","","","",""
"","ITI","","html-keyboard-response","323","358050","0.0-1.0-432.0","0","0","39684","","null","","","null","47","","","","","","","","","","","","","","","NaN",""
"","block_over","","html-keyboard-response","324","362343","0.0-1.0-433.0-0.0","0","0","39684","","4291","","","32","47","","","","","","","","","","","","","","","",""
"","S1","","html-keyboard-response","325","362606","0.0-1.0-434.0","0","0","39684","","null","","","null","48","","","","","","","","","","","","","","","",""
"","ISI","","html-keyboard-response","326","363613","0.0-1.0-435.0","0","0","39684","","null","","","null","48","NaN","","","","","","","","","","","","","","",""
"","S2","","html-keyboard-response","327","363868","0.0-1.0-436.0","0","0","39684","","null","","","null","48","","NaN","","","","","","","","","","","","","",""
"","response","","html-keyboard-response","328","364301","0.0-1.0-437.0-0.0","0","0","39684","","431","","","75","48","","","2","48","training","adjacent","AB","1","2","L.jpg","R.jpg","0","1","0","",""
"","feedback","","html-keyboard-response","329","365308","0.0-1.0-438.0-0.0","0","0","39684","","null","","","null","48","","","","","","","","","","","","","","","",""
"","time_out","","html-keyboard-response","330","367316","0.0-1.0-440.0-0.0","0","0","39684","","null","","","null","48","","","","","","","","","","","","","","","",""
"","ITI","","html-keyboard-response","331","368327","0.0-1.0-441.0","0","0","39684","","null","","","null","48","","","","","","","","","","","","","","","NaN",""
"","S1","","html-keyboard-response","332","368587","0.0-1.0-443.0","0","0","39684","","null","","","null","49","","","","","","","","","","","","","","","",""
"","ISI","","html-keyboard-response","333","369595","0.0-1.0-444.0","0","0","39684","","null","","","null","49","NaN","","","","","","","","","","","","","","",""
"","S2","","html-keyboard-response","334","369852","0.0-1.0-445.0","0","0","39684","","null","","","null","49","","NaN","","","","","","","","","","","","","",""
"","response","","html-keyboard-response","335","370370","0.0-1.0-446.0-0.0","0","0","39684","","517","","","75","49","","","2","49","training","adjacent","CD","3","4","M.jpg","O.jpg","0","1","0","",""
"","feedback","","html-keyboard-response","336","371379","0.0-1.0-447.0-0.0","0","0","39684","","null","","","null","49","","","","","","","","","","","","","","","",""
"","time_out","","html-keyboard-response","337","373388","0.0-1.0-449.0-0.0","0","0","39684","","null","","","null","49","","","","","","","","","","","","","","","",""
"","ITI","","html-keyboard-response","338","374395","0.0-1.0-450.0","0","0","39684","","null","","","null","49","","","","","","","","","","","","","","","NaN",""
"","S1","","html-keyboard-response","339","374654","0.0-1.0-452.0","0","0","39684","","null","","","null","50","","","","","","","","","","","","","","","",""
"","ISI","","html-keyboard-response","340","375662","0.0-1.0-453.0","0","0","39684","","null","","","null","50","NaN","","","","","","","","","","","","","","",""
"","S2","","html-keyboard-response","341","375919","0.0-1.0-454.0","0","0","39684","","null","","","null","50","","NaN","","","","","","","","","","","","","",""
"","response","","html-keyboard-response","342","376593","0.0-1.0-455.0-0.0","0","0","39684","","673","","","68","50","","","2","50","training","adjacent","FG","6","7","P.jpg","N.jpg","1","1","1","",""
"","feedback","","html-keyboard-response","343","377606","0.0-1.0-456.0-0.0","0","0","39684","","null","","","null","50","","","","","","","","","","","","","","","",""
"","ITI","","html-keyboard-response","344","378614","0.0-1.0-459.0","0","0","39684","","null","","","null","50","","","","","","","","","","","","","","","NaN",""
"","S1","","html-keyboard-response","345","378869","0.0-1.0-461.0","0","0","39684","","null","","","null","51","","","","","","","","","","","","","","","",""
"","ISI","","html-keyboard-response","346","379878","0.0-1.0-462.0","0","0","39684","","null","","","null","51","NaN","","","","","","","","","","","","","","",""
"","S2","","html-keyboard-response","347","380133","0.0-1.0-463.0","0","0","39684","","null","","","null","51","","NaN","","","","","","","","","","","","","",""
"","response","","html-keyboard-response","348","380810","0.0-1.0-464.0-0.0","0","0","39684","","675","","","68","51","","","2","51","training","adjacent","CD","3","4","M.jpg","O.jpg","1","1","1","",""
"","feedback","","html-keyboard-response","349","381821","0.0-1.0-465.0-0.0","0","0","39684","","null","","","null","51","","","","","","","","","","","","","","","",""
"","ITI","","html-keyboard-response","350","382829","0.0-1.0-468.0","0","0","39684","","null","","","null","51","","","","","","","","","","","","","","","NaN",""
"","S1","","html-keyboard-response","351","383086","0.0-1.0-470.0","0","0","39684","","null","","","null","52","","","","","","","","","","","","","","","",""
"","ISI","","html-keyboard-response","352","384092","0.0-1.0-471.0","0","0","39684","","null","","","null","52","NaN","","","","","","","","","","","","","","",""
"","S2","","html-keyboard-response","353","384349","0.0-1.0-472.0","0","0","39684","","null","","","null","52","","NaN","","","","","","","","","","","","","",""
"","response","","html-keyboard-response","354","385077","0.0-1.0-473.0-0.0","0","0","39684","","726","","","75","52","","","2","52","training","adjacent","AB","1","2","L.jpg","R.jpg","0","1","0","",""
"","feedback","","html-keyboard-response","355","386084","0.0-1.0-474.0-0.0","0","0","39684","","null","","","null","52","","","","","","","","","","","","","","","",""
"","time_out","","html-keyboard-response","356","388092","0.0-1.0-476.0-0.0","0","0","39684","","null","","","null","52","","","","","","","","","","","","","","","",""
"","ITI","","html-keyboard-response","357","389103","0.0-1.0-477.0","0","0","39684","","null","","","null","52","","","","","","","","","","","","","","","NaN",""
"","S1","","html-keyboard-response","358","389364","0.0-1.0-479.0","0","0","39684","","null","","","null","53","","","","","","","","","","","","","","","",""
"","ISI","","html-keyboard-response","359","390375","0.0-1.0-480.0","0","0","39684","","null","","","null","53","NaN","","","","","","","","","","","","","","",""
"","S2","","html-keyboard-response","360","390639","0.0-1.0-481.0","0","0","39684","","null","","","null","53","","NaN","","","","","","","","","","","","","",""
"","response","","html-keyboard-response","361","391190","0.0-1.0-482.0-0.0","0","0","39684","","549","","","68","53","","","2","53","training","adjacent","FE","6","5","P.jpg","Q.jpg","1","0","0","",""
"","feedback","","html-keyboard-response","362","392196","0.0-1.0-483.0-0.0","0","0","39684","","null","","","null","53","","","","","","","","","","","","","","","",""
"","time_out","","html-keyboard-response","363","394205","0.0-1.0-485.0-0.0","0","0","39684","","null","","","null","53","","","","","","","","","","","","","","","",""
"","ITI","","html-keyboard-response","364","395212","0.0-1.0-486.0","0","0","39684","","null","","","null","53","","","","","","","","","","","","","","","NaN",""
"","S1","","html-keyboard-response","365","395471","0.0-1.0-488.0","0","0","39684","","null","","","null","54","","","","","","","","","","","","","","","",""
"","ISI","","html-keyboard-response","366","396479","0.0-1.0-489.0","0","0","39684","","null","","","null","54","NaN","","","","","","","","","","","","","","",""
"","S2","","html-keyboard-response","367","396743","0.0-1.0-490.0","0","0","39684","","null","","","null","54","","NaN","","","","","","","","","","","","","",""
"","response","","html-keyboard-response","368","397375","0.0-1.0-491.0-0.0","0","0","39684","","630","","","68","54","","","2","54","training","adjacent","ED","5","4","Q.jpg","O.jpg","1","0","0","",""
"","feedback","","html-keyboard-response","369","398383","0.0-1.0-492.0-0.0","0","0","39684","","null","","","null","54","","","","","","","","","","","","","","","",""
"","time_out","","html-keyboard-response","370","400387","0.0-1.0-494.0-0.0","0","0","39684","","null","","","null","54","","","","","","","","","","","","","","","",""
"","ITI","","html-keyboard-response","371","401396","0.0-1.0-495.0","0","0","39684","","null","","","null","54","","","","","","","","","","","","","","","NaN",""
"","S1","","html-keyboard-response","372","401653","0.0-1.0-497.0","0","0","39684","","null","","","null","55","","","","","","","","","","","","","","","",""
"","ISI","","html-keyboard-response","373","402660","0.0-1.0-498.0","0","0","39684","","null","","","null","55","NaN","","","","","","","","","","","","","","",""
"","S2","","html-keyboard-response","374","402919","0.0-1.0-499.0","0","0","39684","","null","","","null","55","","NaN","","","","","","","","","","","","","",""
"","response","","html-keyboard-response","375","403463","0.0-1.0-500.0-0.0","0","0","39684","","542","","","75","55","","","2","55","training","adjacent","GF","7","6","N.jpg","P.jpg","0","0","1","",""
"","feedback","","html-keyboard-response","376","404470","0.0-1.0-501.0-0.0","0","0","39684","","null","","","null","55","","","","","","","","","","","","","","","",""
"","ITI","","html-keyboard-response","377","405479","0.0-1.0-504.0","0","0","39684","","null","","","null","55","","","","","","","","","","","","","","","NaN",""
"","S1","","html-keyboard-response","378","405740","0.0-1.0-506.0","0","0","39684","","null","","","null","56","","","","","","","","","","","","","","","",""
"","ISI","","html-keyboard-response","379","406750","0.0-1.0-507.0","0","0","39684","","null","","","null","56","NaN","","","","","","","","","","","","","","",""
"","S2","","html-keyboard-response","380","407006","0.0-1.0-508.0","0","0","39684","","null","","","null","56","","NaN","","","","","","","","","","","","","",""
"","response","","html-keyboard-response","381","407487","0.0-1.0-509.0-0.0","0","0","39684","","480","","","75","56","","","2","56","training","adjacent","BC","2","3","R.jpg","M.jpg","0","1","0","",""
"","feedback","","html-keyboard-response","382","408492","0.0-1.0-510.0-0.0","0","0","39684","","null","","","null","56","","","","","","","","","","","","","","","",""
"","time_out","","html-keyboard-response","383","410500","0.0-1.0-512.0-0.0","0","0","39684","","null","","","null","56","","","","","","","","","","","","","","","",""
"","ITI","","html-keyboard-response","384","411509","0.0-1.0-513.0","0","0","39684","","null","","","null","56","","","","","","","","","","","","","","","NaN",""
"","S1","","html-keyboard-response","385","411766","0.0-1.0-515.0","0","0","39684","","null","","","null","57","","","","","","","","","","","","","","","",""
"","ISI","","html-keyboard-response","386","412772","0.0-1.0-516.0","0","0","39684","","null","","","null","57","NaN","","","","","","","","","","","","","","",""
"","S2","","html-keyboard-response","387","413029","0.0-1.0-517.0","0","0","39684","","null","","","null","57","","NaN","","","","","","","","","","","","","",""
"","response","","html-keyboard-response","388","413518","0.0-1.0-518.0-0.0","0","0","39684","","488","","","68","57","","","2","57","training","adjacent","DE","4","5","O.jpg","Q.jpg","1","1","1","",""
"","feedback","","html-keyboard-response","389","414525","0.0-1.0-519.0-0.0","0","0","39684","","null","","","null","57","","","","","","","","","","","","","","","",""
"","ITI","","html-keyboard-response","390","415533","0.0-1.0-522.0","0","0","39684","","null","","","null","57","","","","","","","","","","","","","","","NaN",""
"","S1","","html-keyboard-response","391","415788","0.0-1.0-524.0","0","0","39684","","null","","","null","58","","","","","","","","","","","","","","","",""
"","ISI","","html-keyboard-response","392","416799","0.0-1.0-525.0","0","0","39684","","null","","","null","58","NaN","","","","","","","","","","","","","","",""
"","S2","","html-keyboard-response","393","417064","0.0-1.0-526.0","0","0","39684","","null","","","null","58","","NaN","","","","","","","","","","","","","",""
"","response","","html-keyboard-response","394","417814","0.0-1.0-527.0-0.0","0","0","39684","","748","","","68","58","","","2","58","training","adjacent","DE","4","5","O.jpg","Q.jpg","1","1","1","",""
"","feedback","","html-keyboard-response","395","418821","0.0-1.0-528.0-0.0","0","0","39684","","null","","","null","58","","","","","","","","","","","","","","","",""
"","ITI","","html-keyboard-response","396","419830","0.0-1.0-531.0","0","0","39684","","null","","","null","58","","","","","","","","","","","","","","","NaN",""
"","S1","","html-keyboard-response","397","420085","0.0-1.0-533.0","0","0","39684","","null","","","null","59","","","","","","","","","","","","","","","",""
"","ISI","","html-keyboard-response","398","421094","0.0-1.0-534.0","0","0","39684","","null","","","null","59","NaN","","","","","","","","","","","","","","",""
"","S2","","html-keyboard-response","399","421349","0.0-1.0-535.0","0","0","39684","","null","","","null","59","","NaN","","","","","","","","","","","","","",""
"","response","","html-keyboard-response","400","422052","0.0-1.0-536.0-0.0","0","0","39684","","702","","","68","59","","","2","59","training","adjacent","BA","2","1","R.jpg","L.jpg","1","0","0","",""
"","feedback","","html-keyboard-response","401","423063","0.0-1.0-537.0-0.0","0","0","39684","","null","","","null","59","","","","","","","","","","","","","","","",""
"","time_out","","html-keyboard-response","402","425071","0.0-1.0-539.0-0.0","0","0","39684","","null","","","null","59","","","","","","","","","","","","","","","",""
"","ITI","","html-keyboard-response","403","426078","0.0-1.0-540.0","0","0","39684","","null","","","null","59","","","","","","","","","","","","","","","NaN",""
"","S1","","html-keyboard-response","404","426335","0.0-1.0-542.0","0","0","39684","","null","","","null","60","","","","","","","","","","","","","","","",""
"","ISI","","html-keyboard-response","405","427340","0.0-1.0-543.0","0","0","39684","","null","","","null","60","NaN","","","","","","","","","","","","","","",""
"","S2","","html-keyboard-response","406","427598","0.0-1.0-544.0","0","0","39684","","null","","","null","60","","NaN","","","","","","","","","","","","","",""
"","response","","html-keyboard-response","407","428037","0.0-1.0-545.0-0.0","0","0","39684","","437","","","75","60","","","2","60","training","adjacent","DE","4","5","O.jpg","Q.jpg","0","1","0","",""
"","feedback","","html-keyboard-response","408","429047","0.0-1.0-546.0-0.0","0","0","39684","","null","","","null","60","","","","","","","","","","","","","","","",""
"","time_out","","html-keyboard-response","409","431054","0.0-1.0-548.0-0.0","0","0","39684","","null","","","null","60","","","","","","","","","","","","","","","",""
"","ITI","","html-keyboard-response","410","432060","0.0-1.0-549.0","0","0","39684","","null","","","null","60","","","","","","","","","","","","","","","NaN",""
"","S1","","html-keyboard-response","411","432319","0.0-1.0-551.0","0","0","39684","","null","","","null","61","","","","","","","","","","","","","","","",""
"","ISI","","html-keyboard-response","412","433326","0.0-1.0-552.0","0","0","39684","","null","","","null","61","NaN","","","","","","","","","","","","","","",""
"","S2","","html-keyboard-response","413","433581","0.0-1.0-553.0","0","0","39684","","null","","","null","61","","NaN","","","","","","","","","","","","","",""
"","response","","html-keyboard-response","414","434080","0.0-1.0-554.0-0.0","0","0","39684","","498","","","68","61","","","2","61","training","adjacent","DC","4","3","O.jpg","M.jpg","1","0","0","",""
"","feedback","","html-keyboard-response","415","435084","0.0-1.0-555.0-0.0","0","0","39684","","null","","","null","61","","","","","","","","","","","","","","","",""
"","time_out","","html-keyboard-response","416","437093","0.0-1.0-557.0-0.0","0","0","39684","","null","","","null","61","","","","","","","","","","","","","","","",""
"","ITI","","html-keyboard-response","417","438100","0.0-1.0-558.0","0","0","39684","","null","","","null","61","","","","","","","","","","","","","","","NaN",""
"","S1","","html-keyboard-response","418","438359","0.0-1.0-560.0","0","0","39684","","null","","","null","62","","","","","","","","","","","","","","","",""
"","ISI","","html-keyboard-response","419","439367","0.0-1.0-561.0","0","0","39684","","null","","","null","62","NaN","","","","","","","","","","","","","","",""
"","S2","","html-keyboard-response","420","439622","0.0-1.0-562.0","0","0","39684","","null","","","null","62","","NaN","","","","","","","","","","","","","",""
"","response","","html-keyboard-response","421","440149","0.0-1.0-563.0-0.0","0","0","39684","","525","","","75","62","","","2","62","training","adjacent","BC","2","3","R.jpg","M.jpg","0","1","0","",""
"","feedback","","html-keyboard-response","422","441157","0.0-1.0-564.0-0.0","0","0","39684","","null","","","null","62","","","","","","","","","","","","","","","",""
"","time_out","","html-keyboard-response","423","443166","0.0-1.0-566.0-0.0","0","0","39684","","null","","","null","62","","","","","","","","","","","","","","","",""
"","ITI","","html-keyboard-response","424","444175","0.0-1.0-567.0","0","0","39684","","null","","","null","62","","","","","","","","","","","","","","","NaN",""
"","S1","","html-keyboard-response","425","444432","0.0-1.0-569.0","0","0","39684","","null","","","null","63","","","","","","","","","","","","","","","",""
"","ISI","","html-keyboard-response","426","445438","0.0-1.0-570.0","0","0","39684","","null","","","null","63","NaN","","","","","","","","","","","","","","",""
"","S2","","html-keyboard-response","427","445691","0.0-1.0-571.0","0","0","39684","","251","","","68","63","","d","2","63","training","adjacent","EF","5","6","Q.jpg","P.jpg","1","1","1","",""
"","feedback","","html-keyboard-response","428","446700","0.0-1.0-573.0-0.0","0","0","39684","","null","","","null","63","","","","","","","","","","","","","","","",""
"","ITI","","html-keyboard-response","429","447710","0.0-1.0-576.0","0","0","39684","","null","","","null","63","","","","","","","","","","","","","","","NaN",""
"","S1","","html-keyboard-response","430","447966","0.0-1.0-578.0","0","0","39684","","null","","","null","64","","","","","","","","","","","","","","","",""
"","ISI","","html-keyboard-response","431","448974","0.0-1.0-579.0","0","0","39684","","null","","","null","64","NaN","","","","","","","","","","","","","","",""
"","S2","","html-keyboard-response","432","449232","0.0-1.0-580.0","0","0","39684","","null","","","null","64","","NaN","","","","","","","","","","","","","",""
"","response","","html-keyboard-response","433","450235","0.0-1.0-581.0-0.0","0","0","39684","","1002","","","68","64","","","2","64","training","adjacent","AB","1","2","L.jpg","R.jpg","1","1","1","",""
"","feedback","","html-keyboard-response","434","451246","0.0-1.0-582.0-0.0","0","0","39684","","null","","","null","64","","","","","","","","","","","","","","","",""
"","ITI","","html-keyboard-response","435","452254","0.0-1.0-585.0","0","0","39684","","null","","","null","64","","","","","","","","","","","","","","","NaN",""
"","S1","","html-keyboard-response","436","452511","0.0-1.0-587.0","0","0","39684","","null","","","null","65","","","","","","","","","","","","","","","",""
"","ISI","","html-keyboard-response","437","453519","0.0-1.0-588.0","0","0","39684","","null","","","null","65","NaN","","","","","","","","","","","","","","",""
"","S2","","html-keyboard-response","438","453775","0.0-1.0-589.0","0","0","39684","","null","","","null","65","","NaN","","","","","","","","","","","","","",""
"","response","","html-keyboard-response","439","454031","0.0-1.0-590.0-0.0","0","0","39684","","254","","","75","65","","","2","65","training","adjacent","EF","5","6","Q.jpg","P.jpg","0","1","0","",""
"","feedback","","html-keyboard-response","440","455036","0.0-1.0-591.0-0.0","0","0","39684","","null","","","null","65","","","","","","","","","","","","","","","",""
"","time_out","","html-keyboard-response","441","457046","0.0-1.0-593.0-0.0","0","0","39684","","null","","","null","65","","","","","","","","","","","","","","","",""
"","ITI","","html-keyboard-response","442","458056","0.0-1.0-594.0","0","0","39684","","null","","","null","65","","","","","","","","","","","","","","","NaN",""
"","S1","","html-keyboard-response","443","458321","0.0-1.0-596.0","0","0","39684","","null","","","null","66","","","","","","","","","","","","","","","",""
"","ISI","","html-keyboard-response","444","459326","0.0-1.0-597.0","0","0","39684","","null","","","null","66","NaN","","","","","","","","","","","","","","",""
"","S2","","html-keyboard-response","445","459582","0.0-1.0-598.0","0","0","39684","","null","","","null","66","","NaN","","","","","","","","","","","","","",""
"","response","","html-keyboard-response","446","460440","0.0-1.0-599.0-0.0","0","0","39684","","856","","","68","66","","","2","66","training","adjacent","CB","3","2","M.jpg","R.jpg","1","0","0","",""
"","feedback","","html-keyboard-response","447","461445","0.0-1.0-600.0-0.0","0","0","39684","","null","","","null","66","","","","","","","","","","","","","","","",""
"","time_out","","html-keyboard-response","448","463454","0.0-1.0-602.0-0.0","0","0","39684","","null","","","null","66","","","","","","","","","","","","","","","",""
"","ITI","","html-keyboard-response","449","464463","0.0-1.0-603.0","0","0","39684","","null","","","null","66","","","","","","","","","","","","","","","NaN",""
"","S1","","html-keyboard-response","450","464721","0.0-1.0-605.0","0","0","39684","","null","","","null","67","","","","","","","","","","","","","","","",""
"","ISI","","html-keyboard-response","451","465727","0.0-1.0-606.0","0","0","39684","","null","","","null","67","NaN","","","","","","","","","","","","","","",""
"","S2","","html-keyboard-response","452","465982","0.0-1.0-607.0","0","0","39684","","null","","","null","67","","NaN","","","","","","","","","","","","","",""
"","response","","html-keyboard-response","453","466557","0.0-1.0-608.0-0.0","0","0","39684","","574","","","68","67","","","2","67","training","adjacent","BC","2","3","R.jpg","M.jpg","1","1","1","",""
"","feedback","","html-keyboard-response","454","467567","0.0-1.0-609.0-0.0","0","0","39684","","null","","","null","67","","","","","","","","","","","","","","","",""
"","ITI","","html-keyboard-response","455","468575","0.0-1.0-612.0","0","0","39684","","null","","","null","67","","","","","","","","","","","","","","","NaN",""
"","S1","","html-keyboard-response","456","468829","0.0-1.0-614.0","0","0","39684","","null","","","null","68","","","","","","","","","","","","","","","",""
"","ISI","","html-keyboard-response","457","469839","0.0-1.0-615.0","0","0","39684","","null","","","null","68","NaN","","","","","","","","","","","","","","",""
"","S2","","html-keyboard-response","458","470096","0.0-1.0-616.0","0","0","39684","","null","","","null","68","","NaN","","","","","","","","","","","","","",""
"","response","","html-keyboard-response","459","470571","0.0-1.0-617.0-0.0","0","0","39684","","473","","","68","68","","","2","68","training","adjacent","DE","4","5","O.jpg","Q.jpg","1","1","1","",""
"","feedback","","html-keyboard-response","460","471581","0.0-1.0-618.0-0.0","0","0","39684","","null","","","null","68","","","","","","","","","","","","","","","",""
"","ITI","","html-keyboard-response","461","472591","0.0-1.0-621.0","0","0","39684","","null","","","null","68","","","","","","","","","","","","","","","NaN",""
"","S1","","html-keyboard-response","462","472846","0.0-1.0-623.0","0","0","39684","","null","","","null","69","","","","","","","","","","","","","","","",""
"","ISI","","html-keyboard-response","463","473854","0.0-1.0-624.0","0","0","39684","","null","","","null","69","NaN","","","","","","","","","","","","","","",""
"","S2","","html-keyboard-response","464","474110","0.0-1.0-625.0","0","0","39684","","null","","","null","69","","NaN","","","","","","","","","","","","","",""
"","response","","html-keyboard-response","465","474904","0.0-1.0-626.0-0.0","0","0","39684","","792","","","68","69","","","2","69","training","adjacent","CB","3","2","M.jpg","R.jpg","1","0","0","",""
"","feedback","","html-keyboard-response","466","475912","0.0-1.0-627.0-0.0","0","0","39684","","null","","","null","69","","","","","","","","","","","","","","","",""
"","time_out","","html-keyboard-response","467","477918","0.0-1.0-629.0-0.0","0","0","39684","","null","","","null","69","","","","","","","","","","","","","","","",""
"","ITI","","html-keyboard-response","468","478928","0.0-1.0-630.0","0","0","39684","","null","","","null","69","","","","","","","","","","","","","","","NaN",""
"","S1","","html-keyboard-response","469","479192","0.0-1.0-632.0","0","0","39684","","null","","","null","70","","","","","","","","","","","","","","","",""
"","ISI","","html-keyboard-response","470","480207","0.0-1.0-633.0","0","0","39684","","null","","","null","70","NaN","","","","","","","","","","","","","","",""
"","S2","","html-keyboard-response","471","480464","0.0-1.0-634.0","0","0","39684","","null","","","null","70","","NaN","","","","","","","","","","","","","",""
"","response","","html-keyboard-response","472","482222","0.0-1.0-635.0-0.0","0","0","39684","","null","","","null","70","","","2","70","training","adjacent","FE","6","5","P.jpg","Q.jpg","NaN","0","0","",""
"","too_slow_prompt","","html-keyboard-response","473","483231","0.0-1.0-637.0-0.0","1","0","39684","","null","","","null","","","","","","","","","","","","","","","","",""
"","time_out","","html-keyboard-response","474","485238","0.0-1.0-638.0-0.0","0","0","39684","","null","","","null","70","","","","","","","","","","","","","","","",""
"","ITI","","html-keyboard-response","475","486245","0.0-1.0-639.0","0","0","39684","","null","","","null","70","","","","","","","","","","","","","","","NaN",""
"","S1","","html-keyboard-response","476","486501","0.0-1.0-641.0","0","0","39684","","null","","","null","71","","","","","","","","","","","","","","","",""
"","ISI","","html-keyboard-response","477","487511","0.0-1.0-642.0","0","0","39684","","null","","","null","71","NaN","","","","","","","","","","","","","","",""
"","S2","","html-keyboard-response","478","487765","0.0-1.0-643.0","0","0","39684","","null","","","null","71","","NaN","","","","","","","","","","","","","",""
"","response","","html-keyboard-response","479","488532","0.0-1.0-644.0-0.0","0","0","39684","","765","","","75","71","","","2","71","training","adjacent","FG","6","7","P.jpg","N.jpg","0","1","0","",""
"","feedback","","html-keyboard-response","480","489543","0.0-1.0-645.0-0.0","0","0","39684","","null","","","null","71","","","","","","","","","","","","","","","",""
"","time_out","","html-keyboard-response","481","491551","0.0-1.0-647.0-0.0","0","0","39684","","null","","","null","71","","","","","","","","","","","","","","","",""
"","ITI","","html-keyboard-response","482","492558","0.0-1.0-648.0","0","0","39684","","null","","","null","71","","","","","","","","","","","","","","","NaN",""
"","S1","","html-keyboard-response","483","492814","0.0-1.0-650.0","0","0","39684","","null","","","null","72","","","","","","","","","","","","","","","",""
"","ISI","","html-keyboard-response","484","493823","0.0-1.0-651.0","0","0","39684","","null","","","null","72","NaN","","","","","","","","","","","","","","",""
"","S2","","html-keyboard-response","485","494079","0.0-1.0-652.0","0","0","39684","","null","","","null","72","","NaN","","","","","","","","","","","","","",""
"","response","","html-keyboard-response","486","494637","0.0-1.0-653.0-0.0","0","0","39684","","556","","","68","72","","","2","72","training","adjacent","GF","7","6","N.jpg","P.jpg","1","0","0","",""
"","feedback","","html-keyboard-response","487","495647","0.0-1.0-654.0-0.0","0","0","39684","","null","","","null","72","","","","","","","","","","","","","","","",""
"","time_out","","html-keyboard-response","488","497664","0.0-1.0-656.0-0.0","0","0","39684","","null","","","null","72","","","","","","","","","","","","","","","",""
"","ITI","","html-keyboard-response","489","498671","0.0-1.0-657.0","0","0","39684","","null","","","null","72","","","","","","","","","","","","","","","NaN",""
"","S1","","html-keyboard-response","490","498927","0.0-1.0-659.0","0","0","39684","","null","","","null","73","","","","","","","","","","","","","","","",""
"","ISI","","html-keyboard-response","491","499937","0.0-1.0-660.0","0","0","39684","","null","","","null","73","NaN","","","","","","","","","","","","","","",""
"","S2","","html-keyboard-response","492","500201","0.0-1.0-661.0","0","0","39684","","null","","","null","73","","NaN","","","","","","","","","","","","","",""
"","response","","html-keyboard-response","493","500737","0.0-1.0-662.0-0.0","0","0","39684","","535","","","75","73","","","2","73","training","adjacent","GF","7","6","N.jpg","P.jpg","0","0","1","",""
"","feedback","","html-keyboard-response","494","501741","0.0-1.0-663.0-0.0","0","0","39684","","null","","","null","73","","","","","","","","","","","","","","","",""
"","ITI","","html-keyboard-response","495","502757","0.0-1.0-666.0","0","0","39684","","null","","","null","73","","","","","","","","","","","","","","","NaN",""
"","S1","","html-keyboard-response","496","503016","0.0-1.0-668.0","0","0","39684","","null","","","null","74","","","","","","","","","","","","","","","",""
"","ISI","","html-keyboard-response","497","504023","0.0-1.0-669.0","0","0","39684","","null","","","null","74","NaN","","","","","","","","","","","","","","",""
"","S2","","html-keyboard-response","498","504279","0.0-1.0-670.0","0","0","39684","","null","","","null","74","","NaN","","","","","","","","","","","","","",""
"","response","","html-keyboard-response","499","504765","0.0-1.0-671.0-0.0","0","0","39684","","484","","","75","74","","","2","74","training","adjacent","BC","2","3","R.jpg","M.jpg","0","1","0","",""
"","feedback","","html-keyboard-response","500","505767","0.0-1.0-672.0-0.0","0","0","39684","","null","","","null","74","","","","","","","","","","","","","","","",""
"","time_out","","html-keyboard-response","501","507775","0.0-1.0-674.0-0.0","0","0","39684","","null","","","null","74","","","","","","","","","","","","","","","",""
"","ITI","","html-keyboard-response","502","508784","0.0-1.0-675.0","0","0","39684","","null","","","null","74","","","","","","","","","","","","","","","NaN",""
"","S1","","html-keyboard-response","503","509039","0.0-1.0-677.0","0","0","39684","","null","","","null","75","","","","","","","","","","","","","","","",""
"","ISI","","html-keyboard-response","504","510045","0.0-1.0-678.0","0","0","39684","","null","","","null","75","NaN","","","","","","","","","","","","","","",""
"","S2","","html-keyboard-response","505","510304","0.0-1.0-679.0","0","0","39684","","null","","","null","75","","NaN","","","","","","","","","","","","","",""
"","response","","html-keyboard-response","506","510892","0.0-1.0-680.0-0.0","0","0","39684","","587","","","68","75","","","2","75","training","adjacent","FG","6","7","P.jpg","N.jpg","1","1","1","",""
"","feedback","","html-keyboard-response","507","511904","0.0-1.0-681.0-0.0","0","0","39684","","null","","","null","75","","","","","","","","","","","","","","","",""
"","ITI","","html-keyboard-response","508","512910","0.0-1.0-684.0","0","0","39684","","null","","","null","75","","","","","","","","","","","","","","","NaN",""
"","S1","","html-keyboard-response","509","513167","0.0-1.0-686.0","0","0","39684","","null","","","null","76","","","","","","","","","","","","","","","",""
"","ISI","","html-keyboard-response","510","514176","0.0-1.0-687.0","0","0","39684","","null","","","null","76","NaN","","","","","","","","","","","","","","",""
"","S2","","html-keyboard-response","511","514431","0.0-1.0-688.0","0","0","39684","","null","","","null","76","","NaN","","","","","","","","","","","","","",""
"","response","","html-keyboard-response","512","515040","0.0-1.0-689.0-0.0","0","0","39684","","607","","","75","76","","","2","76","training","adjacent","EF","5","6","Q.jpg","P.jpg","0","1","0","",""
"","feedback","","html-keyboard-response","513","516047","0.0-1.0-690.0-0.0","0","0","39684","","null","","","null","76","","","","","","","","","","","","","","","",""
"","time_out","","html-keyboard-response","514","518056","0.0-1.0-692.0-0.0","0","0","39684","","null","","","null","76","","","","","","","","","","","","","","","",""
"","ITI","","html-keyboard-response","515","519064","0.0-1.0-693.0","0","0","39684","","null","","","null","76","","","","","","","","","","","","","","","NaN",""
"","S1","","html-keyboard-response","516","519319","0.0-1.0-695.0","0","0","39684","","null","","","null","77","","","","","","","","","","","","","","","",""
"","ISI","","html-keyboard-response","517","520326","0.0-1.0-696.0","0","0","39684","","null","","","null","77","NaN","","","","","","","","","","","","","","",""
"","S2","","html-keyboard-response","518","520582","0.0-1.0-697.0","0","0","39684","","null","","","null","77","","NaN","","","","","","","","","","","","","",""
"","response","","html-keyboard-response","519","521679","0.0-1.0-698.0-0.0","0","0","39684","","1096","","","68","77","","","2","77","training","adjacent","CD","3","4","M.jpg","O.jpg","1","1","1","",""
"","feedback","","html-keyboard-response","520","522686","0.0-1.0-699.0-0.0","0","0","39684","","null","","","null","77","","","","","","","","","","","","","","","",""
"","ITI","","html-keyboard-response","521","523697","0.0-1.0-702.0","0","0","39684","","null","","","null","77","","","","","","","","","","","","","","","NaN",""
"","S1","","html-keyboard-response","522","523960","0.0-1.0-704.0","0","0","39684","","null","","","null","78","","","","","","","","","","","","","","","",""
"","ISI","","html-keyboard-response","523","524969","0.0-1.0-705.0","0","0","39684","","null","","","null","78","NaN","","","","","","","","","","","","","","",""
"","S2","","html-keyboard-response","524","525232","0.0-1.0-706.0","0","0","39684","","null","","","null","78","","NaN","","","","","","","","","","","","","",""
"","response","","html-keyboard-response","525","525859","0.0-1.0-707.0-0.0","0","0","39684","","624","","","68","78","","","2","78","training","adjacent","EF","5","6","Q.jpg","P.jpg","1","1","1","",""
"","feedback","","html-keyboard-response","526","526872","0.0-1.0-708.0-0.0","0","0","39684","","null","","","null","78","","","","","","","","","","","","","","","",""
"","ITI","","html-keyboard-response","527","527879","0.0-1.0-711.0","0","0","39684","","null","","","null","78","","","","","","","","","","","","","","","NaN",""
"","S1","","html-keyboard-response","528","528135","0.0-1.0-713.0","0","0","39684","","null","","","null","79","","","","","","","","","","","","","","","",""
"","ISI","","html-keyboard-response","529","529145","0.0-1.0-714.0","0","0","39684","","null","","","null","79","NaN","","","","","","","","","","","","","","",""
"","S2","","html-keyboard-response","530","529405","0.0-1.0-715.0","0","0","39684","","null","","","null","79","","NaN","","","","","","","","","","","","","",""
"","response","","html-keyboard-response","531","530276","0.0-1.0-716.0-0.0","0","0","39684","","870","","","68","79","","","2","79","training","adjacent","ED","5","4","Q.jpg","O.jpg","1","0","0","",""
"","feedback","","html-keyboard-response","532","531287","0.0-1.0-717.0-0.0","0","0","39684","","null","","","null","79","","","","","","","","","","","","","","","",""
"","time_out","","html-keyboard-response","533","533295","0.0-1.0-719.0-0.0","0","0","39684","","null","","","null","79","","","","","","","","","","","","","","","",""
"","ITI","","html-keyboard-response","534","534303","0.0-1.0-720.0","0","0","39684","","null","","","null","79","","","","","","","","","","","","","","","NaN",""
"","S1","","html-keyboard-response","535","534561","0.0-1.0-722.0","0","0","39684","","null","","","null","80","","","","","","","","","","","","","","","",""
"","ISI","","html-keyboard-response","536","535569","0.0-1.0-723.0","0","0","39684","","null","","","null","80","NaN","","","","","","","","","","","","","","",""
"","S2","","html-keyboard-response","537","535832","0.0-1.0-724.0","0","0","39684","","null","","","null","80","","NaN","","","","","","","","","","","","","",""
"","response","","html-keyboard-response","538","536567","0.0-1.0-725.0-0.0","0","0","39684","","733","","","68","80","","","2","80","training","adjacent","FG","6","7","P.jpg","N.jpg","1","1","1","",""
"","feedback","","html-keyboard-response","539","537576","0.0-1.0-726.0-0.0","0","0","39684","","null","","","null","80","","","","","","","","","","","","","","","",""
"","ITI","","html-keyboard-response","540","538584","0.0-1.0-729.0","0","0","39684","","null","","","null","80","","","","","","","","","","","","","","","NaN",""
"","S1","","html-keyboard-response","541","538840","0.0-1.0-731.0","0","0","39684","","null","","","null","81","","","","","","","","","","","","","","","",""
"","ISI","","html-keyboard-response","542","539849","0.0-1.0-732.0","0","0","39684","","null","","","null","81","NaN","","","","","","","","","","","","","","",""
"","S2","","html-keyboard-response","543","540104","0.0-1.0-733.0","0","0","39684","","null","","","null","81","","NaN","","","","","","","","","","","","","",""
"","response","","html-keyboard-response","544","540766","0.0-1.0-734.0-0.0","0","0","39684","","660","","","68","81","","","2","81","training","adjacent","FE","6","5","P.jpg","Q.jpg","1","0","0","",""
"","feedback","","html-keyboard-response","545","541776","0.0-1.0-735.0-0.0","0","0","39684","","null","","","null","81","","","","","","","","","","","","","","","",""
"","time_out","","html-keyboard-response","546","543784","0.0-1.0-737.0-0.0","0","0","39684","","null","","","null","81","","","","","","","","","","","","","","","",""
"","ITI","","html-keyboard-response","547","544792","0.0-1.0-738.0","0","0","39684","","null","","","null","81","","","","","","","","","","","","","","","NaN",""
"","S1","","html-keyboard-response","548","545048","0.0-1.0-740.0","0","0","39684","","null","","","null","82","","","","","","","","","","","","","","","",""
"","ISI","","html-keyboard-response","549","546054","0.0-1.0-741.0","0","0","39684","","null","","","null","82","NaN","","","","","","","","","","","","","","",""
"","S2","","html-keyboard-response","550","546314","0.0-1.0-742.0","0","0","39684","","null","","","null","82","","NaN","","","","","","","","","","","","","",""
"","response","","html-keyboard-response","551","546871","0.0-1.0-743.0-0.0","0","0","39684","","555","","","68","82","","","2","82","training","adjacent","CD","3","4","M.jpg","O.jpg","1","1","1","",""
"","feedback","","html-keyboard-response","552","547880","0.0-1.0-744.0-0.0","0","0","39684","","null","","","null","82","","","","","","","","","","","","","","","",""
"","ITI","","html-keyboard-response","553","548889","0.0-1.0-747.0","0","0","39684","","null","","","null","82","","","","","","","","","","","","","","","NaN",""
"","S1","","html-keyboard-response","554","549144","0.0-1.0-749.0","0","0","39684","","null","","","null","83","","","","","","","","","","","","","","","",""
"","ISI","","html-keyboard-response","555","550154","0.0-1.0-750.0","0","0","39684","","null","","","null","83","NaN","","","","","","","","","","","","","","",""
"","S2","","html-keyboard-response","556","550415","0.0-1.0-751.0","0","0","39684","","null","","","null","83","","NaN","","","","","","","","","","","","","",""
"","response","","html-keyboard-response","557","550931","0.0-1.0-752.0-0.0","0","0","39684","","515","","","75","83","","","2","83","training","adjacent","BA","2","1","R.jpg","L.jpg","0","0","1","",""
"","feedback","","html-keyboard-response","558","551945","0.0-1.0-753.0-0.0","0","0","39684","","null","","","null","83","","","","","","","","","","","","","","","",""
"","ITI","","html-keyboard-response","559","552952","0.0-1.0-756.0","0","0","39684","","null","","","null","83","","","","","","","","","","","","","","","NaN",""
"","S1","","html-keyboard-response","560","553210","0.0-1.0-758.0","0","0","39684","","null","","","null","84","","","","","","","","","","","","","","","",""
"","ISI","","html-keyboard-response","561","554216","0.0-1.0-759.0","0","0","39684","","null","","","null","84","NaN","","","","","","","","","","","","","","",""
"","S2","","html-keyboard-response","562","554473","0.0-1.0-760.0","0","0","39684","","null","","","null","84","","NaN","","","","","","","","","","","","","",""
"","response","","html-keyboard-response","563","555012","0.0-1.0-761.0-0.0","0","0","39684","","538","","","68","84","","","2","84","training","adjacent","DC","4","3","O.jpg","M.jpg","1","0","0","",""
"","feedback","","html-keyboard-response","564","556025","0.0-1.0-762.0-0.0","0","0","39684","","null","","","null","84","","","","","","","","","","","","","","","",""
"","time_out","","html-keyboard-response","565","558030","0.0-1.0-764.0-0.0","0","0","39684","","null","","","null","84","","","","","","","","","","","","","","","",""
"","ITI","","html-keyboard-response","566","559040","0.0-1.0-765.0","0","0","39684","","null","","","null","84","","","","","","","","","","","","","","","NaN",""
"","S1","","html-keyboard-response","567","559296","0.0-1.0-767.0","0","0","39684","","null","","","null","85","","","","","","","","","","","","","","","",""
"","ISI","","html-keyboard-response","568","560304","0.0-1.0-768.0","0","0","39684","","null","","","null","85","NaN","","","","","","","","","","","","","","",""
"","S2","","html-keyboard-response","569","560561","0.0-1.0-769.0","0","0","39684","","null","","","null","85","","NaN","","","","","","","","","","","","","",""
"","response","","html-keyboard-response","570","561007","0.0-1.0-770.0-0.0","0","0","39684","","444","","","68","85","","","2","85","training","adjacent","BA","2","1","R.jpg","L.jpg","1","0","0","",""
"","feedback","","html-keyboard-response","571","562017","0.0-1.0-771.0-0.0","0","0","39684","","null","","","null","85","","","","","","","","","","","","","","","",""
"","time_out","","html-keyboard-response","572","564024","0.0-1.0-773.0-0.0","0","0","39684","","null","","","null","85","","","","","","","","","","","","","","","",""
"","ITI","","html-keyboard-response","573","565035","0.0-1.0-774.0","0","0","39684","","null","","","null","85","","","","","","","","","","","","","","","NaN",""
"","S1","","html-keyboard-response","574","565295","0.0-1.0-776.0","0","0","39684","","null","","","null","86","","","","","","","","","","","","","","","",""
"","ISI","","html-keyboard-response","575","566302","0.0-1.0-777.0","0","0","39684","","null","","","null","86","NaN","","","","","","","","","","","","","","",""
"","S2","","html-keyboard-response","576","566562","0.0-1.0-778.0","0","0","39684","","null","","","null","86","","NaN","","","","","","","","","","","","","",""
"","response","","html-keyboard-response","577","567188","0.0-1.0-779.0-0.0","0","0","39684","","623","","","68","86","","","2","86","training","adjacent","DC","4","3","O.jpg","M.jpg","1","0","0","",""
"","feedback","","html-keyboard-response","578","568201","0.0-1.0-780.0-0.0","0","0","39684","","null","","","null","86","","","","","","","","","","","","","","","",""
"","time_out","","html-keyboard-response","579","570210","0.0-1.0-782.0-0.0","0","0","39684","","null","","","null","86","","","","","","","","","","","","","","","",""
"","ITI","","html-keyboard-response","580","571217","0.0-1.0-783.0","0","0","39684","","null","","","null","86","","","","","","","","","","","","","","","NaN",""
