"success","ttype","start_time","trial_type","trial_index","time_elapsed","internal_node_id","warning","missed_checkup","PID","view_history","rt","responses","repeat_instructions","key_press","index","keypress_isi","keypress_S2","block","trial_num","phase","group_type","pair_type","S1_stim","S2_stim","S1_img","S2_img","S1_chosen","S1_higher","accuracy","keypress_iti","total_bonus_tally"
"true","full_screen","d08052022hr1221","fullscreen","0","4290","0.0-0.0","0","0","27128","","","","","","","","","","","","","","","","","","","","","",""
"","instructions","","instructions","1","39845","0.0-1.0-0.0-0.0","0","0","27128","[{""page_index"":0,""viewing_time"":14924},{""page_index"":1,""viewing_time"":15217},{""page_index"":2,""viewing_time"":3390},{""page_index"":3,""viewing_time"":2020}]","35552","","","","","","","","","","","","","","","","","","","",""
"","comprehension_check","","survey-multi-choice","2","63715","0.0-1.0-0.0-1.0","0","0","27128","","23853","{""Q0"":""True"",""Q1"":""D"",""Q2"":""Only when the screen 'MAKE A CHOICE' is shown"",""Q3"":""Green mark"",""Q4"":""either D or K""}","1","","","","","","","","","","","","","","","","","",""
"","missed_instruction_checkup","","html-keyboard-response","3","67064","0.0-1.0-0.0-2.0-0.0","0","1","27128","","3344","","","32","","","","","","","","","","","","","","","","",""
"","instructions","","instructions","4","89513","0.0-1.0-0.1-0.1","0","0","27128","[{""page_index"":0,""viewing_time"":5076},{""page_index"":1,""viewing_time"":14608},{""page_index"":2,""viewing_time"":1212},{""page_index"":3,""viewing_time"":1550}]","22447","","","","","","","","","","","","","","","","","","","",""
"","comprehension_check","","survey-multi-choice","5","111989","0.0-1.0-0.1-1.1","0","0","27128","","22466","{""Q0"":""True"",""Q1"":""D"",""Q2"":""Only while the second image is shown"",""Q3"":""Green mark"",""Q4"":""either D or K""}","1","","","","","","","","","","","","","","","","","",""
"","missed_instruction_checkup","","html-keyboard-response","6","113883","0.0-1.0-0.1-2.1-0.1","0","1","27128","","1890","","","32","","","","","","","","","","","","","","","","",""
"","instructions","","instructions","7","122356","0.0-1.0-0.2-0.2","0","0","27128","[{""page_index"":0,""viewing_time"":4008},{""page_index"":1,""viewing_time"":1350},{""page_index"":2,""viewing_time"":1430},{""page_index"":3,""viewing_time"":1684}]","8472","","","","","","","","","","","","","","","","","","","",""
"","comprehension_check","","survey-multi-choice","8","134004","0.0-1.0-0.2-1.2","0","0","27128","","11637","{""Q0"":""True"",""Q1"":""D"",""Q2"":""Once the second image appears and while the screen 'MAKE A CHOICE' is shown"",""Q3"":""Green mark"",""Q4"":""either D or K""}","0","","","","","","","","","","","","","","","","","",""
"","start_exp","","html-keyboard-response","9","135613","0.0-1.0-1.0","0","0","27128","","1605","","","32","","","","","","","","","","","","","","","","",""
"","S1","","html-keyboard-response","10","135867","0.0-1.0-2.0","0","0","27128","","null","","","null","0","","","","","","","","","","","","","","","",""
"","ISI","","html-keyboard-response","11","137871","0.0-1.0-3.0","0","0","27128","","null","","","null","0","NaN","","","","","","","","","","","","","","",""
"","S2","","html-keyboard-response","12","138124","0.0-1.0-4.0","0","0","27128","","null","","","null","0","","NaN","","","","","","","","","","","","","",""
"","response","","html-keyboard-response","13","138474","0.0-1.0-5.0-0.0","0","0","27128","","347","","","75","0","","","1","0","training","adjacent","CB","3","2","N.jpg","O.jpg","0","0","1","",""
"","feedback","","html-keyboard-response","14","139478","0.0-1.0-6.0-0.0","0","0","27128","","null","","","null","0","","","","","","","","","","","","","","","",""
"","ITI","","html-keyboard-response","15","140483","0.0-1.0-9.0","0","0","27128","","null","","","null","0","","","","","","","","","","","","","","","NaN",""
"","S1","","html-keyboard-response","16","140736","0.0-1.0-11.0","0","0","27128","","null","","","null","1","","","","","","","","","","","","","","","",""
"","ISI","","html-keyboard-response","17","142740","0.0-1.0-12.0","0","0","27128","","284","","","75","1","k","","","","","","","","","","","","","","",""
"","S2","","html-keyboard-response","18","142993","0.0-1.0-13.0","0","0","27128","","null","","","null","1","","NaN","","","","","","","","","","","","","",""
"","response","","html-keyboard-response","19","143233","0.0-1.0-14.0-0.0","0","0","27128","","238","","","68","1","","","1","1","training","adjacent","CD","3","4","N.jpg","P.jpg","1","1","1","",""
"","feedback","","html-keyboard-response","20","144240","0.0-1.0-15.0-0.0","0","0","27128","","null","","","null","1","","","","","","","","","","","","","","","",""
"","ITI","","html-keyboard-response","21","145243","0.0-1.0-18.0","0","0","27128","","651","","","75","1","","","","","","","","","","","","","","","k",""
"","S1","","html-keyboard-response","22","145499","0.0-1.0-20.0","0","0","27128","","null","","","null","2","","","","","","","","","","","","","","","",""
"","ISI","","html-keyboard-response","23","147502","0.0-1.0-21.0","0","0","27128","","51","","","75","2","k","","","","","","","","","","","","","","",""
"","S2","","html-keyboard-response","24","147713","0.0-1.0-22.0","0","0","27128","","208","","","68","2","","d","1","2","training","adjacent","BC","2","3","O.jpg","N.jpg","1","1","1","",""
"","feedback","","html-keyboard-response","25","148716","0.0-1.0-24.0-0.0","0","0","27128","","null","","","null","2","","","","","","","","","","","","","","","",""
"","ITI","","html-keyboard-response","26","149719","0.0-1.0-27.0","0","0","27128","","6","","","75","2","","","","","","","","","","","","","","","k",""
"","S1","","html-keyboard-response","27","149972","0.0-1.0-29.0","0","0","27128","","null","","","null","3","","","","","","","","","","","","","","","",""
"","ISI","","html-keyboard-response","28","151986","0.0-1.0-30.0","0","0","27128","","88","","","75","3","k","","","","","","","","","","","","","","",""
"","S2","","html-keyboard-response","29","152103","0.0-1.0-31.0","0","0","27128","","114","","","68","3","","d","1","3","training","adjacent","BA","2","1","O.jpg","Q.jpg","1","0","0","",""
"","feedback","","html-keyboard-response","30","153107","0.0-1.0-33.0-0.0","0","0","27128","","null","","","null","3","","","","","","","","","","","","","","","",""
"","time_out","","html-keyboard-response","31","155110","0.0-1.0-35.0-0.0","0","0","27128","","null","","","null","3","","","","","","","","","","","","","","","",""
"","ITI","","html-keyboard-response","32","156114","0.0-1.0-36.0","0","0","27128","","90","","","68","3","","","","","","","","","","","","","","","d",""
"","S1","","html-keyboard-response","33","156367","0.0-1.0-38.0","0","0","27128","","null","","","null","4","","","","","","","","","","","","","","","",""
"","ISI","","html-keyboard-response","34","158369","0.0-1.0-39.0","0","0","27128","","353","","","68","4","d","","","","","","","","","","","","","","",""
"","S2","","html-keyboard-response","35","158624","0.0-1.0-40.0","0","0","27128","","null","","","null","4","","NaN","","","","","","","","","","","","","",""
"","response","","html-keyboard-response","36","158794","0.0-1.0-41.0-0.0","0","0","27128","","167","","","75","4","","","1","4","training","adjacent","GF","7","6","R.jpg","L.jpg","0","0","1","",""
"","feedback","","html-keyboard-response","37","159797","0.0-1.0-42.0-0.0","0","0","27128","","null","","","null","4","","","","","","","","","","","","","","","",""
"","ITI","","html-keyboard-response","38","160801","0.0-1.0-45.0","0","0","27128","","253","","","70","4","","","","","","","","","","","","","","","f",""
"","S1","","html-keyboard-response","39","161055","0.0-1.0-47.0","0","0","27128","","null","","","null","5","","","","","","","","","","","","","","","",""
"","ISI","","html-keyboard-response","40","163061","0.0-1.0-48.0","0","0","27128","","124","","","75","5","k","","","","","","","","","","","","","","",""
"","S2","","html-keyboard-response","41","163315","0.0-1.0-49.0","0","0","27128","","null","","","null","5","","NaN","","","","","","","","","","","","","",""
"","response","","html-keyboard-response","42","164393","0.0-1.0-50.0-0.0","0","0","27128","","1076","","","75","5","","","1","5","training","adjacent","CD","3","4","N.jpg","P.jpg","0","1","0","",""
"","feedback","","html-keyboard-response","43","165396","0.0-1.0-51.0-0.0","0","0","27128","","null","","","null","5","","","","","","","","","","","","","","","",""
"","time_out","","html-keyboard-response","44","167399","0.0-1.0-53.0-0.0","0","0","27128","","null","","","null","5","","","","","","","","","","","","","","","",""
"","ITI","","html-keyboard-response","45","168403","0.0-1.0-54.0","0","0","27128","","161","","","70","5","","","","","","","","","","","","","","","f",""
"","S1","","html-keyboard-response","46","168657","0.0-1.0-56.0","0","0","27128","","null","","","null","6","","","","","","","","","","","","","","","",""
"","ISI","","html-keyboard-response","47","170660","0.0-1.0-57.0","0","0","27128","","283","","","70","6","f","","","","","","","","","","","","","","",""
"","S2","","html-keyboard-response","48","170753","0.0-1.0-58.0","0","0","27128","","90","","","75","6","","k","1","6","training","adjacent","DE","4","5","P.jpg","M.jpg","0","1","0","",""
"","feedback","","html-keyboard-response","49","171757","0.0-1.0-60.0-0.0","0","0","27128","","null","","","null","6","","","","","","","","","","","","","","","",""
"","time_out","","html-keyboard-response","50","173761","0.0-1.0-62.0-0.0","0","0","27128","","null","","","null","6","","","","","","","","","","","","","","","",""
"","ITI","","html-keyboard-response","51","174765","0.0-1.0-63.0","0","0","27128","","639","","","68","6","","","","","","","","","","","","","","","d",""
"","S1","","html-keyboard-response","52","175018","0.0-1.0-65.0","0","0","27128","","null","","","null","7","","","","","","","","","","","","","","","",""
"","ISI","","html-keyboard-response","53","177020","0.0-1.0-66.0","0","0","27128","","243","","","68","7","d","","","","","","","","","","","","","","",""
"","S2","","html-keyboard-response","54","177274","0.0-1.0-67.0","0","0","27128","","null","","","null","7","","NaN","","","","","","","","","","","","","",""
"","response","","html-keyboard-response","55","177413","0.0-1.0-68.0-0.0","0","0","27128","","136","","","75","7","","","1","7","training","adjacent","AB","1","2","Q.jpg","O.jpg","0","1","0","",""
"","feedback","","html-keyboard-response","56","178457","0.0-1.0-69.0-0.0","0","0","27128","","null","","","null","7","","","","","","","","","","","","","","","",""
"","time_out","","html-keyboard-response","57","180461","0.0-1.0-71.0-0.0","0","0","27128","","null","","","null","7","","","","","","","","","","","","","","","",""
"","ITI","","html-keyboard-response","58","181464","0.0-1.0-72.0","0","0","27128","","10","","","75","7","","","","","","","","","","","","","","","k",""
"","S1","","html-keyboard-response","59","181717","0.0-1.0-74.0","0","0","27128","","null","","","null","8","","","","","","","","","","","","","","","",""
"","ISI","","html-keyboard-response","60","183851","0.0-1.0-75.0","0","0","27128","","24","","","75","8","k","","","","","","","","","","","","","","",""
"","S2","","html-keyboard-response","61","183856","0.0-1.0-76.0","0","0","27128","","3","","","75","8","","k","1","8","training","adjacent","AB","1","2","Q.jpg","O.jpg","0","1","0","",""
"","feedback","","html-keyboard-response","62","185007","0.0-1.0-78.0-0.0","0","0","27128","","null","","","null","8","","","","","","","","","","","","","","","",""
"","time_out","","html-keyboard-response","63","187033","0.0-1.0-80.0-0.0","0","0","27128","","null","","","null","8","","","","","","","","","","","","","","","",""
"","ITI","","html-keyboard-response","64","188036","0.0-1.0-81.0","0","0","27128","","277","","","75","8","","","","","","","","","","","","","","","k",""
"","S1","","html-keyboard-response","65","188289","0.0-1.0-83.0","0","0","27128","","null","","","null","9","","","","","","","","","","","","","","","",""
"","ISI","","html-keyboard-response","66","190292","0.0-1.0-84.0","0","0","27128","","146","","","75","9","k","","","","","","","","","","","","","","",""
"","S2","","html-keyboard-response","67","190527","0.0-1.0-85.0","0","0","27128","","232","","","68","9","","d","1","9","training","adjacent","FG","6","7","L.jpg","R.jpg","1","1","1","",""
"","feedback","","html-keyboard-response","68","191531","0.0-1.0-87.0-0.0","0","0","27128","","null","","","null","9","","","","","","","","","","","","","","","",""
"","ITI","","html-keyboard-response","69","192535","0.0-1.0-90.0","0","0","27128","","230","","","70","9","","","","","","","","","","","","","","","f",""
"","S1","","html-keyboard-response","70","192788","0.0-1.0-92.0","0","0","27128","","null","","","null","10","","","","","","","","","","","","","","","",""
"","ISI","","html-keyboard-response","71","194791","0.0-1.0-93.0","0","0","27128","","293","","","68","10","d","","","","","","","","","","","","","","",""
"","S2","","html-keyboard-response","72","194873","0.0-1.0-94.0","0","0","27128","","79","","","75","10","","k","1","10","training","adjacent","FG","6","7","L.jpg","R.jpg","0","1","0","",""
"","feedback","","html-keyboard-response","73","195878","0.0-1.0-96.0-0.0","0","0","27128","","null","","","null","10","","","","","","","","","","","","","","","",""
"","time_out","","html-keyboard-response","74","197881","0.0-1.0-98.0-0.0","0","0","27128","","null","","","null","10","","","","","","","","","","","","","","","",""
"","ITI","","html-keyboard-response","75","198885","0.0-1.0-99.0","0","0","27128","","51","","","75","10","","","","","","","","","","","","","","","k",""
"","S1","","html-keyboard-response","76","199156","0.0-1.0-101.0","0","0","27128","","null","","","null","11","","","","","","","","","","","","","","","",""
"","ISI","","html-keyboard-response","77","201160","0.0-1.0-102.0","0","0","27128","","312","","","75","11","k","","","","","","","","","","","","","","",""
"","S2","","html-keyboard-response","78","201414","0.0-1.0-103.0","0","0","27128","","null","","","null","11","","NaN","","","","","","","","","","","","","",""
"","response","","html-keyboard-response","79","201944","0.0-1.0-104.0-0.0","0","0","27128","","527","","","75","11","","","1","11","training","adjacent","FG","6","7","L.jpg","R.jpg","0","1","0","",""
"","feedback","","html-keyboard-response","80","202947","0.0-1.0-105.0-0.0","0","0","27128","","null","","","null","11","","","","","","","","","","","","","","","",""
"","time_out","","html-keyboard-response","81","204950","0.0-1.0-107.0-0.0","0","0","27128","","null","","","null","11","","","","","","","","","","","","","","","",""
"","ITI","","html-keyboard-response","82","205954","0.0-1.0-108.0","0","0","27128","","330","","","68","11","","","","","","","","","","","","","","","d",""
"","S1","","html-keyboard-response","83","206207","0.0-1.0-110.0","0","0","27128","","null","","","null","12","","","","","","","","","","","","","","","",""
"","ISI","","html-keyboard-response","84","208211","0.0-1.0-111.0","0","0","27128","","313","","","75","12","k","","","","","","","","","","","","","","",""
"","S2","","html-keyboard-response","85","208228","0.0-1.0-112.0","0","0","27128","","14","","","75","12","","k","1","12","training","adjacent","AB","1","2","Q.jpg","O.jpg","0","1","0","",""
"","feedback","","html-keyboard-response","86","209231","0.0-1.0-114.0-0.0","0","0","27128","","null","","","null","12","","","","","","","","","","","","","","","",""
"","time_out","","html-keyboard-response","87","211235","0.0-1.0-116.0-0.0","0","0","27128","","null","","","null","12","","","","","","","","","","","","","","","",""
"","ITI","","html-keyboard-response","88","212239","0.0-1.0-117.0","0","0","27128","","null","","","null","12","","","","","","","","","","","","","","","NaN",""
"","S1","","html-keyboard-response","89","212494","0.0-1.0-119.0","0","0","27128","","null","","","null","13","","","","","","","","","","","","","","","",""
"","ISI","","html-keyboard-response","90","214497","0.0-1.0-120.0","0","0","27128","","1447","","","75","13","k","","","","","","","","","","","","","","",""
"","S2","","html-keyboard-response","91","214543","0.0-1.0-121.0","0","0","27128","","43","","","68","13","","d","1","13","training","adjacent","EF","5","6","M.jpg","L.jpg","1","1","1","",""
"","feedback","","html-keyboard-response","92","215547","0.0-1.0-123.0-0.0","0","0","27128","","null","","","null","13","","","","","","","","","","","","","","","",""
"","ITI","","html-keyboard-response","93","216553","0.0-1.0-126.0","0","0","27128","","126","","","75","13","","","","","","","","","","","","","","","k",""
"","S1","","html-keyboard-response","94","216807","0.0-1.0-128.0","0","0","27128","","null","","","null","14","","","","","","","","","","","","","","","",""
"","ISI","","html-keyboard-response","95","218809","0.0-1.0-129.0","0","0","27128","","434","","","75","14","k","","","","","","","","","","","","","","",""
"","S2","","html-keyboard-response","96","218933","0.0-1.0-130.0","0","0","27128","","121","","","68","14","","d","1","14","training","adjacent","ED","5","4","M.jpg","P.jpg","1","0","0","",""
"","feedback","","html-keyboard-response","97","219937","0.0-1.0-132.0-0.0","0","0","27128","","null","","","null","14","","","","","","","","","","","","","","","",""
"","time_out","","html-keyboard-response","98","221940","0.0-1.0-134.0-0.0","0","0","27128","","null","","","null","14","","","","","","","","","","","","","","","",""
"","ITI","","html-keyboard-response","99","222943","0.0-1.0-135.0","0","0","27128","","221","","","68","14","","","","","","","","","","","","","","","d",""
"","S1","","html-keyboard-response","100","223197","0.0-1.0-137.0","0","0","27128","","null","","","null","15","","","","","","","","","","","","","","","",""
"","ISI","","html-keyboard-response","101","225201","0.0-1.0-138.0","0","0","27128","","134","","","68","15","d","","","","","","","","","","","","","","",""
"","S2","","html-keyboard-response","102","225253","0.0-1.0-139.0","0","0","27128","","50","","","68","15","","d","1","15","training","adjacent","ED","5","4","M.jpg","P.jpg","1","0","0","",""
"","feedback","","html-keyboard-response","103","226258","0.0-1.0-141.0-0.0","0","0","27128","","null","","","null","15","","","","","","","","","","","","","","","",""
"","time_out","","html-keyboard-response","104","228260","0.0-1.0-143.0-0.0","0","0","27128","","null","","","null","15","","","","","","","","","","","","","","","",""
"","ITI","","html-keyboard-response","105","229263","0.0-1.0-144.0","0","0","27128","","170","","","75","15","","","","","","","","","","","","","","","k",""
"","S1","","html-keyboard-response","106","229516","0.0-1.0-146.0","0","0","27128","","null","","","null","16","","","","","","","","","","","","","","","",""
"","ISI","","html-keyboard-response","107","231520","0.0-1.0-147.0","0","0","27128","","214","","","75","16","k","","","","","","","","","","","","","","",""
"","S2","","html-keyboard-response","108","231773","0.0-1.0-148.0","0","0","27128","","null","","","null","16","","NaN","","","","","","","","","","","","","",""
"","response","","html-keyboard-response","109","231823","0.0-1.0-149.0-0.0","0","0","27128","","48","","","75","16","","","1","16","training","adjacent","BA","2","1","O.jpg","Q.jpg","0","0","1","",""
"","feedback","","html-keyboard-response","110","232826","0.0-1.0-150.0-0.0","0","0","27128","","null","","","null","16","","","","","","","","","","","","","","","",""
"","ITI","","html-keyboard-response","111","233830","0.0-1.0-153.0","0","0","27128","","184","","","75","16","","","","","","","","","","","","","","","k",""
"","S1","","html-keyboard-response","112","234083","0.0-1.0-155.0","0","0","27128","","null","","","null","17","","","","","","","","","","","","","","","",""
"","ISI","","html-keyboard-response","113","236086","0.0-1.0-156.0","0","0","27128","","188","","","75","17","k","","","","","","","","","","","","","","",""
"","S2","","html-keyboard-response","114","236293","0.0-1.0-157.0","0","0","27128","","204","","","75","17","","k","1","17","training","adjacent","FE","6","5","L.jpg","M.jpg","0","0","1","",""
"","feedback","","html-keyboard-response","115","237296","0.0-1.0-159.0-0.0","0","0","27128","","null","","","null","17","","","","","","","","","","","","","","","",""
"","ITI","","html-keyboard-response","116","238298","0.0-1.0-162.0","0","0","27128","","236","","","75","17","","","","","","","","","","","","","","","k",""
"","S1","","html-keyboard-response","117","238552","0.0-1.0-164.0","0","0","27128","","null","","","null","18","","","","","","","","","","","","","","","",""
"","ISI","","html-keyboard-response","118","240555","0.0-1.0-165.0","0","0","27128","","249","","","75","18","k","","","","","","","","","","","","","","",""
"","S2","","html-keyboard-response","119","240603","0.0-1.0-166.0","0","0","27128","","46","","","75","18","","k","1","18","training","adjacent","EF","5","6","M.jpg","L.jpg","0","1","0","",""
"","feedback","","html-keyboard-response","120","241606","0.0-1.0-168.0-0.0","0","0","27128","","null","","","null","18","","","","","","","","","","","","","","","",""
"","time_out","","html-keyboard-response","121","243610","0.0-1.0-170.0-0.0","0","0","27128","","null","","","null","18","","","","","","","","","","","","","","","",""
"","ITI","","html-keyboard-response","122","244613","0.0-1.0-171.0","0","0","27128","","null","","","null","18","","","","","","","","","","","","","","","NaN",""
"","S1","","html-keyboard-response","123","244866","0.0-1.0-173.0","0","0","27128","","null","","","null","19","","","","","","","","","","","","","","","",""
"","ISI","","html-keyboard-response","124","246870","0.0-1.0-174.0","0","0","27128","","432","","","75","19","k","","","","","","","","","","","","","","",""
"","S2","","html-keyboard-response","125","247124","0.0-1.0-175.0","0","0","27128","","null","","","null","19","","NaN","","","","","","","","","","","","","",""
"","response","","html-keyboard-response","126","248123","0.0-1.0-176.0-0.0","0","0","27128","","998","","","75","19","","","1","19","training","adjacent","BA","2","1","O.jpg","Q.jpg","0","0","1","",""
"","feedback","","html-keyboard-response","127","249126","0.0-1.0-177.0-0.0","0","0","27128","","null","","","null","19","","","","","","","","","","","","","","","",""
"","ITI","","html-keyboard-response","128","250129","0.0-1.0-180.0","0","0","27128","","315","","","75","19","","","","","","","","","","","","","","","k",""
"","S1","","html-keyboard-response","129","250382","0.0-1.0-182.0","0","0","27128","","null","","","null","20","","","","","","","","","","","","","","","",""
"","ISI","","html-keyboard-response","130","252386","0.0-1.0-183.0","0","0","27128","","229","","","70","20","f","","","","","","","","","","","","","","",""
"","S2","","html-keyboard-response","131","252640","0.0-1.0-184.0","0","0","27128","","null","","","null","20","","NaN","","","","","","","","","","","","","",""
"","response","","html-keyboard-response","132","253473","0.0-1.0-185.0-0.0","0","0","27128","","831","","","75","20","","","1","20","training","adjacent","CD","3","4","N.jpg","P.jpg","0","1","0","",""
"","feedback","","html-keyboard-response","133","254478","0.0-1.0-186.0-0.0","0","0","27128","","null","","","null","20","","","","","","","","","","","","","","","",""
"","time_out","","html-keyboard-response","134","256482","0.0-1.0-188.0-0.0","0","0","27128","","null","","","null","20","","","","","","","","","","","","","","","",""
"","ITI","","html-keyboard-response","135","257485","0.0-1.0-189.0","0","0","27128","","178","","","75","20","","","","","","","","","","","","","","","k",""
"","S1","","html-keyboard-response","136","257738","0.0-1.0-191.0","0","0","27128","","null","","","null","21","","","","","","","","","","","","","","","",""
"","ISI","","html-keyboard-response","137","259742","0.0-1.0-192.0","0","0","27128","","483","","","68","21","d","","","","","","","","","","","","","","",""
"","S2","","html-keyboard-response","138","259996","0.0-1.0-193.0","0","0","27128","","null","","","null","21","","NaN","","","","","","","","","","","","","",""
"","response","","html-keyboard-response","139","260243","0.0-1.0-194.0-0.0","0","0","27128","","245","","","75","21","","","1","21","training","adjacent","EF","5","6","M.jpg","L.jpg","0","1","0","",""
"","feedback","","html-keyboard-response","140","261247","0.0-1.0-195.0-0.0","0","0","27128","","null","","","null","21","","","","","","","","","","","","","","","",""
"","time_out","","html-keyboard-response","141","263251","0.0-1.0-197.0-0.0","0","0","27128","","null","","","null","21","","","","","","","","","","","","","","","",""
"","ITI","","html-keyboard-response","142","264254","0.0-1.0-198.0","0","0","27128","","140","","","75","21","","","","","","","","","","","","","","","k",""
"","S1","","html-keyboard-response","143","264507","0.0-1.0-200.0","0","0","27128","","null","","","null","22","","","","","","","","","","","","","","","",""
"","ISI","","html-keyboard-response","144","266509","0.0-1.0-201.0","0","0","27128","","75","","","75","22","k","","","","","","","","","","","","","","",""
"","S2","","html-keyboard-response","145","266763","0.0-1.0-202.0","0","0","27128","","null","","","null","22","","NaN","","","","","","","","","","","","","",""
"","response","","html-keyboard-response","146","266783","0.0-1.0-203.0-0.0","0","0","27128","","18","","","75","22","","","1","22","training","adjacent","FE","6","5","L.jpg","M.jpg","0","0","1","",""
"","feedback","","html-keyboard-response","147","267787","0.0-1.0-204.0-0.0","0","0","27128","","null","","","null","22","","","","","","","","","","","","","","","",""
"","ITI","","html-keyboard-response","148","268790","0.0-1.0-207.0","0","0","27128","","209","","","75","22","","","","","","","","","","","","","","","k",""
"","S1","","html-keyboard-response","149","269043","0.0-1.0-209.0","0","0","27128","","null","","","null","23","","","","","","","","","","","","","","","",""
"","ISI","","html-keyboard-response","150","271046","0.0-1.0-210.0","0","0","27128","","146","","","75","23","k","","","","","","","","","","","","","","",""
"","S2","","html-keyboard-response","151","271053","0.0-1.0-211.0","0","0","27128","","5","","","75","23","","k","1","23","training","adjacent","FE","6","5","L.jpg","M.jpg","0","0","1","",""
"","feedback","","html-keyboard-response","152","272056","0.0-1.0-213.0-0.0","0","0","27128","","null","","","null","23","","","","","","","","","","","","","","","",""
"","ITI","","html-keyboard-response","153","273061","0.0-1.0-216.0","0","0","27128","","54","","","75","23","","","","","","","","","","","","","","","k",""
"","S1","","html-keyboard-response","154","273314","0.0-1.0-218.0","0","0","27128","","null","","","null","24","","","","","","","","","","","","","","","",""
"","ISI","","html-keyboard-response","155","275318","0.0-1.0-219.0","0","0","27128","","276","","","68","24","d","","","","","","","","","","","","","","",""
"","S2","","html-keyboard-response","156","275402","0.0-1.0-220.0","0","0","27128","","81","","","75","24","","k","1","24","training","adjacent","CD","3","4","N.jpg","P.jpg","0","1","0","",""
"","feedback","","html-keyboard-response","157","276405","0.0-1.0-222.0-0.0","0","0","27128","","null","","","null","24","","","","","","","","","","","","","","","",""
"","time_out","","html-keyboard-response","158","278409","0.0-1.0-224.0-0.0","0","0","27128","","null","","","null","24","","","","","","","","","","","","","","","",""
"","ITI","","html-keyboard-response","159","279412","0.0-1.0-225.0","0","0","27128","","32","","","68","24","","","","","","","","","","","","","","","d",""
"","S1","","html-keyboard-response","160","279666","0.0-1.0-227.0","0","0","27128","","null","","","null","25","","","","","","","","","","","","","","","",""
"","ISI","","html-keyboard-response","161","281670","0.0-1.0-228.0","0","0","27128","","92","","","75","25","k","","","","","","","","","","","","","","",""
"","S2","","html-keyboard-response","162","281923","0.0-1.0-229.0","0","0","27128","","null","","","null","25","","NaN","","","","","","","","","","","","","",""
"","response","","html-keyboard-response","163","282032","0.0-1.0-230.0-0.0","0","0","27128","","106","","","75","25","","","1","25","training","adjacent","DE","4","5","P.jpg","M.jpg","0","1","0","",""
"","feedback","","html-keyboard-response","164","283036","0.0-1.0-231.0-0.0","0","0","27128","","null","","","null","25","","","","","","","","","","","","","","","",""
"","time_out","","html-keyboard-response","165","285039","0.0-1.0-233.0-0.0","0","0","27128","","null","","","null","25","","","","","","","","","","","","","","","",""
"","ITI","","html-keyboard-response","166","286042","0.0-1.0-234.0","0","0","27128","","241","","","75","25","","","","","","","","","","","","","","","k",""
"","S1","","html-keyboard-response","167","286296","0.0-1.0-236.0","0","0","27128","","null","","","null","26","","","","","","","","","","","","","","","",""
"","ISI","","html-keyboard-response","168","288300","0.0-1.0-237.0","0","0","27128","","384","","","75","26","k","","","","","","","","","","","","","","",""
"","S2","","html-keyboard-response","169","288554","0.0-1.0-238.0","0","0","27128","","null","","","null","26","","NaN","","","","","","","","","","","","","",""
"","response","","html-keyboard-response","170","289222","0.0-1.0-239.0-0.0","0","0","27128","","665","","","75","26","","","1","26","training","adjacent","BC","2","3","O.jpg","N.jpg","0","1","0","",""
"","feedback","","html-keyboard-response","171","290226","0.0-1.0-240.0-0.0","0","0","27128","","null","","","null","26","","","","","","","","","","","","","","","",""
"","time_out","","html-keyboard-response","172","292229","0.0-1.0-242.0-0.0","0","0","27128","","null","","","null","26","","","","","","","","","","","","","","","",""
"","ITI","","html-keyboard-response","173","293232","0.0-1.0-243.0","0","0","27128","","308","","","75","26","","","","","","","","","","","","","","","k",""
"","S1","","html-keyboard-response","174","293485","0.0-1.0-245.0","0","0","27128","","null","","","null","27","","","","","","","","","","","","","","","",""
"","ISI","","html-keyboard-response","175","295488","0.0-1.0-246.0","0","0","27128","","34","","","68","27","d","","","","","","","","","","","","","","",""
"","S2","","html-keyboard-response","176","295741","0.0-1.0-247.0","0","0","27128","","null","","","null","27","","NaN","","","","","","","","","","","","","",""
"","response","","html-keyboard-response","177","295832","0.0-1.0-248.0-0.0","0","0","27128","","88","","","75","27","","","1","27","training","adjacent","FE","6","5","L.jpg","M.jpg","0","0","1","",""
"","feedback","","html-keyboard-response","178","296836","0.0-1.0-249.0-0.0","0","0","27128","","null","","","null","27","","","","","","","","","","","","","","","",""
"","ITI","","html-keyboard-response","179","297839","0.0-1.0-252.0","0","0","27128","","85","","","75","27","","","","","","","","","","","","","","","k",""
"","S1","","html-keyboard-response","180","298092","0.0-1.0-254.0","0","0","27128","","null","","","null","28","","","","","","","","","","","","","","","",""
"","ISI","","html-keyboard-response","181","300095","0.0-1.0-255.0","0","0","27128","","288","","","68","28","d","","","","","","","","","","","","","","",""
"","S2","","html-keyboard-response","182","300349","0.0-1.0-256.0","0","0","27128","","null","","","null","28","","NaN","","","","","","","","","","","","","",""
"","response","","html-keyboard-response","183","300583","0.0-1.0-257.0-0.0","0","0","27128","","231","","","75","28","","","1","28","training","adjacent","DC","4","3","P.jpg","N.jpg","0","0","1","",""
"","feedback","","html-keyboard-response","184","301586","0.0-1.0-258.0-0.0","0","0","27128","","null","","","null","28","","","","","","","","","","","","","","","",""
"","ITI","","html-keyboard-response","185","302589","0.0-1.0-261.0","0","0","27128","","444","","","75","28","","","","","","","","","","","","","","","k",""
"","S1","","html-keyboard-response","186","302843","0.0-1.0-263.0","0","0","27128","","null","","","null","29","","","","","","","","","","","","","","","",""
"","ISI","","html-keyboard-response","187","304846","0.0-1.0-264.0","0","0","27128","","54","","","75","29","k","","","","","","","","","","","","","","",""
"","S2","","html-keyboard-response","188","304943","0.0-1.0-265.0","0","0","27128","","94","","","68","29","","d","1","29","training","adjacent","GF","7","6","R.jpg","L.jpg","1","0","0","",""
"","feedback","","html-keyboard-response","189","305948","0.0-1.0-267.0-0.0","0","0","27128","","null","","","null","29","","","","","","","","","","","","","","","",""
"","time_out","","html-keyboard-response","190","307950","0.0-1.0-269.0-0.0","0","0","27128","","null","","","null","29","","","","","","","","","","","","","","","",""
"","ITI","","html-keyboard-response","191","308953","0.0-1.0-270.0","0","0","27128","","60","","","75","29","","","","","","","","","","","","","","","k",""
"","S1","","html-keyboard-response","192","309206","0.0-1.0-272.0","0","0","27128","","null","","","null","30","","","","","","","","","","","","","","","",""
"","ISI","","html-keyboard-response","193","311211","0.0-1.0-273.0","0","0","27128","","74","","","75","30","k","","","","","","","","","","","","","","",""
"","S2","","html-keyboard-response","194","311322","0.0-1.0-274.0","0","0","27128","","109","","","75","30","","k","1","30","training","adjacent","ED","5","4","M.jpg","P.jpg","0","0","1","",""
"","feedback","","html-keyboard-response","195","312327","0.0-1.0-276.0-0.0","0","0","27128","","null","","","null","30","","","","","","","","","","","","","","","",""
"","ITI","","html-keyboard-response","196","313330","0.0-1.0-279.0","0","0","27128","","152","","","68","30","","","","","","","","","","","","","","","d",""
"","S1","","html-keyboard-response","197","313584","0.0-1.0-281.0","0","0","27128","","null","","","null","31","","","","","","","","","","","","","","","",""
"","ISI","","html-keyboard-response","198","315587","0.0-1.0-282.0","0","0","27128","","96","","","68","31","d","","","","","","","","","","","","","","",""
"","S2","","html-keyboard-response","199","315743","0.0-1.0-283.0","0","0","27128","","153","","","68","31","","d","1","31","training","adjacent","BA","2","1","O.jpg","Q.jpg","1","0","0","",""
"","feedback","","html-keyboard-response","200","316747","0.0-1.0-285.0-0.0","0","0","27128","","null","","","null","31","","","","","","","","","","","","","","","",""
"","time_out","","html-keyboard-response","201","318751","0.0-1.0-287.0-0.0","0","0","27128","","null","","","null","31","","","","","","","","","","","","","","","",""
"","ITI","","html-keyboard-response","202","319755","0.0-1.0-288.0","0","0","27128","","79","","","75","31","","","","","","","","","","","","","","","k",""
"","S1","","html-keyboard-response","203","320009","0.0-1.0-290.0","0","0","27128","","null","","","null","32","","","","","","","","","","","","","","","",""
"","ISI","","html-keyboard-response","204","322047","0.0-1.0-291.0","0","0","27128","","91","","","68","32","d","","","","","","","","","","","","","","",""
"","S2","","html-keyboard-response","205","322072","0.0-1.0-292.0","0","0","27128","","23","","","75","32","","k","1","32","training","adjacent","AB","1","2","Q.jpg","O.jpg","0","1","0","",""
"","feedback","","html-keyboard-response","206","323076","0.0-1.0-294.0-0.0","0","0","27128","","null","","","null","32","","","","","","","","","","","","","","","",""
"","time_out","","html-keyboard-response","207","325079","0.0-1.0-296.0-0.0","0","0","27128","","null","","","null","32","","","","","","","","","","","","","","","",""
"","ITI","","html-keyboard-response","208","326082","0.0-1.0-297.0","0","0","27128","","161","","","75","32","","","","","","","","","","","","","","","k",""
"","S1","","html-keyboard-response","209","326336","0.0-1.0-299.0","0","0","27128","","null","","","null","33","","","","","","","","","","","","","","","",""
"","ISI","","html-keyboard-response","210","328339","0.0-1.0-300.0","0","0","27128","","54","","","75","33","k","","","","","","","","","","","","","","",""
"","S2","","html-keyboard-response","211","328592","0.0-1.0-301.0","0","0","27128","","null","","","null","33","","NaN","","","","","","","","","","","","","",""
"","response","","html-keyboard-response","212","328802","0.0-1.0-302.0-0.0","0","0","27128","","207","","","75","33","","","1","33","training","adjacent","CB","3","2","N.jpg","O.jpg","0","0","1","",""
"","feedback","","html-keyboard-response","213","329806","0.0-1.0-303.0-0.0","0","0","27128","","null","","","null","33","","","","","","","","","","","","","","","",""
"","ITI","","html-keyboard-response","214","330810","0.0-1.0-306.0","0","0","27128","","null","","","null","33","","","","","","","","","","","","","","","NaN",""
"","S1","","html-keyboard-response","215","331064","0.0-1.0-308.0","0","0","27128","","null","","","null","34","","","","","","","","","","","","","","","",""
"","ISI","","html-keyboard-response","216","333068","0.0-1.0-309.0","0","0","27128","","356","","","68","34","d","","","","","","","","","","","","","","",""
"","S2","","html-keyboard-response","217","333222","0.0-1.0-310.0","0","0","27128","","151","","","75","34","","k","1","34","training","adjacent","DC","4","3","P.jpg","N.jpg","0","0","1","",""
"","feedback","","html-keyboard-response","218","334226","0.0-1.0-312.0-0.0","0","0","27128","","null","","","null","34","","","","","","","","","","","","","","","",""
"","ITI","","html-keyboard-response","219","335229","0.0-1.0-315.0","0","0","27128","","null","","","null","34","","","","","","","","","","","","","","","NaN",""
"","S1","","html-keyboard-response","220","335482","0.0-1.0-317.0","0","0","27128","","null","","","null","35","","","","","","","","","","","","","","","",""
"","ISI","","html-keyboard-response","221","337486","0.0-1.0-318.0","0","0","27128","","409","","","68","35","d","","","","","","","","","","","","","","",""
"","S2","","html-keyboard-response","222","337741","0.0-1.0-319.0","0","0","27128","","null","","","null","35","","NaN","","","","","","","","","","","","","",""
"","response","","html-keyboard-response","223","337856","0.0-1.0-320.0-0.0","0","0","27128","","113","","","75","35","","","1","35","training","adjacent","EF","5","6","M.jpg","L.jpg","0","1","0","",""
"","feedback","","html-keyboard-response","224","338859","0.0-1.0-321.0-0.0","0","0","27128","","null","","","null","35","","","","","","","","","","","","","","","",""
"","time_out","","html-keyboard-response","225","340862","0.0-1.0-323.0-0.0","0","0","27128","","null","","","null","35","","","","","","","","","","","","","","","",""
"","ITI","","html-keyboard-response","226","341864","0.0-1.0-324.0","0","0","27128","","49","","","75","35","","","","","","","","","","","","","","","k",""
"","S1","","html-keyboard-response","227","342118","0.0-1.0-326.0","0","0","27128","","null","","","null","36","","","","","","","","","","","","","","","",""
"","ISI","","html-keyboard-response","228","344122","0.0-1.0-327.0","0","0","27128","","71","","","68","36","d","","","","","","","","","","","","","","",""
"","S2","","html-keyboard-response","229","344378","0.0-1.0-328.0","0","0","27128","","null","","","null","36","","NaN","","","","","","","","","","","","","",""
"","response","","html-keyboard-response","230","344422","0.0-1.0-329.0-0.0","0","0","27128","","41","","","68","36","","","1","36","training","adjacent","DE","4","5","P.jpg","M.jpg","1","1","1","",""
"","feedback","","html-keyboard-response","231","345426","0.0-1.0-330.0-0.0","0","0","27128","","null","","","null","36","","","","","","","","","","","","","","","",""
"","ITI","","html-keyboard-response","232","346430","0.0-1.0-333.0","0","0","27128","","45","","","75","36","","","","","","","","","","","","","","","k",""
"","S1","","html-keyboard-response","233","346683","0.0-1.0-335.0","0","0","27128","","null","","","null","37","","","","","","","","","","","","","","","",""
"","ISI","","html-keyboard-response","234","348685","0.0-1.0-336.0","0","0","27128","","37","","","68","37","d","","","","","","","","","","","","","","",""
"","S2","","html-keyboard-response","235","348738","0.0-1.0-337.0","0","0","27128","","50","","","75","37","","k","1","37","training","adjacent","DE","4","5","P.jpg","M.jpg","0","1","0","",""
"","feedback","","html-keyboard-response","236","349741","0.0-1.0-339.0-0.0","0","0","27128","","null","","","null","37","","","","","","","","","","","","","","","",""
"","time_out","","html-keyboard-response","237","351749","0.0-1.0-341.0-0.0","0","0","27128","","null","","","null","37","","","","","","","","","","","","","","","",""
"","ITI","","html-keyboard-response","238","352751","0.0-1.0-342.0","0","0","27128","","361","","","75","37","","","","","","","","","","","","","","","k",""
"","S1","","html-keyboard-response","239","353004","0.0-1.0-344.0","0","0","27128","","null","","","null","38","","","","","","","","","","","","","","","",""
"","ISI","","html-keyboard-response","240","355007","0.0-1.0-345.0","0","0","27128","","382","","","75","38","k","","","","","","","","","","","","","","",""
"","S2","","html-keyboard-response","241","355192","0.0-1.0-346.0","0","0","27128","","182","","","75","38","","k","1","38","training","adjacent","BC","2","3","O.jpg","N.jpg","0","1","0","",""
"","feedback","","html-keyboard-response","242","356196","0.0-1.0-348.0-0.0","0","0","27128","","null","","","null","38","","","","","","","","","","","","","","","",""
"","time_out","","html-keyboard-response","243","358200","0.0-1.0-350.0-0.0","0","0","27128","","null","","","null","38","","","","","","","","","","","","","","","",""
"","ITI","","html-keyboard-response","244","359204","0.0-1.0-351.0","0","0","27128","","227","","","75","38","","","","","","","","","","","","","","","k",""
"","S1","","html-keyboard-response","245","359458","0.0-1.0-353.0","0","0","27128","","null","","","null","39","","","","","","","","","","","","","","","",""
"","ISI","","html-keyboard-response","246","361463","0.0-1.0-354.0","0","0","27128","","273","","","75","39","k","","","","","","","","","","","","","","",""
"","S2","","html-keyboard-response","247","361542","0.0-1.0-355.0","0","0","27128","","77","","","75","39","","k","1","39","training","adjacent","GF","7","6","R.jpg","L.jpg","0","0","1","",""
"","feedback","","html-keyboard-response","248","362547","0.0-1.0-357.0-0.0","0","0","27128","","null","","","null","39","","","","","","","","","","","","","","","",""
"","ITI","","html-keyboard-response","249","363552","0.0-1.0-360.0","0","0","27128","","453","","","74","39","","","","","","","","","","","","","","","j",""
"","S1","","html-keyboard-response","250","363805","0.0-1.0-362.0","0","0","27128","","null","","","null","40","","","","","","","","","","","","","","","",""
"","ISI","","html-keyboard-response","251","365809","0.0-1.0-363.0","0","0","27128","","76","","","75","40","k","","","","","","","","","","","","","","",""
"","S2","","html-keyboard-response","252","365862","0.0-1.0-364.0","0","0","27128","","50","","","75","40","","k","1","40","training","adjacent","BC","2","3","O.jpg","N.jpg","0","1","0","",""
"","feedback","","html-keyboard-response","253","366866","0.0-1.0-366.0-0.0","0","0","27128","","null","","","null","40","","","","","","","","","","","","","","","",""
"","time_out","","html-keyboard-response","254","368892","0.0-1.0-368.0-0.0","0","0","27128","","null","","","null","40","","","","","","","","","","","","","","","",""
"","ITI","","html-keyboard-response","255","369895","0.0-1.0-369.0","0","0","27128","","33","","","75","40","","","","","","","","","","","","","","","k",""
"","S1","","html-keyboard-response","256","370149","0.0-1.0-371.0","0","0","27128","","null","","","null","41","","","","","","","","","","","","","","","",""
"","ISI","","html-keyboard-response","257","372153","0.0-1.0-372.0","0","0","27128","","162","","","75","41","k","","","","","","","","","","","","","","",""
"","S2","","html-keyboard-response","258","372212","0.0-1.0-373.0","0","0","27128","","57","","","75","41","","k","1","41","training","adjacent","CB","3","2","N.jpg","O.jpg","0","0","1","",""
"","feedback","","html-keyboard-response","259","373216","0.0-1.0-375.0-0.0","0","0","27128","","null","","","null","41","","","","","","","","","","","","","","","",""
"","ITI","","html-keyboard-response","260","374219","0.0-1.0-378.0","0","0","27128","","574","","","68","41","","","","","","","","","","","","","","","d",""
"","S1","","html-keyboard-response","261","374473","0.0-1.0-380.0","0","0","27128","","null","","","null","42","","","","","","","","","","","","","","","",""
"","ISI","","html-keyboard-response","262","376475","0.0-1.0-381.0","0","0","27128","","398","","","75","42","k","","","","","","","","","","","","","","",""
"","S2","","html-keyboard-response","263","376729","0.0-1.0-382.0","0","0","27128","","null","","","null","42","","NaN","","","","","","","","","","","","","",""
"","response","","html-keyboard-response","264","376863","0.0-1.0-383.0-0.0","0","0","27128","","131","","","68","42","","","1","42","training","adjacent","ED","5","4","M.jpg","P.jpg","1","0","0","",""
"","feedback","","html-keyboard-response","265","377868","0.0-1.0-384.0-0.0","0","0","27128","","null","","","null","42","","","","","","","","","","","","","","","",""
"","time_out","","html-keyboard-response","266","379871","0.0-1.0-386.0-0.0","0","0","27128","","null","","","null","42","","","","","","","","","","","","","","","",""
"","ITI","","html-keyboard-response","267","380875","0.0-1.0-387.0","0","0","27128","","189","","","75","42","","","","","","","","","","","","","","","k",""
"","S1","","html-keyboard-response","268","381133","0.0-1.0-389.0","0","0","27128","","null","","","null","43","","","","","","","","","","","","","","","",""
"","ISI","","html-keyboard-response","269","383135","0.0-1.0-390.0","0","0","27128","","38","","","75","43","k","","","","","","","","","","","","","","",""
"","S2","","html-keyboard-response","270","383193","0.0-1.0-391.0","0","0","27128","","55","","","75","43","","k","1","43","training","adjacent","DC","4","3","P.jpg","N.jpg","0","0","1","",""
"","feedback","","html-keyboard-response","271","384196","0.0-1.0-393.0-0.0","0","0","27128","","null","","","null","43","","","","","","","","","","","","","","","",""
"","ITI","","html-keyboard-response","272","385201","0.0-1.0-396.0","0","0","27128","","254","","","68","43","","","","","","","","","","","","","","","d",""
"","S1","","html-keyboard-response","273","385455","0.0-1.0-398.0","0","0","27128","","null","","","null","44","","","","","","","","","","","","","","","",""
"","ISI","","html-keyboard-response","274","387458","0.0-1.0-399.0","0","0","27128","","207","","","75","44","k","","","","","","","","","","","","","","",""
"","S2","","html-keyboard-response","275","387593","0.0-1.0-400.0","0","0","27128","","132","","","68","44","","d","1","44","training","adjacent","FG","6","7","L.jpg","R.jpg","1","1","1","",""
"","feedback","","html-keyboard-response","276","388596","0.0-1.0-402.0-0.0","0","0","27128","","null","","","null","44","","","","","","","","","","","","","","","",""
"","ITI","","html-keyboard-response","277","389601","0.0-1.0-405.0","0","0","27128","","4","","","75","44","","","","","","","","","","","","","","","k",""
"","S1","","html-keyboard-response","278","389857","0.0-1.0-407.0","0","0","27128","","null","","","null","45","","","","","","","","","","","","","","","",""
"","ISI","","html-keyboard-response","279","391861","0.0-1.0-408.0","0","0","27128","","102","","","75","45","k","","","","","","","","","","","","","","",""
"","S2","","html-keyboard-response","280","392032","0.0-1.0-409.0","0","0","27128","","168","","","68","45","","d","1","45","training","adjacent","DC","4","3","P.jpg","N.jpg","1","0","0","",""
"","feedback","","html-keyboard-response","281","393035","0.0-1.0-411.0-0.0","0","0","27128","","null","","","null","45","","","","","","","","","","","","","","","",""
"","time_out","","html-keyboard-response","282","395038","0.0-1.0-413.0-0.0","0","0","27128","","null","","","null","45","","","","","","","","","","","","","","","",""
"","ITI","","html-keyboard-response","283","396042","0.0-1.0-414.0","0","0","27128","","261","","","75","45","","","","","","","","","","","","","","","k",""
"","S1","","html-keyboard-response","284","396296","0.0-1.0-416.0","0","0","27128","","null","","","null","46","","","","","","","","","","","","","","","",""
"","ISI","","html-keyboard-response","285","398300","0.0-1.0-417.0","0","0","27128","","3","","","75","46","k","","","","","","","","","","","","","","",""
"","S2","","html-keyboard-response","286","398372","0.0-1.0-418.0","0","0","27128","","69","","","75","46","","k","1","46","training","adjacent","CB","3","2","N.jpg","O.jpg","0","0","1","",""
"","feedback","","html-keyboard-response","287","399375","0.0-1.0-420.0-0.0","0","0","27128","","null","","","null","46","","","","","","","","","","","","","","","",""
"","ITI","","html-keyboard-response","288","400378","0.0-1.0-423.0","0","0","27128","","255","","","75","46","","","","","","","","","","","","","","","k",""
"","S1","","html-keyboard-response","289","400640","0.0-1.0-425.0","0","0","27128","","null","","","null","47","","","","","","","","","","","","","","","",""
"","ISI","","html-keyboard-response","290","402644","0.0-1.0-426.0","0","0","27128","","210","","","75","47","k","","","","","","","","","","","","","","",""
"","S2","","html-keyboard-response","291","402678","0.0-1.0-427.0","0","0","27128","","31","","","75","47","","k","1","47","training","adjacent","GF","7","6","R.jpg","L.jpg","0","0","1","",""
"","feedback","","html-keyboard-response","292","403682","0.0-1.0-429.0-0.0","0","0","27128","","null","","","null","47","","","","","","","","","","","","","","","",""
"","ITI","","html-keyboard-response","293","404685","0.0-1.0-432.0","0","0","27128","","267","","","75","47","","","","","","","","","","","","","","","k",""
"","block_over","","html-keyboard-response","294","456072","0.0-1.0-433.0-0.0","0","0","27128","","51384","","","32","47","","","","","","","","","","","","","","","",""
"","S1","","html-keyboard-response","295","456327","0.0-1.0-434.0","0","0","27128","","null","","","null","48","","","","","","","","","","","","","","","",""
"","ISI","","html-keyboard-response","296","458332","0.0-1.0-435.0","0","0","27128","","1873","","","68","48","d","","","","","","","","","","","","","","",""
"","S2","","html-keyboard-response","297","458587","0.0-1.0-436.0","0","0","27128","","null","","","null","48","","NaN","","","","","","","","","","","","","",""
"","response","","html-keyboard-response","298","458794","0.0-1.0-437.0-0.0","0","0","27128","","204","","","75","48","","","2","48","training","adjacent","BC","2","3","O.jpg","N.jpg","0","1","0","",""
"","feedback","","html-keyboard-response","299","459797","0.0-1.0-438.0-0.0","0","0","27128","","null","","","null","48","","","","","","","","","","","","","","","",""
"","time_out","","html-keyboard-response","300","461800","0.0-1.0-440.0-0.0","0","0","27128","","null","","","null","48","","","","","","","","","","","","","","","",""
"","ITI","","html-keyboard-response","301","462803","0.0-1.0-441.0","0","0","27128","","109","","","68","48","","","","","","","","","","","","","","","d",""
"","S1","","html-keyboard-response","302","463057","0.0-1.0-443.0","0","0","27128","","null","","","null","49","","","","","","","","","","","","","","","",""
"","ISI","","html-keyboard-response","303","465060","0.0-1.0-444.0","0","0","27128","","43","","","75","49","k","","","","","","","","","","","","","","",""
"","S2","","html-keyboard-response","304","465072","0.0-1.0-445.0","0","0","27128","","9","","","75","49","","k","2","49","training","adjacent","FG","6","7","L.jpg","R.jpg","0","1","0","",""
"","feedback","","html-keyboard-response","305","466081","0.0-1.0-447.0-0.0","0","0","27128","","null","","","null","49","","","","","","","","","","","","","","","",""
"","time_out","","html-keyboard-response","306","468085","0.0-1.0-449.0-0.0","0","0","27128","","null","","","null","49","","","","","","","","","","","","","","","",""
"","ITI","","html-keyboard-response","307","469090","0.0-1.0-450.0","0","0","27128","","278","","","75","49","","","","","","","","","","","","","","","k",""
"","S1","","html-keyboard-response","308","469344","0.0-1.0-452.0","0","0","27128","","null","","","null","50","","","","","","","","","","","","","","","",""
"","ISI","","html-keyboard-response","309","471347","0.0-1.0-453.0","0","0","27128","","277","","","75","50","k","","","","","","","","","","","","","","",""
"","S2","","html-keyboard-response","310","471544","0.0-1.0-454.0","0","0","27128","","191","","","75","50","","k","2","50","training","adjacent","GF","7","6","R.jpg","L.jpg","0","0","1","",""
"","feedback","","html-keyboard-response","311","472548","0.0-1.0-456.0-0.0","0","0","27128","","null","","","null","50","","","","","","","","","","","","","","","",""
"","ITI","","html-keyboard-response","312","473551","0.0-1.0-459.0","0","0","27128","","72","","","75","50","","","","","","","","","","","","","","","k",""
"","S1","","html-keyboard-response","313","473805","0.0-1.0-461.0","0","0","27128","","null","","","null","51","","","","","","","","","","","","","","","",""
"","ISI","","html-keyboard-response","314","475809","0.0-1.0-462.0","0","0","27128","","595","","","75","51","k","","","","","","","","","","","","","","",""
"","S2","","html-keyboard-response","315","476063","0.0-1.0-463.0","0","0","27128","","null","","","null","51","","NaN","","","","","","","","","","","","","",""
"","response","","html-keyboard-response","316","476920","0.0-1.0-464.0-0.0","0","0","27128","","856","","","75","51","","","2","51","training","adjacent","ED","5","4","M.jpg","P.jpg","0","0","1","",""
"","feedback","","html-keyboard-response","317","477927","0.0-1.0-465.0-0.0","0","0","27128","","null","","","null","51","","","","","","","","","","","","","","","",""
"","ITI","","html-keyboard-response","318","478930","0.0-1.0-468.0","0","0","27128","","null","","","null","51","","","","","","","","","","","","","","","NaN",""
"","S1","","html-keyboard-response","319","479184","0.0-1.0-470.0","0","0","27128","","null","","","null","52","","","","","","","","","","","","","","","",""
"","ISI","","html-keyboard-response","320","481188","0.0-1.0-471.0","0","0","27128","","396","","","75","52","k","","","","","","","","","","","","","","",""
"","S2","","html-keyboard-response","321","481253","0.0-1.0-472.0","0","0","27128","","62","","","68","52","","d","2","52","training","adjacent","BC","2","3","O.jpg","N.jpg","1","1","1","",""
"","feedback","","html-keyboard-response","322","482258","0.0-1.0-474.0-0.0","0","0","27128","","null","","","null","52","","","","","","","","","","","","","","","",""
"","ITI","","html-keyboard-response","323","483262","0.0-1.0-477.0","0","0","27128","","450","","","75","52","","","","","","","","","","","","","","","k",""
"","S1","","html-keyboard-response","324","483516","0.0-1.0-479.0","0","0","27128","","null","","","null","53","","","","","","","","","","","","","","","",""
"","ISI","","html-keyboard-response","325","485519","0.0-1.0-480.0","0","0","27128","","284","","","75","53","k","","","","","","","","","","","","","","",""
"","S2","","html-keyboard-response","326","485573","0.0-1.0-481.0","0","0","27128","","50","","","75","53","","k","2","53","training","adjacent","EF","5","6","M.jpg","L.jpg","0","1","0","",""
"","feedback","","html-keyboard-response","327","486577","0.0-1.0-483.0-0.0","0","0","27128","","null","","","null","53","","","","","","","","","","","","","","","",""
"","time_out","","html-keyboard-response","328","488581","0.0-1.0-485.0-0.0","0","0","27128","","null","","","null","53","","","","","","","","","","","","","","","",""
"","ITI","","html-keyboard-response","329","489583","0.0-1.0-486.0","0","0","27128","","229","","","75","53","","","","","","","","","","","","","","","k",""
"","S1","","html-keyboard-response","330","489838","0.0-1.0-488.0","0","0","27128","","null","","","null","54","","","","","","","","","","","","","","","",""
"","ISI","","html-keyboard-response","331","491840","0.0-1.0-489.0","0","0","27128","","253","","","75","54","k","","","","","","","","","","","","","","",""
"","S2","","html-keyboard-response","332","492093","0.0-1.0-490.0","0","0","27128","","null","","","null","54","","NaN","","","","","","","","","","","","","",""
"","response","","html-keyboard-response","333","492480","0.0-1.0-491.0-0.0","0","0","27128","","385","","","68","54","","","2","54","training","adjacent","CB","3","2","N.jpg","O.jpg","1","0","0","",""
"","feedback","","html-keyboard-response","334","493484","0.0-1.0-492.0-0.0","0","0","27128","","null","","","null","54","","","","","","","","","","","","","","","",""
"","time_out","","html-keyboard-response","335","495487","0.0-1.0-494.0-0.0","0","0","27128","","null","","","null","54","","","","","","","","","","","","","","","",""
"","ITI","","html-keyboard-response","336","496491","0.0-1.0-495.0","0","0","27128","","283","","","68","54","","","","","","","","","","","","","","","d",""
"","S1","","html-keyboard-response","337","496746","0.0-1.0-497.0","0","0","27128","","null","","","null","55","","","","","","","","","","","","","","","",""
"","ISI","","html-keyboard-response","338","498749","0.0-1.0-498.0","0","0","27128","","765","","","75","55","k","","","","","","","","","","","","","","",""
"","S2","","html-keyboard-response","339","499005","0.0-1.0-499.0","0","0","27128","","null","","","null","55","","NaN","","","","","","","","","","","","","",""
"","response","","html-keyboard-response","340","499063","0.0-1.0-500.0-0.0","0","0","27128","","55","","","75","55","","","2","55","training","adjacent","ED","5","4","M.jpg","P.jpg","0","0","1","",""
"","feedback","","html-keyboard-response","341","500067","0.0-1.0-501.0-0.0","0","0","27128","","null","","","null","55","","","","","","","","","","","","","","","",""
"","ITI","","html-keyboard-response","342","501070","0.0-1.0-504.0","0","0","27128","","213","","","68","55","","","","","","","","","","","","","","","d",""
"","S1","","html-keyboard-response","343","501329","0.0-1.0-506.0","0","0","27128","","null","","","null","56","","","","","","","","","","","","","","","",""
"","ISI","","html-keyboard-response","344","503332","0.0-1.0-507.0","0","0","27128","","30","","","68","56","d","","","","","","","","","","","","","","",""
"","S2","","html-keyboard-response","345","503433","0.0-1.0-508.0","0","0","27128","","98","","","75","56","","k","2","56","training","adjacent","EF","5","6","M.jpg","L.jpg","0","1","0","",""
"","feedback","","html-keyboard-response","346","504437","0.0-1.0-510.0-0.0","0","0","27128","","null","","","null","56","","","","","","","","","","","","","","","",""
"","time_out","","html-keyboard-response","347","506440","0.0-1.0-512.0-0.0","0","0","27128","","null","","","null","56","","","","","","","","","","","","","","","",""
"","ITI","","html-keyboard-response","348","507444","0.0-1.0-513.0","0","0","27128","","159","","","75","56","","","","","","","","","","","","","","","k",""
"","S1","","html-keyboard-response","349","507696","0.0-1.0-515.0","0","0","27128","","null","","","null","57","","","","","","","","","","","","","","","",""
"","ISI","","html-keyboard-response","350","509701","0.0-1.0-516.0","0","0","27128","","533","","","75","57","k","","","","","","","","","","","","","","",""
"","S2","","html-keyboard-response","351","509955","0.0-1.0-517.0","0","0","27128","","null","","","null","57","","NaN","","","","","","","","","","","","","",""
"","response","","html-keyboard-response","352","510413","0.0-1.0-518.0-0.0","0","0","27128","","455","","","75","57","","","2","57","training","adjacent","EF","5","6","M.jpg","L.jpg","0","1","0","",""
"","feedback","","html-keyboard-response","353","511417","0.0-1.0-519.0-0.0","0","0","27128","","null","","","null","57","","","","","","","","","","","","","","","",""
"","time_out","","html-keyboard-response","354","513422","0.0-1.0-521.0-0.0","0","0","27128","","null","","","null","57","","","","","","","","","","","","","","","",""
"","ITI","","html-keyboard-response","355","514424","0.0-1.0-522.0","0","0","27128","","358","","","75","57","","","","","","","","","","","","","","","k",""
"","S1","","html-keyboard-response","356","514678","0.0-1.0-524.0","0","0","27128","","null","","","null","58","","","","","","","","","","","","","","","",""
"","ISI","","html-keyboard-response","357","516681","0.0-1.0-525.0","0","0","27128","","124","","","75","58","k","","","","","","","","","","","","","","",""
"","S2","","html-keyboard-response","358","516935","0.0-1.0-526.0","0","0","27128","","null","","","null","58","","NaN","","","","","","","","","","","","","",""
"","response","","html-keyboard-response","359","517052","0.0-1.0-527.0-0.0","0","0","27128","","114","","","75","58","","","2","58","training","adjacent","CB","3","2","N.jpg","O.jpg","0","0","1","",""
"","feedback","","html-keyboard-response","360","518056","0.0-1.0-528.0-0.0","0","0","27128","","null","","","null","58","","","","","","","","","","","","","","","",""
"","ITI","","html-keyboard-response","361","519060","0.0-1.0-531.0","0","0","27128","","133","","","75","58","","","","","","","","","","","","","","","k",""
"","S1","","html-keyboard-response","362","519314","0.0-1.0-533.0","0","0","27128","","null","","","null","59","","","","","","","","","","","","","","","",""
"","ISI","","html-keyboard-response","363","521317","0.0-1.0-534.0","0","0","27128","","395","","","68","59","d","","","","","","","","","","","","","","",""
"","S2","","html-keyboard-response","364","521571","0.0-1.0-535.0","0","0","27128","","null","","","null","59","","NaN","","","","","","","","","","","","","",""
"","response","","html-keyboard-response","365","521712","0.0-1.0-536.0-0.0","0","0","27128","","138","","","68","59","","","2","59","training","adjacent","DC","4","3","P.jpg","N.jpg","1","0","0","",""
"","feedback","","html-keyboard-response","366","522716","0.0-1.0-537.0-0.0","0","0","27128","","null","","","null","59","","","","","","","","","","","","","","","",""
"","time_out","","html-keyboard-response","367","524719","0.0-1.0-539.0-0.0","0","0","27128","","null","","","null","59","","","","","","","","","","","","","","","",""
"","ITI","","html-keyboard-response","368","525722","0.0-1.0-540.0","0","0","27128","","371","","","68","59","","","","","","","","","","","","","","","d",""
"","S1","","html-keyboard-response","369","525994","0.0-1.0-542.0","0","0","27128","","null","","","null","60","","","","","","","","","","","","","","","",""
"","ISI","","html-keyboard-response","370","527997","0.0-1.0-543.0","0","0","27128","","95","","","75","60","k","","","","","","","","","","","","","","",""
"","S2","","html-keyboard-response","371","528232","0.0-1.0-544.0","0","0","27128","","232","","","68","60","","d","2","60","training","adjacent","DE","4","5","P.jpg","M.jpg","1","1","1","",""
"","feedback","","html-keyboard-response","372","529236","0.0-1.0-546.0-0.0","0","0","27128","","null","","","null","60","","","","","","","","","","","","","","","",""
"","ITI","","html-keyboard-response","373","530240","0.0-1.0-549.0","0","0","27128","","183","","","75","60","","","","","","","","","","","","","","","k",""
"","S1","","html-keyboard-response","374","530493","0.0-1.0-551.0","0","0","27128","","null","","","null","61","","","","","","","","","","","","","","","",""
"","ISI","","html-keyboard-response","375","532496","0.0-1.0-552.0","0","0","27128","","136","","","68","61","d","","","","","","","","","","","","","","",""
"","S2","","html-keyboard-response","376","532632","0.0-1.0-553.0","0","0","27128","","133","","","75","61","","k","2","61","training","adjacent","BA","2","1","O.jpg","Q.jpg","0","0","1","",""
"","feedback","","html-keyboard-response","377","533637","0.0-1.0-555.0-0.0","0","0","27128","","null","","","null","61","","","","","","","","","","","","","","","",""
"","ITI","","html-keyboard-response","378","534640","0.0-1.0-558.0","0","0","27128","","13","","","68","61","","","","","","","","","","","","","","","d",""
"","S1","","html-keyboard-response","379","534894","0.0-1.0-560.0","0","0","27128","","null","","","null","62","","","","","","","","","","","","","","","",""
"","ISI","","html-keyboard-response","380","536897","0.0-1.0-561.0","0","0","27128","","1125","","","75","62","k","","","","","","","","","","","","","","",""
"","S2","","html-keyboard-response","381","537120","0.0-1.0-562.0","0","0","27128","","220","","","75","62","","k","2","62","training","adjacent","DC","4","3","P.jpg","N.jpg","0","0","1","",""
"","feedback","","html-keyboard-response","382","538123","0.0-1.0-564.0-0.0","0","0","27128","","null","","","null","62","","","","","","","","","","","","","","","",""
"","ITI","","html-keyboard-response","383","539126","0.0-1.0-567.0","0","0","27128","","516","","","68","62","","","","","","","","","","","","","","","d",""
"","S1","","html-keyboard-response","384","539379","0.0-1.0-569.0","0","0","27128","","null","","","null","63","","","","","","","","","","","","","","","",""
"","ISI","","html-keyboard-response","385","541383","0.0-1.0-570.0","0","0","27128","","230","","","75","63","k","","","","","","","","","","","","","","",""
"","S2","","html-keyboard-response","386","541442","0.0-1.0-571.0","0","0","27128","","56","","","75","63","","k","2","63","training","adjacent","AB","1","2","Q.jpg","O.jpg","0","1","0","",""
"","feedback","","html-keyboard-response","387","542447","0.0-1.0-573.0-0.0","0","0","27128","","null","","","null","63","","","","","","","","","","","","","","","",""
"","time_out","","html-keyboard-response","388","544451","0.0-1.0-575.0-0.0","0","0","27128","","null","","","null","63","","","","","","","","","","","","","","","",""
"","ITI","","html-keyboard-response","389","545454","0.0-1.0-576.0","0","0","27128","","189","","","75","63","","","","","","","","","","","","","","","k",""
"","S1","","html-keyboard-response","390","545708","0.0-1.0-578.0","0","0","27128","","null","","","null","64","","","","","","","","","","","","","","","",""
"","ISI","","html-keyboard-response","391","547711","0.0-1.0-579.0","0","0","27128","","412","","","75","64","k","","","","","","","","","","","","","","",""
"","S2","","html-keyboard-response","392","547964","0.0-1.0-580.0","0","0","27128","","null","","","null","64","","NaN","","","","","","","","","","","","","",""
"","response","","html-keyboard-response","393","548022","0.0-1.0-581.0-0.0","0","0","27128","","55","","","75","64","","","2","64","training","adjacent","CB","3","2","N.jpg","O.jpg","0","0","1","",""
"","feedback","","html-keyboard-response","394","549027","0.0-1.0-582.0-0.0","0","0","27128","","null","","","null","64","","","","","","","","","","","","","","","",""
"","ITI","","html-keyboard-response","395","550031","0.0-1.0-585.0","0","0","27128","","352","","","68","64","","","","","","","","","","","","","","","d",""
"","S1","","html-keyboard-response","396","550285","0.0-1.0-587.0","0","0","27128","","null","","","null","65","","","","","","","","","","","","","","","",""
"","ISI","","html-keyboard-response","397","552289","0.0-1.0-588.0","0","0","27128","","120","","","75","65","k","","","","","","","","","","","","","","",""
"","S2","","html-keyboard-response","398","552512","0.0-1.0-589.0","0","0","27128","","220","","","68","65","","d","2","65","training","adjacent","DE","4","5","P.jpg","M.jpg","1","1","1","",""
"","feedback","","html-keyboard-response","399","553516","0.0-1.0-591.0-0.0","0","0","27128","","null","","","null","65","","","","","","","","","","","","","","","",""
"","ITI","","html-keyboard-response","400","554519","0.0-1.0-594.0","0","0","27128","","257","","","75","65","","","","","","","","","","","","","","","k",""
"","S1","","html-keyboard-response","401","554772","0.0-1.0-596.0","0","0","27128","","null","","","null","66","","","","","","","","","","","","","","","",""
"","ISI","","html-keyboard-response","402","556775","0.0-1.0-597.0","0","0","27128","","117","","","75","66","k","","","","","","","","","","","","","","",""
"","S2","","html-keyboard-response","403","556792","0.0-1.0-598.0","0","0","27128","","14","","","75","66","","k","2","66","training","adjacent","DC","4","3","P.jpg","N.jpg","0","0","1","",""
"","feedback","","html-keyboard-response","404","557796","0.0-1.0-600.0-0.0","0","0","27128","","null","","","null","66","","","","","","","","","","","","","","","",""
"","ITI","","html-keyboard-response","405","558799","0.0-1.0-603.0","0","0","27128","","163","","","75","66","","","","","","","","","","","","","","","k",""
"","S1","","html-keyboard-response","406","559053","0.0-1.0-605.0","0","0","27128","","null","","","null","67","","","","","","","","","","","","","","","",""
"","ISI","","html-keyboard-response","407","561057","0.0-1.0-606.0","0","0","27128","","296","","","75","67","k","","","","","","","","","","","","","","",""
"","S2","","html-keyboard-response","408","561090","0.0-1.0-607.0","0","0","27128","","30","","","75","67","","k","2","67","training","adjacent","ED","5","4","M.jpg","P.jpg","0","0","1","",""
"","feedback","","html-keyboard-response","409","562095","0.0-1.0-609.0-0.0","0","0","27128","","null","","","null","67","","","","","","","","","","","","","","","",""
"","ITI","","html-keyboard-response","410","563098","0.0-1.0-612.0","0","0","27128","","304","","","75","67","","","","","","","","","","","","","","","k",""
"","S1","","html-keyboard-response","411","563352","0.0-1.0-614.0","0","0","27128","","null","","","null","68","","","","","","","","","","","","","","","",""
"","ISI","","html-keyboard-response","412","565356","0.0-1.0-615.0","0","0","27128","","115","","","75","68","k","","","","","","","","","","","","","","",""
"","S2","","html-keyboard-response","413","565523","0.0-1.0-616.0","0","0","27128","","164","","","75","68","","k","2","68","training","adjacent","GF","7","6","R.jpg","L.jpg","0","0","1","",""
"","feedback","","html-keyboard-response","414","566527","0.0-1.0-618.0-0.0","0","0","27128","","null","","","null","68","","","","","","","","","","","","","","","",""
"","ITI","","html-keyboard-response","415","567530","0.0-1.0-621.0","0","0","27128","","3","","","75","68","","","","","","","","","","","","","","","k",""
"","S1","","html-keyboard-response","416","567785","0.0-1.0-623.0","0","0","27128","","null","","","null","69","","","","","","","","","","","","","","","",""
"","ISI","","html-keyboard-response","417","569788","0.0-1.0-624.0","0","0","27128","","15","","","75","69","k","","","","","","","","","","","","","","",""
"","S2","","html-keyboard-response","418","569953","0.0-1.0-625.0","0","0","27128","","162","","","75","69","","k","2","69","training","adjacent","BC","2","3","O.jpg","N.jpg","0","1","0","",""
"","feedback","","html-keyboard-response","419","570956","0.0-1.0-627.0-0.0","0","0","27128","","null","","","null","69","","","","","","","","","","","","","","","",""
"","time_out","","html-keyboard-response","420","572961","0.0-1.0-629.0-0.0","0","0","27128","","null","","","null","69","","","","","","","","","","","","","","","",""
"","ITI","","html-keyboard-response","421","574011","0.0-1.0-630.0","0","0","27128","","39","","","75","69","","","","","","","","","","","","","","","k",""
"","S1","","html-keyboard-response","422","574265","0.0-1.0-632.0","0","0","27128","","null","","","null","70","","","","","","","","","","","","","","","",""
"","ISI","","html-keyboard-response","423","576268","0.0-1.0-633.0","0","0","27128","","255","","","68","70","d","","","","","","","","","","","","","","",""
"","S2","","html-keyboard-response","424","576472","0.0-1.0-634.0","0","0","27128","","201","","","75","70","","k","2","70","training","adjacent","BC","2","3","O.jpg","N.jpg","0","1","0","",""
"","feedback","","html-keyboard-response","425","577475","0.0-1.0-636.0-0.0","0","0","27128","","null","","","null","70","","","","","","","","","","","","","","","",""
"","time_out","","html-keyboard-response","426","579485","0.0-1.0-638.0-0.0","0","0","27128","","null","","","null","70","","","","","","","","","","","","","","","",""
"","ITI","","html-keyboard-response","427","580488","0.0-1.0-639.0","0","0","27128","","164","","","68","70","","","","","","","","","","","","","","","d",""
"","S1","","html-keyboard-response","428","580741","0.0-1.0-641.0","0","0","27128","","null","","","null","71","","","","","","","","","","","","","","","",""
"","ISI","","html-keyboard-response","429","582746","0.0-1.0-642.0","0","0","27128","","118","","","75","71","k","","","","","","","","","","","","","","",""
"","S2","","html-keyboard-response","430","582762","0.0-1.0-643.0","0","0","27128","","13","","","75","71","","k","2","71","training","adjacent","DE","4","5","P.jpg","M.jpg","0","1","0","",""
"","feedback","","html-keyboard-response","431","583765","0.0-1.0-645.0-0.0","0","0","27128","","null","","","null","71","","","","","","","","","","","","","","","",""
"","time_out","","html-keyboard-response","432","585768","0.0-1.0-647.0-0.0","0","0","27128","","null","","","null","71","","","","","","","","","","","","","","","",""
"","ITI","","html-keyboard-response","433","586772","0.0-1.0-648.0","0","0","27128","","281","","","75","71","","","","","","","","","","","","","","","k",""
"","S1","","html-keyboard-response","434","587027","0.0-1.0-650.0","0","0","27128","","null","","","null","72","","","","","","","","","","","","","","","",""
"","ISI","","html-keyboard-response","435","589030","0.0-1.0-651.0","0","0","27128","","53","","","75","72","k","","","","","","","","","","","","","","",""
"","S2","","html-keyboard-response","436","589222","0.0-1.0-652.0","0","0","27128","","190","","","75","72","","k","2","72","training","adjacent","FE","6","5","L.jpg","M.jpg","0","0","1","",""
"","feedback","","html-keyboard-response","437","590226","0.0-1.0-654.0-0.0","0","0","27128","","null","","","null","72","","","","","","","","","","","","","","","",""
"","ITI","","html-keyboard-response","438","591234","0.0-1.0-657.0","0","0","27128","","324","","","75","72","","","","","","","","","","","","","","","k",""
"","S1","","html-keyboard-response","439","591490","0.0-1.0-659.0","0","0","27128","","null","","","null","73","","","","","","","","","","","","","","","",""
"","ISI","","html-keyboard-response","440","593493","0.0-1.0-660.0","0","0","27128","","239","","","75","73","k","","","","","","","","","","","","","","",""
"","S2","","html-keyboard-response","441","593526","0.0-1.0-661.0","0","0","27128","","29","","","75","73","","k","2","73","training","adjacent","DC","4","3","P.jpg","N.jpg","0","0","1","",""
"","feedback","","html-keyboard-response","442","594530","0.0-1.0-663.0-0.0","0","0","27128","","null","","","null","73","","","","","","","","","","","","","","","",""
"","ITI","","html-keyboard-response","443","595536","0.0-1.0-666.0","0","0","27128","","70","","","75","73","","","","","","","","","","","","","","","k",""
"","S1","","html-keyboard-response","444","595789","0.0-1.0-668.0","0","0","27128","","null","","","null","74","","","","","","","","","","","","","","","",""
"","ISI","","html-keyboard-response","445","597793","0.0-1.0-669.0","0","0","27128","","581","","","75","74","k","","","","","","","","","","","","","","",""
"","S2","","html-keyboard-response","446","597912","0.0-1.0-670.0","0","0","27128","","116","","","68","74","","d","2","74","training","adjacent","ED","5","4","M.jpg","P.jpg","1","0","0","",""
"","feedback","","html-keyboard-response","447","598916","0.0-1.0-672.0-0.0","0","0","27128","","null","","","null","74","","","","","","","","","","","","","","","",""
"","time_out","","html-keyboard-response","448","600921","0.0-1.0-674.0-0.0","0","0","27128","","null","","","null","74","","","","","","","","","","","","","","","",""
"","ITI","","html-keyboard-response","449","601925","0.0-1.0-675.0","0","0","27128","","389","","","75","74","","","","","","","","","","","","","","","k",""
"","S1","","html-keyboard-response","450","602179","0.0-1.0-677.0","0","0","27128","","null","","","null","75","","","","","","","","","","","","","","","",""
"","ISI","","html-keyboard-response","451","604186","0.0-1.0-678.0","0","0","27128","","328","","","68","75","d","","","","","","","","","","","","","","",""
"","S2","","html-keyboard-response","452","604440","0.0-1.0-679.0","0","0","27128","","null","","","null","75","","NaN","","","","","","","","","","","","","",""
"","response","","html-keyboard-response","453","604612","0.0-1.0-680.0-0.0","0","0","27128","","170","","","68","75","","","2","75","training","adjacent","CD","3","4","N.jpg","P.jpg","1","1","1","",""
"","feedback","","html-keyboard-response","454","605617","0.0-1.0-681.0-0.0","0","0","27128","","null","","","null","75","","","","","","","","","","","","","","","",""
"","ITI","","html-keyboard-response","455","606621","0.0-1.0-684.0","0","0","27128","","58","","","68","75","","","","","","","","","","","","","","","d",""
"","S1","","html-keyboard-response","456","606874","0.0-1.0-686.0","0","0","27128","","null","","","null","76","","","","","","","","","","","","","","","",""
"","ISI","","html-keyboard-response","457","608877","0.0-1.0-687.0","0","0","27128","","5","","","75","76","k","","","","","","","","","","","","","","",""
"","S2","","html-keyboard-response","458","609001","0.0-1.0-688.0","0","0","27128","","121","","","75","76","","k","2","76","training","adjacent","BA","2","1","O.jpg","Q.jpg","0","0","1","",""
"","feedback","","html-keyboard-response","459","610004","0.0-1.0-690.0-0.0","0","0","27128","","null","","","null","76","","","","","","","","","","","","","","","",""
"","ITI","","html-keyboard-response","460","611022","0.0-1.0-693.0","0","0","27128","","6","","","68","76","","","","","","","","","","","","","","","d",""
"","S1","","html-keyboard-response","461","611276","0.0-1.0-695.0","0","0","27128","","null","","","null","77","","","","","","","","","","","","","","","",""
"","ISI","","html-keyboard-response","462","613279","0.0-1.0-696.0","0","0","27128","","24","","","68","77","d","","","","","","","","","","","","","","",""
"","S2","","html-keyboard-response","463","613533","0.0-1.0-697.0","0","0","27128","","null","","","null","77","","NaN","","","","","","","","","","","","","",""
"","response","","html-keyboard-response","464","613632","0.0-1.0-698.0-0.0","0","0","27128","","97","","","75","77","","","2","77","training","adjacent","FG","6","7","L.jpg","R.jpg","0","1","0","",""
"","feedback","","html-keyboard-response","465","614636","0.0-1.0-699.0-0.0","0","0","27128","","null","","","null","77","","","","","","","","","","","","","","","",""
"","time_out","","html-keyboard-response","466","616640","0.0-1.0-701.0-0.0","0","0","27128","","null","","","null","77","","","","","","","","","","","","","","","",""
"","ITI","","html-keyboard-response","467","617643","0.0-1.0-702.0","0","0","27128","","181","","","75","77","","","","","","","","","","","","","","","k",""
"","S1","","html-keyboard-response","468","617896","0.0-1.0-704.0","0","0","27128","","null","","","null","78","","","","","","","","","","","","","","","",""
"","ISI","","html-keyboard-response","469","619899","0.0-1.0-705.0","0","0","27128","","89","","","75","78","k","","","","","","","","","","","","","","",""
"","S2","","html-keyboard-response","470","619992","0.0-1.0-706.0","0","0","27128","","91","","","75","78","","k","2","78","training","adjacent","BA","2","1","O.jpg","Q.jpg","0","0","1","",""
"","feedback","","html-keyboard-response","471","620997","0.0-1.0-708.0-0.0","0","0","27128","","null","","","null","78","","","","","","","","","","","","","","","",""
"","ITI","","html-keyboard-response","472","622001","0.0-1.0-711.0","0","0","27128","","44","","","75","78","","","","","","","","","","","","","","","k",""
"","S1","","html-keyboard-response","473","622254","0.0-1.0-713.0","0","0","27128","","null","","","null","79","","","","","","","","","","","","","","","",""
"","ISI","","html-keyboard-response","474","624257","0.0-1.0-714.0","0","0","27128","","96","","","75","79","k","","","","","","","","","","","","","","",""
"","S2","","html-keyboard-response","475","624511","0.0-1.0-715.0","0","0","27128","","null","","","null","79","","NaN","","","","","","","","","","","","","",""
"","response","","html-keyboard-response","476","624743","0.0-1.0-716.0-0.0","0","0","27128","","230","","","75","79","","","2","79","training","adjacent","FE","6","5","L.jpg","M.jpg","0","0","1","",""
"","feedback","","html-keyboard-response","477","625747","0.0-1.0-717.0-0.0","0","0","27128","","null","","","null","79","","","","","","","","","","","","","","","",""
"","ITI","","html-keyboard-response","478","626751","0.0-1.0-720.0","0","0","27128","","304","","","75","79","","","","","","","","","","","","","","","k",""
"","S1","","html-keyboard-response","479","627005","0.0-1.0-722.0","0","0","27128","","null","","","null","80","","","","","","","","","","","","","","","",""
"","ISI","","html-keyboard-response","480","629009","0.0-1.0-723.0","0","0","27128","","155","","","75","80","k","","","","","","","","","","","","","","",""
"","S2","","html-keyboard-response","481","629263","0.0-1.0-724.0","0","0","27128","","null","","","null","80","","NaN","","","","","","","","","","","","","",""
"","response","","html-keyboard-response","482","629512","0.0-1.0-725.0-0.0","0","0","27128","","247","","","75","80","","","2","80","training","adjacent","CD","3","4","N.jpg","P.jpg","0","1","0","",""
"","feedback","","html-keyboard-response","483","630516","0.0-1.0-726.0-0.0","0","0","27128","","null","","","null","80","","","","","","","","","","","","","","","",""
"","time_out","","html-keyboard-response","484","632521","0.0-1.0-728.0-0.0","0","0","27128","","null","","","null","80","","","","","","","","","","","","","","","",""
"","ITI","","html-keyboard-response","485","633525","0.0-1.0-729.0","0","0","27128","","167","","","75","80","","","","","","","","","","","","","","","k",""
"","S1","","html-keyboard-response","486","633779","0.0-1.0-731.0","0","0","27128","","null","","","null","81","","","","","","","","","","","","","","","",""
"","ISI","","html-keyboard-response","487","635782","0.0-1.0-732.0","0","0","27128","","420","","","75","81","k","","","","","","","","","","","","","","",""
"","S2","","html-keyboard-response","488","636036","0.0-1.0-733.0","0","0","27128","","null","","","null","81","","NaN","","","","","","","","","","","","","",""
"","response","","html-keyboard-response","489","636436","0.0-1.0-734.0-0.0","0","0","27128","","397","","","75","81","","","2","81","training","adjacent","AB","1","2","Q.jpg","O.jpg","0","1","0","",""
"","feedback","","html-keyboard-response","490","637439","0.0-1.0-735.0-0.0","0","0","27128","","null","","","null","81","","","","","","","","","","","","","","","",""
"","time_out","","html-keyboard-response","491","639459","0.0-1.0-737.0-0.0","0","0","27128","","null","","","null","81","","","","","","","","","","","","","","","",""
"","ITI","","html-keyboard-response","492","640463","0.0-1.0-738.0","0","0","27128","","51","","","75","81","","","","","","","","","","","","","","","k",""
"","S1","","html-keyboard-response","493","640717","0.0-1.0-740.0","0","0","27128","","null","","","null","82","","","","","","","","","","","","","","","",""
"","ISI","","html-keyboard-response","494","642720","0.0-1.0-741.0","0","0","27128","","34","","","68","82","d","","","","","","","","","","","","","","",""
"","S2","","html-keyboard-response","495","642731","0.0-1.0-742.0","0","0","27128","","9","","","75","82","","k","2","82","training","adjacent","GF","7","6","R.jpg","L.jpg","0","0","1","",""
"","feedback","","html-keyboard-response","496","643736","0.0-1.0-744.0-0.0","0","0","27128","","null","","","null","82","","","","","","","","","","","","","","","",""
"","ITI","","html-keyboard-response","497","644740","0.0-1.0-747.0","0","0","27128","","13","","","75","82","","","","","","","","","","","","","","","k",""
"","S1","","html-keyboard-response","498","644995","0.0-1.0-749.0","0","0","27128","","null","","","null","83","","","","","","","","","","","","","","","",""
"","ISI","","html-keyboard-response","499","646998","0.0-1.0-750.0","0","0","27128","","293","","","75","83","k","","","","","","","","","","","","","","",""
"","S2","","html-keyboard-response","500","647251","0.0-1.0-751.0","0","0","27128","","null","","","null","83","","NaN","","","","","","","","","","","","","",""
"","response","","html-keyboard-response","501","647343","0.0-1.0-752.0-0.0","0","0","27128","","89","","","75","83","","","2","83","training","adjacent","GF","7","6","R.jpg","L.jpg","0","0","1","",""
"","feedback","","html-keyboard-response","502","648347","0.0-1.0-753.0-0.0","0","0","27128","","null","","","null","83","","","","","","","","","","","","","","","",""
"","ITI","","html-keyboard-response","503","649350","0.0-1.0-756.0","0","0","27128","","322","","","75","83","","","","","","","","","","","","","","","k",""
"","S1","","html-keyboard-response","504","649604","0.0-1.0-758.0","0","0","27128","","null","","","null","84","","","","","","","","","","","","","","","",""
"","ISI","","html-keyboard-response","505","651608","0.0-1.0-759.0","0","0","27128","","37","","","75","84","k","","","","","","","","","","","","","","",""
"","S2","","html-keyboard-response","506","651623","0.0-1.0-760.0","0","0","27128","","12","","","68","84","","d","2","84","training","adjacent","FG","6","7","L.jpg","R.jpg","1","1","1","",""
"","feedback","","html-keyboard-response","507","652630","0.0-1.0-762.0-0.0","0","0","27128","","null","","","null","84","","","","","","","","","","","","","","","",""
"","ITI","","html-keyboard-response","508","653634","0.0-1.0-765.0","0","0","27128","","329","","","68","84","","","","","","","","","","","","","","","d",""
"","S1","","html-keyboard-response","509","653888","0.0-1.0-767.0","0","0","27128","","null","","","null","85","","","","","","","","","","","","","","","",""
"","ISI","","html-keyboard-response","510","655897","0.0-1.0-768.0","0","0","27128","","421","","","68","85","d","","","","","","","","","","","","","","",""
"","S2","","html-keyboard-response","511","655952","0.0-1.0-769.0","0","0","27128","","52","","","68","85","","d","2","85","training","adjacent","CB","3","2","N.jpg","O.jpg","1","0","0","",""
"","feedback","","html-keyboard-response","512","656956","0.0-1.0-771.0-0.0","0","0","27128","","null","","","null","85","","","","","","","","","","","","","","","",""
"","time_out","","html-keyboard-response","513","658960","0.0-1.0-773.0-0.0","0","0","27128","","null","","","null","85","","","","","","","","","","","","","","","",""
"","ITI","","html-keyboard-response","514","659964","0.0-1.0-774.0","0","0","27128","","350","","","75","85","","","","","","","","","","","","","","","k",""
"","S1","","html-keyboard-response","515","660217","0.0-1.0-776.0","0","0","27128","","null","","","null","86","","","","","","","","","","","","","","","",""
"","ISI","","html-keyboard-response","516","662221","0.0-1.0-777.0","0","0","27128","","186","","","75","86","k","","","","","","","","","","","","","","",""
"","S2","","html-keyboard-response","517","662252","0.0-1.0-778.0","0","0","27128","","29","","","75","86","","k","2","86","training","adjacent","FE","6","5","L.jpg","M.jpg","0","0","1","",""
"","feedback","","html-keyboard-response","518","663257","0.0-1.0-780.0-0.0","0","0","27128","","null","","","null","86","","","","","","","","","","","","","","","",""
"","ITI","","html-keyboard-response","519","664262","0.0-1.0-783.0","0","0","27128","","291","","","68","86","","","","","","","","","","","","","","","d",""
"","S1","","html-keyboard-response","520","664516","0.0-1.0-785.0","0","0","27128","","null","","","null","87","","","","","","","","","","","","","","","",""
"","ISI","","html-keyboard-response","521","666520","0.0-1.0-786.0","0","0","27128","","184","","","68","87","d","","","","","","","","","","","","","","",""
"","S2","","html-keyboard-response","522","666645","0.0-1.0-787.0","0","0","27128","","122","","","68","87","","d","2","87","training","adjacent","FE","6","5","L.jpg","M.jpg","1","0","0","",""
"","feedback","","html-keyboard-response","523","667650","0.0-1.0-789.0-0.0","0","0","27128","","null","","","null","87","","","","","","","","","","","","","","","",""
"","time_out","","html-keyboard-response","524","669654","0.0-1.0-791.0-0.0","0","0","27128","","null","","","null","87","","","","","","","","","","","","","","","",""
"","ITI","","html-keyboard-response","525","670657","0.0-1.0-792.0","0","0","27128","","536","","","75","87","","","","","","","","","","","","","","","k",""
"","S1","","html-keyboard-response","526","670918","0.0-1.0-794.0","0","0","27128","","null","","","null","88","","","","","","","","","","","","","","","",""
"","ISI","","html-keyboard-response","527","672920","0.0-1.0-795.0","0","0","27128","","91","","","75","88","k","","","","","","","","","","","","","","",""
"","S2","","html-keyboard-response","528","673032","0.0-1.0-796.0","0","0","27128","","108","","","68","88","","d","2","88","training","adjacent","AB","1","2","Q.jpg","O.jpg","1","1","1","",""
"","feedback","","html-keyboard-response","529","674038","0.0-1.0-798.0-0.0","0","0","27128","","null","","","null","88","","","","","","","","","","","","","","","",""
"","ITI","","html-keyboard-response","530","675042","0.0-1.0-801.0","0","0","27128","","231","","","75","88","","","","","","","","","","","","","","","k",""
"","S1","","html-keyboard-response","531","675298","0.0-1.0-803.0","0","0","27128","","null","","","null","89","","","","","","","","","","","","","","","",""
"","ISI","","html-keyboard-response","532","677302","0.0-1.0-804.0","0","0","27128","","272","","","75","89","k","","","","","","","","","","","","","","",""
"","S2","","html-keyboard-response","533","677382","0.0-1.0-805.0","0","0","27128","","78","","","75","89","","k","2","89","training","adjacent","DE","4","5","P.jpg","M.jpg","0","1","0","",""
"","feedback","","html-keyboard-response","534","678385","0.0-1.0-807.0-0.0","0","0","27128","","null","","","null","89","","","","","","","","","","","","","","","",""
"","time_out","","html-keyboard-response","535","680389","0.0-1.0-809.0-0.0","0","0","27128","","null","","","null","89","","","","","","","","","","","","","","","",""
"","ITI","","html-keyboard-response","536","681392","0.0-1.0-810.0","0","0","27128","","301","","","75","89","","","","","","","","","","","","","","","k",""
"","S1","","html-keyboard-response","537","681646","0.0-1.0-812.0","0","0","27128","","null","","","null","90","","","","","","","","","","","","","","","",""
"","ISI","","html-keyboard-response","538","683651","0.0-1.0-813.0","0","0","27128","","84","","","75","90","k","","","","","","","","","","","","","","",""
"","S2","","html-keyboard-response","539","683880","0.0-1.0-814.0","0","0","27128","","226","","","75","90","","k","2","90","training","adjacent","CD","3","4","N.jpg","P.jpg","0","1","0","",""
"","feedback","","html-keyboard-response","540","684884","0.0-1.0-816.0-0.0","0","0","27128","","null","","","null","90","","","","","","","","","","","","","","","",""
"","time_out","","html-keyboard-response","541","686890","0.0-1.0-818.0-0.0","0","0","27128","","null","","","null","90","","","","","","","","","","","","","","","",""
"","ITI","","html-keyboard-response","542","687894","0.0-1.0-819.0","0","0","27128","","629","","","68","90","","","","","","","","","","","","","","","d",""
"","S1","","html-keyboard-response","543","688147","0.0-1.0-821.0","0","0","27128","","null","","","null","91","","","","","","","","","","","","","","","",""
"","ISI","","html-keyboard-response","544","690154","0.0-1.0-822.0","0","0","27128","","63","","","75","91","k","","","","","","","","","","","","","","",""
"","S2","","html-keyboard-response","545","690192","0.0-1.0-823.0","0","0","27128","","35","","","75","91","","k","2","91","training","adjacent","AB","1","2","Q.jpg","O.jpg","0","1","0","",""
"","feedback","","html-keyboard-response","546","691196","0.0-1.0-825.0-0.0","0","0","27128","","null","","","null","91","","","","","","","","","","","","","","","",""
"","time_out","","html-keyboard-response","547","693200","0.0-1.0-827.0-0.0","0","0","27128","","null","","","null","91","","","","","","","","","","","","","","","",""
"","ITI","","html-keyboard-response","548","694204","0.0-1.0-828.0","0","0","27128","","279","","","68","91","","","","","","","","","","","","","","","d",""
"","S1","","html-keyboard-response","549","694457","0.0-1.0-830.0","0","0","27128","","null","","","null","92","","","","","","","","","","","","","","","",""
"","ISI","","html-keyboard-response","550","696460","0.0-1.0-831.0","0","0","27128","","23","","","75","92","k","","","","","","","","","","","","","","",""
"","S2","","html-keyboard-response","551","696473","0.0-1.0-832.0","0","0","27128","","10","","","75","92","","k","2","92","training","adjacent","EF","5","6","M.jpg","L.jpg","0","1","0","",""
"","feedback","","html-keyboard-response","552","697476","0.0-1.0-834.0-0.0","0","0","27128","","null","","","null","92","","","","","","","","","","","","","","","",""
"","time_out","","html-keyboard-response","553","699480","0.0-1.0-836.0-0.0","0","0","27128","","null","","","null","92","","","","","","","","","","","","","","","",""
"","ITI","","html-keyboard-response","554","700483","0.0-1.0-837.0","0","0","27128","","160","","","75","92","","","","","","","","","","","","","","","k",""
"","S1","","html-keyboard-response","555","700738","0.0-1.0-839.0","0","0","27128","","null","","","null","93","","","","","","","","","","","","","","","",""
"","ISI","","html-keyboard-response","556","702741","0.0-1.0-840.0","0","0","27128","","147","","","75","93","k","","","","","","","","","","","","","","",""
"","S2","","html-keyboard-response","557","702994","0.0-1.0-841.0","0","0","27128","","null","","","null","93","","NaN","","","","","","","","","","","","","",""
"","response","","html-keyboard-response","558","703013","0.0-1.0-842.0-0.0","0","0","27128","","16","","","68","93","","","2","93","training","adjacent","FG","6","7","L.jpg","R.jpg","1","1","1","",""
"","feedback","","html-keyboard-response","559","704016","0.0-1.0-843.0-0.0","0","0","27128","","null","","","null","93","","","","","","","","","","","","","","","",""
"","ITI","","html-keyboard-response","560","705021","0.0-1.0-846.0","0","0","27128","","294","","","75","93","","","","","","","","","","","","","","","k",""
"","S1","","html-keyboard-response","561","705275","0.0-1.0-848.0","0","0","27128","","null","","","null","94","","","","","","","","","","","","","","","",""
"","ISI","","html-keyboard-response","562","707278","0.0-1.0-849.0","0","0","27128","","348","","","75","94","k","","","","","","","","","","","","","","",""
"","S2","","html-keyboard-response","563","707444","0.0-1.0-850.0","0","0","27128","","163","","","75","94","","k","2","94","training","adjacent","BA","2","1","O.jpg","Q.jpg","0","0","1","",""
"","feedback","","html-keyboard-response","564","708448","0.0-1.0-852.0-0.0","0","0","27128","","null","","","null","94","","","","","","","","","","","","","","","",""
"","ITI","","html-keyboard-response","565","709452","0.0-1.0-855.0","0","0","27128","","122","","","75","94","","","","","","","","","","","","","","","k",""
"","S1","","html-keyboard-response","566","709706","0.0-1.0-857.0","0","0","27128","","null","","","null","95","","","","","","","","","","","","","","","",""
"","ISI","","html-keyboard-response","567","711709","0.0-1.0-858.0","0","0","27128","","241","","","75","95","k","","","","","","","","","","","","","","",""
"","S2","","html-keyboard-response","568","711821","0.0-1.0-859.0","0","0","27128","","109","","","75","95","","k","2","95","training","adjacent","CD","3","4","N.jpg","P.jpg","0","1","0","",""
"","feedback","","html-keyboard-response","569","712826","0.0-1.0-861.0-0.0","0","0","27128","","null","","","null","95","","","","","","","","","","","","","","","",""
"","time_out","","html-keyboard-response","570","714829","0.0-1.0-863.0-0.0","0","0","27128","","null","","","null","95","","","","","","","","","","","","","","","",""
"","ITI","","html-keyboard-response","571","715834","0.0-1.0-864.0","0","0","27128","","11","","","75","95","","","","","","","","","","","","","","","k",""
"","block_over","","html-keyboard-response","572","723224","0.0-1.0-865.0-0.0","0","0","27128","","7386","","","32","95","","","","","","","","","","","","","","","",""
"","S1","","html-keyboard-response","573","723478","0.0-1.0-866.0","0","0","27128","","null","","","null","96","","","","","","","","","","","","","","","",""
"","ISI","","html-keyboard-response","574","725481","0.0-1.0-867.0","0","0","27128","","484","","","75","96","k","","","","","","","","","","","","","","",""
"","S2","","html-keyboard-response","575","725484","0.0-1.0-868.0","0","0","27128","","1","","","75","96","","k","3","96","training","adjacent","EF","5","6","M.jpg","L.jpg","0","1","0","",""
"","feedback","","html-keyboard-response","576","726487","0.0-1.0-870.0-0.0","0","0","27128","","null","","","null","96","","","","","","","","","","","","","","","",""
"","time_out","","html-keyboard-response","577","728492","0.0-1.0-872.0-0.0","0","0","27128","","null","","","null","96","","","","","","","","","","","","","","","",""
"","ITI","","html-keyboard-response","578","729495","0.0-1.0-873.0","0","0","27128","","190","","","68","96","","","","","","","","","","","","","","","d",""
"","S1","","html-keyboard-response","579","729750","0.0-1.0-875.0","0","0","27128","","null","","","null","97","","","","","","","","","","","","","","","",""
"","ISI","","html-keyboard-response","580","731753","0.0-1.0-876.0","0","0","27128","","481","","","68","97","d","","","","","","","","","","","","","","",""
"","S2","","html-keyboard-response","581","731904","0.0-1.0-877.0","0","0","27128","","148","","","68","97","","d","3","97","training","adjacent","EF","5","6","M.jpg","L.jpg","1","1","1","",""
"","feedback","","html-keyboard-response","582","732908","0.0-1.0-879.0-0.0","0","0","27128","","null","","","null","97","","","","","","","","","","","","","","","",""
"","ITI","","html-keyboard-response","583","733911","0.0-1.0-882.0","0","0","27128","","13","","","68","97","","","","","","","","","","","","","","","d",""
"","S1","","html-keyboard-response","584","734166","0.0-1.0-884.0","0","0","27128","","null","","","null","98","","","","","","","","","","","","","","","",""
"","ISI","","html-keyboard-response","585","736169","0.0-1.0-885.0","0","0","27128","","145","","","68","98","d","","","","","","","","","","","","","","",""
