"success","ttype","start_time","trial_type","trial_index","time_elapsed","internal_node_id","warning","missed_checkup","PID","view_history","rt","responses","repeat_instructions","key_press","index","keypress_isi","keypress_S2","block","trial_num","phase","group_type","pair_type","S1_stim","S2_stim","S1_img","S2_img","S1_chosen","S1_higher","accuracy","keypress_iti","total_bonus_tally"
"true","full_screen","d08012022hr1645","fullscreen","0","11254","0.0-0.0","0","0","81199","","","","","","","","","","","","","","","","","","","","","",""
"","instructions","","instructions","1","20107","0.0-1.0-0.0-0.0","0","0","81199","[{""page_index"":0,""viewing_time"":1680},{""page_index"":1,""viewing_time"":1064},{""page_index"":2,""viewing_time"":5120},{""page_index"":3,""viewing_time"":984}]","8849","","","","","","","","","","","","","","","","","","","",""
"","comprehension_check","","survey-multi-choice","2","35053","0.0-1.0-0.0-1.0","0","0","81199","","14935","{""Q0"":""True"",""Q1"":""D"",""Q2"":""When you see the prompt 'MAKE A CHOICE' after the second image was presented"",""Q3"":""Green mark"",""Q4"":""either D or K""}","1","","","","","","","","","","","","","","","","","",""
"","missed_instruction_checkup","","html-keyboard-response","3","36288","0.0-1.0-0.0-2.0-0.0","0","1","81199","","1224","","","32","","","","","","","","","","","","","","","","",""
"","instructions","","instructions","4","45082","0.0-1.0-0.1-0.1","0","0","81199","[{""page_index"":0,""viewing_time"":4518},{""page_index"":1,""viewing_time"":3496},{""page_index"":2,""viewing_time"":400},{""page_index"":3,""viewing_time"":376}]","8791","","","","","","","","","","","","","","","","","","","",""
"","comprehension_check","","survey-multi-choice","5","52563","0.0-1.0-0.1-1.1","0","0","81199","","7467","{""Q0"":""True"",""Q1"":""K"",""Q2"":""When you see the prompt 'MAKE A CHOICE' after the second image was presented"",""Q3"":""Green mark"",""Q4"":""either D or K""}","0","","","","","","","","","","","","","","","","","",""
"","start_exp","","html-keyboard-response","6","53953","0.0-1.0-1.0","0","0","81199","","1385","","","32","","","","","","","","","","","","","","","","",""
"","S1","","html-keyboard-response","7","54210","0.0-1.0-2.0","0","0","81199","","null","","","null","0","","","","","","","","","","","","","","","",""
"","ISI","","html-keyboard-response","8","56214","0.0-1.0-3.0","0","0","81199","","235","","","75","0","k","","","","","","","","","","","","","","",""
"","S2","","html-keyboard-response","9","56470","0.0-1.0-4.0","0","0","81199","","null","","","null","0","","NaN","","","","","","","","","","","","","",""
"","response","","html-keyboard-response","10","57227","0.0-1.0-5.0","0","0","81199","","752","","","75","0","","","1","0","training","adjacent","CB","3","2","R.jpg","P.jpg","1","0","0","",""
"","feedback","","html-keyboard-response","11","58232","0.0-1.0-6.0-0.0","0","0","81199","","null","","","null","0","","","","","","","","","","","","","","","",""
"","time_out","","html-keyboard-response","12","60237","0.0-1.0-8.0-0.0","0","0","81199","","null","","","null","0","","","","","","","","","","","","","","","",""
"","ITI","","html-keyboard-response","13","61243","0.0-1.0-9.0","0","0","81199","","861","","","32","0","","","","","","","","","","","","","","","space",""
"","S1","","html-keyboard-response","14","61498","0.0-1.0-11.0","0","0","81199","","null","","","null","1","","","","","","","","","","","","","","","",""
"","ISI","","html-keyboard-response","15","63503","0.0-1.0-12.0","0","0","81199","","null","","","null","1","NaN","","","","","","","","","","","","","","",""
"","S2","","html-keyboard-response","16","63758","0.0-1.0-13.0","0","0","81199","","null","","","null","1","","NaN","","","","","","","","","","","","","",""
"","response","","html-keyboard-response","17","64391","0.0-1.0-14.0","0","0","81199","","626","","","68","1","","","1","1","training","adjacent","GF","7","6","O.jpg","Q.jpg","0","0","1","",""
"","feedback","","html-keyboard-response","18","65396","0.0-1.0-15.0-0.0","0","0","81199","","null","","","null","1","","","","","","","","","","","","","","","",""
"","ITI","","html-keyboard-response","19","66401","0.0-1.0-18.0","0","0","81199","","null","","","null","1","","","","","","","","","","","","","","","NaN",""
"","S1","","html-keyboard-response","20","66655","0.0-1.0-20.0","0","0","81199","","null","","","null","2","","","","","","","","","","","","","","","",""
"","ISI","","html-keyboard-response","21","68660","0.0-1.0-21.0","0","0","81199","","null","","","null","2","NaN","","","","","","","","","","","","","","",""
"","S2","","html-keyboard-response","22","68919","0.0-1.0-22.0","0","0","81199","","null","","","null","2","","NaN","","","","","","","","","","","","","",""
"","response","","html-keyboard-response","23","69365","0.0-1.0-23.0","0","0","81199","","441","","","75","2","","","1","2","training","adjacent","GF","7","6","O.jpg","Q.jpg","1","0","0","",""
"","feedback","","html-keyboard-response","24","70372","0.0-1.0-24.0-0.0","0","0","81199","","null","","","null","2","","","","","","","","","","","","","","","",""
"","time_out","","html-keyboard-response","25","72377","0.0-1.0-26.0-0.0","0","0","81199","","null","","","null","2","","","","","","","","","","","","","","","",""
"","ITI","","html-keyboard-response","26","73382","0.0-1.0-27.0","0","0","81199","","984","","","32","2","","","","","","","","","","","","","","","space",""
"","S1","","html-keyboard-response","27","73637","0.0-1.0-29.0","0","0","81199","","null","","","null","3","","","","","","","","","","","","","","","",""
"","ISI","","html-keyboard-response","28","75642","0.0-1.0-30.0","0","0","81199","","null","","","null","3","NaN","","","","","","","","","","","","","","",""
"","S2","","html-keyboard-response","29","75896","0.0-1.0-31.0","0","0","81199","","null","","","null","3","","NaN","","","","","","","","","","","","","",""
"","response","","html-keyboard-response","30","76299","0.0-1.0-32.0","0","0","81199","","399","","","68","3","","","1","3","training","adjacent","ED","5","4","M.jpg","L.jpg","0","0","1","",""
"","feedback","","html-keyboard-response","31","77304","0.0-1.0-33.0-0.0","0","0","81199","","null","","","null","3","","","","","","","","","","","","","","","",""
"","ITI","","html-keyboard-response","32","78310","0.0-1.0-36.0","0","0","81199","","null","","","null","3","","","","","","","","","","","","","","","NaN",""
"","S1","","html-keyboard-response","33","78565","0.0-1.0-38.0","0","0","81199","","null","","","null","4","","","","","","","","","","","","","","","",""
"","ISI","","html-keyboard-response","34","80570","0.0-1.0-39.0","0","0","81199","","null","","","null","4","NaN","","","","","","","","","","","","","","",""
"","S2","","html-keyboard-response","35","80825","0.0-1.0-40.0","0","0","81199","","null","","","null","4","","NaN","","","","","","","","","","","","","",""
"","response","","html-keyboard-response","36","81199","0.0-1.0-41.0","0","0","81199","","369","","","68","4","","","1","4","training","adjacent","EF","5","6","M.jpg","Q.jpg","0","1","0","",""
"","feedback","","html-keyboard-response","37","82205","0.0-1.0-42.0-0.0","0","0","81199","","null","","","null","4","","","","","","","","","","","","","","","",""
"","time_out","","html-keyboard-response","38","84210","0.0-1.0-44.0-0.0","0","0","81199","","null","","","null","4","","","","","","","","","","","","","","","",""
"","ITI","","html-keyboard-response","39","85214","0.0-1.0-45.0","0","0","81199","","null","","","null","4","","","","","","","","","","","","","","","NaN",""
"","S1","","html-keyboard-response","40","85470","0.0-1.0-47.0","0","0","81199","","null","","","null","5","","","","","","","","","","","","","","","",""
"","ISI","","html-keyboard-response","41","87475","0.0-1.0-48.0","0","0","81199","","null","","","null","5","NaN","","","","","","","","","","","","","","",""
"","S2","","html-keyboard-response","42","87730","0.0-1.0-49.0","0","0","81199","","null","","","null","5","","NaN","","","","","","","","","","","","","",""
"","response","","html-keyboard-response","43","88032","0.0-1.0-50.0","0","0","81199","","297","","","75","5","","","1","5","training","adjacent","CB","3","2","R.jpg","P.jpg","1","0","0","",""
"","feedback","","html-keyboard-response","44","89037","0.0-1.0-51.0-0.0","0","0","81199","","null","","","null","5","","","","","","","","","","","","","","","",""
"","time_out","","html-keyboard-response","45","91040","0.0-1.0-53.0-0.0","0","0","81199","","null","","","null","5","","","","","","","","","","","","","","","",""
"","ITI","","html-keyboard-response","46","92047","0.0-1.0-54.0","0","0","81199","","308","","","32","5","","","","","","","","","","","","","","","space",""
"","S1","","html-keyboard-response","47","92303","0.0-1.0-56.0","0","0","81199","","null","","","null","6","","","","","","","","","","","","","","","",""
"","ISI","","html-keyboard-response","48","94307","0.0-1.0-57.0","0","0","81199","","null","","","null","6","NaN","","","","","","","","","","","","","","",""
"","S2","","html-keyboard-response","49","94562","0.0-1.0-58.0","0","0","81199","","null","","","null","6","","NaN","","","","","","","","","","","","","",""
"","response","","html-keyboard-response","50","94567","0.0-1.0-59.0","0","0","81199","","2","","","68","6","","","1","6","training","adjacent","FG","6","7","Q.jpg","O.jpg","0","1","0","",""
"","feedback","","html-keyboard-response","51","95571","0.0-1.0-60.0-0.0","0","0","81199","","null","","","null","6","","","","","","","","","","","","","","","",""
"","time_out","","html-keyboard-response","52","97579","0.0-1.0-62.0-0.0","0","0","81199","","null","","","null","6","","","","","","","","","","","","","","","",""
"","ITI","","html-keyboard-response","53","98583","0.0-1.0-63.0","0","0","81199","","null","","","null","6","","","","","","","","","","","","","","","NaN",""
"","S1","","html-keyboard-response","54","98840","0.0-1.0-65.0","0","0","81199","","null","","","null","7","","","","","","","","","","","","","","","",""
"","ISI","","html-keyboard-response","55","100845","0.0-1.0-66.0","0","0","81199","","null","","","null","7","NaN","","","","","","","","","","","","","","",""
"","S2","","html-keyboard-response","56","101099","0.0-1.0-67.0","0","0","81199","","null","","","null","7","","NaN","","","","","","","","","","","","","",""
"","response","","html-keyboard-response","57","101461","0.0-1.0-68.0","0","0","81199","","359","","","75","7","","","1","7","training","adjacent","FG","6","7","Q.jpg","O.jpg","1","1","1","",""
"","feedback","","html-keyboard-response","58","102466","0.0-1.0-69.0-0.0","0","0","81199","","null","","","null","7","","","","","","","","","","","","","","","",""
"","ITI","","html-keyboard-response","59","103470","0.0-1.0-72.0","0","0","81199","","null","","","null","7","","","","","","","","","","","","","","","NaN",""
"","S1","","html-keyboard-response","60","103724","0.0-1.0-74.0","0","0","81199","","null","","","null","8","","","","","","","","","","","","","","","",""
"","ISI","","html-keyboard-response","61","105728","0.0-1.0-75.0","0","0","81199","","null","","","null","8","NaN","","","","","","","","","","","","","","",""
"","S2","","html-keyboard-response","62","105982","0.0-1.0-76.0","0","0","81199","","null","","","null","8","","NaN","","","","","","","","","","","","","",""
"","response","","html-keyboard-response","63","106291","0.0-1.0-77.0","0","0","81199","","305","","","68","8","","","1","8","training","adjacent","FE","6","5","Q.jpg","M.jpg","0","0","1","",""
"","feedback","","html-keyboard-response","64","107295","0.0-1.0-78.0-0.0","0","0","81199","","null","","","null","8","","","","","","","","","","","","","","","",""
"","ITI","","html-keyboard-response","65","108300","0.0-1.0-81.0","0","0","81199","","null","","","null","8","","","","","","","","","","","","","","","NaN",""
"","S1","","html-keyboard-response","66","108555","0.0-1.0-83.0","0","0","81199","","null","","","null","9","","","","","","","","","","","","","","","",""
"","ISI","","html-keyboard-response","67","110566","0.0-1.0-84.0","0","0","81199","","null","","","null","9","NaN","","","","","","","","","","","","","","",""
"","S2","","html-keyboard-response","68","110826","0.0-1.0-85.0","0","0","81199","","null","","","null","9","","NaN","","","","","","","","","","","","","",""
"","response","","html-keyboard-response","69","111088","0.0-1.0-86.0","0","0","81199","","258","","","75","9","","","1","9","training","adjacent","BC","2","3","P.jpg","R.jpg","1","1","1","",""
"","feedback","","html-keyboard-response","70","112094","0.0-1.0-87.0-0.0","0","0","81199","","null","","","null","9","","","","","","","","","","","","","","","",""
"","ITI","","html-keyboard-response","71","113098","0.0-1.0-90.0","0","0","81199","","null","","","null","9","","","","","","","","","","","","","","","NaN",""
"","S1","","html-keyboard-response","72","113352","0.0-1.0-92.0","0","0","81199","","null","","","null","10","","","","","","","","","","","","","","","",""
"","ISI","","html-keyboard-response","73","115357","0.0-1.0-93.0","0","0","81199","","null","","","null","10","NaN","","","","","","","","","","","","","","",""
"","S2","","html-keyboard-response","74","115613","0.0-1.0-94.0","0","0","81199","","null","","","null","10","","NaN","","","","","","","","","","","","","",""
"","response","","html-keyboard-response","75","116006","0.0-1.0-95.0","0","0","81199","","389","","","68","10","","","1","10","training","adjacent","DC","4","3","L.jpg","R.jpg","0","0","1","",""
"","feedback","","html-keyboard-response","76","117011","0.0-1.0-96.0-0.0","0","0","81199","","null","","","null","10","","","","","","","","","","","","","","","",""
"","ITI","","html-keyboard-response","77","118015","0.0-1.0-99.0","0","0","81199","","null","","","null","10","","","","","","","","","","","","","","","NaN",""
"","S1","","html-keyboard-response","78","118269","0.0-1.0-101.0","0","0","81199","","null","","","null","11","","","","","","","","","","","","","","","",""
"","ISI","","html-keyboard-response","79","120273","0.0-1.0-102.0","0","0","81199","","null","","","null","11","NaN","","","","","","","","","","","","","","",""
"","S2","","html-keyboard-response","80","120526","0.0-1.0-103.0","0","0","81199","","null","","","null","11","","NaN","","","","","","","","","","","","","",""
"","response","","html-keyboard-response","81","120822","0.0-1.0-104.0","0","0","81199","","292","","","75","11","","","1","11","training","adjacent","AB","1","2","N.jpg","P.jpg","1","1","1","",""
"","feedback","","html-keyboard-response","82","121826","0.0-1.0-105.0-0.0","0","0","81199","","null","","","null","11","","","","","","","","","","","","","","","",""
"","ITI","","html-keyboard-response","83","122830","0.0-1.0-108.0","0","0","81199","","null","","","null","11","","","","","","","","","","","","","","","NaN",""
"","S1","","html-keyboard-response","84","123086","0.0-1.0-110.0","0","0","81199","","null","","","null","12","","","","","","","","","","","","","","","",""
"","ISI","","html-keyboard-response","85","125090","0.0-1.0-111.0","0","0","81199","","null","","","null","12","NaN","","","","","","","","","","","","","","",""
"","S2","","html-keyboard-response","86","125345","0.0-1.0-112.0","0","0","81199","","null","","","null","12","","NaN","","","","","","","","","","","","","",""
"","response","","html-keyboard-response","87","125687","0.0-1.0-113.0","0","0","81199","","340","","","68","12","","","1","12","training","adjacent","CB","3","2","R.jpg","P.jpg","0","0","1","",""
"","feedback","","html-keyboard-response","88","126691","0.0-1.0-114.0-0.0","0","0","81199","","null","","","null","12","","","","","","","","","","","","","","","",""
"","ITI","","html-keyboard-response","89","127695","0.0-1.0-117.0","0","0","81199","","null","","","null","12","","","","","","","","","","","","","","","NaN",""
"","S1","","html-keyboard-response","90","127948","0.0-1.0-119.0","0","0","81199","","null","","","null","13","","","","","","","","","","","","","","","",""
"","ISI","","html-keyboard-response","91","129954","0.0-1.0-120.0","0","0","81199","","null","","","null","13","NaN","","","","","","","","","","","","","","",""
"","S2","","html-keyboard-response","92","130210","0.0-1.0-121.0","0","0","81199","","null","","","null","13","","NaN","","","","","","","","","","","","","",""
"","response","","html-keyboard-response","93","130602","0.0-1.0-122.0","0","0","81199","","387","","","68","13","","","1","13","training","adjacent","DE","4","5","L.jpg","M.jpg","0","1","0","",""
"","feedback","","html-keyboard-response","94","131606","0.0-1.0-123.0-0.0","0","0","81199","","null","","","null","13","","","","","","","","","","","","","","","",""
"","time_out","","html-keyboard-response","95","133610","0.0-1.0-125.0-0.0","0","0","81199","","null","","","null","13","","","","","","","","","","","","","","","",""
"","ITI","","html-keyboard-response","96","134614","0.0-1.0-126.0","0","0","81199","","null","","","null","13","","","","","","","","","","","","","","","NaN",""
"","S1","","html-keyboard-response","97","134869","0.0-1.0-128.0","0","0","81199","","null","","","null","14","","","","","","","","","","","","","","","",""
"","ISI","","html-keyboard-response","98","136874","0.0-1.0-129.0","0","0","81199","","null","","","null","14","NaN","","","","","","","","","","","","","","",""
"","S2","","html-keyboard-response","99","137127","0.0-1.0-130.0","0","0","81199","","null","","","null","14","","NaN","","","","","","","","","","","","","",""
"","response","","html-keyboard-response","100","137150","0.0-1.0-131.0","0","0","81199","","19","","","75","14","","","1","14","training","adjacent","FG","6","7","Q.jpg","O.jpg","1","1","1","",""
"","feedback","","html-keyboard-response","101","138154","0.0-1.0-132.0-0.0","0","0","81199","","null","","","null","14","","","","","","","","","","","","","","","",""
"","ITI","","html-keyboard-response","102","139158","0.0-1.0-135.0","0","0","81199","","null","","","null","14","","","","","","","","","","","","","","","NaN",""
"","S1","","html-keyboard-response","103","139413","0.0-1.0-137.0","0","0","81199","","null","","","null","15","","","","","","","","","","","","","","","",""
"","ISI","","html-keyboard-response","104","141418","0.0-1.0-138.0","0","0","81199","","null","","","null","15","NaN","","","","","","","","","","","","","","",""
"","S2","","html-keyboard-response","105","141673","0.0-1.0-139.0","0","0","81199","","null","","","null","15","","NaN","","","","","","","","","","","","","",""
"","response","","html-keyboard-response","106","141899","0.0-1.0-140.0","0","0","81199","","222","","","68","15","","","1","15","training","adjacent","GF","7","6","O.jpg","Q.jpg","0","0","1","",""
"","feedback","","html-keyboard-response","107","142903","0.0-1.0-141.0-0.0","0","0","81199","","null","","","null","15","","","","","","","","","","","","","","","",""
"","ITI","","html-keyboard-response","108","143907","0.0-1.0-144.0","0","0","81199","","null","","","null","15","","","","","","","","","","","","","","","NaN",""
"","S1","","html-keyboard-response","109","144163","0.0-1.0-146.0","0","0","81199","","null","","","null","16","","","","","","","","","","","","","","","",""
"","ISI","","html-keyboard-response","110","146167","0.0-1.0-147.0","0","0","81199","","null","","","null","16","NaN","","","","","","","","","","","","","","",""
"","S2","","html-keyboard-response","111","146422","0.0-1.0-148.0","0","0","81199","","null","","","null","16","","NaN","","","","","","","","","","","","","",""
"","response","","html-keyboard-response","112","146541","0.0-1.0-149.0","0","0","81199","","114","","","75","16","","","1","16","training","adjacent","GF","7","6","O.jpg","Q.jpg","1","0","0","",""
"","feedback","","html-keyboard-response","113","147545","0.0-1.0-150.0-0.0","0","0","81199","","null","","","null","16","","","","","","","","","","","","","","","",""
"","time_out","","html-keyboard-response","114","149549","0.0-1.0-152.0-0.0","0","0","81199","","null","","","null","16","","","","","","","","","","","","","","","",""
"","ITI","","html-keyboard-response","115","150553","0.0-1.0-153.0","0","0","81199","","null","","","null","16","","","","","","","","","","","","","","","NaN",""
"","S1","","html-keyboard-response","116","150807","0.0-1.0-155.0","0","0","81199","","null","","","null","17","","","","","","","","","","","","","","","",""
"","ISI","","html-keyboard-response","117","152811","0.0-1.0-156.0","0","0","81199","","null","","","null","17","NaN","","","","","","","","","","","","","","",""
"","S2","","html-keyboard-response","118","153065","0.0-1.0-157.0","0","0","81199","","null","","","null","17","","NaN","","","","","","","","","","","","","",""
"","response","","html-keyboard-response","119","153132","0.0-1.0-158.0","0","0","81199","","63","","","68","17","","","1","17","training","adjacent","FE","6","5","Q.jpg","M.jpg","0","0","1","",""
"","feedback","","html-keyboard-response","120","154137","0.0-1.0-159.0-0.0","0","0","81199","","null","","","null","17","","","","","","","","","","","","","","","",""
"","ITI","","html-keyboard-response","121","155142","0.0-1.0-162.0","0","0","81199","","null","","","null","17","","","","","","","","","","","","","","","NaN",""
"","S1","","html-keyboard-response","122","155397","0.0-1.0-164.0","0","0","81199","","null","","","null","18","","","","","","","","","","","","","","","",""
"","ISI","","html-keyboard-response","123","157401","0.0-1.0-165.0","0","0","81199","","null","","","null","18","NaN","","","","","","","","","","","","","","",""
"","S2","","html-keyboard-response","124","157655","0.0-1.0-166.0","0","0","81199","","null","","","null","18","","NaN","","","","","","","","","","","","","",""
"","response","","html-keyboard-response","125","158188","0.0-1.0-167.0","0","0","81199","","530","","","68","18","","","1","18","training","adjacent","DE","4","5","L.jpg","M.jpg","0","1","0","",""
"","feedback","","html-keyboard-response","126","159193","0.0-1.0-168.0-0.0","0","0","81199","","null","","","null","18","","","","","","","","","","","","","","","",""
"","time_out","","html-keyboard-response","127","161197","0.0-1.0-170.0-0.0","0","0","81199","","null","","","null","18","","","","","","","","","","","","","","","",""
"","ITI","","html-keyboard-response","128","162202","0.0-1.0-171.0","0","0","81199","","null","","","null","18","","","","","","","","","","","","","","","NaN",""
"","S1","","html-keyboard-response","129","162456","0.0-1.0-173.0","0","0","81199","","null","","","null","19","","","","","","","","","","","","","","","",""
"","ISI","","html-keyboard-response","130","164460","0.0-1.0-174.0","0","0","81199","","4","","","75","19","k","","","","","","","","","","","","","","",""
"","S2","","html-keyboard-response","131","164714","0.0-1.0-175.0","0","0","81199","","null","","","null","19","","NaN","","","","","","","","","","","","","",""
"","response","","html-keyboard-response","132","164743","0.0-1.0-176.0","0","0","81199","","25","","","68","19","","","1","19","training","adjacent","CD","3","4","R.jpg","L.jpg","0","1","0","",""
"","feedback","","html-keyboard-response","133","165747","0.0-1.0-177.0-0.0","0","0","81199","","null","","","null","19","","","","","","","","","","","","","","","",""
"","time_out","","html-keyboard-response","134","167751","0.0-1.0-179.0-0.0","0","0","81199","","null","","","null","19","","","","","","","","","","","","","","","",""
"","ITI","","html-keyboard-response","135","168755","0.0-1.0-180.0","0","0","81199","","null","","","null","19","","","","","","","","","","","","","","","NaN",""
"","S1","","html-keyboard-response","136","169010","0.0-1.0-182.0","0","0","81199","","null","","","null","20","","","","","","","","","","","","","","","",""
"","ISI","","html-keyboard-response","137","171014","0.0-1.0-183.0","0","0","81199","","null","","","null","20","NaN","","","","","","","","","","","","","","",""
"","S2","","html-keyboard-response","138","171269","0.0-1.0-184.0","0","0","81199","","null","","","null","20","","NaN","","","","","","","","","","","","","",""
"","response","","html-keyboard-response","139","172092","0.0-1.0-185.0","0","0","81199","","819","","","75","20","","","1","20","training","adjacent","FE","6","5","Q.jpg","M.jpg","1","0","0","",""
"","feedback","","html-keyboard-response","140","173097","0.0-1.0-186.0-0.0","0","0","81199","","null","","","null","20","","","","","","","","","","","","","","","",""
"","time_out","","html-keyboard-response","141","175101","0.0-1.0-188.0-0.0","0","0","81199","","null","","","null","20","","","","","","","","","","","","","","","",""
"","ITI","","html-keyboard-response","142","176106","0.0-1.0-189.0","0","0","81199","","null","","","null","20","","","","","","","","","","","","","","","NaN",""
"","S1","","html-keyboard-response","143","176361","0.0-1.0-191.0","0","0","81199","","null","","","null","21","","","","","","","","","","","","","","","",""
"","ISI","","html-keyboard-response","144","178365","0.0-1.0-192.0","0","0","81199","","null","","","null","21","NaN","","","","","","","","","","","","","","",""
"","S2","","html-keyboard-response","145","178627","0.0-1.0-193.0","0","0","81199","","222","","","68","21","","d","","","","","","","","","","","","","",""
"","response","","html-keyboard-response","146","179094","0.0-1.0-194.0","0","0","81199","","462","","","68","21","","","1","21","training","adjacent","BA","2","1","P.jpg","N.jpg","0","0","1","",""
"","feedback","","html-keyboard-response","147","180098","0.0-1.0-195.0-0.0","0","0","81199","","null","","","null","21","","","","","","","","","","","","","","","",""
"","ITI","","html-keyboard-response","148","181102","0.0-1.0-198.0","0","0","81199","","null","","","null","21","","","","","","","","","","","","","","","NaN",""
"","S1","","html-keyboard-response","149","181358","0.0-1.0-200.0","0","0","81199","","null","","","null","22","","","","","","","","","","","","","","","",""
"","ISI","","html-keyboard-response","150","183362","0.0-1.0-201.0","0","0","81199","","null","","","null","22","NaN","","","","","","","","","","","","","","",""
"","S2","","html-keyboard-response","151","183618","0.0-1.0-202.0","0","0","81199","","null","","","null","22","","NaN","","","","","","","","","","","","","",""
"","response","","html-keyboard-response","152","184034","0.0-1.0-203.0","0","0","81199","","413","","","68","22","","","1","22","training","adjacent","CD","3","4","R.jpg","L.jpg","0","1","0","",""
"","feedback","","html-keyboard-response","153","185038","0.0-1.0-204.0-0.0","0","0","81199","","null","","","null","22","","","","","","","","","","","","","","","",""
"","time_out","","html-keyboard-response","154","187042","0.0-1.0-206.0-0.0","0","0","81199","","null","","","null","22","","","","","","","","","","","","","","","",""
"","ITI","","html-keyboard-response","155","188048","0.0-1.0-207.0","0","0","81199","","null","","","null","22","","","","","","","","","","","","","","","NaN",""
"","S1","","html-keyboard-response","156","188302","0.0-1.0-209.0","0","0","81199","","null","","","null","23","","","","","","","","","","","","","","","",""
"","ISI","","html-keyboard-response","157","190307","0.0-1.0-210.0","0","0","81199","","null","","","null","23","NaN","","","","","","","","","","","","","","",""
"","S2","","html-keyboard-response","158","190562","0.0-1.0-211.0","0","0","81199","","null","","","null","23","","NaN","","","","","","","","","","","","","",""
"","response","","html-keyboard-response","159","190839","0.0-1.0-212.0","0","0","81199","","273","","","75","23","","","1","23","training","adjacent","AB","1","2","N.jpg","P.jpg","1","1","1","",""
"","feedback","","html-keyboard-response","160","191843","0.0-1.0-213.0-0.0","0","0","81199","","null","","","null","23","","","","","","","","","","","","","","","",""
"","ITI","","html-keyboard-response","161","192848","0.0-1.0-216.0","0","0","81199","","null","","","null","23","","","","","","","","","","","","","","","NaN",""
"","S1","","html-keyboard-response","162","193103","0.0-1.0-218.0","0","0","81199","","null","","","null","24","","","","","","","","","","","","","","","",""
"","ISI","","html-keyboard-response","163","195106","0.0-1.0-219.0","0","0","81199","","null","","","null","24","NaN","","","","","","","","","","","","","","",""
"","S2","","html-keyboard-response","164","195361","0.0-1.0-220.0","0","0","81199","","null","","","null","24","","NaN","","","","","","","","","","","","","",""
"","response","","html-keyboard-response","165","195653","0.0-1.0-221.0","0","0","81199","","287","","","68","24","","","1","24","training","adjacent","DE","4","5","L.jpg","M.jpg","0","1","0","",""
"","feedback","","html-keyboard-response","166","196657","0.0-1.0-222.0-0.0","0","0","81199","","null","","","null","24","","","","","","","","","","","","","","","",""
"","time_out","","html-keyboard-response","167","198662","0.0-1.0-224.0-0.0","0","0","81199","","null","","","null","24","","","","","","","","","","","","","","","",""
"","ITI","","html-keyboard-response","168","199666","0.0-1.0-225.0","0","0","81199","","null","","","null","24","","","","","","","","","","","","","","","NaN",""
"","S1","","html-keyboard-response","169","199922","0.0-1.0-227.0","0","0","81199","","null","","","null","25","","","","","","","","","","","","","","","",""
"","ISI","","html-keyboard-response","170","201926","0.0-1.0-228.0","0","0","81199","","null","","","null","25","NaN","","","","","","","","","","","","","","",""
"","S2","","html-keyboard-response","171","202181","0.0-1.0-229.0","0","0","81199","","null","","","null","25","","NaN","","","","","","","","","","","","","",""
"","response","","html-keyboard-response","172","202567","0.0-1.0-230.0","0","0","81199","","382","","","68","25","","","1","25","training","adjacent","ED","5","4","M.jpg","L.jpg","0","0","1","",""
"","feedback","","html-keyboard-response","173","203571","0.0-1.0-231.0-0.0","0","0","81199","","null","","","null","25","","","","","","","","","","","","","","","",""
"","ITI","","html-keyboard-response","174","204575","0.0-1.0-234.0","0","0","81199","","null","","","null","25","","","","","","","","","","","","","","","NaN",""
"","S1","","html-keyboard-response","175","204829","0.0-1.0-236.0","0","0","81199","","null","","","null","26","","","","","","","","","","","","","","","",""
"","ISI","","html-keyboard-response","176","206834","0.0-1.0-237.0","0","0","81199","","null","","","null","26","NaN","","","","","","","","","","","","","","",""
"","S2","","html-keyboard-response","177","207089","0.0-1.0-238.0","0","0","81199","","null","","","null","26","","NaN","","","","","","","","","","","","","",""
"","response","","html-keyboard-response","178","207450","0.0-1.0-239.0","0","0","81199","","357","","","75","26","","","1","26","training","adjacent","EF","5","6","M.jpg","Q.jpg","1","1","1","",""
"","feedback","","html-keyboard-response","179","208455","0.0-1.0-240.0-0.0","0","0","81199","","null","","","null","26","","","","","","","","","","","","","","","",""
"","ITI","","html-keyboard-response","180","209459","0.0-1.0-243.0","0","0","81199","","null","","","null","26","","","","","","","","","","","","","","","NaN",""
"","S1","","html-keyboard-response","181","209714","0.0-1.0-245.0","0","0","81199","","null","","","null","27","","","","","","","","","","","","","","","",""
"","ISI","","html-keyboard-response","182","211718","0.0-1.0-246.0","0","0","81199","","null","","","null","27","NaN","","","","","","","","","","","","","","",""
"","S2","","html-keyboard-response","183","211974","0.0-1.0-247.0","0","0","81199","","null","","","null","27","","NaN","","","","","","","","","","","","","",""
"","response","","html-keyboard-response","184","212254","0.0-1.0-248.0","0","0","81199","","276","","","68","27","","","1","27","training","adjacent","DC","4","3","L.jpg","R.jpg","0","0","1","",""
"","feedback","","html-keyboard-response","185","213258","0.0-1.0-249.0-0.0","0","0","81199","","null","","","null","27","","","","","","","","","","","","","","","",""
"","ITI","","html-keyboard-response","186","214264","0.0-1.0-252.0","0","0","81199","","null","","","null","27","","","","","","","","","","","","","","","NaN",""
"","S1","","html-keyboard-response","187","214519","0.0-1.0-254.0","0","0","81199","","null","","","null","28","","","","","","","","","","","","","","","",""
"","ISI","","html-keyboard-response","188","216523","0.0-1.0-255.0","0","0","81199","","null","","","null","28","NaN","","","","","","","","","","","","","","",""
"","S2","","html-keyboard-response","189","216778","0.0-1.0-256.0","0","0","81199","","null","","","null","28","","NaN","","","","","","","","","","","","","",""
"","response","","html-keyboard-response","190","216870","0.0-1.0-257.0","0","0","81199","","88","","","75","28","","","1","28","training","adjacent","AB","1","2","N.jpg","P.jpg","1","1","1","",""
"","feedback","","html-keyboard-response","191","217875","0.0-1.0-258.0-0.0","0","0","81199","","null","","","null","28","","","","","","","","","","","","","","","",""
"","ITI","","html-keyboard-response","192","218879","0.0-1.0-261.0","0","0","81199","","null","","","null","28","","","","","","","","","","","","","","","NaN",""
"","S1","","html-keyboard-response","193","219133","0.0-1.0-263.0","0","0","81199","","null","","","null","29","","","","","","","","","","","","","","","",""
"","ISI","","html-keyboard-response","194","221137","0.0-1.0-264.0","0","0","81199","","153","","","68","29","d","","","","","","","","","","","","","","",""
"","S2","","html-keyboard-response","195","221392","0.0-1.0-265.0","0","0","81199","","null","","","null","29","","NaN","","","","","","","","","","","","","",""
"","response","","html-keyboard-response","196","222935","0.0-1.0-266.0","0","0","81199","","1539","","","68","29","","","1","29","training","adjacent","CD","3","4","R.jpg","L.jpg","0","1","0","",""
"","feedback","","html-keyboard-response","197","223941","0.0-1.0-267.0-0.0","0","0","81199","","null","","","null","29","","","","","","","","","","","","","","","",""
"","time_out","","html-keyboard-response","198","225945","0.0-1.0-269.0-0.0","0","0","81199","","null","","","null","29","","","","","","","","","","","","","","","",""
"","ITI","","html-keyboard-response","199","226950","0.0-1.0-270.0","0","0","81199","","null","","","null","29","","","","","","","","","","","","","","","NaN",""
"","S1","","html-keyboard-response","200","227206","0.0-1.0-272.0","0","0","81199","","null","","","null","30","","","","","","","","","","","","","","","",""
"","ISI","","html-keyboard-response","201","229224","0.0-1.0-273.0","0","0","81199","","233","","","68","30","d","","","","","","","","","","","","","","",""
"","S2","","html-keyboard-response","202","229479","0.0-1.0-274.0","0","0","81199","","null","","","null","30","","NaN","","","","","","","","","","","","","",""
"","response","","html-keyboard-response","203","229706","0.0-1.0-275.0","0","0","81199","","223","","","68","30","","","1","30","training","adjacent","BA","2","1","P.jpg","N.jpg","0","0","1","",""
"","feedback","","html-keyboard-response","204","230711","0.0-1.0-276.0-0.0","0","0","81199","","null","","","null","30","","","","","","","","","","","","","","","",""
"","ITI","","html-keyboard-response","205","231718","0.0-1.0-279.0","0","0","81199","","null","","","null","30","","","","","","","","","","","","","","","NaN",""
"","S1","","html-keyboard-response","206","231972","0.0-1.0-281.0","0","0","81199","","null","","","null","31","","","","","","","","","","","","","","","",""
"","ISI","","html-keyboard-response","207","233976","0.0-1.0-282.0","0","0","81199","","null","","","null","31","NaN","","","","","","","","","","","","","","",""
"","S2","","html-keyboard-response","208","234232","0.0-1.0-283.0","0","0","81199","","null","","","null","31","","NaN","","","","","","","","","","","","","",""
"","response","","html-keyboard-response","209","234309","0.0-1.0-284.0","0","0","81199","","73","","","75","31","","","1","31","training","adjacent","CB","3","2","R.jpg","P.jpg","1","0","0","",""
"","feedback","","html-keyboard-response","210","235314","0.0-1.0-285.0-0.0","0","0","81199","","null","","","null","31","","","","","","","","","","","","","","","",""
"","time_out","","html-keyboard-response","211","237319","0.0-1.0-287.0-0.0","0","0","81199","","null","","","null","31","","","","","","","","","","","","","","","",""
"","ITI","","html-keyboard-response","212","238322","0.0-1.0-288.0","0","0","81199","","808","","","68","31","","","","","","","","","","","","","","","d",""
"","S1","","html-keyboard-response","213","238579","0.0-1.0-290.0","0","0","81199","","null","","","null","32","","","","","","","","","","","","","","","",""
"","ISI","","html-keyboard-response","214","240582","0.0-1.0-291.0","0","0","81199","","92","","","68","32","d","","","","","","","","","","","","","","",""
"","S2","","html-keyboard-response","215","240837","0.0-1.0-292.0","0","0","81199","","null","","","null","32","","NaN","","","","","","","","","","","","","",""
"","response","","html-keyboard-response","216","241082","0.0-1.0-293.0","0","0","81199","","240","","","68","32","","","1","32","training","adjacent","EF","5","6","M.jpg","Q.jpg","0","1","0","",""
"","feedback","","html-keyboard-response","217","242086","0.0-1.0-294.0-0.0","0","0","81199","","null","","","null","32","","","","","","","","","","","","","","","",""
"","time_out","","html-keyboard-response","218","244091","0.0-1.0-296.0-0.0","0","0","81199","","null","","","null","32","","","","","","","","","","","","","","","",""
"","ITI","","html-keyboard-response","219","245095","0.0-1.0-297.0","0","0","81199","","866","","","68","32","","","","","","","","","","","","","","","d",""
"","S1","","html-keyboard-response","220","245350","0.0-1.0-299.0","0","0","81199","","null","","","null","33","","","","","","","","","","","","","","","",""
"","ISI","","html-keyboard-response","221","247355","0.0-1.0-300.0","0","0","81199","","null","","","null","33","NaN","","","","","","","","","","","","","","",""
"","S2","","html-keyboard-response","222","247610","0.0-1.0-301.0","0","0","81199","","null","","","null","33","","NaN","","","","","","","","","","","","","",""
"","response","","html-keyboard-response","223","247808","0.0-1.0-302.0","0","0","81199","","194","","","68","33","","","1","33","training","adjacent","DC","4","3","L.jpg","R.jpg","0","0","1","",""
"","feedback","","html-keyboard-response","224","248814","0.0-1.0-303.0-0.0","0","0","81199","","null","","","null","33","","","","","","","","","","","","","","","",""
"","ITI","","html-keyboard-response","225","249818","0.0-1.0-306.0","0","0","81199","","null","","","null","33","","","","","","","","","","","","","","","NaN",""
"","S1","","html-keyboard-response","226","250074","0.0-1.0-308.0","0","0","81199","","null","","","null","34","","","","","","","","","","","","","","","",""
"","ISI","","html-keyboard-response","227","252078","0.0-1.0-309.0","0","0","81199","","215","","","68","34","d","","","","","","","","","","","","","","",""
"","S2","","html-keyboard-response","228","252334","0.0-1.0-310.0","0","0","81199","","null","","","null","34","","NaN","","","","","","","","","","","","","",""
"","response","","html-keyboard-response","229","252754","0.0-1.0-311.0","0","0","81199","","416","","","68","34","","","1","34","training","adjacent","DC","4","3","L.jpg","R.jpg","0","0","1","",""
"","feedback","","html-keyboard-response","230","253761","0.0-1.0-312.0-0.0","0","0","81199","","null","","","null","34","","","","","","","","","","","","","","","",""
"","ITI","","html-keyboard-response","231","254766","0.0-1.0-315.0","0","0","81199","","null","","","null","34","","","","","","","","","","","","","","","NaN",""
"","S1","","html-keyboard-response","232","255021","0.0-1.0-317.0","0","0","81199","","null","","","null","35","","","","","","","","","","","","","","","",""
"","ISI","","html-keyboard-response","233","257026","0.0-1.0-318.0","0","0","81199","","null","","","null","35","NaN","","","","","","","","","","","","","","",""
"","S2","","html-keyboard-response","234","257280","0.0-1.0-319.0","0","0","81199","","null","","","null","35","","NaN","","","","","","","","","","","","","",""
"","response","","html-keyboard-response","235","257885","0.0-1.0-320.0","0","0","81199","","595","","","68","35","","","1","35","training","adjacent","FG","6","7","Q.jpg","O.jpg","0","1","0","",""
"","feedback","","html-keyboard-response","236","258890","0.0-1.0-321.0-0.0","0","0","81199","","null","","","null","35","","","","","","","","","","","","","","","",""
"","time_out","","html-keyboard-response","237","260895","0.0-1.0-323.0-0.0","0","0","81199","","null","","","null","35","","","","","","","","","","","","","","","",""
"","ITI","","html-keyboard-response","238","261899","0.0-1.0-324.0","0","0","81199","","143","","","68","35","","","","","","","","","","","","","","","d",""
"","S1","","html-keyboard-response","239","262154","0.0-1.0-326.0","0","0","81199","","null","","","null","36","","","","","","","","","","","","","","","",""
"","ISI","","html-keyboard-response","240","264158","0.0-1.0-327.0","0","0","81199","","29","","","75","36","k","","","","","","","","","","","","","","",""
"","S2","","html-keyboard-response","241","264414","0.0-1.0-328.0","0","0","81199","","57","","","72","36","","h","","","","","","","","","","","","","",""
"","response","","html-keyboard-response","242","264434","0.0-1.0-329.0","0","0","81199","","16","","","68","36","","","1","36","training","adjacent","BA","2","1","P.jpg","N.jpg","0","0","1","",""
"","feedback","","html-keyboard-response","243","265438","0.0-1.0-330.0-0.0","0","0","81199","","null","","","null","36","","","","","","","","","","","","","","","",""
"","ITI","","html-keyboard-response","244","266443","0.0-1.0-333.0","0","0","81199","","null","","","null","36","","","","","","","","","","","","","","","NaN",""
"","S1","","html-keyboard-response","245","266698","0.0-1.0-335.0","0","0","81199","","null","","","null","37","","","","","","","","","","","","","","","",""
"","ISI","","html-keyboard-response","246","268702","0.0-1.0-336.0","0","0","81199","","null","","","null","37","NaN","","","","","","","","","","","","","","",""
"","S2","","html-keyboard-response","247","268958","0.0-1.0-337.0","0","0","81199","","null","","","null","37","","NaN","","","","","","","","","","","","","",""
"","response","","html-keyboard-response","248","269581","0.0-1.0-338.0","0","0","81199","","619","","","68","37","","","1","37","training","adjacent","ED","5","4","M.jpg","L.jpg","0","0","1","",""
"","feedback","","html-keyboard-response","249","270586","0.0-1.0-339.0-0.0","0","0","81199","","null","","","null","37","","","","","","","","","","","","","","","",""
"","ITI","","html-keyboard-response","250","271590","0.0-1.0-342.0","0","0","81199","","null","","","null","37","","","","","","","","","","","","","","","NaN",""
"","S1","","html-keyboard-response","251","271846","0.0-1.0-344.0","0","0","81199","","null","","","null","38","","","","","","","","","","","","","","","",""
"","ISI","","html-keyboard-response","252","273851","0.0-1.0-345.0","0","0","81199","","null","","","null","38","NaN","","","","","","","","","","","","","","",""
"","S2","","html-keyboard-response","253","274106","0.0-1.0-346.0","0","0","81199","","null","","","null","38","","NaN","","","","","","","","","","","","","",""
"","response","","html-keyboard-response","254","274359","0.0-1.0-347.0","0","0","81199","","248","","","75","38","","","1","38","training","adjacent","FE","6","5","Q.jpg","M.jpg","1","0","0","",""
"","feedback","","html-keyboard-response","255","275363","0.0-1.0-348.0-0.0","0","0","81199","","null","","","null","38","","","","","","","","","","","","","","","",""
"","time_out","","html-keyboard-response","256","277368","0.0-1.0-350.0-0.0","0","0","81199","","null","","","null","38","","","","","","","","","","","","","","","",""
"","ITI","","html-keyboard-response","257","278373","0.0-1.0-351.0","0","0","81199","","645","","","68","38","","","","","","","","","","","","","","","d",""
"","S1","","html-keyboard-response","258","278627","0.0-1.0-353.0","0","0","81199","","null","","","null","39","","","","","","","","","","","","","","","",""
"","ISI","","html-keyboard-response","259","280631","0.0-1.0-354.0","0","0","81199","","107","","","68","39","d","","","","","","","","","","","","","","",""
"","S2","","html-keyboard-response","260","280887","0.0-1.0-355.0","0","0","81199","","null","","","null","39","","NaN","","","","","","","","","","","","","",""
"","response","","html-keyboard-response","261","281287","0.0-1.0-356.0","0","0","81199","","395","","","68","39","","","1","39","training","adjacent","AB","1","2","N.jpg","P.jpg","0","1","0","",""
"","feedback","","html-keyboard-response","262","282291","0.0-1.0-357.0-0.0","0","0","81199","","null","","","null","39","","","","","","","","","","","","","","","",""
"","time_out","","html-keyboard-response","263","284295","0.0-1.0-359.0-0.0","0","0","81199","","null","","","null","39","","","","","","","","","","","","","","","",""
"","ITI","","html-keyboard-response","264","285299","0.0-1.0-360.0","0","0","81199","","null","","","null","39","","","","","","","","","","","","","","","NaN",""
"","S1","","html-keyboard-response","265","285556","0.0-1.0-362.0","0","0","81199","","null","","","null","40","","","","","","","","","","","","","","","",""
"","ISI","","html-keyboard-response","266","287560","0.0-1.0-363.0","0","0","81199","","313","","","75","40","k","","","","","","","","","","","","","","",""
"","S2","","html-keyboard-response","267","287815","0.0-1.0-364.0","0","0","81199","","null","","","null","40","","NaN","","","","","","","","","","","","","",""
"","response","","html-keyboard-response","268","287919","0.0-1.0-365.0","0","0","81199","","100","","","68","40","","","1","40","training","adjacent","EF","5","6","M.jpg","Q.jpg","0","1","0","",""
"","feedback","","html-keyboard-response","269","288924","0.0-1.0-366.0-0.0","0","0","81199","","null","","","null","40","","","","","","","","","","","","","","","",""
"","time_out","","html-keyboard-response","270","290929","0.0-1.0-368.0-0.0","0","0","81199","","null","","","null","40","","","","","","","","","","","","","","","",""
"","ITI","","html-keyboard-response","271","291933","0.0-1.0-369.0","0","0","81199","","92","","","68","40","","","","","","","","","","","","","","","d",""
"","S1","","html-keyboard-response","272","292188","0.0-1.0-371.0","0","0","81199","","null","","","null","41","","","","","","","","","","","","","","","",""
"","ISI","","html-keyboard-response","273","294193","0.0-1.0-372.0","0","0","81199","","75","","","68","41","d","","","","","","","","","","","","","","",""
"","S2","","html-keyboard-response","274","294458","0.0-1.0-373.0","0","0","81199","","null","","","null","41","","NaN","","","","","","","","","","","","","",""
"","response","","html-keyboard-response","275","294465","0.0-1.0-374.0","0","0","81199","","0","","","68","41","","","1","41","training","adjacent","BA","2","1","P.jpg","N.jpg","0","0","1","",""
"","feedback","","html-keyboard-response","276","295470","0.0-1.0-375.0-0.0","0","0","81199","","null","","","null","41","","","","","","","","","","","","","","","",""
"","ITI","","html-keyboard-response","277","296475","0.0-1.0-378.0","0","0","81199","","null","","","null","41","","","","","","","","","","","","","","","NaN",""
"","S1","","html-keyboard-response","278","296731","0.0-1.0-380.0","0","0","81199","","null","","","null","42","","","","","","","","","","","","","","","",""
"","ISI","","html-keyboard-response","279","298734","0.0-1.0-381.0","0","0","81199","","null","","","null","42","NaN","","","","","","","","","","","","","","",""
"","S2","","html-keyboard-response","280","298989","0.0-1.0-382.0","0","0","81199","","null","","","null","42","","NaN","","","","","","","","","","","","","",""
"","response","","html-keyboard-response","281","299480","0.0-1.0-383.0","0","0","81199","","487","","","75","42","","","1","42","training","adjacent","DE","4","5","L.jpg","M.jpg","1","1","1","",""
"","feedback","","html-keyboard-response","282","300484","0.0-1.0-384.0-0.0","0","0","81199","","null","","","null","42","","","","","","","","","","","","","","","",""
"","ITI","","html-keyboard-response","283","301489","0.0-1.0-387.0","0","0","81199","","null","","","null","42","","","","","","","","","","","","","","","NaN",""
"","S1","","html-keyboard-response","284","301743","0.0-1.0-389.0","0","0","81199","","null","","","null","43","","","","","","","","","","","","","","","",""
"","ISI","","html-keyboard-response","285","303747","0.0-1.0-390.0","0","0","81199","","1646","","","68","43","d","","","","","","","","","","","","","","",""
"","S2","","html-keyboard-response","286","304002","0.0-1.0-391.0","0","0","81199","","null","","","null","43","","NaN","","","","","","","","","","","","","",""
"","response","","html-keyboard-response","287","304055","0.0-1.0-392.0","0","0","81199","","45","","","68","43","","","1","43","training","adjacent","BC","2","3","P.jpg","R.jpg","0","1","0","",""
"","feedback","","html-keyboard-response","288","305062","0.0-1.0-393.0-0.0","0","0","81199","","null","","","null","43","","","","","","","","","","","","","","","",""
"","time_out","","html-keyboard-response","289","307066","0.0-1.0-395.0-0.0","0","0","81199","","null","","","null","43","","","","","","","","","","","","","","","",""
"","ITI","","html-keyboard-response","290","308072","0.0-1.0-396.0","0","0","81199","","null","","","null","43","","","","","","","","","","","","","","","NaN",""
"","S1","","html-keyboard-response","291","308326","0.0-1.0-398.0","0","0","81199","","null","","","null","44","","","","","","","","","","","","","","","",""
"","ISI","","html-keyboard-response","292","310331","0.0-1.0-399.0","0","0","81199","","1358","","","75","44","k","","","","","","","","","","","","","","",""
"","S2","","html-keyboard-response","293","310586","0.0-1.0-400.0","0","0","81199","","null","","","null","44","","NaN","","","","","","","","","","","","","",""
"","response","","html-keyboard-response","294","310695","0.0-1.0-401.0","0","0","81199","","104","","","75","44","","","1","44","training","adjacent","BC","2","3","P.jpg","R.jpg","1","1","1","",""
"","feedback","","html-keyboard-response","295","311699","0.0-1.0-402.0-0.0","0","0","81199","","null","","","null","44","","","","","","","","","","","","","","","",""
"","ITI","","html-keyboard-response","296","312704","0.0-1.0-405.0","0","0","81199","","178","","","68","44","","","","","","","","","","","","","","","d",""
"","S1","","html-keyboard-response","297","312958","0.0-1.0-407.0","0","0","81199","","null","","","null","45","","","","","","","","","","","","","","","",""
"","ISI","","html-keyboard-response","298","314963","0.0-1.0-408.0","0","0","81199","","383","","","68","45","d","","","","","","","","","","","","","","",""
"","S2","","html-keyboard-response","299","315217","0.0-1.0-409.0","0","0","81199","","null","","","null","45","","NaN","","","","","","","","","","","","","",""
"","response","","html-keyboard-response","300","315246","0.0-1.0-410.0","0","0","81199","","23","","","68","45","","","1","45","training","adjacent","BC","2","3","P.jpg","R.jpg","0","1","0","",""
"","feedback","","html-keyboard-response","301","316250","0.0-1.0-411.0-0.0","0","0","81199","","null","","","null","45","","","","","","","","","","","","","","","",""
"","time_out","","html-keyboard-response","302","318255","0.0-1.0-413.0-0.0","0","0","81199","","null","","","null","45","","","","","","","","","","","","","","","",""
"","ITI","","html-keyboard-response","303","319259","0.0-1.0-414.0","0","0","81199","","147","","","68","45","","","","","","","","","","","","","","","d",""
"","S1","","html-keyboard-response","304","319514","0.0-1.0-416.0","0","0","81199","","null","","","null","46","","","","","","","","","","","","","","","",""
"","ISI","","html-keyboard-response","305","321518","0.0-1.0-417.0","0","0","81199","","86","","","68","46","d","","","","","","","","","","","","","","",""
"","S2","","html-keyboard-response","306","321774","0.0-1.0-418.0","0","0","81199","","null","","","null","46","","NaN","","","","","","","","","","","","","",""
"","response","","html-keyboard-response","307","321819","0.0-1.0-419.0","0","0","81199","","40","","","68","46","","","1","46","training","adjacent","CD","3","4","R.jpg","L.jpg","0","1","0","",""
"","feedback","","html-keyboard-response","308","322824","0.0-1.0-420.0-0.0","0","0","81199","","null","","","null","46","","","","","","","","","","","","","","","",""
"","time_out","","html-keyboard-response","309","324828","0.0-1.0-422.0-0.0","0","0","81199","","null","","","null","46","","","","","","","","","","","","","","","",""
"","ITI","","html-keyboard-response","310","325833","0.0-1.0-423.0","0","0","81199","","151","","","68","46","","","","","","","","","","","","","","","d",""
"","S1","","html-keyboard-response","311","326087","0.0-1.0-425.0","0","0","81199","","null","","","null","47","","","","","","","","","","","","","","","",""
"","ISI","","html-keyboard-response","312","328091","0.0-1.0-426.0","0","0","81199","","42","","","68","47","d","","","","","","","","","","","","","","",""
"","S2","","html-keyboard-response","313","328347","0.0-1.0-427.0","0","0","81199","","null","","","null","47","","NaN","","","","","","","","","","","","","",""
"","response","","html-keyboard-response","314","328524","0.0-1.0-428.0","0","0","81199","","171","","","68","47","","","1","47","training","adjacent","ED","5","4","M.jpg","L.jpg","0","0","1","",""
"","feedback","","html-keyboard-response","315","329530","0.0-1.0-429.0-0.0","0","0","81199","","null","","","null","47","","","","","","","","","","","","","","","",""
"","ITI","","html-keyboard-response","316","330536","0.0-1.0-432.0","0","0","81199","","940","","","68","47","","","","","","","","","","","","","","","d",""
"","block_over","","html-keyboard-response","317","336923","0.0-1.0-433.0-0.0","0","0","81199","","6382","","","32","47","","","","","","","","","","","","","","","",""
"","S1","","html-keyboard-response","318","337179","0.0-1.0-434.0","0","0","81199","","null","","","null","48","","","","","","","","","","","","","","","",""
"","ISI","","html-keyboard-response","319","339183","0.0-1.0-435.0","0","0","81199","","null","","","null","48","NaN","","","","","","","","","","","","","","",""
"","S2","","html-keyboard-response","320","339438","0.0-1.0-436.0","0","0","81199","","null","","","null","48","","NaN","","","","","","","","","","","","","",""
"","response","","html-keyboard-response","321","339663","0.0-1.0-437.0","0","0","81199","","220","","","75","48","","","2","48","training","adjacent","AB","1","2","N.jpg","P.jpg","1","1","1","",""
"","feedback","","html-keyboard-response","322","340667","0.0-1.0-438.0-0.0","0","0","81199","","null","","","null","48","","","","","","","","","","","","","","","",""
"","ITI","","html-keyboard-response","323","341672","0.0-1.0-441.0","0","0","81199","","null","","","null","48","","","","","","","","","","","","","","","NaN",""
"","S1","","html-keyboard-response","324","341926","0.0-1.0-443.0","0","0","81199","","null","","","null","49","","","","","","","","","","","","","","","",""
"","ISI","","html-keyboard-response","325","343931","0.0-1.0-444.0","0","0","81199","","null","","","null","49","NaN","","","","","","","","","","","","","","",""
"","S2","","html-keyboard-response","326","344186","0.0-1.0-445.0","0","0","81199","","null","","","null","49","","NaN","","","","","","","","","","","","","",""
"","response","","html-keyboard-response","327","344503","0.0-1.0-446.0","0","0","81199","","313","","","75","49","","","2","49","training","adjacent","GF","7","6","O.jpg","Q.jpg","1","0","0","",""
"","feedback","","html-keyboard-response","328","345508","0.0-1.0-447.0-0.0","0","0","81199","","null","","","null","49","","","","","","","","","","","","","","","",""
"","time_out","","html-keyboard-response","329","347512","0.0-1.0-449.0-0.0","0","0","81199","","null","","","null","49","","","","","","","","","","","","","","","",""
"","ITI","","html-keyboard-response","330","348516","0.0-1.0-450.0","0","0","81199","","null","","","null","49","","","","","","","","","","","","","","","NaN",""
"","S1","","html-keyboard-response","331","348771","0.0-1.0-452.0","0","0","81199","","null","","","null","50","","","","","","","","","","","","","","","",""
"","ISI","","html-keyboard-response","332","350775","0.0-1.0-453.0","0","0","81199","","953","","","68","50","d","","","","","","","","","","","","","","",""
"","S2","","html-keyboard-response","333","351030","0.0-1.0-454.0","0","0","81199","","null","","","null","50","","NaN","","","","","","","","","","","","","",""
"","response","","html-keyboard-response","334","351267","0.0-1.0-455.0","0","0","81199","","233","","","68","50","","","2","50","training","adjacent","DE","4","5","L.jpg","M.jpg","0","1","0","",""
"","feedback","","html-keyboard-response","335","352272","0.0-1.0-456.0-0.0","0","0","81199","","null","","","null","50","","","","","","","","","","","","","","","",""
"","time_out","","html-keyboard-response","336","354276","0.0-1.0-458.0-0.0","0","0","81199","","null","","","null","50","","","","","","","","","","","","","","","",""
"","ITI","","html-keyboard-response","337","355280","0.0-1.0-459.0","0","0","81199","","null","","","null","50","","","","","","","","","","","","","","","NaN",""
"","S1","","html-keyboard-response","338","355535","0.0-1.0-461.0","0","0","81199","","null","","","null","51","","","","","","","","","","","","","","","",""
"","ISI","","html-keyboard-response","339","357539","0.0-1.0-462.0","0","0","81199","","61","","","68","51","d","","","","","","","","","","","","","","",""
"","S2","","html-keyboard-response","340","357794","0.0-1.0-463.0","0","0","81199","","null","","","null","51","","NaN","","","","","","","","","","","","","",""
"","response","","html-keyboard-response","341","358424","0.0-1.0-464.0","0","0","81199","","626","","","68","51","","","2","51","training","adjacent","GF","7","6","O.jpg","Q.jpg","0","0","1","",""
"","feedback","","html-keyboard-response","342","359429","0.0-1.0-465.0-0.0","0","0","81199","","null","","","null","51","","","","","","","","","","","","","","","",""
"","ITI","","html-keyboard-response","343","360433","0.0-1.0-468.0","0","0","81199","","null","","","null","51","","","","","","","","","","","","","","","NaN",""
"","S1","","html-keyboard-response","344","360689","0.0-1.0-470.0","0","0","81199","","null","","","null","52","","","","","","","","","","","","","","","",""
"","ISI","","html-keyboard-response","345","362693","0.0-1.0-471.0","0","0","81199","","null","","","null","52","NaN","","","","","","","","","","","","","","",""
"","S2","","html-keyboard-response","346","362948","0.0-1.0-472.0","0","0","81199","","null","","","null","52","","NaN","","","","","","","","","","","","","",""
"","response","","html-keyboard-response","347","364444","0.0-1.0-473.0","0","0","81199","","1491","","","75","52","","","2","52","training","adjacent","BC","2","3","P.jpg","R.jpg","1","1","1","",""
"","feedback","","html-keyboard-response","348","365450","0.0-1.0-474.0-0.0","0","0","81199","","null","","","null","52","","","","","","","","","","","","","","","",""
"","ITI","","html-keyboard-response","349","366454","0.0-1.0-477.0","0","0","81199","","null","","","null","52","","","","","","","","","","","","","","","NaN",""
"","S1","","html-keyboard-response","350","366709","0.0-1.0-479.0","0","0","81199","","null","","","null","53","","","","","","","","","","","","","","","",""
"","ISI","","html-keyboard-response","351","368714","0.0-1.0-480.0","0","0","81199","","null","","","null","53","NaN","","","","","","","","","","","","","","",""
"","S2","","html-keyboard-response","352","368968","0.0-1.0-481.0","0","0","81199","","204","","","68","53","","d","","","","","","","","","","","","","",""
"","response","","html-keyboard-response","353","369285","0.0-1.0-482.0","0","0","81199","","313","","","68","53","","","2","53","training","adjacent","GF","7","6","O.jpg","Q.jpg","0","0","1","",""
"","feedback","","html-keyboard-response","354","370290","0.0-1.0-483.0-0.0","0","0","81199","","null","","","null","53","","","","","","","","","","","","","","","",""
"","ITI","","html-keyboard-response","355","371296","0.0-1.0-486.0","0","0","81199","","887","","","68","53","","","","","","","","","","","","","","","d",""
"","S1","","html-keyboard-response","356","371551","0.0-1.0-488.0","0","0","81199","","null","","","null","54","","","","","","","","","","","","","","","",""
"","ISI","","html-keyboard-response","357","373555","0.0-1.0-489.0","0","0","81199","","324","","","68","54","d","","","","","","","","","","","","","","",""
"","S2","","html-keyboard-response","358","373809","0.0-1.0-490.0","0","0","81199","","230","","","68","54","","d","","","","","","","","","","","","","",""
"","response","","html-keyboard-response","359","374238","0.0-1.0-491.0","0","0","81199","","423","","","68","54","","","2","54","training","adjacent","BA","2","1","P.jpg","N.jpg","0","0","1","",""
"","feedback","","html-keyboard-response","360","375243","0.0-1.0-492.0-0.0","0","0","81199","","null","","","null","54","","","","","","","","","","","","","","","",""
"","ITI","","html-keyboard-response","361","376248","0.0-1.0-495.0","0","0","81199","","null","","","null","54","","","","","","","","","","","","","","","NaN",""
"","S1","","html-keyboard-response","362","376503","0.0-1.0-497.0","0","0","81199","","null","","","null","55","","","","","","","","","","","","","","","",""
"","ISI","","html-keyboard-response","363","378507","0.0-1.0-498.0","0","0","81199","","null","","","null","55","NaN","","","","","","","","","","","","","","",""
"","S2","","html-keyboard-response","364","378762","0.0-1.0-499.0","0","0","81199","","null","","","null","55","","NaN","","","","","","","","","","","","","",""
"","response","","html-keyboard-response","365","378868","0.0-1.0-500.0","0","0","81199","","101","","","68","55","","","2","55","training","adjacent","CB","3","2","R.jpg","P.jpg","0","0","1","",""
"","feedback","","html-keyboard-response","366","379873","0.0-1.0-501.0-0.0","0","0","81199","","null","","","null","55","","","","","","","","","","","","","","","",""
"","ITI","","html-keyboard-response","367","380878","0.0-1.0-504.0","0","0","81199","","null","","","null","55","","","","","","","","","","","","","","","NaN",""
"","S1","","html-keyboard-response","368","381133","0.0-1.0-506.0","0","0","81199","","null","","","null","56","","","","","","","","","","","","","","","",""
"","ISI","","html-keyboard-response","369","383139","0.0-1.0-507.0","0","0","81199","","null","","","null","56","NaN","","","","","","","","","","","","","","",""
"","S2","","html-keyboard-response","370","383394","0.0-1.0-508.0","0","0","81199","","null","","","null","56","","NaN","","","","","","","","","","","","","",""
"","response","","html-keyboard-response","371","383872","0.0-1.0-509.0","0","0","81199","","474","","","75","56","","","2","56","training","adjacent","GF","7","6","O.jpg","Q.jpg","1","0","0","",""
"","feedback","","html-keyboard-response","372","384877","0.0-1.0-510.0-0.0","0","0","81199","","null","","","null","56","","","","","","","","","","","","","","","",""
"","time_out","","html-keyboard-response","373","386882","0.0-1.0-512.0-0.0","0","0","81199","","null","","","null","56","","","","","","","","","","","","","","","",""
"","ITI","","html-keyboard-response","374","387887","0.0-1.0-513.0","0","0","81199","","null","","","null","56","","","","","","","","","","","","","","","NaN",""
"","S1","","html-keyboard-response","375","388145","0.0-1.0-515.0","0","0","81199","","null","","","null","57","","","","","","","","","","","","","","","",""
"","ISI","","html-keyboard-response","376","390150","0.0-1.0-516.0","0","0","81199","","343","","","68","57","d","","","","","","","","","","","","","","",""
"","S2","","html-keyboard-response","377","390404","0.0-1.0-517.0","0","0","81199","","null","","","null","57","","NaN","","","","","","","","","","","","","",""
"","response","","html-keyboard-response","378","390492","0.0-1.0-518.0","0","0","81199","","83","","","68","57","","","2","57","training","adjacent","AB","1","2","N.jpg","P.jpg","0","1","0","",""
"","feedback","","html-keyboard-response","379","391497","0.0-1.0-519.0-0.0","0","0","81199","","null","","","null","57","","","","","","","","","","","","","","","",""
"","time_out","","html-keyboard-response","380","393502","0.0-1.0-521.0-0.0","0","0","81199","","null","","","null","57","","","","","","","","","","","","","","","",""
"","ITI","","html-keyboard-response","381","394507","0.0-1.0-522.0","0","0","81199","","277","","","68","57","","","","","","","","","","","","","","","d",""
"","S1","","html-keyboard-response","382","394768","0.0-1.0-524.0","0","0","81199","","null","","","null","58","","","","","","","","","","","","","","","",""
"","ISI","","html-keyboard-response","383","396776","0.0-1.0-525.0","0","0","81199","","475","","","68","58","d","","","","","","","","","","","","","","",""
"","S2","","html-keyboard-response","384","397030","0.0-1.0-526.0","0","0","81199","","233","","","68","58","","d","","","","","","","","","","","","","",""
"","response","","html-keyboard-response","385","397588","0.0-1.0-527.0","0","0","81199","","553","","","68","58","","","2","58","training","adjacent","CB","3","2","R.jpg","P.jpg","0","0","1","",""
"","feedback","","html-keyboard-response","386","398593","0.0-1.0-528.0-0.0","0","0","81199","","null","","","null","58","","","","","","","","","","","","","","","",""
"","ITI","","html-keyboard-response","387","399598","0.0-1.0-531.0","0","0","81199","","null","","","null","58","","","","","","","","","","","","","","","NaN",""
"","S1","","html-keyboard-response","388","399854","0.0-1.0-533.0","0","0","81199","","null","","","null","59","","","","","","","","","","","","","","","",""
"","ISI","","html-keyboard-response","389","401860","0.0-1.0-534.0","0","0","81199","","null","","","null","59","NaN","","","","","","","","","","","","","","",""
"","S2","","html-keyboard-response","390","402115","0.0-1.0-535.0","0","0","81199","","null","","","null","59","","NaN","","","","","","","","","","","","","",""
"","response","","html-keyboard-response","391","402296","0.0-1.0-536.0","0","0","81199","","177","","","68","59","","","2","59","training","adjacent","CB","3","2","R.jpg","P.jpg","0","0","1","",""
"","feedback","","html-keyboard-response","392","403300","0.0-1.0-537.0-0.0","0","0","81199","","null","","","null","59","","","","","","","","","","","","","","","",""
"","ITI","","html-keyboard-response","393","404306","0.0-1.0-540.0","0","0","81199","","null","","","null","59","","","","","","","","","","","","","","","NaN",""
"","S1","","html-keyboard-response","394","404561","0.0-1.0-542.0","0","0","81199","","null","","","null","60","","","","","","","","","","","","","","","",""
"","ISI","","html-keyboard-response","395","406566","0.0-1.0-543.0","0","0","81199","","null","","","null","60","NaN","","","","","","","","","","","","","","",""
"","S2","","html-keyboard-response","396","406821","0.0-1.0-544.0","0","0","81199","","null","","","null","60","","NaN","","","","","","","","","","","","","",""
"","response","","html-keyboard-response","397","407273","0.0-1.0-545.0","0","0","81199","","447","","","75","60","","","2","60","training","adjacent","FG","6","7","Q.jpg","O.jpg","1","1","1","",""
"","feedback","","html-keyboard-response","398","408279","0.0-1.0-546.0-0.0","0","0","81199","","null","","","null","60","","","","","","","","","","","","","","","",""
"","ITI","","html-keyboard-response","399","409283","0.0-1.0-549.0","0","0","81199","","null","","","null","60","","","","","","","","","","","","","","","NaN",""
"","S1","","html-keyboard-response","400","409538","0.0-1.0-551.0","0","0","81199","","null","","","null","61","","","","","","","","","","","","","","","",""
"","ISI","","html-keyboard-response","401","411543","0.0-1.0-552.0","0","0","81199","","null","","","null","61","NaN","","","","","","","","","","","","","","",""
"","S2","","html-keyboard-response","402","411798","0.0-1.0-553.0","0","0","81199","","null","","","null","61","","NaN","","","","","","","","","","","","","",""
"","response","","html-keyboard-response","403","412321","0.0-1.0-554.0","0","0","81199","","519","","","75","61","","","2","61","training","adjacent","FE","6","5","Q.jpg","M.jpg","1","0","0","",""
"","feedback","","html-keyboard-response","404","413326","0.0-1.0-555.0-0.0","0","0","81199","","null","","","null","61","","","","","","","","","","","","","","","",""
"","time_out","","html-keyboard-response","405","415330","0.0-1.0-557.0-0.0","0","0","81199","","null","","","null","61","","","","","","","","","","","","","","","",""
"","ITI","","html-keyboard-response","406","416334","0.0-1.0-558.0","0","0","81199","","null","","","null","61","","","","","","","","","","","","","","","NaN",""
"","S1","","html-keyboard-response","407","416591","0.0-1.0-560.0","0","0","81199","","null","","","null","62","","","","","","","","","","","","","","","",""
"","ISI","","html-keyboard-response","408","418595","0.0-1.0-561.0","0","0","81199","","589","","","75","62","k","","","","","","","","","","","","","","",""
"","S2","","html-keyboard-response","409","418850","0.0-1.0-562.0","0","0","81199","","null","","","null","62","","NaN","","","","","","","","","","","","","",""
"","response","","html-keyboard-response","410","419273","0.0-1.0-563.0","0","0","81199","","417","","","75","62","","","2","62","training","adjacent","FG","6","7","Q.jpg","O.jpg","1","1","1","",""
"","feedback","","html-keyboard-response","411","420277","0.0-1.0-564.0-0.0","0","0","81199","","null","","","null","62","","","","","","","","","","","","","","","",""
"","ITI","","html-keyboard-response","412","421286","0.0-1.0-567.0","0","0","81199","","null","","","null","62","","","","","","","","","","","","","","","NaN",""
"","S1","","html-keyboard-response","413","421541","0.0-1.0-569.0","0","0","81199","","null","","","null","63","","","","","","","","","","","","","","","",""
"","ISI","","html-keyboard-response","414","423545","0.0-1.0-570.0","0","0","81199","","null","","","null","63","NaN","","","","","","","","","","","","","","",""
"","S2","","html-keyboard-response","415","423800","0.0-1.0-571.0","0","0","81199","","null","","","null","63","","NaN","","","","","","","","","","","","","",""
"","response","","html-keyboard-response","416","424266","0.0-1.0-572.0","0","0","81199","","458","","","75","63","","","2","63","training","adjacent","BA","2","1","P.jpg","N.jpg","1","0","0","",""
"","feedback","","html-keyboard-response","417","425271","0.0-1.0-573.0-0.0","0","0","81199","","null","","","null","63","","","","","","","","","","","","","","","",""
"","time_out","","html-keyboard-response","418","427275","0.0-1.0-575.0-0.0","0","0","81199","","null","","","null","63","","","","","","","","","","","","","","","",""
"","ITI","","html-keyboard-response","419","428281","0.0-1.0-576.0","0","0","81199","","null","","","null","63","","","","","","","","","","","","","","","NaN",""
"","S1","","html-keyboard-response","420","428537","0.0-1.0-578.0","0","0","81199","","null","","","null","64","","","","","","","","","","","","","","","",""
"","ISI","","html-keyboard-response","421","430541","0.0-1.0-579.0","0","0","81199","","253","","","68","64","d","","","","","","","","","","","","","","",""
"","S2","","html-keyboard-response","422","430797","0.0-1.0-580.0","0","0","81199","","null","","","null","64","","NaN","","","","","","","","","","","","","",""
"","response","","html-keyboard-response","423","431084","0.0-1.0-581.0","0","0","81199","","282","","","68","64","","","2","64","training","adjacent","BC","2","3","P.jpg","R.jpg","0","1","0","",""
"","feedback","","html-keyboard-response","424","432088","0.0-1.0-582.0-0.0","0","0","81199","","null","","","null","64","","","","","","","","","","","","","","","",""
"","time_out","","html-keyboard-response","425","434093","0.0-1.0-584.0-0.0","0","0","81199","","null","","","null","64","","","","","","","","","","","","","","","",""
"","ITI","","html-keyboard-response","426","435099","0.0-1.0-585.0","0","0","81199","","null","","","null","64","","","","","","","","","","","","","","","NaN",""
"","S1","","html-keyboard-response","427","435354","0.0-1.0-587.0","0","0","81199","","null","","","null","65","","","","","","","","","","","","","","","",""
"","ISI","","html-keyboard-response","428","437359","0.0-1.0-588.0","0","0","81199","","null","","","null","65","NaN","","","","","","","","","","","","","","",""
"","S2","","html-keyboard-response","429","437614","0.0-1.0-589.0","0","0","81199","","null","","","null","65","","NaN","","","","","","","","","","","","","",""
"","response","","html-keyboard-response","430","438183","0.0-1.0-590.0","0","0","81199","","563","","","75","65","","","2","65","training","adjacent","EF","5","6","M.jpg","Q.jpg","1","1","1","",""
"","feedback","","html-keyboard-response","431","439188","0.0-1.0-591.0-0.0","0","0","81199","","null","","","null","65","","","","","","","","","","","","","","","",""
"","ITI","","html-keyboard-response","432","440193","0.0-1.0-594.0","0","0","81199","","null","","","null","65","","","","","","","","","","","","","","","NaN",""
"","S1","","html-keyboard-response","433","440447","0.0-1.0-596.0","0","0","81199","","null","","","null","66","","","","","","","","","","","","","","","",""
"","ISI","","html-keyboard-response","434","442452","0.0-1.0-597.0","0","0","81199","","null","","","null","66","NaN","","","","","","","","","","","","","","",""
"","S2","","html-keyboard-response","435","442708","0.0-1.0-598.0","0","0","81199","","null","","","null","66","","NaN","","","","","","","","","","","","","",""
"","response","","html-keyboard-response","436","443709","0.0-1.0-599.0","0","0","81199","","996","","","68","66","","","2","66","training","adjacent","BA","2","1","P.jpg","N.jpg","0","0","1","",""
"","feedback","","html-keyboard-response","437","444714","0.0-1.0-600.0-0.0","0","0","81199","","null","","","null","66","","","","","","","","","","","","","","","",""
"","ITI","","html-keyboard-response","438","445719","0.0-1.0-603.0","0","0","81199","","null","","","null","66","","","","","","","","","","","","","","","NaN",""
"","S1","","html-keyboard-response","439","445974","0.0-1.0-605.0","0","0","81199","","null","","","null","67","","","","","","","","","","","","","","","",""
"","ISI","","html-keyboard-response","440","447979","0.0-1.0-606.0","0","0","81199","","1259","","","68","67","d","","","","","","","","","","","","","","",""
"","S2","","html-keyboard-response","441","448234","0.0-1.0-607.0","0","0","81199","","null","","","null","67","","NaN","","","","","","","","","","","","","",""
"","response","","html-keyboard-response","442","448418","0.0-1.0-608.0","0","0","81199","","179","","","68","67","","","2","67","training","adjacent","DC","4","3","L.jpg","R.jpg","0","0","1","",""
"","feedback","","html-keyboard-response","443","449423","0.0-1.0-609.0-0.0","0","0","81199","","null","","","null","67","","","","","","","","","","","","","","","",""
"","ITI","","html-keyboard-response","444","450428","0.0-1.0-612.0","0","0","81199","","117","","","68","67","","","","","","","","","","","","","","","d",""
"","S1","","html-keyboard-response","445","450684","0.0-1.0-614.0","0","0","81199","","null","","","null","68","","","","","","","","","","","","","","","",""
"","ISI","","html-keyboard-response","446","452689","0.0-1.0-615.0","0","0","81199","","130","","","68","68","d","","","","","","","","","","","","","","",""
"","S2","","html-keyboard-response","447","452947","0.0-1.0-616.0","0","0","81199","","null","","","null","68","","NaN","","","","","","","","","","","","","",""
"","response","","html-keyboard-response","448","454149","0.0-1.0-617.0","0","0","81199","","1196","","","68","68","","","2","68","training","adjacent","EF","5","6","M.jpg","Q.jpg","0","1","0","",""
"","feedback","","html-keyboard-response","449","455155","0.0-1.0-618.0-0.0","0","0","81199","","null","","","null","68","","","","","","","","","","","","","","","",""
"","time_out","","html-keyboard-response","450","457163","0.0-1.0-620.0-0.0","0","0","81199","","null","","","null","68","","","","","","","","","","","","","","","",""
"","ITI","","html-keyboard-response","451","458168","0.0-1.0-621.0","0","0","81199","","196","","","75","68","","","","","","","","","","","","","","","k",""
"","S1","","html-keyboard-response","452","458423","0.0-1.0-623.0","0","0","81199","","null","","","null","69","","","","","","","","","","","","","","","",""
"","ISI","","html-keyboard-response","453","460427","0.0-1.0-624.0","0","0","81199","","141","","","75","69","k","","","","","","","","","","","","","","",""
"","S2","","html-keyboard-response","454","460682","0.0-1.0-625.0","0","0","81199","","null","","","null","69","","NaN","","","","","","","","","","","","","",""
"","response","","html-keyboard-response","455","460715","0.0-1.0-626.0","0","0","81199","","28","","","75","69","","","2","69","training","adjacent","EF","5","6","M.jpg","Q.jpg","1","1","1","",""
"","feedback","","html-keyboard-response","456","461721","0.0-1.0-627.0-0.0","0","0","81199","","null","","","null","69","","","","","","","","","","","","","","","",""
"","ITI","","html-keyboard-response","457","462728","0.0-1.0-630.0","0","0","81199","","630","","","68","69","","","","","","","","","","","","","","","d",""
"","S1","","html-keyboard-response","458","462988","0.0-1.0-632.0","0","0","81199","","null","","","null","70","","","","","","","","","","","","","","","",""
"","ISI","","html-keyboard-response","459","464992","0.0-1.0-633.0","0","0","81199","","201","","","68","70","d","","","","","","","","","","","","","","",""
"","S2","","html-keyboard-response","460","465247","0.0-1.0-634.0","0","0","81199","","null","","","null","70","","NaN","","","","","","","","","","","","","",""
"","response","","html-keyboard-response","461","465867","0.0-1.0-635.0","0","0","81199","","615","","","68","70","","","2","70","training","adjacent","ED","5","4","M.jpg","L.jpg","0","0","1","",""
"","feedback","","html-keyboard-response","462","466873","0.0-1.0-636.0-0.0","0","0","81199","","null","","","null","70","","","","","","","","","","","","","","","",""
"","ITI","","html-keyboard-response","463","467878","0.0-1.0-639.0","0","0","81199","","93","","","68","70","","","","","","","","","","","","","","","d",""
"","S1","","html-keyboard-response","464","468134","0.0-1.0-641.0","0","0","81199","","null","","","null","71","","","","","","","","","","","","","","","",""
"","ISI","","html-keyboard-response","465","470138","0.0-1.0-642.0","0","0","81199","","0","","","68","71","d","","","","","","","","","","","","","","",""
"","S2","","html-keyboard-response","466","470394","0.0-1.0-643.0","0","0","81199","","null","","","null","71","","NaN","","","","","","","","","","","","","",""
"","response","","html-keyboard-response","467","470761","0.0-1.0-644.0","0","0","81199","","363","","","68","71","","","2","71","training","adjacent","DC","4","3","L.jpg","R.jpg","0","0","1","",""
"","feedback","","html-keyboard-response","468","471766","0.0-1.0-645.0-0.0","0","0","81199","","null","","","null","71","","","","","","","","","","","","","","","",""
"","ITI","","html-keyboard-response","469","472771","0.0-1.0-648.0","0","0","81199","","626","","","68","71","","","","","","","","","","","","","","","d",""
"","S1","","html-keyboard-response","470","473026","0.0-1.0-650.0","0","0","81199","","null","","","null","72","","","","","","","","","","","","","","","",""
"","ISI","","html-keyboard-response","471","475031","0.0-1.0-651.0","0","0","81199","","null","","","null","72","NaN","","","","","","","","","","","","","","",""
"","S2","","html-keyboard-response","472","475286","0.0-1.0-652.0","0","0","81199","","null","","","null","72","","NaN","","","","","","","","","","","","","",""
"","response","","html-keyboard-response","473","475360","0.0-1.0-653.0","0","0","81199","","70","","","75","72","","","2","72","training","adjacent","FG","6","7","Q.jpg","O.jpg","1","1","1","",""
"","feedback","","html-keyboard-response","474","476365","0.0-1.0-654.0-0.0","0","0","81199","","null","","","null","72","","","","","","","","","","","","","","","",""
"","ITI","","html-keyboard-response","475","477370","0.0-1.0-657.0","0","0","81199","","null","","","null","72","","","","","","","","","","","","","","","NaN",""
"","S1","","html-keyboard-response","476","477627","0.0-1.0-659.0","0","0","81199","","null","","","null","73","","","","","","","","","","","","","","","",""
"","ISI","","html-keyboard-response","477","479631","0.0-1.0-660.0","0","0","81199","","null","","","null","73","NaN","","","","","","","","","","","","","","",""
"","S2","","html-keyboard-response","478","479885","0.0-1.0-661.0","0","0","81199","","null","","","null","73","","NaN","","","","","","","","","","","","","",""
"","response","","html-keyboard-response","479","481889","0.0-1.0-662.0","0","0","81199","","null","","","null","73","","","2","73","training","adjacent","EF","5","6","M.jpg","Q.jpg","NaN","1","0","",""
"","too_slow_prompt","","html-keyboard-response","480","482894","0.0-1.0-664.0-0.0","1","0","81199","","null","","","null","","","","","","","","","","","","","","","","",""
"","time_out","","html-keyboard-response","481","484898","0.0-1.0-665.0-0.0","0","0","81199","","null","","","null","73","","","","","","","","","","","","","","","",""
"","ITI","","html-keyboard-response","482","485903","0.0-1.0-666.0","0","0","81199","","338","","","68","73","","","","","","","","","","","","","","","d",""
"","S1","","html-keyboard-response","483","486157","0.0-1.0-668.0","0","0","81199","","null","","","null","74","","","","","","","","","","","","","","","",""
"","ISI","","html-keyboard-response","484","488161","0.0-1.0-669.0","0","0","81199","","216","","","68","74","d","","","","","","","","","","","","","","",""
"","S2","","html-keyboard-response","485","488415","0.0-1.0-670.0","0","0","81199","","null","","","null","74","","NaN","","","","","","","","","","","","","",""
"","response","","html-keyboard-response","486","488508","0.0-1.0-671.0","0","0","81199","","88","","","68","74","","","2","74","training","adjacent","AB","1","2","N.jpg","P.jpg","0","1","0","",""
"","feedback","","html-keyboard-response","487","489513","0.0-1.0-672.0-0.0","0","0","81199","","null","","","null","74","","","","","","","","","","","","","","","",""
"","time_out","","html-keyboard-response","488","491517","0.0-1.0-674.0-0.0","0","0","81199","","null","","","null","74","","","","","","","","","","","","","","","",""
"","ITI","","html-keyboard-response","489","492521","0.0-1.0-675.0","0","0","81199","","null","","","null","74","","","","","","","","","","","","","","","NaN",""
"","S1","","html-keyboard-response","490","492775","0.0-1.0-677.0","0","0","81199","","null","","","null","75","","","","","","","","","","","","","","","",""
"","ISI","","html-keyboard-response","491","494780","0.0-1.0-678.0","0","0","81199","","null","","","null","75","NaN","","","","","","","","","","","","","","",""
"","S2","","html-keyboard-response","492","495034","0.0-1.0-679.0","0","0","81199","","null","","","null","75","","NaN","","","","","","","","","","","","","",""
"","response","","html-keyboard-response","493","495150","0.0-1.0-680.0","0","0","81199","","109","","","68","75","","","2","75","training","adjacent","CD","3","4","R.jpg","L.jpg","0","1","0","",""
"","feedback","","html-keyboard-response","494","496155","0.0-1.0-681.0-0.0","0","0","81199","","null","","","null","75","","","","","","","","","","","","","","","",""
"","time_out","","html-keyboard-response","495","498159","0.0-1.0-683.0-0.0","0","0","81199","","null","","","null","75","","","","","","","","","","","","","","","",""
"","ITI","","html-keyboard-response","496","499163","0.0-1.0-684.0","0","0","81199","","820","","","68","75","","","","","","","","","","","","","","","d",""
"","S1","","html-keyboard-response","497","499417","0.0-1.0-686.0","0","0","81199","","null","","","null","76","","","","","","","","","","","","","","","",""
"","ISI","","html-keyboard-response","498","501421","0.0-1.0-687.0","0","0","81199","","null","","","null","76","NaN","","","","","","","","","","","","","","",""
"","S2","","html-keyboard-response","499","501676","0.0-1.0-688.0","0","0","81199","","null","","","null","76","","NaN","","","","","","","","","","","","","",""
"","response","","html-keyboard-response","500","501683","0.0-1.0-689.0","0","0","81199","","2","","","75","76","","","2","76","training","adjacent","DC","4","3","L.jpg","R.jpg","1","0","0","",""
"","feedback","","html-keyboard-response","501","502688","0.0-1.0-690.0-0.0","0","0","81199","","null","","","null","76","","","","","","","","","","","","","","","",""
"","time_out","","html-keyboard-response","502","504692","0.0-1.0-692.0-0.0","0","0","81199","","null","","","null","76","","","","","","","","","","","","","","","",""
"","ITI","","html-keyboard-response","503","505697","0.0-1.0-693.0","0","0","81199","","null","","","null","76","","","","","","","","","","","","","","","NaN",""
"","S1","","html-keyboard-response","504","505953","0.0-1.0-695.0","0","0","81199","","null","","","null","77","","","","","","","","","","","","","","","",""
"","ISI","","html-keyboard-response","505","507958","0.0-1.0-696.0","0","0","81199","","null","","","null","77","NaN","","","","","","","","","","","","","","",""
"","S2","","html-keyboard-response","506","508212","0.0-1.0-697.0","0","0","81199","","null","","","null","77","","NaN","","","","","","","","","","","","","",""
"","response","","html-keyboard-response","507","508226","0.0-1.0-698.0","0","0","81199","","10","","","68","77","","","2","77","training","adjacent","FG","6","7","Q.jpg","O.jpg","0","1","0","",""
"","feedback","","html-keyboard-response","508","509230","0.0-1.0-699.0-0.0","0","0","81199","","null","","","null","77","","","","","","","","","","","","","","","",""
"","time_out","","html-keyboard-response","509","511235","0.0-1.0-701.0-0.0","0","0","81199","","null","","","null","77","","","","","","","","","","","","","","","",""
"","ITI","","html-keyboard-response","510","512242","0.0-1.0-702.0","0","0","81199","","470","","","68","77","","","","","","","","","","","","","","","d",""
"","S1","","html-keyboard-response","511","512500","0.0-1.0-704.0","0","0","81199","","null","","","null","78","","","","","","","","","","","","","","","",""
"","ISI","","html-keyboard-response","512","514505","0.0-1.0-705.0","0","0","81199","","379","","","68","78","d","","","","","","","","","","","","","","",""
"","S2","","html-keyboard-response","513","514760","0.0-1.0-706.0","0","0","81199","","237","","","68","78","","d","","","","","","","","","","","","","",""
"","response","","html-keyboard-response","514","515487","0.0-1.0-707.0","0","0","81199","","722","","","68","78","","","2","78","training","adjacent","DE","4","5","L.jpg","M.jpg","0","1","0","",""
"","feedback","","html-keyboard-response","515","516491","0.0-1.0-708.0-0.0","0","0","81199","","null","","","null","78","","","","","","","","","","","","","","","",""
"","time_out","","html-keyboard-response","516","518494","0.0-1.0-710.0-0.0","0","0","81199","","null","","","null","78","","","","","","","","","","","","","","","",""
"","ITI","","html-keyboard-response","517","519499","0.0-1.0-711.0","0","0","81199","","null","","","null","78","","","","","","","","","","","","","","","NaN",""
"","S1","","html-keyboard-response","518","519753","0.0-1.0-713.0","0","0","81199","","null","","","null","79","","","","","","","","","","","","","","","",""
"","ISI","","html-keyboard-response","519","521758","0.0-1.0-714.0","0","0","81199","","null","","","null","79","NaN","","","","","","","","","","","","","","",""
"","S2","","html-keyboard-response","520","522013","0.0-1.0-715.0","0","0","81199","","null","","","null","79","","NaN","","","","","","","","","","","","","",""
"","response","","html-keyboard-response","521","522348","0.0-1.0-716.0","0","0","81199","","331","","","75","79","","","2","79","training","adjacent","BC","2","3","P.jpg","R.jpg","1","1","1","",""
"","feedback","","html-keyboard-response","522","523353","0.0-1.0-717.0-0.0","0","0","81199","","null","","","null","79","","","","","","","","","","","","","","","",""
"","ITI","","html-keyboard-response","523","524358","0.0-1.0-720.0","0","0","81199","","null","","","null","79","","","","","","","","","","","","","","","NaN",""
"","S1","","html-keyboard-response","524","524612","0.0-1.0-722.0","0","0","81199","","null","","","null","80","","","","","","","","","","","","","","","",""
"","ISI","","html-keyboard-response","525","526616","0.0-1.0-723.0","0","0","81199","","null","","","null","80","NaN","","","","","","","","","","","","","","",""
"","S2","","html-keyboard-response","526","526870","0.0-1.0-724.0","0","0","81199","","148","","","68","80","","d","","","","","","","","","","","","","",""
"","response","","html-keyboard-response","527","527352","0.0-1.0-725.0","0","0","81199","","477","","","68","80","","","2","80","training","adjacent","FE","6","5","Q.jpg","M.jpg","0","0","1","",""
"","feedback","","html-keyboard-response","528","528356","0.0-1.0-726.0-0.0","0","0","81199","","null","","","null","80","","","","","","","","","","","","","","","",""
"","ITI","","html-keyboard-response","529","529362","0.0-1.0-729.0","0","0","81199","","null","","","null","80","","","","","","","","","","","","","","","NaN",""
"","S1","","html-keyboard-response","530","529629","0.0-1.0-731.0","0","0","81199","","null","","","null","81","","","","","","","","","","","","","","","",""
"","ISI","","html-keyboard-response","531","531634","0.0-1.0-732.0","0","0","81199","","null","","","null","81","NaN","","","","","","","","","","","","","","",""
"","S2","","html-keyboard-response","532","531889","0.0-1.0-733.0","0","0","81199","","null","","","null","81","","NaN","","","","","","","","","","","","","",""
"","response","","html-keyboard-response","533","532449","0.0-1.0-734.0","0","0","81199","","555","","","68","81","","","2","81","training","adjacent","BC","2","3","P.jpg","R.jpg","0","1","0","",""
"","feedback","","html-keyboard-response","534","533453","0.0-1.0-735.0-0.0","0","0","81199","","null","","","null","81","","","","","","","","","","","","","","","",""
"","time_out","","html-keyboard-response","535","535457","0.0-1.0-737.0-0.0","0","0","81199","","null","","","null","81","","","","","","","","","","","","","","","",""
"","ITI","","html-keyboard-response","536","536461","0.0-1.0-738.0","0","0","81199","","null","","","null","81","","","","","","","","","","","","","","","NaN",""
"","S1","","html-keyboard-response","537","536715","0.0-1.0-740.0","0","0","81199","","null","","","null","82","","","","","","","","","","","","","","","",""
"","ISI","","html-keyboard-response","538","538720","0.0-1.0-741.0","0","0","81199","","1122","","","68","82","d","","","","","","","","","","","","","","",""
"","S2","","html-keyboard-response","539","538974","0.0-1.0-742.0","0","0","81199","","232","","","75","82","","k","","","","","","","","","","","","","",""
"","response","","html-keyboard-response","540","539397","0.0-1.0-743.0","0","0","81199","","418","","","75","82","","","2","82","training","adjacent","DE","4","5","L.jpg","M.jpg","1","1","1","",""
"","feedback","","html-keyboard-response","541","540402","0.0-1.0-744.0-0.0","0","0","81199","","null","","","null","82","","","","","","","","","","","","","","","",""
"","ITI","","html-keyboard-response","542","541407","0.0-1.0-747.0","0","0","81199","","null","","","null","82","","","","","","","","","","","","","","","NaN",""
"","S1","","html-keyboard-response","543","541662","0.0-1.0-749.0","0","0","81199","","null","","","null","83","","","","","","","","","","","","","","","",""
"","ISI","","html-keyboard-response","544","543666","0.0-1.0-750.0","0","0","81199","","null","","","null","83","NaN","","","","","","","","","","","","","","",""
"","S2","","html-keyboard-response","545","543922","0.0-1.0-751.0","0","0","81199","","null","","","null","83","","NaN","","","","","","","","","","","","","",""
"","response","","html-keyboard-response","546","544505","0.0-1.0-752.0","0","0","81199","","579","","","68","83","","","2","83","training","adjacent","BA","2","1","P.jpg","N.jpg","0","0","1","",""
"","feedback","","html-keyboard-response","547","545510","0.0-1.0-753.0-0.0","0","0","81199","","null","","","null","83","","","","","","","","","","","","","","","",""
"","ITI","","html-keyboard-response","548","546515","0.0-1.0-756.0","0","0","81199","","null","","","null","83","","","","","","","","","","","","","","","NaN",""
"","S1","","html-keyboard-response","549","546769","0.0-1.0-758.0","0","0","81199","","null","","","null","84","","","","","","","","","","","","","","","",""
"","ISI","","html-keyboard-response","550","548774","0.0-1.0-759.0","0","0","81199","","null","","","null","84","NaN","","","","","","","","","","","","","","",""
"","S2","","html-keyboard-response","551","549028","0.0-1.0-760.0","0","0","81199","","null","","","null","84","","NaN","","","","","","","","","","","","","",""
"","response","","html-keyboard-response","552","549375","0.0-1.0-761.0","0","0","81199","","343","","","68","84","","","2","84","training","adjacent","ED","5","4","M.jpg","L.jpg","0","0","1","",""
"","feedback","","html-keyboard-response","553","550381","0.0-1.0-762.0-0.0","0","0","81199","","null","","","null","84","","","","","","","","","","","","","","","",""
"","ITI","","html-keyboard-response","554","551385","0.0-1.0-765.0","0","0","81199","","null","","","null","84","","","","","","","","","","","","","","","NaN",""
"","S1","","html-keyboard-response","555","551640","0.0-1.0-767.0","0","0","81199","","null","","","null","85","","","","","","","","","","","","","","","",""
"","ISI","","html-keyboard-response","556","553645","0.0-1.0-768.0","0","0","81199","","null","","","null","85","NaN","","","","","","","","","","","","","","",""
"","S2","","html-keyboard-response","557","553899","0.0-1.0-769.0","0","0","81199","","null","","","null","85","","NaN","","","","","","","","","","","","","",""
"","response","","html-keyboard-response","558","554008","0.0-1.0-770.0","0","0","81199","","102","","","75","85","","","2","85","training","adjacent","FE","6","5","Q.jpg","M.jpg","1","0","0","",""
"","feedback","","html-keyboard-response","559","555014","0.0-1.0-771.0-0.0","0","0","81199","","null","","","null","85","","","","","","","","","","","","","","","",""
"","time_out","","html-keyboard-response","560","557019","0.0-1.0-773.0-0.0","0","0","81199","","null","","","null","85","","","","","","","","","","","","","","","",""
"","ITI","","html-keyboard-response","561","558025","0.0-1.0-774.0","0","0","81199","","null","","","null","85","","","","","","","","","","","","","","","NaN",""
"","S1","","html-keyboard-response","562","558279","0.0-1.0-776.0","0","0","81199","","null","","","null","86","","","","","","","","","","","","","","","",""
"","ISI","","html-keyboard-response","563","560282","0.0-1.0-777.0","0","0","81199","","null","","","null","86","NaN","","","","","","","","","","","","","","",""
"","S2","","html-keyboard-response","564","560537","0.0-1.0-778.0","0","0","81199","","null","","","null","86","","NaN","","","","","","","","","","","","","",""
"","response","","html-keyboard-response","565","560902","0.0-1.0-779.0","0","0","81199","","360","","","68","86","","","2","86","training","adjacent","CD","3","4","R.jpg","L.jpg","0","1","0","",""
"","feedback","","html-keyboard-response","566","561907","0.0-1.0-780.0-0.0","0","0","81199","","null","","","null","86","","","","","","","","","","","","","","","",""
"","time_out","","html-keyboard-response","567","563911","0.0-1.0-782.0-0.0","0","0","81199","","null","","","null","86","","","","","","","","","","","","","","","",""
"","ITI","","html-keyboard-response","568","564916","0.0-1.0-783.0","0","0","81199","","null","","","null","86","","","","","","","","","","","","","","","NaN",""
"","S1","","html-keyboard-response","569","565170","0.0-1.0-785.0","0","0","81199","","null","","","null","87","","","","","","","","","","","","","","","",""
"","ISI","","html-keyboard-response","570","567174","0.0-1.0-786.0","0","0","81199","","null","","","null","87","NaN","","","","","","","","","","","","","","",""
"","S2","","html-keyboard-response","571","567429","0.0-1.0-787.0","0","0","81199","","null","","","null","87","","NaN","","","","","","","","","","","","","",""
"","response","","html-keyboard-response","572","568140","0.0-1.0-788.0","0","0","81199","","707","","","68","87","","","2","87","training","adjacent","AB","1","2","N.jpg","P.jpg","0","1","0","",""
"","feedback","","html-keyboard-response","573","569145","0.0-1.0-789.0-0.0","0","0","81199","","null","","","null","87","","","","","","","","","","","","","","","",""
"","time_out","","html-keyboard-response","574","571149","0.0-1.0-791.0-0.0","0","0","81199","","null","","","null","87","","","","","","","","","","","","","","","",""
"","ITI","","html-keyboard-response","575","572154","0.0-1.0-792.0","0","0","81199","","null","","","null","87","","","","","","","","","","","","","","","NaN",""
"","S1","","html-keyboard-response","576","572409","0.0-1.0-794.0","0","0","81199","","null","","","null","88","","","","","","","","","","","","","","","",""
"","ISI","","html-keyboard-response","577","574413","0.0-1.0-795.0","0","0","81199","","null","","","null","88","NaN","","","","","","","","","","","","","","",""
"","S2","","html-keyboard-response","578","574668","0.0-1.0-796.0","0","0","81199","","null","","","null","88","","NaN","","","","","","","","","","","","","",""
"","response","","html-keyboard-response","579","575231","0.0-1.0-797.0","0","0","81199","","559","","","75","88","","","2","88","training","adjacent","DC","4","3","L.jpg","R.jpg","1","0","0","",""
"","feedback","","html-keyboard-response","580","576236","0.0-1.0-798.0-0.0","0","0","81199","","null","","","null","88","","","","","","","","","","","","","","","",""
"","time_out","","html-keyboard-response","581","578240","0.0-1.0-800.0-0.0","0","0","81199","","null","","","null","88","","","","","","","","","","","","","","","",""
"","ITI","","html-keyboard-response","582","579244","0.0-1.0-801.0","0","0","81199","","null","","","null","88","","","","","","","","","","","","","","","NaN",""
"","S1","","html-keyboard-response","583","579499","0.0-1.0-803.0","0","0","81199","","null","","","null","89","","","","","","","","","","","","","","","",""
"","ISI","","html-keyboard-response","584","581503","0.0-1.0-804.0","0","0","81199","","null","","","null","89","NaN","","","","","","","","","","","","","","",""
"","S2","","html-keyboard-response","585","581757","0.0-1.0-805.0","0","0","81199","","null","","","null","89","","NaN","","","","","","","","","","","","","",""
