"success","ttype","start_time","trial_type","trial_index","time_elapsed","internal_node_id","warning","missed_checkup","PID","view_history","rt","responses","repeat_instructions","key_press","index","keypress_isi","keypress_S2","block","trial_num","phase","group_type","pair_type","S1_stim","S2_stim","S1_img","S2_img","S1_chosen","S1_higher","accuracy","keypress_iti","total_bonus_tally"
"true","full_screen","d08012022hr1345","fullscreen","0","12061","0.0-0.0","0","0","43628","","","","","","","","","","","","","","","","","","","","","",""
"","instructions","","instructions","1","43252","0.0-1.0-0.0-0.0","0","0","43628","[{""page_index"":0,""viewing_time"":2964},{""page_index"":1,""viewing_time"":17567},{""page_index"":2,""viewing_time"":9280},{""page_index"":3,""viewing_time"":1377}]","31189","","","","","","","","","","","","","","","","","","","",""
"","comprehension_check","","survey-multi-choice","2","60940","0.0-1.0-0.0-1.0","0","0","43628","","17683","{""Q0"":""True"",""Q1"":""D"",""Q2"":""While the images are shown"",""Q3"":""Green mark"",""Q4"":""either D or K""}","1","","","","","","","","","","","","","","","","","",""
"","missed_instruction_checkup","","html-keyboard-response","3","62873","0.0-1.0-0.0-2.0-0.0","0","1","43628","","1928","","","32","","","","","","","","","","","","","","","","",""
"","instructions","","instructions","4","76833","0.0-1.0-0.1-0.1","0","0","43628","[{""page_index"":0,""viewing_time"":4135},{""page_index"":1,""viewing_time"":6902},{""page_index"":2,""viewing_time"":2008},{""page_index"":3,""viewing_time"":912}]","13958","","","","","","","","","","","","","","","","","","","",""
"","comprehension_check","","survey-multi-choice","5","85514","0.0-1.0-0.1-1.1","0","0","43628","","8675","{""Q0"":""True"",""Q1"":""D"",""Q2"":""When you see the prompt 'MAKE A CHOICE' after the second image was presented"",""Q3"":""Green mark"",""Q4"":""either D or K""}","0","","","","","","","","","","","","","","","","","",""
"","start_exp","","html-keyboard-response","6","87015","0.0-1.0-1.0","0","0","43628","","1497","","","32","","","","","","","","","","","","","","","","",""
"","S1","","html-keyboard-response","7","87270","0.0-1.0-2.0","0","0","43628","","null","","","null","0","","","","","","","","","","","","","","","",""
"","ISI","","html-keyboard-response","8","89274","0.0-1.0-3.0","0","0","43628","","null","","","null","0","NaN","","","","","","","","","","","","","","",""
"","S2","","html-keyboard-response","9","89529","0.0-1.0-4.0","0","0","43628","","null","","","null","0","","NaN","","","","","","","","","","","","","",""
"","response","","html-keyboard-response","10","90852","0.0-1.0-5.0","0","0","43628","","1317","","","68","0","","","1","0","training","adjacent","CD","3","4","N.jpg","M.jpg","1","1","1","",""
"","feedback","","html-keyboard-response","11","91854","0.0-1.0-6.0-0.0","0","0","43628","","null","","","null","0","","","","","","","","","","","","","","","",""
"","ITI","","html-keyboard-response","12","92858","0.0-1.0-9.0","0","0","43628","","null","","","null","0","","","","","","","","","","","","","","","NaN",""
"","S1","","html-keyboard-response","13","93125","0.0-1.0-11.0","0","0","43628","","null","","","null","1","","","","","","","","","","","","","","","",""
"","ISI","","html-keyboard-response","14","95127","0.0-1.0-12.0","0","0","43628","","null","","","null","1","NaN","","","","","","","","","","","","","","",""
"","S2","","html-keyboard-response","15","95380","0.0-1.0-13.0","0","0","43628","","null","","","null","1","","NaN","","","","","","","","","","","","","",""
"","response","","html-keyboard-response","16","95760","0.0-1.0-14.0","0","0","43628","","375","","","75","1","","","1","1","training","adjacent","DC","4","3","M.jpg","N.jpg","0","0","1","",""
"","feedback","","html-keyboard-response","17","96764","0.0-1.0-15.0-0.0","0","0","43628","","null","","","null","1","","","","","","","","","","","","","","","",""
"","ITI","","html-keyboard-response","18","97768","0.0-1.0-18.0","0","0","43628","","null","","","null","1","","","","","","","","","","","","","","","NaN",""
"","S1","","html-keyboard-response","19","98022","0.0-1.0-20.0","0","0","43628","","null","","","null","2","","","","","","","","","","","","","","","",""
"","ISI","","html-keyboard-response","20","100026","0.0-1.0-21.0","0","0","43628","","null","","","null","2","NaN","","","","","","","","","","","","","","",""
"","S2","","html-keyboard-response","21","100281","0.0-1.0-22.0","0","0","43628","","null","","","null","2","","NaN","","","","","","","","","","","","","",""
"","response","","html-keyboard-response","22","100572","0.0-1.0-23.0","0","0","43628","","287","","","75","2","","","1","2","training","adjacent","BC","2","3","Q.jpg","N.jpg","0","1","0","",""
"","feedback","","html-keyboard-response","23","101576","0.0-1.0-24.0-0.0","0","0","43628","","null","","","null","2","","","","","","","","","","","","","","","",""
"","time_out","","html-keyboard-response","24","103581","0.0-1.0-26.0-0.0","0","0","43628","","null","","","null","2","","","","","","","","","","","","","","","",""
"","ITI","","html-keyboard-response","25","104584","0.0-1.0-27.0","0","0","43628","","null","","","null","2","","","","","","","","","","","","","","","NaN",""
"","S1","","html-keyboard-response","26","104839","0.0-1.0-29.0","0","0","43628","","null","","","null","3","","","","","","","","","","","","","","","",""
"","ISI","","html-keyboard-response","27","106842","0.0-1.0-30.0","0","0","43628","","null","","","null","3","NaN","","","","","","","","","","","","","","",""
"","S2","","html-keyboard-response","28","107096","0.0-1.0-31.0","0","0","43628","","null","","","null","3","","NaN","","","","","","","","","","","","","",""
"","response","","html-keyboard-response","29","107517","0.0-1.0-32.0","0","0","43628","","417","","","68","3","","","1","3","training","adjacent","FE","6","5","O.jpg","R.jpg","1","0","0","",""
"","feedback","","html-keyboard-response","30","108521","0.0-1.0-33.0-0.0","0","0","43628","","null","","","null","3","","","","","","","","","","","","","","","",""
"","time_out","","html-keyboard-response","31","110524","0.0-1.0-35.0-0.0","0","0","43628","","null","","","null","3","","","","","","","","","","","","","","","",""
"","ITI","","html-keyboard-response","32","111528","0.0-1.0-36.0","0","0","43628","","null","","","null","3","","","","","","","","","","","","","","","NaN",""
"","S1","","html-keyboard-response","33","111782","0.0-1.0-38.0","0","0","43628","","null","","","null","4","","","","","","","","","","","","","","","",""
"","ISI","","html-keyboard-response","34","113787","0.0-1.0-39.0","0","0","43628","","null","","","null","4","NaN","","","","","","","","","","","","","","",""
"","S2","","html-keyboard-response","35","114041","0.0-1.0-40.0","0","0","43628","","240","","","75","4","","k","","","","","","","","","","","","","",""
"","response","","html-keyboard-response","36","115107","0.0-1.0-41.0","0","0","43628","","1060","","","75","4","","","1","4","training","adjacent","CB","3","2","N.jpg","Q.jpg","0","0","1","",""
"","feedback","","html-keyboard-response","37","116111","0.0-1.0-42.0-0.0","0","0","43628","","null","","","null","4","","","","","","","","","","","","","","","",""
"","ITI","","html-keyboard-response","38","117114","0.0-1.0-45.0","0","0","43628","","null","","","null","4","","","","","","","","","","","","","","","NaN",""
"","S1","","html-keyboard-response","39","117369","0.0-1.0-47.0","0","0","43628","","null","","","null","5","","","","","","","","","","","","","","","",""
"","ISI","","html-keyboard-response","40","119372","0.0-1.0-48.0","0","0","43628","","null","","","null","5","NaN","","","","","","","","","","","","","","",""
"","S2","","html-keyboard-response","41","119627","0.0-1.0-49.0","0","0","43628","","null","","","null","5","","NaN","","","","","","","","","","","","","",""
"","response","","html-keyboard-response","42","120557","0.0-1.0-50.0","0","0","43628","","926","","","75","5","","","1","5","training","adjacent","FE","6","5","O.jpg","R.jpg","0","0","1","",""
"","feedback","","html-keyboard-response","43","121562","0.0-1.0-51.0-0.0","0","0","43628","","null","","","null","5","","","","","","","","","","","","","","","",""
"","ITI","","html-keyboard-response","44","122564","0.0-1.0-54.0","0","0","43628","","null","","","null","5","","","","","","","","","","","","","","","NaN",""
"","S1","","html-keyboard-response","45","122817","0.0-1.0-56.0","0","0","43628","","null","","","null","6","","","","","","","","","","","","","","","",""
"","ISI","","html-keyboard-response","46","124820","0.0-1.0-57.0","0","0","43628","","null","","","null","6","NaN","","","","","","","","","","","","","","",""
"","S2","","html-keyboard-response","47","125075","0.0-1.0-58.0","0","0","43628","","null","","","null","6","","NaN","","","","","","","","","","","","","",""
"","response","","html-keyboard-response","48","125472","0.0-1.0-59.0","0","0","43628","","393","","","75","6","","","1","6","training","adjacent","GF","7","6","L.jpg","O.jpg","0","0","1","",""
"","feedback","","html-keyboard-response","49","126476","0.0-1.0-60.0-0.0","0","0","43628","","null","","","null","6","","","","","","","","","","","","","","","",""
"","ITI","","html-keyboard-response","50","127480","0.0-1.0-63.0","0","0","43628","","null","","","null","6","","","","","","","","","","","","","","","NaN",""
"","S1","","html-keyboard-response","51","127733","0.0-1.0-65.0","0","0","43628","","null","","","null","7","","","","","","","","","","","","","","","",""
"","ISI","","html-keyboard-response","52","129736","0.0-1.0-66.0","0","0","43628","","null","","","null","7","NaN","","","","","","","","","","","","","","",""
"","S2","","html-keyboard-response","53","129991","0.0-1.0-67.0","0","0","43628","","null","","","null","7","","NaN","","","","","","","","","","","","","",""
"","response","","html-keyboard-response","54","130710","0.0-1.0-68.0","0","0","43628","","716","","","68","7","","","1","7","training","adjacent","FG","6","7","O.jpg","L.jpg","1","1","1","",""
"","feedback","","html-keyboard-response","55","131713","0.0-1.0-69.0-0.0","0","0","43628","","null","","","null","7","","","","","","","","","","","","","","","",""
"","ITI","","html-keyboard-response","56","132716","0.0-1.0-72.0","0","0","43628","","null","","","null","7","","","","","","","","","","","","","","","NaN",""
"","S1","","html-keyboard-response","57","132971","0.0-1.0-74.0","0","0","43628","","null","","","null","8","","","","","","","","","","","","","","","",""
"","ISI","","html-keyboard-response","58","134974","0.0-1.0-75.0","0","0","43628","","null","","","null","8","NaN","","","","","","","","","","","","","","",""
"","S2","","html-keyboard-response","59","135233","0.0-1.0-76.0","0","0","43628","","null","","","null","8","","NaN","","","","","","","","","","","","","",""
"","response","","html-keyboard-response","60","135768","0.0-1.0-77.0","0","0","43628","","532","","","68","8","","","1","8","training","adjacent","CB","3","2","N.jpg","Q.jpg","1","0","0","",""
"","feedback","","html-keyboard-response","61","136769","0.0-1.0-78.0-0.0","0","0","43628","","null","","","null","8","","","","","","","","","","","","","","","",""
"","time_out","","html-keyboard-response","62","138773","0.0-1.0-80.0-0.0","0","0","43628","","null","","","null","8","","","","","","","","","","","","","","","",""
"","ITI","","html-keyboard-response","63","139776","0.0-1.0-81.0","0","0","43628","","null","","","null","8","","","","","","","","","","","","","","","NaN",""
"","S1","","html-keyboard-response","64","140030","0.0-1.0-83.0","0","0","43628","","null","","","null","9","","","","","","","","","","","","","","","",""
"","ISI","","html-keyboard-response","65","142034","0.0-1.0-84.0","0","0","43628","","null","","","null","9","NaN","","","","","","","","","","","","","","",""
"","S2","","html-keyboard-response","66","142291","0.0-1.0-85.0","0","0","43628","","null","","","null","9","","NaN","","","","","","","","","","","","","",""
"","response","","html-keyboard-response","67","142592","0.0-1.0-86.0","0","0","43628","","297","","","75","9","","","1","9","training","adjacent","DE","4","5","M.jpg","R.jpg","0","1","0","",""
"","feedback","","html-keyboard-response","68","143597","0.0-1.0-87.0-0.0","0","0","43628","","null","","","null","9","","","","","","","","","","","","","","","",""
"","time_out","","html-keyboard-response","69","145601","0.0-1.0-89.0-0.0","0","0","43628","","null","","","null","9","","","","","","","","","","","","","","","",""
"","ITI","","html-keyboard-response","70","146605","0.0-1.0-90.0","0","0","43628","","null","","","null","9","","","","","","","","","","","","","","","NaN",""
"","S1","","html-keyboard-response","71","146859","0.0-1.0-92.0","0","0","43628","","null","","","null","10","","","","","","","","","","","","","","","",""
"","ISI","","html-keyboard-response","72","148863","0.0-1.0-93.0","0","0","43628","","null","","","null","10","NaN","","","","","","","","","","","","","","",""
"","S2","","html-keyboard-response","73","149117","0.0-1.0-94.0","0","0","43628","","null","","","null","10","","NaN","","","","","","","","","","","","","",""
"","response","","html-keyboard-response","74","149542","0.0-1.0-95.0","0","0","43628","","421","","","68","10","","","1","10","training","adjacent","ED","5","4","R.jpg","M.jpg","1","0","0","",""
"","feedback","","html-keyboard-response","75","150546","0.0-1.0-96.0-0.0","0","0","43628","","null","","","null","10","","","","","","","","","","","","","","","",""
"","time_out","","html-keyboard-response","76","152550","0.0-1.0-98.0-0.0","0","0","43628","","null","","","null","10","","","","","","","","","","","","","","","",""
"","ITI","","html-keyboard-response","77","153552","0.0-1.0-99.0","0","0","43628","","null","","","null","10","","","","","","","","","","","","","","","NaN",""
"","S1","","html-keyboard-response","78","153805","0.0-1.0-101.0","0","0","43628","","null","","","null","11","","","","","","","","","","","","","","","",""
"","ISI","","html-keyboard-response","79","155808","0.0-1.0-102.0","0","0","43628","","null","","","null","11","NaN","","","","","","","","","","","","","","",""
"","S2","","html-keyboard-response","80","156063","0.0-1.0-103.0","0","0","43628","","227","","","75","11","","k","","","","","","","","","","","","","",""
"","response","","html-keyboard-response","81","156592","0.0-1.0-104.0","0","0","43628","","526","","","75","11","","","1","11","training","adjacent","CD","3","4","N.jpg","M.jpg","0","1","0","",""
"","feedback","","html-keyboard-response","82","157597","0.0-1.0-105.0-0.0","0","0","43628","","null","","","null","11","","","","","","","","","","","","","","","",""
"","time_out","","html-keyboard-response","83","159599","0.0-1.0-107.0-0.0","0","0","43628","","null","","","null","11","","","","","","","","","","","","","","","",""
"","ITI","","html-keyboard-response","84","160603","0.0-1.0-108.0","0","0","43628","","null","","","null","11","","","","","","","","","","","","","","","NaN",""
"","S1","","html-keyboard-response","85","160856","0.0-1.0-110.0","0","0","43628","","null","","","null","12","","","","","","","","","","","","","","","",""
"","ISI","","html-keyboard-response","86","162860","0.0-1.0-111.0","0","0","43628","","null","","","null","12","NaN","","","","","","","","","","","","","","",""
"","S2","","html-keyboard-response","87","163113","0.0-1.0-112.0","0","0","43628","","null","","","null","12","","NaN","","","","","","","","","","","","","",""
"","response","","html-keyboard-response","88","164133","0.0-1.0-113.0","0","0","43628","","1017","","","75","12","","","1","12","training","adjacent","FG","6","7","O.jpg","L.jpg","0","1","0","",""
"","feedback","","html-keyboard-response","89","165138","0.0-1.0-114.0-0.0","0","0","43628","","null","","","null","12","","","","","","","","","","","","","","","",""
"","time_out","","html-keyboard-response","90","167142","0.0-1.0-116.0-0.0","0","0","43628","","null","","","null","12","","","","","","","","","","","","","","","",""
"","ITI","","html-keyboard-response","91","168145","0.0-1.0-117.0","0","0","43628","","null","","","null","12","","","","","","","","","","","","","","","NaN",""
"","S1","","html-keyboard-response","92","168399","0.0-1.0-119.0","0","0","43628","","null","","","null","13","","","","","","","","","","","","","","","",""
"","ISI","","html-keyboard-response","93","170403","0.0-1.0-120.0","0","0","43628","","null","","","null","13","NaN","","","","","","","","","","","","","","",""
"","S2","","html-keyboard-response","94","170657","0.0-1.0-121.0","0","0","43628","","null","","","null","13","","NaN","","","","","","","","","","","","","",""
"","response","","html-keyboard-response","95","170901","0.0-1.0-122.0","0","0","43628","","241","","","75","13","","","1","13","training","adjacent","ED","5","4","R.jpg","M.jpg","0","0","1","",""
"","feedback","","html-keyboard-response","96","171905","0.0-1.0-123.0-0.0","0","0","43628","","null","","","null","13","","","","","","","","","","","","","","","",""
"","ITI","","html-keyboard-response","97","172908","0.0-1.0-126.0","0","0","43628","","null","","","null","13","","","","","","","","","","","","","","","NaN",""
"","S1","","html-keyboard-response","98","173162","0.0-1.0-128.0","0","0","43628","","null","","","null","14","","","","","","","","","","","","","","","",""
"","ISI","","html-keyboard-response","99","175165","0.0-1.0-129.0","0","0","43628","","null","","","null","14","NaN","","","","","","","","","","","","","","",""
"","S2","","html-keyboard-response","100","175419","0.0-1.0-130.0","0","0","43628","","null","","","null","14","","NaN","","","","","","","","","","","","","",""
"","response","","html-keyboard-response","101","175886","0.0-1.0-131.0","0","0","43628","","464","","","75","14","","","1","14","training","adjacent","DE","4","5","M.jpg","R.jpg","0","1","0","",""
"","feedback","","html-keyboard-response","102","176890","0.0-1.0-132.0-0.0","0","0","43628","","null","","","null","14","","","","","","","","","","","","","","","",""
"","time_out","","html-keyboard-response","103","178892","0.0-1.0-134.0-0.0","0","0","43628","","null","","","null","14","","","","","","","","","","","","","","","",""
"","ITI","","html-keyboard-response","104","179896","0.0-1.0-135.0","0","0","43628","","null","","","null","14","","","","","","","","","","","","","","","NaN",""
"","S1","","html-keyboard-response","105","180150","0.0-1.0-137.0","0","0","43628","","null","","","null","15","","","","","","","","","","","","","","","",""
"","ISI","","html-keyboard-response","106","182153","0.0-1.0-138.0","0","0","43628","","null","","","null","15","NaN","","","","","","","","","","","","","","",""
"","S2","","html-keyboard-response","107","182407","0.0-1.0-139.0","0","0","43628","","null","","","null","15","","NaN","","","","","","","","","","","","","",""
"","response","","html-keyboard-response","108","182878","0.0-1.0-140.0","0","0","43628","","468","","","75","15","","","1","15","training","adjacent","FE","6","5","O.jpg","R.jpg","0","0","1","",""
"","feedback","","html-keyboard-response","109","183879","0.0-1.0-141.0-0.0","0","0","43628","","null","","","null","15","","","","","","","","","","","","","","","",""
"","ITI","","html-keyboard-response","110","184882","0.0-1.0-144.0","0","0","43628","","null","","","null","15","","","","","","","","","","","","","","","NaN",""
"","S1","","html-keyboard-response","111","185136","0.0-1.0-146.0","0","0","43628","","null","","","null","16","","","","","","","","","","","","","","","",""
"","ISI","","html-keyboard-response","112","187140","0.0-1.0-147.0","0","0","43628","","null","","","null","16","NaN","","","","","","","","","","","","","","",""
"","S2","","html-keyboard-response","113","187394","0.0-1.0-148.0","0","0","43628","","null","","","null","16","","NaN","","","","","","","","","","","","","",""
"","response","","html-keyboard-response","114","188085","0.0-1.0-149.0","0","0","43628","","688","","","75","16","","","1","16","training","adjacent","AB","1","2","P.jpg","Q.jpg","0","1","0","",""
"","feedback","","html-keyboard-response","115","189090","0.0-1.0-150.0-0.0","0","0","43628","","null","","","null","16","","","","","","","","","","","","","","","",""
"","time_out","","html-keyboard-response","116","191093","0.0-1.0-152.0-0.0","0","0","43628","","null","","","null","16","","","","","","","","","","","","","","","",""
"","ITI","","html-keyboard-response","117","192095","0.0-1.0-153.0","0","0","43628","","null","","","null","16","","","","","","","","","","","","","","","NaN",""
"","S1","","html-keyboard-response","118","192349","0.0-1.0-155.0","0","0","43628","","null","","","null","17","","","","","","","","","","","","","","","",""
"","ISI","","html-keyboard-response","119","194353","0.0-1.0-156.0","0","0","43628","","null","","","null","17","NaN","","","","","","","","","","","","","","",""
"","S2","","html-keyboard-response","120","194608","0.0-1.0-157.0","0","0","43628","","null","","","null","17","","NaN","","","","","","","","","","","","","",""
"","response","","html-keyboard-response","121","194647","0.0-1.0-158.0","0","0","43628","","37","","","75","17","","","1","17","training","adjacent","BC","2","3","Q.jpg","N.jpg","0","1","0","",""
"","feedback","","html-keyboard-response","122","195650","0.0-1.0-159.0-0.0","0","0","43628","","null","","","null","17","","","","","","","","","","","","","","","",""
"","time_out","","html-keyboard-response","123","197653","0.0-1.0-161.0-0.0","0","0","43628","","null","","","null","17","","","","","","","","","","","","","","","",""
"","ITI","","html-keyboard-response","124","198657","0.0-1.0-162.0","0","0","43628","","null","","","null","17","","","","","","","","","","","","","","","NaN",""
"","S1","","html-keyboard-response","125","198911","0.0-1.0-164.0","0","0","43628","","null","","","null","18","","","","","","","","","","","","","","","",""
"","ISI","","html-keyboard-response","126","200914","0.0-1.0-165.0","0","0","43628","","null","","","null","18","NaN","","","","","","","","","","","","","","",""
"","S2","","html-keyboard-response","127","201167","0.0-1.0-166.0","0","0","43628","","null","","","null","18","","NaN","","","","","","","","","","","","","",""
"","response","","html-keyboard-response","128","201494","0.0-1.0-167.0","0","0","43628","","324","","","68","18","","","1","18","training","adjacent","EF","5","6","R.jpg","O.jpg","1","1","1","",""
"","feedback","","html-keyboard-response","129","202499","0.0-1.0-168.0-0.0","0","0","43628","","null","","","null","18","","","","","","","","","","","","","","","",""
"","ITI","","html-keyboard-response","130","203503","0.0-1.0-171.0","0","0","43628","","null","","","null","18","","","","","","","","","","","","","","","NaN",""
"","S1","","html-keyboard-response","131","203756","0.0-1.0-173.0","0","0","43628","","null","","","null","19","","","","","","","","","","","","","","","",""
"","ISI","","html-keyboard-response","132","205759","0.0-1.0-174.0","0","0","43628","","null","","","null","19","NaN","","","","","","","","","","","","","","",""
"","S2","","html-keyboard-response","133","206013","0.0-1.0-175.0","0","0","43628","","null","","","null","19","","NaN","","","","","","","","","","","","","",""
"","response","","html-keyboard-response","134","206071","0.0-1.0-176.0","0","0","43628","","55","","","68","19","","","1","19","training","adjacent","DC","4","3","M.jpg","N.jpg","1","0","0","",""
"","feedback","","html-keyboard-response","135","207075","0.0-1.0-177.0-0.0","0","0","43628","","null","","","null","19","","","","","","","","","","","","","","","",""
"","time_out","","html-keyboard-response","136","209079","0.0-1.0-179.0-0.0","0","0","43628","","null","","","null","19","","","","","","","","","","","","","","","",""
"","ITI","","html-keyboard-response","137","210082","0.0-1.0-180.0","0","0","43628","","null","","","null","19","","","","","","","","","","","","","","","NaN",""
"","S1","","html-keyboard-response","138","210336","0.0-1.0-182.0","0","0","43628","","null","","","null","20","","","","","","","","","","","","","","","",""
"","ISI","","html-keyboard-response","139","212340","0.0-1.0-183.0","0","0","43628","","395","","","68","20","d","","","","","","","","","","","","","","",""
"","S2","","html-keyboard-response","140","212595","0.0-1.0-184.0","0","0","43628","","null","","","null","20","","NaN","","","","","","","","","","","","","",""
"","response","","html-keyboard-response","141","213015","0.0-1.0-185.0","0","0","43628","","417","","","68","20","","","1","20","training","adjacent","EF","5","6","R.jpg","O.jpg","1","1","1","",""
"","feedback","","html-keyboard-response","142","214020","0.0-1.0-186.0-0.0","0","0","43628","","null","","","null","20","","","","","","","","","","","","","","","",""
"","ITI","","html-keyboard-response","143","215022","0.0-1.0-189.0","0","0","43628","","null","","","null","20","","","","","","","","","","","","","","","NaN",""
"","S1","","html-keyboard-response","144","215281","0.0-1.0-191.0","0","0","43628","","null","","","null","21","","","","","","","","","","","","","","","",""
"","ISI","","html-keyboard-response","145","217285","0.0-1.0-192.0","0","0","43628","","null","","","null","21","NaN","","","","","","","","","","","","","","",""
"","S2","","html-keyboard-response","146","217539","0.0-1.0-193.0","0","0","43628","","null","","","null","21","","NaN","","","","","","","","","","","","","",""
"","response","","html-keyboard-response","147","217759","0.0-1.0-194.0","0","0","43628","","218","","","68","21","","","1","21","training","adjacent","FG","6","7","O.jpg","L.jpg","1","1","1","",""
"","feedback","","html-keyboard-response","148","218763","0.0-1.0-195.0-0.0","0","0","43628","","null","","","null","21","","","","","","","","","","","","","","","",""
"","ITI","","html-keyboard-response","149","219767","0.0-1.0-198.0","0","0","43628","","null","","","null","21","","","","","","","","","","","","","","","NaN",""
"","S1","","html-keyboard-response","150","220021","0.0-1.0-200.0","0","0","43628","","null","","","null","22","","","","","","","","","","","","","","","",""
"","ISI","","html-keyboard-response","151","222024","0.0-1.0-201.0","0","0","43628","","null","","","null","22","NaN","","","","","","","","","","","","","","",""
"","S2","","html-keyboard-response","152","222278","0.0-1.0-202.0","0","0","43628","","null","","","null","22","","NaN","","","","","","","","","","","","","",""
"","response","","html-keyboard-response","153","223026","0.0-1.0-203.0","0","0","43628","","743","","","75","22","","","1","22","training","adjacent","CD","3","4","N.jpg","M.jpg","0","1","0","",""
"","feedback","","html-keyboard-response","154","224030","0.0-1.0-204.0-0.0","0","0","43628","","null","","","null","22","","","","","","","","","","","","","","","",""
"","time_out","","html-keyboard-response","155","226034","0.0-1.0-206.0-0.0","0","0","43628","","null","","","null","22","","","","","","","","","","","","","","","",""
"","ITI","","html-keyboard-response","156","227038","0.0-1.0-207.0","0","0","43628","","null","","","null","22","","","","","","","","","","","","","","","NaN",""
"","S1","","html-keyboard-response","157","227292","0.0-1.0-209.0","0","0","43628","","null","","","null","23","","","","","","","","","","","","","","","",""
"","ISI","","html-keyboard-response","158","229295","0.0-1.0-210.0","0","0","43628","","null","","","null","23","NaN","","","","","","","","","","","","","","",""
"","S2","","html-keyboard-response","159","229548","0.0-1.0-211.0","0","0","43628","","null","","","null","23","","NaN","","","","","","","","","","","","","",""
"","response","","html-keyboard-response","160","230023","0.0-1.0-212.0","0","0","43628","","472","","","68","23","","","1","23","training","adjacent","CD","3","4","N.jpg","M.jpg","1","1","1","",""
"","feedback","","html-keyboard-response","161","231027","0.0-1.0-213.0-0.0","0","0","43628","","null","","","null","23","","","","","","","","","","","","","","","",""
"","ITI","","html-keyboard-response","162","232031","0.0-1.0-216.0","0","0","43628","","null","","","null","23","","","","","","","","","","","","","","","NaN",""
"","S1","","html-keyboard-response","163","232284","0.0-1.0-218.0","0","0","43628","","null","","","null","24","","","","","","","","","","","","","","","",""
"","ISI","","html-keyboard-response","164","234288","0.0-1.0-219.0","0","0","43628","","null","","","null","24","NaN","","","","","","","","","","","","","","",""
"","S2","","html-keyboard-response","165","234541","0.0-1.0-220.0","0","0","43628","","null","","","null","24","","NaN","","","","","","","","","","","","","",""
"","response","","html-keyboard-response","166","235641","0.0-1.0-221.0","0","0","43628","","1096","","","68","24","","","1","24","training","adjacent","BA","2","1","Q.jpg","P.jpg","1","0","0","",""
"","feedback","","html-keyboard-response","167","236643","0.0-1.0-222.0-0.0","0","0","43628","","null","","","null","24","","","","","","","","","","","","","","","",""
"","time_out","","html-keyboard-response","168","238646","0.0-1.0-224.0-0.0","0","0","43628","","null","","","null","24","","","","","","","","","","","","","","","",""
"","ITI","","html-keyboard-response","169","239650","0.0-1.0-225.0","0","0","43628","","null","","","null","24","","","","","","","","","","","","","","","NaN",""
"","S1","","html-keyboard-response","170","239904","0.0-1.0-227.0","0","0","43628","","null","","","null","25","","","","","","","","","","","","","","","",""
"","ISI","","html-keyboard-response","171","241909","0.0-1.0-228.0","0","0","43628","","null","","","null","25","NaN","","","","","","","","","","","","","","",""
"","S2","","html-keyboard-response","172","242164","0.0-1.0-229.0","0","0","43628","","null","","","null","25","","NaN","","","","","","","","","","","","","",""
"","response","","html-keyboard-response","173","242585","0.0-1.0-230.0","0","0","43628","","418","","","68","25","","","1","25","training","adjacent","AB","1","2","P.jpg","Q.jpg","1","1","1","",""
"","feedback","","html-keyboard-response","174","243590","0.0-1.0-231.0-0.0","0","0","43628","","null","","","null","25","","","","","","","","","","","","","","","",""
"","ITI","","html-keyboard-response","175","244592","0.0-1.0-234.0","0","0","43628","","null","","","null","25","","","","","","","","","","","","","","","NaN",""
"","S1","","html-keyboard-response","176","244846","0.0-1.0-236.0","0","0","43628","","null","","","null","26","","","","","","","","","","","","","","","",""
"","ISI","","html-keyboard-response","177","246849","0.0-1.0-237.0","0","0","43628","","null","","","null","26","NaN","","","","","","","","","","","","","","",""
"","S2","","html-keyboard-response","178","247103","0.0-1.0-238.0","0","0","43628","","null","","","null","26","","NaN","","","","","","","","","","","","","",""
"","response","","html-keyboard-response","179","247504","0.0-1.0-239.0","0","0","43628","","398","","","68","26","","","1","26","training","adjacent","BA","2","1","Q.jpg","P.jpg","1","0","0","",""
"","feedback","","html-keyboard-response","180","248508","0.0-1.0-240.0-0.0","0","0","43628","","null","","","null","26","","","","","","","","","","","","","","","",""
"","time_out","","html-keyboard-response","181","250512","0.0-1.0-242.0-0.0","0","0","43628","","null","","","null","26","","","","","","","","","","","","","","","",""
"","ITI","","html-keyboard-response","182","251516","0.0-1.0-243.0","0","0","43628","","null","","","null","26","","","","","","","","","","","","","","","NaN",""
"","S1","","html-keyboard-response","183","251770","0.0-1.0-245.0","0","0","43628","","null","","","null","27","","","","","","","","","","","","","","","",""
"","ISI","","html-keyboard-response","184","253772","0.0-1.0-246.0","0","0","43628","","null","","","null","27","NaN","","","","","","","","","","","","","","",""
"","S2","","html-keyboard-response","185","254027","0.0-1.0-247.0","0","0","43628","","null","","","null","27","","NaN","","","","","","","","","","","","","",""
"","response","","html-keyboard-response","186","254657","0.0-1.0-248.0","0","0","43628","","627","","","68","27","","","1","27","training","adjacent","ED","5","4","R.jpg","M.jpg","1","0","0","",""
"","feedback","","html-keyboard-response","187","255660","0.0-1.0-249.0-0.0","0","0","43628","","null","","","null","27","","","","","","","","","","","","","","","",""
"","time_out","","html-keyboard-response","188","257664","0.0-1.0-251.0-0.0","0","0","43628","","null","","","null","27","","","","","","","","","","","","","","","",""
"","ITI","","html-keyboard-response","189","258667","0.0-1.0-252.0","0","0","43628","","null","","","null","27","","","","","","","","","","","","","","","NaN",""
"","S1","","html-keyboard-response","190","258920","0.0-1.0-254.0","0","0","43628","","null","","","null","28","","","","","","","","","","","","","","","",""
"","ISI","","html-keyboard-response","191","260923","0.0-1.0-255.0","0","0","43628","","null","","","null","28","NaN","","","","","","","","","","","","","","",""
"","S2","","html-keyboard-response","192","261177","0.0-1.0-256.0","0","0","43628","","null","","","null","28","","NaN","","","","","","","","","","","","","",""
"","response","","html-keyboard-response","193","261575","0.0-1.0-257.0","0","0","43628","","394","","","75","28","","","1","28","training","adjacent","ED","5","4","R.jpg","M.jpg","0","0","1","",""
"","feedback","","html-keyboard-response","194","262580","0.0-1.0-258.0-0.0","0","0","43628","","null","","","null","28","","","","","","","","","","","","","","","",""
"","ITI","","html-keyboard-response","195","263583","0.0-1.0-261.0","0","0","43628","","null","","","null","28","","","","","","","","","","","","","","","NaN",""
"","S1","","html-keyboard-response","196","263838","0.0-1.0-263.0","0","0","43628","","null","","","null","29","","","","","","","","","","","","","","","",""
"","ISI","","html-keyboard-response","197","265842","0.0-1.0-264.0","0","0","43628","","null","","","null","29","NaN","","","","","","","","","","","","","","",""
"","S2","","html-keyboard-response","198","266111","0.0-1.0-265.0","0","0","43628","","null","","","null","29","","NaN","","","","","","","","","","","","","",""
"","response","","html-keyboard-response","199","266953","0.0-1.0-266.0","0","0","43628","","837","","","75","29","","","1","29","training","adjacent","BC","2","3","Q.jpg","N.jpg","0","1","0","",""
"","feedback","","html-keyboard-response","200","267957","0.0-1.0-267.0-0.0","0","0","43628","","null","","","null","29","","","","","","","","","","","","","","","",""
"","time_out","","html-keyboard-response","201","269960","0.0-1.0-269.0-0.0","0","0","43628","","null","","","null","29","","","","","","","","","","","","","","","",""
"","ITI","","html-keyboard-response","202","270964","0.0-1.0-270.0","0","0","43628","","null","","","null","29","","","","","","","","","","","","","","","NaN",""
"","S1","","html-keyboard-response","203","271218","0.0-1.0-272.0","0","0","43628","","null","","","null","30","","","","","","","","","","","","","","","",""
"","ISI","","html-keyboard-response","204","273222","0.0-1.0-273.0","0","0","43628","","null","","","null","30","NaN","","","","","","","","","","","","","","",""
"","S2","","html-keyboard-response","205","273476","0.0-1.0-274.0","0","0","43628","","null","","","null","30","","NaN","","","","","","","","","","","","","",""
"","response","","html-keyboard-response","206","273924","0.0-1.0-275.0","0","0","43628","","443","","","68","30","","","1","30","training","adjacent","CB","3","2","N.jpg","Q.jpg","1","0","0","",""
"","feedback","","html-keyboard-response","207","274927","0.0-1.0-276.0-0.0","0","0","43628","","null","","","null","30","","","","","","","","","","","","","","","",""
"","time_out","","html-keyboard-response","208","276931","0.0-1.0-278.0-0.0","0","0","43628","","null","","","null","30","","","","","","","","","","","","","","","",""
"","ITI","","html-keyboard-response","209","277935","0.0-1.0-279.0","0","0","43628","","null","","","null","30","","","","","","","","","","","","","","","NaN",""
"","S1","","html-keyboard-response","210","278189","0.0-1.0-281.0","0","0","43628","","null","","","null","31","","","","","","","","","","","","","","","",""
"","ISI","","html-keyboard-response","211","280191","0.0-1.0-282.0","0","0","43628","","null","","","null","31","NaN","","","","","","","","","","","","","","",""
"","S2","","html-keyboard-response","212","280445","0.0-1.0-283.0","0","0","43628","","null","","","null","31","","NaN","","","","","","","","","","","","","",""
"","response","","html-keyboard-response","213","280806","0.0-1.0-284.0","0","0","43628","","357","","","75","31","","","1","31","training","adjacent","BA","2","1","Q.jpg","P.jpg","0","0","1","",""
"","feedback","","html-keyboard-response","214","281809","0.0-1.0-285.0-0.0","0","0","43628","","null","","","null","31","","","","","","","","","","","","","","","",""
"","ITI","","html-keyboard-response","215","282813","0.0-1.0-288.0","0","0","43628","","null","","","null","31","","","","","","","","","","","","","","","NaN",""
"","S1","","html-keyboard-response","216","283068","0.0-1.0-290.0","0","0","43628","","null","","","null","32","","","","","","","","","","","","","","","",""
"","ISI","","html-keyboard-response","217","285071","0.0-1.0-291.0","0","0","43628","","null","","","null","32","NaN","","","","","","","","","","","","","","",""
"","S2","","html-keyboard-response","218","285326","0.0-1.0-292.0","0","0","43628","","null","","","null","32","","NaN","","","","","","","","","","","","","",""
"","response","","html-keyboard-response","219","285837","0.0-1.0-293.0","0","0","43628","","508","","","75","32","","","1","32","training","adjacent","AB","1","2","P.jpg","Q.jpg","0","1","0","",""
"","feedback","","html-keyboard-response","220","286841","0.0-1.0-294.0-0.0","0","0","43628","","null","","","null","32","","","","","","","","","","","","","","","",""
"","time_out","","html-keyboard-response","221","288843","0.0-1.0-296.0-0.0","0","0","43628","","null","","","null","32","","","","","","","","","","","","","","","",""
"","ITI","","html-keyboard-response","222","289846","0.0-1.0-297.0","0","0","43628","","null","","","null","32","","","","","","","","","","","","","","","NaN",""
"","S1","","html-keyboard-response","223","290100","0.0-1.0-299.0","0","0","43628","","null","","","null","33","","","","","","","","","","","","","","","",""
"","ISI","","html-keyboard-response","224","292103","0.0-1.0-300.0","0","0","43628","","null","","","null","33","NaN","","","","","","","","","","","","","","",""
"","S2","","html-keyboard-response","225","292357","0.0-1.0-301.0","0","0","43628","","null","","","null","33","","NaN","","","","","","","","","","","","","",""
"","response","","html-keyboard-response","226","292877","0.0-1.0-302.0","0","0","43628","","516","","","68","33","","","1","33","training","adjacent","DC","4","3","M.jpg","N.jpg","1","0","0","",""
"","feedback","","html-keyboard-response","227","293882","0.0-1.0-303.0-0.0","0","0","43628","","null","","","null","33","","","","","","","","","","","","","","","",""
"","time_out","","html-keyboard-response","228","295885","0.0-1.0-305.0-0.0","0","0","43628","","null","","","null","33","","","","","","","","","","","","","","","",""
"","ITI","","html-keyboard-response","229","296889","0.0-1.0-306.0","0","0","43628","","null","","","null","33","","","","","","","","","","","","","","","NaN",""
"","S1","","html-keyboard-response","230","297143","0.0-1.0-308.0","0","0","43628","","null","","","null","34","","","","","","","","","","","","","","","",""
"","ISI","","html-keyboard-response","231","299147","0.0-1.0-309.0","0","0","43628","","null","","","null","34","NaN","","","","","","","","","","","","","","",""
"","S2","","html-keyboard-response","232","299401","0.0-1.0-310.0","0","0","43628","","null","","","null","34","","NaN","","","","","","","","","","","","","",""
"","response","","html-keyboard-response","233","300292","0.0-1.0-311.0","0","0","43628","","887","","","68","34","","","1","34","training","adjacent","GF","7","6","L.jpg","O.jpg","1","0","0","",""
"","feedback","","html-keyboard-response","234","301297","0.0-1.0-312.0-0.0","0","0","43628","","null","","","null","34","","","","","","","","","","","","","","","",""
"","time_out","","html-keyboard-response","235","303299","0.0-1.0-314.0-0.0","0","0","43628","","null","","","null","34","","","","","","","","","","","","","","","",""
"","ITI","","html-keyboard-response","236","304302","0.0-1.0-315.0","0","0","43628","","null","","","null","34","","","","","","","","","","","","","","","NaN",""
"","S1","","html-keyboard-response","237","304557","0.0-1.0-317.0","0","0","43628","","null","","","null","35","","","","","","","","","","","","","","","",""
"","ISI","","html-keyboard-response","238","306560","0.0-1.0-318.0","0","0","43628","","null","","","null","35","NaN","","","","","","","","","","","","","","",""
"","S2","","html-keyboard-response","239","306814","0.0-1.0-319.0","0","0","43628","","null","","","null","35","","NaN","","","","","","","","","","","","","",""
"","response","","html-keyboard-response","240","307531","0.0-1.0-320.0","0","0","43628","","713","","","68","35","","","1","35","training","adjacent","BC","2","3","Q.jpg","N.jpg","1","1","1","",""
"","feedback","","html-keyboard-response","241","308535","0.0-1.0-321.0-0.0","0","0","43628","","null","","","null","35","","","","","","","","","","","","","","","",""
"","ITI","","html-keyboard-response","242","309539","0.0-1.0-324.0","0","0","43628","","null","","","null","35","","","","","","","","","","","","","","","NaN",""
"","S1","","html-keyboard-response","243","309793","0.0-1.0-326.0","0","0","43628","","null","","","null","36","","","","","","","","","","","","","","","",""
"","ISI","","html-keyboard-response","244","311797","0.0-1.0-327.0","0","0","43628","","null","","","null","36","NaN","","","","","","","","","","","","","","",""
"","S2","","html-keyboard-response","245","312051","0.0-1.0-328.0","0","0","43628","","null","","","null","36","","NaN","","","","","","","","","","","","","",""
"","response","","html-keyboard-response","246","312900","0.0-1.0-329.0","0","0","43628","","845","","","75","36","","","1","36","training","adjacent","FE","6","5","O.jpg","R.jpg","0","0","1","",""
"","feedback","","html-keyboard-response","247","313904","0.0-1.0-330.0-0.0","0","0","43628","","null","","","null","36","","","","","","","","","","","","","","","",""
"","ITI","","html-keyboard-response","248","314908","0.0-1.0-333.0","0","0","43628","","null","","","null","36","","","","","","","","","","","","","","","NaN",""
"","S1","","html-keyboard-response","249","315162","0.0-1.0-335.0","0","0","43628","","null","","","null","37","","","","","","","","","","","","","","","",""
"","ISI","","html-keyboard-response","250","317166","0.0-1.0-336.0","0","0","43628","","null","","","null","37","NaN","","","","","","","","","","","","","","",""
"","S2","","html-keyboard-response","251","317421","0.0-1.0-337.0","0","0","43628","","null","","","null","37","","NaN","","","","","","","","","","","","","",""
"","response","","html-keyboard-response","252","317771","0.0-1.0-338.0","0","0","43628","","347","","","68","37","","","1","37","training","adjacent","AB","1","2","P.jpg","Q.jpg","1","1","1","",""
"","feedback","","html-keyboard-response","253","318777","0.0-1.0-339.0-0.0","0","0","43628","","null","","","null","37","","","","","","","","","","","","","","","",""
"","ITI","","html-keyboard-response","254","319780","0.0-1.0-342.0","0","0","43628","","null","","","null","37","","","","","","","","","","","","","","","NaN",""
"","S1","","html-keyboard-response","255","320035","0.0-1.0-344.0","0","0","43628","","null","","","null","38","","","","","","","","","","","","","","","",""
"","ISI","","html-keyboard-response","256","322038","0.0-1.0-345.0","0","0","43628","","null","","","null","38","NaN","","","","","","","","","","","","","","",""
"","S2","","html-keyboard-response","257","322292","0.0-1.0-346.0","0","0","43628","","null","","","null","38","","NaN","","","","","","","","","","","","","",""
"","response","","html-keyboard-response","258","322878","0.0-1.0-347.0","0","0","43628","","582","","","68","38","","","1","38","training","adjacent","EF","5","6","R.jpg","O.jpg","1","1","1","",""
"","feedback","","html-keyboard-response","259","323883","0.0-1.0-348.0-0.0","0","0","43628","","null","","","null","38","","","","","","","","","","","","","","","",""
"","ITI","","html-keyboard-response","260","324887","0.0-1.0-351.0","0","0","43628","","null","","","null","38","","","","","","","","","","","","","","","NaN",""
"","S1","","html-keyboard-response","261","325142","0.0-1.0-353.0","0","0","43628","","null","","","null","39","","","","","","","","","","","","","","","",""
"","ISI","","html-keyboard-response","262","327146","0.0-1.0-354.0","0","0","43628","","null","","","null","39","NaN","","","","","","","","","","","","","","",""
"","S2","","html-keyboard-response","263","327401","0.0-1.0-355.0","0","0","43628","","null","","","null","39","","NaN","","","","","","","","","","","","","",""
"","response","","html-keyboard-response","264","327768","0.0-1.0-356.0","0","0","43628","","363","","","75","39","","","1","39","training","adjacent","GF","7","6","L.jpg","O.jpg","0","0","1","",""
"","feedback","","html-keyboard-response","265","328772","0.0-1.0-357.0-0.0","0","0","43628","","null","","","null","39","","","","","","","","","","","","","","","",""
"","ITI","","html-keyboard-response","266","329774","0.0-1.0-360.0","0","0","43628","","null","","","null","39","","","","","","","","","","","","","","","NaN",""
"","S1","","html-keyboard-response","267","330026","0.0-1.0-362.0","0","0","43628","","null","","","null","40","","","","","","","","","","","","","","","",""
"","ISI","","html-keyboard-response","268","332030","0.0-1.0-363.0","0","0","43628","","null","","","null","40","NaN","","","","","","","","","","","","","","",""
"","S2","","html-keyboard-response","269","332284","0.0-1.0-364.0","0","0","43628","","null","","","null","40","","NaN","","","","","","","","","","","","","",""
"","response","","html-keyboard-response","270","332563","0.0-1.0-365.0","0","0","43628","","275","","","68","40","","","1","40","training","adjacent","FG","6","7","O.jpg","L.jpg","1","1","1","",""
"","feedback","","html-keyboard-response","271","333567","0.0-1.0-366.0-0.0","0","0","43628","","null","","","null","40","","","","","","","","","","","","","","","",""
"","ITI","","html-keyboard-response","272","334572","0.0-1.0-369.0","0","0","43628","","null","","","null","40","","","","","","","","","","","","","","","NaN",""
"","S1","","html-keyboard-response","273","334826","0.0-1.0-371.0","0","0","43628","","null","","","null","41","","","","","","","","","","","","","","","",""
"","ISI","","html-keyboard-response","274","336830","0.0-1.0-372.0","0","0","43628","","null","","","null","41","NaN","","","","","","","","","","","","","","",""
"","S2","","html-keyboard-response","275","337083","0.0-1.0-373.0","0","0","43628","","null","","","null","41","","NaN","","","","","","","","","","","","","",""
"","response","","html-keyboard-response","276","337409","0.0-1.0-374.0","0","0","43628","","322","","","75","41","","","1","41","training","adjacent","DE","4","5","M.jpg","R.jpg","0","1","0","",""
"","feedback","","html-keyboard-response","277","338413","0.0-1.0-375.0-0.0","0","0","43628","","null","","","null","41","","","","","","","","","","","","","","","",""
"","time_out","","html-keyboard-response","278","340417","0.0-1.0-377.0-0.0","0","0","43628","","null","","","null","41","","","","","","","","","","","","","","","",""
"","ITI","","html-keyboard-response","279","341420","0.0-1.0-378.0","0","0","43628","","null","","","null","41","","","","","","","","","","","","","","","NaN",""
"","S1","","html-keyboard-response","280","341673","0.0-1.0-380.0","0","0","43628","","null","","","null","42","","","","","","","","","","","","","","","",""
"","ISI","","html-keyboard-response","281","343678","0.0-1.0-381.0","0","0","43628","","326","","","68","42","d","","","","","","","","","","","","","","",""
"","S2","","html-keyboard-response","282","343930","0.0-1.0-382.0","0","0","43628","","null","","","null","42","","NaN","","","","","","","","","","","","","",""
"","response","","html-keyboard-response","283","344391","0.0-1.0-383.0","0","0","43628","","457","","","68","42","","","1","42","training","adjacent","EF","5","6","R.jpg","O.jpg","1","1","1","",""
"","feedback","","html-keyboard-response","284","345394","0.0-1.0-384.0-0.0","0","0","43628","","null","","","null","42","","","","","","","","","","","","","","","",""
"","ITI","","html-keyboard-response","285","346399","0.0-1.0-387.0","0","0","43628","","null","","","null","42","","","","","","","","","","","","","","","NaN",""
"","S1","","html-keyboard-response","286","346652","0.0-1.0-389.0","0","0","43628","","null","","","null","43","","","","","","","","","","","","","","","",""
"","ISI","","html-keyboard-response","287","348655","0.0-1.0-390.0","0","0","43628","","null","","","null","43","NaN","","","","","","","","","","","","","","",""
"","S2","","html-keyboard-response","288","348907","0.0-1.0-391.0","0","0","43628","","null","","","null","43","","NaN","","","","","","","","","","","","","",""
"","response","","html-keyboard-response","289","349052","0.0-1.0-392.0","0","0","43628","","142","","","68","43","","","1","43","training","adjacent","BA","2","1","Q.jpg","P.jpg","1","0","0","",""
"","feedback","","html-keyboard-response","290","350056","0.0-1.0-393.0-0.0","0","0","43628","","null","","","null","43","","","","","","","","","","","","","","","",""
"","time_out","","html-keyboard-response","291","352059","0.0-1.0-395.0-0.0","0","0","43628","","null","","","null","43","","","","","","","","","","","","","","","",""
"","ITI","","html-keyboard-response","292","353062","0.0-1.0-396.0","0","0","43628","","null","","","null","43","","","","","","","","","","","","","","","NaN",""
"","S1","","html-keyboard-response","293","353315","0.0-1.0-398.0","0","0","43628","","null","","","null","44","","","","","","","","","","","","","","","",""
"","ISI","","html-keyboard-response","294","355319","0.0-1.0-399.0","0","0","43628","","null","","","null","44","NaN","","","","","","","","","","","","","","",""
"","S2","","html-keyboard-response","295","355574","0.0-1.0-400.0","0","0","43628","","null","","","null","44","","NaN","","","","","","","","","","","","","",""
"","response","","html-keyboard-response","296","356251","0.0-1.0-401.0","0","0","43628","","674","","","68","44","","","1","44","training","adjacent","CB","3","2","N.jpg","Q.jpg","1","0","0","",""
"","feedback","","html-keyboard-response","297","357254","0.0-1.0-402.0-0.0","0","0","43628","","null","","","null","44","","","","","","","","","","","","","","","",""
"","time_out","","html-keyboard-response","298","359257","0.0-1.0-404.0-0.0","0","0","43628","","null","","","null","44","","","","","","","","","","","","","","","",""
"","ITI","","html-keyboard-response","299","360261","0.0-1.0-405.0","0","0","43628","","null","","","null","44","","","","","","","","","","","","","","","NaN",""
"","S1","","html-keyboard-response","300","360520","0.0-1.0-407.0","0","0","43628","","null","","","null","45","","","","","","","","","","","","","","","",""
"","ISI","","html-keyboard-response","301","362523","0.0-1.0-408.0","0","0","43628","","null","","","null","45","NaN","","","","","","","","","","","","","","",""
"","S2","","html-keyboard-response","302","362777","0.0-1.0-409.0","0","0","43628","","null","","","null","45","","NaN","","","","","","","","","","","","","",""
"","response","","html-keyboard-response","303","363062","0.0-1.0-410.0","0","0","43628","","281","","","75","45","","","1","45","training","adjacent","DC","4","3","M.jpg","N.jpg","0","0","1","",""
"","feedback","","html-keyboard-response","304","364066","0.0-1.0-411.0-0.0","0","0","43628","","null","","","null","45","","","","","","","","","","","","","","","",""
"","ITI","","html-keyboard-response","305","365070","0.0-1.0-414.0","0","0","43628","","null","","","null","45","","","","","","","","","","","","","","","NaN",""
"","S1","","html-keyboard-response","306","365325","0.0-1.0-416.0","0","0","43628","","null","","","null","46","","","","","","","","","","","","","","","",""
"","ISI","","html-keyboard-response","307","367327","0.0-1.0-417.0","0","0","43628","","null","","","null","46","NaN","","","","","","","","","","","","","","",""
"","S2","","html-keyboard-response","308","367581","0.0-1.0-418.0","0","0","43628","","null","","","null","46","","NaN","","","","","","","","","","","","","",""
"","response","","html-keyboard-response","309","367951","0.0-1.0-419.0","0","0","43628","","367","","","75","46","","","1","46","training","adjacent","GF","7","6","L.jpg","O.jpg","0","0","1","",""
"","feedback","","html-keyboard-response","310","368954","0.0-1.0-420.0-0.0","0","0","43628","","null","","","null","46","","","","","","","","","","","","","","","",""
"","ITI","","html-keyboard-response","311","369958","0.0-1.0-423.0","0","0","43628","","null","","","null","46","","","","","","","","","","","","","","","NaN",""
"","S1","","html-keyboard-response","312","370212","0.0-1.0-425.0","0","0","43628","","null","","","null","47","","","","","","","","","","","","","","","",""
"","ISI","","html-keyboard-response","313","372216","0.0-1.0-426.0","0","0","43628","","null","","","null","47","NaN","","","","","","","","","","","","","","",""
"","S2","","html-keyboard-response","314","372468","0.0-1.0-427.0","0","0","43628","","null","","","null","47","","NaN","","","","","","","","","","","","","",""
"","response","","html-keyboard-response","315","372575","0.0-1.0-428.0","0","0","43628","","104","","","75","47","","","1","47","training","adjacent","DE","4","5","M.jpg","R.jpg","0","1","0","",""
"","feedback","","html-keyboard-response","316","373580","0.0-1.0-429.0-0.0","0","0","43628","","null","","","null","47","","","","","","","","","","","","","","","",""
"","time_out","","html-keyboard-response","317","375583","0.0-1.0-431.0-0.0","0","0","43628","","null","","","null","47","","","","","","","","","","","","","","","",""
"","ITI","","html-keyboard-response","318","376586","0.0-1.0-432.0","0","0","43628","","null","","","null","47","","","","","","","","","","","","","","","NaN",""
"","block_over","","html-keyboard-response","319","382741","0.0-1.0-433.0-0.0","0","0","43628","","6151","","","32","47","","","","","","","","","","","","","","","",""
"","S1","","html-keyboard-response","320","382994","0.0-1.0-434.0","0","0","43628","","null","","","null","48","","","","","","","","","","","","","","","",""
"","ISI","","html-keyboard-response","321","384998","0.0-1.0-435.0","0","0","43628","","null","","","null","48","NaN","","","","","","","","","","","","","","",""
"","S2","","html-keyboard-response","322","385252","0.0-1.0-436.0","0","0","43628","","null","","","null","48","","NaN","","","","","","","","","","","","","",""
"","response","","html-keyboard-response","323","385677","0.0-1.0-437.0","0","0","43628","","423","","","68","48","","","2","48","training","adjacent","BC","2","3","Q.jpg","N.jpg","1","1","1","",""
"","feedback","","html-keyboard-response","324","386681","0.0-1.0-438.0-0.0","0","0","43628","","null","","","null","48","","","","","","","","","","","","","","","",""
"","ITI","","html-keyboard-response","325","387685","0.0-1.0-441.0","0","0","43628","","null","","","null","48","","","","","","","","","","","","","","","NaN",""
"","S1","","html-keyboard-response","326","387939","0.0-1.0-443.0","0","0","43628","","null","","","null","49","","","","","","","","","","","","","","","",""
"","ISI","","html-keyboard-response","327","389943","0.0-1.0-444.0","0","0","43628","","null","","","null","49","NaN","","","","","","","","","","","","","","",""
"","S2","","html-keyboard-response","328","390197","0.0-1.0-445.0","0","0","43628","","null","","","null","49","","NaN","","","","","","","","","","","","","",""
"","response","","html-keyboard-response","329","390539","0.0-1.0-446.0","0","0","43628","","340","","","68","49","","","2","49","training","adjacent","FE","6","5","O.jpg","R.jpg","1","0","0","",""
"","feedback","","html-keyboard-response","330","391542","0.0-1.0-447.0-0.0","0","0","43628","","null","","","null","49","","","","","","","","","","","","","","","",""
"","time_out","","html-keyboard-response","331","393546","0.0-1.0-449.0-0.0","0","0","43628","","null","","","null","49","","","","","","","","","","","","","","","",""
"","ITI","","html-keyboard-response","332","394549","0.0-1.0-450.0","0","0","43628","","null","","","null","49","","","","","","","","","","","","","","","NaN",""
"","S1","","html-keyboard-response","333","394802","0.0-1.0-452.0","0","0","43628","","null","","","null","50","","","","","","","","","","","","","","","",""
"","ISI","","html-keyboard-response","334","396806","0.0-1.0-453.0","0","0","43628","","164","","","75","50","k","","","","","","","","","","","","","","",""
"","S2","","html-keyboard-response","335","397061","0.0-1.0-454.0","0","0","43628","","null","","","null","50","","NaN","","","","","","","","","","","","","",""
"","response","","html-keyboard-response","336","397376","0.0-1.0-455.0","0","0","43628","","312","","","75","50","","","2","50","training","adjacent","CD","3","4","N.jpg","M.jpg","0","1","0","",""
"","feedback","","html-keyboard-response","337","398381","0.0-1.0-456.0-0.0","0","0","43628","","null","","","null","50","","","","","","","","","","","","","","","",""
"","time_out","","html-keyboard-response","338","400385","0.0-1.0-458.0-0.0","0","0","43628","","null","","","null","50","","","","","","","","","","","","","","","",""
"","ITI","","html-keyboard-response","339","401389","0.0-1.0-459.0","0","0","43628","","null","","","null","50","","","","","","","","","","","","","","","NaN",""
"","S1","","html-keyboard-response","340","401643","0.0-1.0-461.0","0","0","43628","","null","","","null","51","","","","","","","","","","","","","","","",""
"","ISI","","html-keyboard-response","341","403647","0.0-1.0-462.0","0","0","43628","","null","","","null","51","NaN","","","","","","","","","","","","","","",""
"","S2","","html-keyboard-response","342","403902","0.0-1.0-463.0","0","0","43628","","null","","","null","51","","NaN","","","","","","","","","","","","","",""
"","response","","html-keyboard-response","343","404396","0.0-1.0-464.0","0","0","43628","","491","","","75","51","","","2","51","training","adjacent","DE","4","5","M.jpg","R.jpg","0","1","0","",""
"","feedback","","html-keyboard-response","344","405401","0.0-1.0-465.0-0.0","0","0","43628","","null","","","null","51","","","","","","","","","","","","","","","",""
"","time_out","","html-keyboard-response","345","407405","0.0-1.0-467.0-0.0","0","0","43628","","null","","","null","51","","","","","","","","","","","","","","","",""
"","ITI","","html-keyboard-response","346","408409","0.0-1.0-468.0","0","0","43628","","null","","","null","51","","","","","","","","","","","","","","","NaN",""
"","S1","","html-keyboard-response","347","408664","0.0-1.0-470.0","0","0","43628","","null","","","null","52","","","","","","","","","","","","","","","",""
"","ISI","","html-keyboard-response","348","410666","0.0-1.0-471.0","0","0","43628","","null","","","null","52","NaN","","","","","","","","","","","","","","",""
"","S2","","html-keyboard-response","349","410919","0.0-1.0-472.0","0","0","43628","","null","","","null","52","","NaN","","","","","","","","","","","","","",""
"","response","","html-keyboard-response","350","411397","0.0-1.0-473.0","0","0","43628","","474","","","75","52","","","2","52","training","adjacent","BA","2","1","Q.jpg","P.jpg","0","0","1","",""
"","feedback","","html-keyboard-response","351","412401","0.0-1.0-474.0-0.0","0","0","43628","","null","","","null","52","","","","","","","","","","","","","","","",""
"","ITI","","html-keyboard-response","352","413405","0.0-1.0-477.0","0","0","43628","","null","","","null","52","","","","","","","","","","","","","","","NaN",""
"","S1","","html-keyboard-response","353","413659","0.0-1.0-479.0","0","0","43628","","null","","","null","53","","","","","","","","","","","","","","","",""
"","ISI","","html-keyboard-response","354","415662","0.0-1.0-480.0","0","0","43628","","null","","","null","53","NaN","","","","","","","","","","","","","","",""
"","S2","","html-keyboard-response","355","415917","0.0-1.0-481.0","0","0","43628","","null","","","null","53","","NaN","","","","","","","","","","","","","",""
"","response","","html-keyboard-response","356","416309","0.0-1.0-482.0","0","0","43628","","388","","","75","53","","","2","53","training","adjacent","BA","2","1","Q.jpg","P.jpg","0","0","1","",""
"","feedback","","html-keyboard-response","357","417312","0.0-1.0-483.0-0.0","0","0","43628","","null","","","null","53","","","","","","","","","","","","","","","",""
"","ITI","","html-keyboard-response","358","418316","0.0-1.0-486.0","0","0","43628","","null","","","null","53","","","","","","","","","","","","","","","NaN",""
"","S1","","html-keyboard-response","359","418570","0.0-1.0-488.0","0","0","43628","","null","","","null","54","","","","","","","","","","","","","","","",""
"","ISI","","html-keyboard-response","360","420573","0.0-1.0-489.0","0","0","43628","","null","","","null","54","NaN","","","","","","","","","","","","","","",""
"","S2","","html-keyboard-response","361","420827","0.0-1.0-490.0","0","0","43628","","null","","","null","54","","NaN","","","","","","","","","","","","","",""
"","response","","html-keyboard-response","362","421355","0.0-1.0-491.0","0","0","43628","","525","","","75","54","","","2","54","training","adjacent","DC","4","3","M.jpg","N.jpg","0","0","1","",""
"","feedback","","html-keyboard-response","363","422359","0.0-1.0-492.0-0.0","0","0","43628","","null","","","null","54","","","","","","","","","","","","","","","",""
"","ITI","","html-keyboard-response","364","423362","0.0-1.0-495.0","0","0","43628","","null","","","null","54","","","","","","","","","","","","","","","NaN",""
"","S1","","html-keyboard-response","365","423617","0.0-1.0-497.0","0","0","43628","","null","","","null","55","","","","","","","","","","","","","","","",""
"","ISI","","html-keyboard-response","366","425620","0.0-1.0-498.0","0","0","43628","","null","","","null","55","NaN","","","","","","","","","","","","","","",""
"","S2","","html-keyboard-response","367","425874","0.0-1.0-499.0","0","0","43628","","null","","","null","55","","NaN","","","","","","","","","","","","","",""
"","response","","html-keyboard-response","368","426328","0.0-1.0-500.0","0","0","43628","","451","","","75","55","","","2","55","training","adjacent","CB","3","2","N.jpg","Q.jpg","0","0","1","",""
"","feedback","","html-keyboard-response","369","427334","0.0-1.0-501.0-0.0","0","0","43628","","null","","","null","55","","","","","","","","","","","","","","","",""
"","ITI","","html-keyboard-response","370","428338","0.0-1.0-504.0","0","0","43628","","null","","","null","55","","","","","","","","","","","","","","","NaN",""
"","S1","","html-keyboard-response","371","428592","0.0-1.0-506.0","0","0","43628","","null","","","null","56","","","","","","","","","","","","","","","",""
"","ISI","","html-keyboard-response","372","430596","0.0-1.0-507.0","0","0","43628","","null","","","null","56","NaN","","","","","","","","","","","","","","",""
"","S2","","html-keyboard-response","373","430850","0.0-1.0-508.0","0","0","43628","","null","","","null","56","","NaN","","","","","","","","","","","","","",""
"","response","","html-keyboard-response","374","431343","0.0-1.0-509.0","0","0","43628","","489","","","75","56","","","2","56","training","adjacent","FG","6","7","O.jpg","L.jpg","0","1","0","",""
"","feedback","","html-keyboard-response","375","432346","0.0-1.0-510.0-0.0","0","0","43628","","null","","","null","56","","","","","","","","","","","","","","","",""
"","time_out","","html-keyboard-response","376","434350","0.0-1.0-512.0-0.0","0","0","43628","","null","","","null","56","","","","","","","","","","","","","","","",""
"","ITI","","html-keyboard-response","377","435354","0.0-1.0-513.0","0","0","43628","","null","","","null","56","","","","","","","","","","","","","","","NaN",""
"","S1","","html-keyboard-response","378","435609","0.0-1.0-515.0","0","0","43628","","null","","","null","57","","","","","","","","","","","","","","","",""
"","ISI","","html-keyboard-response","379","437612","0.0-1.0-516.0","0","0","43628","","98","","","68","57","d","","","","","","","","","","","","","","",""
"","S2","","html-keyboard-response","380","437866","0.0-1.0-517.0","0","0","43628","","null","","","null","57","","NaN","","","","","","","","","","","","","",""
"","response","","html-keyboard-response","381","438270","0.0-1.0-518.0","0","0","43628","","400","","","68","57","","","2","57","training","adjacent","FG","6","7","O.jpg","L.jpg","1","1","1","",""
"","feedback","","html-keyboard-response","382","439275","0.0-1.0-519.0-0.0","0","0","43628","","null","","","null","57","","","","","","","","","","","","","","","",""
"","ITI","","html-keyboard-response","383","440279","0.0-1.0-522.0","0","0","43628","","null","","","null","57","","","","","","","","","","","","","","","NaN",""
"","S1","","html-keyboard-response","384","440532","0.0-1.0-524.0","0","0","43628","","null","","","null","58","","","","","","","","","","","","","","","",""
"","ISI","","html-keyboard-response","385","442536","0.0-1.0-525.0","0","0","43628","","null","","","null","58","NaN","","","","","","","","","","","","","","",""
"","S2","","html-keyboard-response","386","442790","0.0-1.0-526.0","0","0","43628","","null","","","null","58","","NaN","","","","","","","","","","","","","",""
"","response","","html-keyboard-response","387","443149","0.0-1.0-527.0","0","0","43628","","355","","","68","58","","","2","58","training","adjacent","BC","2","3","Q.jpg","N.jpg","1","1","1","",""
"","feedback","","html-keyboard-response","388","444153","0.0-1.0-528.0-0.0","0","0","43628","","null","","","null","58","","","","","","","","","","","","","","","",""
"","ITI","","html-keyboard-response","389","445158","0.0-1.0-531.0","0","0","43628","","null","","","null","58","","","","","","","","","","","","","","","NaN",""
"","S1","","html-keyboard-response","390","445412","0.0-1.0-533.0","0","0","43628","","null","","","null","59","","","","","","","","","","","","","","","",""
"","ISI","","html-keyboard-response","391","447418","0.0-1.0-534.0","0","0","43628","","null","","","null","59","NaN","","","","","","","","","","","","","","",""
"","S2","","html-keyboard-response","392","447672","0.0-1.0-535.0","0","0","43628","","null","","","null","59","","NaN","","","","","","","","","","","","","",""
"","response","","html-keyboard-response","393","448192","0.0-1.0-536.0","0","0","43628","","517","","","68","59","","","2","59","training","adjacent","ED","5","4","R.jpg","M.jpg","1","0","0","",""
"","feedback","","html-keyboard-response","394","449197","0.0-1.0-537.0-0.0","0","0","43628","","null","","","null","59","","","","","","","","","","","","","","","",""
"","time_out","","html-keyboard-response","395","451202","0.0-1.0-539.0-0.0","0","0","43628","","null","","","null","59","","","","","","","","","","","","","","","",""
"","ITI","","html-keyboard-response","396","452206","0.0-1.0-540.0","0","0","43628","","null","","","null","59","","","","","","","","","","","","","","","NaN",""
"","S1","","html-keyboard-response","397","452461","0.0-1.0-542.0","0","0","43628","","null","","","null","60","","","","","","","","","","","","","","","",""
"","ISI","","html-keyboard-response","398","454465","0.0-1.0-543.0","0","0","43628","","null","","","null","60","NaN","","","","","","","","","","","","","","",""
"","S2","","html-keyboard-response","399","454719","0.0-1.0-544.0","0","0","43628","","null","","","null","60","","NaN","","","","","","","","","","","","","",""
"","response","","html-keyboard-response","400","454846","0.0-1.0-545.0","0","0","43628","","124","","","68","60","","","2","60","training","adjacent","BC","2","3","Q.jpg","N.jpg","1","1","1","",""
"","feedback","","html-keyboard-response","401","455849","0.0-1.0-546.0-0.0","0","0","43628","","null","","","null","60","","","","","","","","","","","","","","","",""
"","ITI","","html-keyboard-response","402","456852","0.0-1.0-549.0","0","0","43628","","null","","","null","60","","","","","","","","","","","","","","","NaN",""
"","S1","","html-keyboard-response","403","457107","0.0-1.0-551.0","0","0","43628","","null","","","null","61","","","","","","","","","","","","","","","",""
"","ISI","","html-keyboard-response","404","459113","0.0-1.0-552.0","0","0","43628","","null","","","null","61","NaN","","","","","","","","","","","","","","",""
"","S2","","html-keyboard-response","405","459366","0.0-1.0-553.0","0","0","43628","","null","","","null","61","","NaN","","","","","","","","","","","","","",""
"","response","","html-keyboard-response","406","461371","0.0-1.0-554.0","0","0","43628","","null","","","null","61","","","2","61","training","adjacent","DC","4","3","M.jpg","N.jpg","NaN","0","0","",""
"","too_slow_prompt","","html-keyboard-response","407","462375","0.0-1.0-556.0-0.0","1","0","43628","","null","","","null","","","","","","","","","","","","","","","","",""
"","time_out","","html-keyboard-response","408","464378","0.0-1.0-557.0-0.0","0","0","43628","","null","","","null","61","","","","","","","","","","","","","","","",""
"","ITI","","html-keyboard-response","409","465382","0.0-1.0-558.0","0","0","43628","","null","","","null","61","","","","","","","","","","","","","","","NaN",""
"","S1","","html-keyboard-response","410","465636","0.0-1.0-560.0","0","0","43628","","null","","","null","62","","","","","","","","","","","","","","","",""
"","ISI","","html-keyboard-response","411","467639","0.0-1.0-561.0","0","0","43628","","null","","","null","62","NaN","","","","","","","","","","","","","","",""
"","S2","","html-keyboard-response","412","467893","0.0-1.0-562.0","0","0","43628","","null","","","null","62","","NaN","","","","","","","","","","","","","",""
"","response","","html-keyboard-response","413","468365","0.0-1.0-563.0","0","0","43628","","469","","","68","62","","","2","62","training","adjacent","BA","2","1","Q.jpg","P.jpg","1","0","0","",""
"","feedback","","html-keyboard-response","414","469370","0.0-1.0-564.0-0.0","0","0","43628","","null","","","null","62","","","","","","","","","","","","","","","",""
"","time_out","","html-keyboard-response","415","471374","0.0-1.0-566.0-0.0","0","0","43628","","null","","","null","62","","","","","","","","","","","","","","","",""
"","ITI","","html-keyboard-response","416","472379","0.0-1.0-567.0","0","0","43628","","null","","","null","62","","","","","","","","","","","","","","","NaN",""
"","S1","","html-keyboard-response","417","472634","0.0-1.0-569.0","0","0","43628","","null","","","null","63","","","","","","","","","","","","","","","",""
"","ISI","","html-keyboard-response","418","474636","0.0-1.0-570.0","0","0","43628","","null","","","null","63","NaN","","","","","","","","","","","","","","",""
"","S2","","html-keyboard-response","419","474889","0.0-1.0-571.0","0","0","43628","","null","","","null","63","","NaN","","","","","","","","","","","","","",""
"","response","","html-keyboard-response","420","475470","0.0-1.0-572.0","0","0","43628","","579","","","75","63","","","2","63","training","adjacent","DE","4","5","M.jpg","R.jpg","0","1","0","",""
"","feedback","","html-keyboard-response","421","476473","0.0-1.0-573.0-0.0","0","0","43628","","null","","","null","63","","","","","","","","","","","","","","","",""
"","time_out","","html-keyboard-response","422","478476","0.0-1.0-575.0-0.0","0","0","43628","","null","","","null","63","","","","","","","","","","","","","","","",""
"","ITI","","html-keyboard-response","423","479480","0.0-1.0-576.0","0","0","43628","","null","","","null","63","","","","","","","","","","","","","","","NaN",""
"","S1","","html-keyboard-response","424","479734","0.0-1.0-578.0","0","0","43628","","null","","","null","64","","","","","","","","","","","","","","","",""
"","ISI","","html-keyboard-response","425","481737","0.0-1.0-579.0","0","0","43628","","null","","","null","64","NaN","","","","","","","","","","","","","","",""
"","S2","","html-keyboard-response","426","481989","0.0-1.0-580.0","0","0","43628","","null","","","null","64","","NaN","","","","","","","","","","","","","",""
"","response","","html-keyboard-response","427","482551","0.0-1.0-581.0","0","0","43628","","558","","","75","64","","","2","64","training","adjacent","ED","5","4","R.jpg","M.jpg","0","0","1","",""
"","feedback","","html-keyboard-response","428","483555","0.0-1.0-582.0-0.0","0","0","43628","","null","","","null","64","","","","","","","","","","","","","","","",""
"","ITI","","html-keyboard-response","429","484560","0.0-1.0-585.0","0","0","43628","","null","","","null","64","","","","","","","","","","","","","","","NaN",""
"","S1","","html-keyboard-response","430","484813","0.0-1.0-587.0","0","0","43628","","null","","","null","65","","","","","","","","","","","","","","","",""
"","ISI","","html-keyboard-response","431","486817","0.0-1.0-588.0","0","0","43628","","null","","","null","65","NaN","","","","","","","","","","","","","","",""
"","S2","","html-keyboard-response","432","487071","0.0-1.0-589.0","0","0","43628","","null","","","null","65","","NaN","","","","","","","","","","","","","",""
"","response","","html-keyboard-response","433","487519","0.0-1.0-590.0","0","0","43628","","446","","","68","65","","","2","65","training","adjacent","EF","5","6","R.jpg","O.jpg","1","1","1","",""
"","feedback","","html-keyboard-response","434","488522","0.0-1.0-591.0-0.0","0","0","43628","","null","","","null","65","","","","","","","","","","","","","","","",""
"","ITI","","html-keyboard-response","435","489526","0.0-1.0-594.0","0","0","43628","","null","","","null","65","","","","","","","","","","","","","","","NaN",""
"","S1","","html-keyboard-response","436","489779","0.0-1.0-596.0","0","0","43628","","null","","","null","66","","","","","","","","","","","","","","","",""
"","ISI","","html-keyboard-response","437","491783","0.0-1.0-597.0","0","0","43628","","null","","","null","66","NaN","","","","","","","","","","","","","","",""
"","S2","","html-keyboard-response","438","492038","0.0-1.0-598.0","0","0","43628","","null","","","null","66","","NaN","","","","","","","","","","","","","",""
"","response","","html-keyboard-response","439","493465","0.0-1.0-599.0","0","0","43628","","1423","","","68","66","","","2","66","training","adjacent","ED","5","4","R.jpg","M.jpg","1","0","0","",""
"","feedback","","html-keyboard-response","440","494470","0.0-1.0-600.0-0.0","0","0","43628","","null","","","null","66","","","","","","","","","","","","","","","",""
"","time_out","","html-keyboard-response","441","496474","0.0-1.0-602.0-0.0","0","0","43628","","null","","","null","66","","","","","","","","","","","","","","","",""
"","ITI","","html-keyboard-response","442","497477","0.0-1.0-603.0","0","0","43628","","null","","","null","66","","","","","","","","","","","","","","","NaN",""
"","S1","","html-keyboard-response","443","497731","0.0-1.0-605.0","0","0","43628","","null","","","null","67","","","","","","","","","","","","","","","",""
"","ISI","","html-keyboard-response","444","499736","0.0-1.0-606.0","0","0","43628","","null","","","null","67","NaN","","","","","","","","","","","","","","",""
"","S2","","html-keyboard-response","445","499990","0.0-1.0-607.0","0","0","43628","","null","","","null","67","","NaN","","","","","","","","","","","","","",""
"","response","","html-keyboard-response","446","500486","0.0-1.0-608.0","0","0","43628","","491","","","68","67","","","2","67","training","adjacent","AB","1","2","P.jpg","Q.jpg","1","1","1","",""
"","feedback","","html-keyboard-response","447","501489","0.0-1.0-609.0-0.0","0","0","43628","","null","","","null","67","","","","","","","","","","","","","","","",""
"","ITI","","html-keyboard-response","448","502493","0.0-1.0-612.0","0","0","43628","","null","","","null","67","","","","","","","","","","","","","","","NaN",""
"","S1","","html-keyboard-response","449","502747","0.0-1.0-614.0","0","0","43628","","null","","","null","68","","","","","","","","","","","","","","","",""
"","ISI","","html-keyboard-response","450","504751","0.0-1.0-615.0","0","0","43628","","null","","","null","68","NaN","","","","","","","","","","","","","","",""
"","S2","","html-keyboard-response","451","505006","0.0-1.0-616.0","0","0","43628","","null","","","null","68","","NaN","","","","","","","","","","","","","",""
"","response","","html-keyboard-response","452","505809","0.0-1.0-617.0","0","0","43628","","799","","","68","68","","","2","68","training","adjacent","AB","1","2","P.jpg","Q.jpg","1","1","1","",""
"","feedback","","html-keyboard-response","453","506814","0.0-1.0-618.0-0.0","0","0","43628","","null","","","null","68","","","","","","","","","","","","","","","",""
"","ITI","","html-keyboard-response","454","507818","0.0-1.0-621.0","0","0","43628","","null","","","null","68","","","","","","","","","","","","","","","NaN",""
"","S1","","html-keyboard-response","455","508072","0.0-1.0-623.0","0","0","43628","","null","","","null","69","","","","","","","","","","","","","","","",""
"","ISI","","html-keyboard-response","456","510079","0.0-1.0-624.0","0","0","43628","","null","","","null","69","NaN","","","","","","","","","","","","","","",""
"","S2","","html-keyboard-response","457","510332","0.0-1.0-625.0","0","0","43628","","null","","","null","69","","NaN","","","","","","","","","","","","","",""
"","response","","html-keyboard-response","458","510830","0.0-1.0-626.0","0","0","43628","","493","","","68","69","","","2","69","training","adjacent","AB","1","2","P.jpg","Q.jpg","1","1","1","",""
"","feedback","","html-keyboard-response","459","511833","0.0-1.0-627.0-0.0","0","0","43628","","null","","","null","69","","","","","","","","","","","","","","","",""
"","ITI","","html-keyboard-response","460","512836","0.0-1.0-630.0","0","0","43628","","null","","","null","69","","","","","","","","","","","","","","","NaN",""
"","S1","","html-keyboard-response","461","513095","0.0-1.0-632.0","0","0","43628","","null","","","null","70","","","","","","","","","","","","","","","",""
"","ISI","","html-keyboard-response","462","515099","0.0-1.0-633.0","0","0","43628","","null","","","null","70","NaN","","","","","","","","","","","","","","",""
"","S2","","html-keyboard-response","463","515352","0.0-1.0-634.0","0","0","43628","","null","","","null","70","","NaN","","","","","","","","","","","","","",""
"","response","","html-keyboard-response","464","516823","0.0-1.0-635.0","0","0","43628","","1467","","","68","70","","","2","70","training","adjacent","CB","3","2","N.jpg","Q.jpg","1","0","0","",""
"","feedback","","html-keyboard-response","465","517828","0.0-1.0-636.0-0.0","0","0","43628","","null","","","null","70","","","","","","","","","","","","","","","",""
"","time_out","","html-keyboard-response","466","519831","0.0-1.0-638.0-0.0","0","0","43628","","null","","","null","70","","","","","","","","","","","","","","","",""
"","ITI","","html-keyboard-response","467","520833","0.0-1.0-639.0","0","0","43628","","null","","","null","70","","","","","","","","","","","","","","","NaN",""
"","S1","","html-keyboard-response","468","521086","0.0-1.0-641.0","0","0","43628","","null","","","null","71","","","","","","","","","","","","","","","",""
"","ISI","","html-keyboard-response","469","523090","0.0-1.0-642.0","0","0","43628","","null","","","null","71","NaN","","","","","","","","","","","","","","",""
"","S2","","html-keyboard-response","470","523343","0.0-1.0-643.0","0","0","43628","","null","","","null","71","","NaN","","","","","","","","","","","","","",""
"","response","","html-keyboard-response","471","523952","0.0-1.0-644.0","0","0","43628","","604","","","68","71","","","2","71","training","adjacent","ED","5","4","R.jpg","M.jpg","1","0","0","",""
"","feedback","","html-keyboard-response","472","524957","0.0-1.0-645.0-0.0","0","0","43628","","null","","","null","71","","","","","","","","","","","","","","","",""
"","time_out","","html-keyboard-response","473","526961","0.0-1.0-647.0-0.0","0","0","43628","","null","","","null","71","","","","","","","","","","","","","","","",""
"","ITI","","html-keyboard-response","474","527965","0.0-1.0-648.0","0","0","43628","","null","","","null","71","","","","","","","","","","","","","","","NaN",""
"","S1","","html-keyboard-response","475","528219","0.0-1.0-650.0","0","0","43628","","null","","","null","72","","","","","","","","","","","","","","","",""
"","ISI","","html-keyboard-response","476","530223","0.0-1.0-651.0","0","0","43628","","null","","","null","72","NaN","","","","","","","","","","","","","","",""
"","S2","","html-keyboard-response","477","530477","0.0-1.0-652.0","0","0","43628","","null","","","null","72","","NaN","","","","","","","","","","","","","",""
"","response","","html-keyboard-response","478","531560","0.0-1.0-653.0","0","0","43628","","1079","","","68","72","","","2","72","training","adjacent","AB","1","2","P.jpg","Q.jpg","1","1","1","",""
"","feedback","","html-keyboard-response","479","532564","0.0-1.0-654.0-0.0","0","0","43628","","null","","","null","72","","","","","","","","","","","","","","","",""
"","ITI","","html-keyboard-response","480","533569","0.0-1.0-657.0","0","0","43628","","null","","","null","72","","","","","","","","","","","","","","","NaN",""
"","S1","","html-keyboard-response","481","533824","0.0-1.0-659.0","0","0","43628","","null","","","null","73","","","","","","","","","","","","","","","",""
"","ISI","","html-keyboard-response","482","535828","0.0-1.0-660.0","0","0","43628","","null","","","null","73","NaN","","","","","","","","","","","","","","",""
"","S2","","html-keyboard-response","483","536082","0.0-1.0-661.0","0","0","43628","","null","","","null","73","","NaN","","","","","","","","","","","","","",""
"","response","","html-keyboard-response","484","537580","0.0-1.0-662.0","0","0","43628","","1494","","","75","73","","","2","73","training","adjacent","CD","3","4","N.jpg","M.jpg","0","1","0","",""
"","feedback","","html-keyboard-response","485","538584","0.0-1.0-663.0-0.0","0","0","43628","","null","","","null","73","","","","","","","","","","","","","","","",""
"","time_out","","html-keyboard-response","486","540588","0.0-1.0-665.0-0.0","0","0","43628","","null","","","null","73","","","","","","","","","","","","","","","",""
"","ITI","","html-keyboard-response","487","541591","0.0-1.0-666.0","0","0","43628","","null","","","null","73","","","","","","","","","","","","","","","NaN",""
"","S1","","html-keyboard-response","488","541846","0.0-1.0-668.0","0","0","43628","","null","","","null","74","","","","","","","","","","","","","","","",""
"","ISI","","html-keyboard-response","489","543849","0.0-1.0-669.0","0","0","43628","","null","","","null","74","NaN","","","","","","","","","","","","","","",""
"","S2","","html-keyboard-response","490","544101","0.0-1.0-670.0","0","0","43628","","null","","","null","74","","NaN","","","","","","","","","","","","","",""
"","response","","html-keyboard-response","491","544344","0.0-1.0-671.0","0","0","43628","","241","","","68","74","","","2","74","training","adjacent","CB","3","2","N.jpg","Q.jpg","1","0","0","",""
"","feedback","","html-keyboard-response","492","545347","0.0-1.0-672.0-0.0","0","0","43628","","null","","","null","74","","","","","","","","","","","","","","","",""
"","time_out","","html-keyboard-response","493","547350","0.0-1.0-674.0-0.0","0","0","43628","","null","","","null","74","","","","","","","","","","","","","","","",""
"","ITI","","html-keyboard-response","494","548353","0.0-1.0-675.0","0","0","43628","","null","","","null","74","","","","","","","","","","","","","","","NaN",""
"","S1","","html-keyboard-response","495","548608","0.0-1.0-677.0","0","0","43628","","null","","","null","75","","","","","","","","","","","","","","","",""
"","ISI","","html-keyboard-response","496","550611","0.0-1.0-678.0","0","0","43628","","null","","","null","75","NaN","","","","","","","","","","","","","","",""
"","S2","","html-keyboard-response","497","550876","0.0-1.0-679.0","0","0","43628","","null","","","null","75","","NaN","","","","","","","","","","","","","",""
"","response","","html-keyboard-response","498","551049","0.0-1.0-680.0","0","0","43628","","170","","","75","75","","","2","75","training","adjacent","CD","3","4","N.jpg","M.jpg","0","1","0","",""
"","feedback","","html-keyboard-response","499","552054","0.0-1.0-681.0-0.0","0","0","43628","","null","","","null","75","","","","","","","","","","","","","","","",""
"","time_out","","html-keyboard-response","500","554058","0.0-1.0-683.0-0.0","0","0","43628","","null","","","null","75","","","","","","","","","","","","","","","",""
"","ITI","","html-keyboard-response","501","555063","0.0-1.0-684.0","0","0","43628","","null","","","null","75","","","","","","","","","","","","","","","NaN",""
"","S1","","html-keyboard-response","502","555318","0.0-1.0-686.0","0","0","43628","","null","","","null","76","","","","","","","","","","","","","","","",""
"","ISI","","html-keyboard-response","503","557322","0.0-1.0-687.0","0","0","43628","","null","","","null","76","NaN","","","","","","","","","","","","","","",""
"","S2","","html-keyboard-response","504","557577","0.0-1.0-688.0","0","0","43628","","null","","","null","76","","NaN","","","","","","","","","","","","","",""
"","response","","html-keyboard-response","505","557972","0.0-1.0-689.0","0","0","43628","","393","","","68","76","","","2","76","training","adjacent","FG","6","7","O.jpg","L.jpg","1","1","1","",""
"","feedback","","html-keyboard-response","506","558974","0.0-1.0-690.0-0.0","0","0","43628","","null","","","null","76","","","","","","","","","","","","","","","",""
"","ITI","","html-keyboard-response","507","559976","0.0-1.0-693.0","0","0","43628","","null","","","null","76","","","","","","","","","","","","","","","NaN",""
"","S1","","html-keyboard-response","508","560230","0.0-1.0-695.0","0","0","43628","","null","","","null","77","","","","","","","","","","","","","","","",""
"","ISI","","html-keyboard-response","509","562233","0.0-1.0-696.0","0","0","43628","","null","","","null","77","NaN","","","","","","","","","","","","","","",""
"","S2","","html-keyboard-response","510","562487","0.0-1.0-697.0","0","0","43628","","null","","","null","77","","NaN","","","","","","","","","","","","","",""
"","response","","html-keyboard-response","511","563255","0.0-1.0-698.0","0","0","43628","","763","","","68","77","","","2","77","training","adjacent","DE","4","5","M.jpg","R.jpg","1","1","1","",""
"","feedback","","html-keyboard-response","512","564260","0.0-1.0-699.0-0.0","0","0","43628","","null","","","null","77","","","","","","","","","","","","","","","",""
"","ITI","","html-keyboard-response","513","565265","0.0-1.0-702.0","0","0","43628","","null","","","null","77","","","","","","","","","","","","","","","NaN",""
"","S1","","html-keyboard-response","514","565519","0.0-1.0-704.0","0","0","43628","","null","","","null","78","","","","","","","","","","","","","","","",""
"","ISI","","html-keyboard-response","515","567523","0.0-1.0-705.0","0","0","43628","","null","","","null","78","NaN","","","","","","","","","","","","","","",""
"","S2","","html-keyboard-response","516","567777","0.0-1.0-706.0","0","0","43628","","null","","","null","78","","NaN","","","","","","","","","","","","","",""
"","response","","html-keyboard-response","517","568115","0.0-1.0-707.0","0","0","43628","","335","","","68","78","","","2","78","training","adjacent","FG","6","7","O.jpg","L.jpg","1","1","1","",""
"","feedback","","html-keyboard-response","518","569118","0.0-1.0-708.0-0.0","0","0","43628","","null","","","null","78","","","","","","","","","","","","","","","",""
"","ITI","","html-keyboard-response","519","570122","0.0-1.0-711.0","0","0","43628","","null","","","null","78","","","","","","","","","","","","","","","NaN",""
"","S1","","html-keyboard-response","520","570377","0.0-1.0-713.0","0","0","43628","","null","","","null","79","","","","","","","","","","","","","","","",""
"","ISI","","html-keyboard-response","521","572381","0.0-1.0-714.0","0","0","43628","","null","","","null","79","NaN","","","","","","","","","","","","","","",""
"","S2","","html-keyboard-response","522","572635","0.0-1.0-715.0","0","0","43628","","null","","","null","79","","NaN","","","","","","","","","","","","","",""
"","response","","html-keyboard-response","523","572982","0.0-1.0-716.0","0","0","43628","","342","","","75","79","","","2","79","training","adjacent","DC","4","3","M.jpg","N.jpg","0","0","1","",""
"","feedback","","html-keyboard-response","524","573986","0.0-1.0-717.0-0.0","0","0","43628","","null","","","null","79","","","","","","","","","","","","","","","",""
"","ITI","","html-keyboard-response","525","574991","0.0-1.0-720.0","0","0","43628","","null","","","null","79","","","","","","","","","","","","","","","NaN",""
"","S1","","html-keyboard-response","526","575246","0.0-1.0-722.0","0","0","43628","","null","","","null","80","","","","","","","","","","","","","","","",""
"","ISI","","html-keyboard-response","527","577249","0.0-1.0-723.0","0","0","43628","","null","","","null","80","NaN","","","","","","","","","","","","","","",""
"","S2","","html-keyboard-response","528","577502","0.0-1.0-724.0","0","0","43628","","null","","","null","80","","NaN","","","","","","","","","","","","","",""
"","response","","html-keyboard-response","529","577699","0.0-1.0-725.0","0","0","43628","","193","","","75","80","","","2","80","training","adjacent","GF","7","6","L.jpg","O.jpg","0","0","1","",""
"","feedback","","html-keyboard-response","530","578704","0.0-1.0-726.0-0.0","0","0","43628","","null","","","null","80","","","","","","","","","","","","","","","",""
"","ITI","","html-keyboard-response","531","579708","0.0-1.0-729.0","0","0","43628","","null","","","null","80","","","","","","","","","","","","","","","NaN",""
"","S1","","html-keyboard-response","532","579961","0.0-1.0-731.0","0","0","43628","","null","","","null","81","","","","","","","","","","","","","","","",""
"","ISI","","html-keyboard-response","533","581966","0.0-1.0-732.0","0","0","43628","","null","","","null","81","NaN","","","","","","","","","","","","","","",""
"","S2","","html-keyboard-response","534","582219","0.0-1.0-733.0","0","0","43628","","null","","","null","81","","NaN","","","","","","","","","","","","","",""
"","response","","html-keyboard-response","535","584130","0.0-1.0-734.0","0","0","43628","","1908","","","75","81","","","2","81","training","adjacent","FE","6","5","O.jpg","R.jpg","0","0","1","",""
"","feedback","","html-keyboard-response","536","585134","0.0-1.0-735.0-0.0","0","0","43628","","null","","","null","81","","","","","","","","","","","","","","","",""
"","ITI","","html-keyboard-response","537","586138","0.0-1.0-738.0","0","0","43628","","null","","","null","81","","","","","","","","","","","","","","","NaN",""
"","S1","","html-keyboard-response","538","586393","0.0-1.0-740.0","0","0","43628","","null","","","null","82","","","","","","","","","","","","","","","",""
"","ISI","","html-keyboard-response","539","588397","0.0-1.0-741.0","0","0","43628","","null","","","null","82","NaN","","","","","","","","","","","","","","",""
"","S2","","html-keyboard-response","540","588651","0.0-1.0-742.0","0","0","43628","","null","","","null","82","","NaN","","","","","","","","","","","","","",""
"","response","","html-keyboard-response","541","589106","0.0-1.0-743.0","0","0","43628","","452","","","75","82","","","2","82","training","adjacent","DE","4","5","M.jpg","R.jpg","0","1","0","",""
"","feedback","","html-keyboard-response","542","590111","0.0-1.0-744.0-0.0","0","0","43628","","null","","","null","82","","","","","","","","","","","","","","","",""
"","time_out","","html-keyboard-response","543","592115","0.0-1.0-746.0-0.0","0","0","43628","","null","","","null","82","","","","","","","","","","","","","","","",""
"","ITI","","html-keyboard-response","544","593119","0.0-1.0-747.0","0","0","43628","","null","","","null","82","","","","","","","","","","","","","","","NaN",""
"","S1","","html-keyboard-response","545","593373","0.0-1.0-749.0","0","0","43628","","null","","","null","83","","","","","","","","","","","","","","","",""
"","ISI","","html-keyboard-response","546","595376","0.0-1.0-750.0","0","0","43628","","null","","","null","83","NaN","","","","","","","","","","","","","","",""
"","S2","","html-keyboard-response","547","595628","0.0-1.0-751.0","0","0","43628","","null","","","null","83","","NaN","","","","","","","","","","","","","",""
"","response","","html-keyboard-response","548","595738","0.0-1.0-752.0","0","0","43628","","106","","","75","83","","","2","83","training","adjacent","BA","2","1","Q.jpg","P.jpg","0","0","1","",""
"","feedback","","html-keyboard-response","549","596742","0.0-1.0-753.0-0.0","0","0","43628","","null","","","null","83","","","","","","","","","","","","","","","",""
"","ITI","","html-keyboard-response","550","597747","0.0-1.0-756.0","0","0","43628","","null","","","null","83","","","","","","","","","","","","","","","NaN",""
"","S1","","html-keyboard-response","551","598000","0.0-1.0-758.0","0","0","43628","","null","","","null","84","","","","","","","","","","","","","","","",""
"","ISI","","html-keyboard-response","552","600003","0.0-1.0-759.0","0","0","43628","","null","","","null","84","NaN","","","","","","","","","","","","","","",""
"","S2","","html-keyboard-response","553","600257","0.0-1.0-760.0","0","0","43628","","null","","","null","84","","NaN","","","","","","","","","","","","","",""
"","response","","html-keyboard-response","554","600729","0.0-1.0-761.0","0","0","43628","","468","","","68","84","","","2","84","training","adjacent","FE","6","5","O.jpg","R.jpg","1","0","0","",""
"","feedback","","html-keyboard-response","555","601734","0.0-1.0-762.0-0.0","0","0","43628","","null","","","null","84","","","","","","","","","","","","","","","",""
"","time_out","","html-keyboard-response","556","603738","0.0-1.0-764.0-0.0","0","0","43628","","null","","","null","84","","","","","","","","","","","","","","","",""
"","ITI","","html-keyboard-response","557","604742","0.0-1.0-765.0","0","0","43628","","null","","","null","84","","","","","","","","","","","","","","","NaN",""
"","S1","","html-keyboard-response","558","604996","0.0-1.0-767.0","0","0","43628","","null","","","null","85","","","","","","","","","","","","","","","",""
"","ISI","","html-keyboard-response","559","606998","0.0-1.0-768.0","0","0","43628","","null","","","null","85","NaN","","","","","","","","","","","","","","",""
"","S2","","html-keyboard-response","560","607252","0.0-1.0-769.0","0","0","43628","","null","","","null","85","","NaN","","","","","","","","","","","","","",""
"","response","","html-keyboard-response","561","607710","0.0-1.0-770.0","0","0","43628","","454","","","75","85","","","2","85","training","adjacent","DC","4","3","M.jpg","N.jpg","0","0","1","",""
"","feedback","","html-keyboard-response","562","608714","0.0-1.0-771.0-0.0","0","0","43628","","null","","","null","85","","","","","","","","","","","","","","","",""
"","ITI","","html-keyboard-response","563","609718","0.0-1.0-774.0","0","0","43628","","null","","","null","85","","","","","","","","","","","","","","","NaN",""
"","S1","","html-keyboard-response","564","609971","0.0-1.0-776.0","0","0","43628","","null","","","null","86","","","","","","","","","","","","","","","",""
"","ISI","","html-keyboard-response","565","611975","0.0-1.0-777.0","0","0","43628","","null","","","null","86","NaN","","","","","","","","","","","","","","",""
"","S2","","html-keyboard-response","566","612228","0.0-1.0-778.0","0","0","43628","","null","","","null","86","","NaN","","","","","","","","","","","","","",""
"","response","","html-keyboard-response","567","612653","0.0-1.0-779.0","0","0","43628","","423","","","75","86","","","2","86","training","adjacent","CB","3","2","N.jpg","Q.jpg","0","0","1","",""
"","feedback","","html-keyboard-response","568","613657","0.0-1.0-780.0-0.0","0","0","43628","","null","","","null","86","","","","","","","","","","","","","","","",""
"","ITI","","html-keyboard-response","569","614662","0.0-1.0-783.0","0","0","43628","","null","","","null","86","","","","","","","","","","","","","","","NaN",""
"","S1","","html-keyboard-response","570","614916","0.0-1.0-785.0","0","0","43628","","null","","","null","87","","","","","","","","","","","","","","","",""
"","ISI","","html-keyboard-response","571","616920","0.0-1.0-786.0","0","0","43628","","null","","","null","87","NaN","","","","","","","","","","","","","","",""
"","S2","","html-keyboard-response","572","617174","0.0-1.0-787.0","0","0","43628","","null","","","null","87","","NaN","","","","","","","","","","","","","",""
"","response","","html-keyboard-response","573","617451","0.0-1.0-788.0","0","0","43628","","273","","","75","87","","","2","87","training","adjacent","GF","7","6","L.jpg","O.jpg","0","0","1","",""
"","feedback","","html-keyboard-response","574","618455","0.0-1.0-789.0-0.0","0","0","43628","","null","","","null","87","","","","","","","","","","","","","","","",""
"","ITI","","html-keyboard-response","575","619458","0.0-1.0-792.0","0","0","43628","","null","","","null","87","","","","","","","","","","","","","","","NaN",""
"","S1","","html-keyboard-response","576","619712","0.0-1.0-794.0","0","0","43628","","null","","","null","88","","","","","","","","","","","","","","","",""
"","ISI","","html-keyboard-response","577","621716","0.0-1.0-795.0","0","0","43628","","null","","","null","88","NaN","","","","","","","","","","","","","","",""
"","S2","","html-keyboard-response","578","621970","0.0-1.0-796.0","0","0","43628","","null","","","null","88","","NaN","","","","","","","","","","","","","",""
"","response","","html-keyboard-response","579","622658","0.0-1.0-797.0","0","0","43628","","685","","","75","88","","","2","88","training","adjacent","BC","2","3","Q.jpg","N.jpg","0","1","0","",""
"","feedback","","html-keyboard-response","580","623663","0.0-1.0-798.0-0.0","0","0","43628","","null","","","null","88","","","","","","","","","","","","","","","",""
"","time_out","","html-keyboard-response","581","625667","0.0-1.0-800.0-0.0","0","0","43628","","null","","","null","88","","","","","","","","","","","","","","","",""
"","ITI","","html-keyboard-response","582","626671","0.0-1.0-801.0","0","0","43628","","null","","","null","88","","","","","","","","","","","","","","","NaN",""
"","S1","","html-keyboard-response","583","626925","0.0-1.0-803.0","0","0","43628","","null","","","null","89","","","","","","","","","","","","","","","",""
