"success","ttype","start_time","trial_type","trial_index","time_elapsed","internal_node_id","warning","missed_checkup","PID","view_history","rt","responses","repeat_instructions","key_press","index","keypress_isi","keypress_S2","block","trial_num","phase","group_type","pair_type","S1_stim","S2_stim","S1_img","S2_img","S1_chosen","S1_higher","accuracy","keypress_iti","total_bonus_tally"
"true","full_screen","d03082023hr1437","fullscreen","0","17188","0.0-0.0","0","0","40537","","","","","","","","","","","","","","","","","","","","","",""
"","instructions","","instructions","1","115722","0.0-1.0-0.0-0.0","0","0","40537","[{""page_index"":0,""viewing_time"":7839},{""page_index"":1,""viewing_time"":67954},{""page_index"":2,""viewing_time"":20134},{""page_index"":3,""viewing_time"":2604}]","98531","","","","","","","","","","","","","","","","","","","",""
"","comprehension_check","","survey-multi-choice","2","150330","0.0-1.0-0.0-1.0","0","0","40537","","34604","{""Q0"":""True"",""Q1"":""K"",""Q2"":""Once the second image appears and while the screen 'MAKE A CHOICE' is shown"",""Q3"":""Green mark"",""Q4"":""either D or K""}","0","","","","","","","","","","","","","","","","","",""
"","start_exp","","html-keyboard-response","3","153005","0.0-1.0-1.0","0","0","40537","","2671","","","32","","","","","","","","","","","","","","","","",""
"","S1","","html-keyboard-response","4","153261","0.0-1.0-2.0","0","0","40537","","null","","","null","0","","","","","","","","","","","","","","","",""
"","ISI","","html-keyboard-response","5","153415","0.0-1.0-3.0","0","0","40537","","null","","","null","0","NaN","","","","","","","","","","","","","","",""
"","S2","","html-keyboard-response","6","153670","0.0-1.0-4.0","0","0","40537","","null","","","null","0","","NaN","","","","","","","","","","","","","",""
"","response","","html-keyboard-response","7","154567","0.0-1.0-5.0-0.0","0","0","40537","","893","","","75","0","","","1","0","training","adjacent","DE","4","5","L.jpg","P.jpg","1","1","1","",""
"","feedback","","html-keyboard-response","8","155572","0.0-1.0-6.0-0.0","0","0","40537","","null","","","null","0","","","","","","","","","","","","","","","",""
"","ITI","","html-keyboard-response","9","156576","0.0-1.0-9.0","0","0","40537","","null","","","null","0","","","","","","","","","","","","","","","NaN",""
"","S1","","html-keyboard-response","10","156831","0.0-1.0-11.0","0","0","40537","","null","","","null","1","","","","","","","","","","","","","","","",""
"","ISI","","html-keyboard-response","11","156984","0.0-1.0-12.0","0","0","40537","","null","","","null","1","NaN","","","","","","","","","","","","","","",""
"","S2","","html-keyboard-response","12","157249","0.0-1.0-13.0","0","0","40537","","null","","","null","1","","NaN","","","","","","","","","","","","","",""
"","response","","html-keyboard-response","13","158764","0.0-1.0-14.0-0.0","0","0","40537","","1512","","","68","1","","","1","1","training","adjacent","ED","5","4","P.jpg","L.jpg","0","0","1","",""
"","feedback","","html-keyboard-response","14","159777","0.0-1.0-15.0-0.0","0","0","40537","","null","","","null","1","","","","","","","","","","","","","","","",""
"","ITI","","html-keyboard-response","15","160782","0.0-1.0-18.0","0","0","40537","","null","","","null","1","","","","","","","","","","","","","","","NaN",""
"","S1","","html-keyboard-response","16","161037","0.0-1.0-20.0","0","0","40537","","null","","","null","2","","","","","","","","","","","","","","","",""
"","ISI","","html-keyboard-response","17","161192","0.0-1.0-21.0","0","0","40537","","null","","","null","2","NaN","","","","","","","","","","","","","","",""
"","S2","","html-keyboard-response","18","161447","0.0-1.0-22.0","0","0","40537","","null","","","null","2","","NaN","","","","","","","","","","","","","",""
"","response","","html-keyboard-response","19","162105","0.0-1.0-23.0-0.0","0","0","40537","","655","","","75","2","","","1","2","training","adjacent","DE","4","5","L.jpg","P.jpg","1","1","1","",""
"","feedback","","html-keyboard-response","20","163110","0.0-1.0-24.0-0.0","0","0","40537","","null","","","null","2","","","","","","","","","","","","","","","",""
"","ITI","","html-keyboard-response","21","164116","0.0-1.0-27.0","0","0","40537","","null","","","null","2","","","","","","","","","","","","","","","NaN",""
"","S1","","html-keyboard-response","22","164370","0.0-1.0-29.0","0","0","40537","","null","","","null","3","","","","","","","","","","","","","","","",""
"","ISI","","html-keyboard-response","23","164527","0.0-1.0-30.0","0","0","40537","","null","","","null","3","NaN","","","","","","","","","","","","","","",""
"","S2","","html-keyboard-response","24","164782","0.0-1.0-31.0","0","0","40537","","null","","","null","3","","NaN","","","","","","","","","","","","","",""
"","response","","html-keyboard-response","25","165116","0.0-1.0-32.0-0.0","0","0","40537","","330","","","68","3","","","1","3","training","adjacent","ED","5","4","P.jpg","L.jpg","0","0","1","",""
"","feedback","","html-keyboard-response","26","166122","0.0-1.0-33.0-0.0","0","0","40537","","null","","","null","3","","","","","","","","","","","","","","","",""
"","ITI","","html-keyboard-response","27","167127","0.0-1.0-36.0","0","0","40537","","null","","","null","3","","","","","","","","","","","","","","","NaN",""
"","S1","","html-keyboard-response","28","167381","0.0-1.0-38.0","0","0","40537","","null","","","null","4","","","","","","","","","","","","","","","",""
"","ISI","","html-keyboard-response","29","167534","0.0-1.0-39.0","0","0","40537","","null","","","null","4","NaN","","","","","","","","","","","","","","",""
"","S2","","html-keyboard-response","30","167789","0.0-1.0-40.0","0","0","40537","","null","","","null","4","","NaN","","","","","","","","","","","","","",""
"","response","","html-keyboard-response","31","168617","0.0-1.0-41.0-0.0","0","0","40537","","825","","","68","4","","","1","4","training","adjacent","BC","2","3","O.jpg","R.jpg","0","1","0","",""
"","feedback","","html-keyboard-response","32","169624","0.0-1.0-42.0-0.0","0","0","40537","","null","","","null","4","","","","","","","","","","","","","","","",""
"","time_out","","html-keyboard-response","33","171629","0.0-1.0-44.0-0.0","0","0","40537","","null","","","null","4","","","","","","","","","","","","","","","",""
"","ITI","","html-keyboard-response","34","172633","0.0-1.0-45.0","0","0","40537","","null","","","null","4","","","","","","","","","","","","","","","NaN",""
"","S1","","html-keyboard-response","35","172887","0.0-1.0-47.0","0","0","40537","","null","","","null","5","","","","","","","","","","","","","","","",""
"","ISI","","html-keyboard-response","36","173041","0.0-1.0-48.0","0","0","40537","","null","","","null","5","NaN","","","","","","","","","","","","","","",""
"","S2","","html-keyboard-response","37","173296","0.0-1.0-49.0","0","0","40537","","null","","","null","5","","NaN","","","","","","","","","","","","","",""
"","response","","html-keyboard-response","38","174798","0.0-1.0-50.0-0.0","0","0","40537","","1499","","","68","5","","","1","5","training","adjacent","EF","5","6","P.jpg","M.jpg","0","1","0","",""
"","feedback","","html-keyboard-response","39","175803","0.0-1.0-51.0-0.0","0","0","40537","","null","","","null","5","","","","","","","","","","","","","","","",""
"","time_out","","html-keyboard-response","40","177806","0.0-1.0-53.0-0.0","0","0","40537","","null","","","null","5","","","","","","","","","","","","","","","",""
"","ITI","","html-keyboard-response","41","178810","0.0-1.0-54.0","0","0","40537","","null","","","null","5","","","","","","","","","","","","","","","NaN",""
"","S1","","html-keyboard-response","42","179064","0.0-1.0-56.0","0","0","40537","","null","","","null","6","","","","","","","","","","","","","","","",""
"","ISI","","html-keyboard-response","43","179217","0.0-1.0-57.0","0","0","40537","","null","","","null","6","NaN","","","","","","","","","","","","","","",""
"","S2","","html-keyboard-response","44","179471","0.0-1.0-58.0","0","0","40537","","null","","","null","6","","NaN","","","","","","","","","","","","","",""
"","response","","html-keyboard-response","45","180866","0.0-1.0-59.0-0.0","0","0","40537","","1391","","","75","6","","","1","6","training","adjacent","DC","4","3","L.jpg","R.jpg","1","0","0","",""
"","feedback","","html-keyboard-response","46","181870","0.0-1.0-60.0-0.0","0","0","40537","","null","","","null","6","","","","","","","","","","","","","","","",""
"","time_out","","html-keyboard-response","47","183876","0.0-1.0-62.0-0.0","0","0","40537","","null","","","null","6","","","","","","","","","","","","","","","",""
"","ITI","","html-keyboard-response","48","184879","0.0-1.0-63.0","0","0","40537","","null","","","null","6","","","","","","","","","","","","","","","NaN",""
"","S1","","html-keyboard-response","49","185134","0.0-1.0-65.0","0","0","40537","","null","","","null","7","","","","","","","","","","","","","","","",""
"","ISI","","html-keyboard-response","50","185287","0.0-1.0-66.0","0","0","40537","","null","","","null","7","NaN","","","","","","","","","","","","","","",""
"","S2","","html-keyboard-response","51","185542","0.0-1.0-67.0","0","0","40537","","null","","","null","7","","NaN","","","","","","","","","","","","","",""
"","response","","html-keyboard-response","52","186752","0.0-1.0-68.0-0.0","0","0","40537","","1207","","","68","7","","","1","7","training","adjacent","FE","6","5","M.jpg","P.jpg","0","0","1","",""
"","feedback","","html-keyboard-response","53","187757","0.0-1.0-69.0-0.0","0","0","40537","","null","","","null","7","","","","","","","","","","","","","","","",""
"","ITI","","html-keyboard-response","54","188763","0.0-1.0-72.0","0","0","40537","","null","","","null","7","","","","","","","","","","","","","","","NaN",""
"","S1","","html-keyboard-response","55","189017","0.0-1.0-74.0","0","0","40537","","null","","","null","8","","","","","","","","","","","","","","","",""
"","ISI","","html-keyboard-response","56","189172","0.0-1.0-75.0","0","0","40537","","null","","","null","8","NaN","","","","","","","","","","","","","","",""
"","S2","","html-keyboard-response","57","189427","0.0-1.0-76.0","0","0","40537","","null","","","null","8","","NaN","","","","","","","","","","","","","",""
"","response","","html-keyboard-response","58","191133","0.0-1.0-77.0-0.0","0","0","40537","","1702","","","68","8","","","1","8","training","adjacent","CB","3","2","R.jpg","O.jpg","0","0","1","",""
"","feedback","","html-keyboard-response","59","192137","0.0-1.0-78.0-0.0","0","0","40537","","null","","","null","8","","","","","","","","","","","","","","","",""
"","ITI","","html-keyboard-response","60","193142","0.0-1.0-81.0","0","0","40537","","null","","","null","8","","","","","","","","","","","","","","","NaN",""
"","S1","","html-keyboard-response","61","193397","0.0-1.0-83.0","0","0","40537","","null","","","null","9","","","","","","","","","","","","","","","",""
"","ISI","","html-keyboard-response","62","193553","0.0-1.0-84.0","0","0","40537","","null","","","null","9","NaN","","","","","","","","","","","","","","",""
"","S2","","html-keyboard-response","63","193805","0.0-1.0-85.0","0","0","40537","","null","","","null","9","","NaN","","","","","","","","","","","","","",""
"","response","","html-keyboard-response","64","194400","0.0-1.0-86.0-0.0","0","0","40537","","593","","","68","9","","","1","9","training","adjacent","CB","3","2","R.jpg","O.jpg","0","0","1","",""
"","feedback","","html-keyboard-response","65","195403","0.0-1.0-87.0-0.0","0","0","40537","","null","","","null","9","","","","","","","","","","","","","","","",""
"","ITI","","html-keyboard-response","66","196406","0.0-1.0-90.0","0","0","40537","","null","","","null","9","","","","","","","","","","","","","","","NaN",""
"","S1","","html-keyboard-response","67","196661","0.0-1.0-92.0","0","0","40537","","null","","","null","10","","","","","","","","","","","","","","","",""
"","ISI","","html-keyboard-response","68","196815","0.0-1.0-93.0","0","0","40537","","null","","","null","10","NaN","","","","","","","","","","","","","","",""
"","S2","","html-keyboard-response","69","197070","0.0-1.0-94.0","0","0","40537","","null","","","null","10","","NaN","","","","","","","","","","","","","",""
"","response","","html-keyboard-response","70","197549","0.0-1.0-95.0-0.0","0","0","40537","","475","","","75","10","","","1","10","training","adjacent","BC","2","3","O.jpg","R.jpg","1","1","1","",""
"","feedback","","html-keyboard-response","71","198554","0.0-1.0-96.0-0.0","0","0","40537","","null","","","null","10","","","","","","","","","","","","","","","",""
"","ITI","","html-keyboard-response","72","199561","0.0-1.0-99.0","0","0","40537","","null","","","null","10","","","","","","","","","","","","","","","NaN",""
"","S1","","html-keyboard-response","73","199815","0.0-1.0-101.0","0","0","40537","","null","","","null","11","","","","","","","","","","","","","","","",""
"","ISI","","html-keyboard-response","74","199970","0.0-1.0-102.0","0","0","40537","","null","","","null","11","NaN","","","","","","","","","","","","","","",""
"","S2","","html-keyboard-response","75","200225","0.0-1.0-103.0","0","0","40537","","null","","","null","11","","NaN","","","","","","","","","","","","","",""
"","response","","html-keyboard-response","76","201808","0.0-1.0-104.0-0.0","0","0","40537","","1580","","","75","11","","","1","11","training","adjacent","DE","4","5","L.jpg","P.jpg","1","1","1","",""
"","feedback","","html-keyboard-response","77","202813","0.0-1.0-105.0-0.0","0","0","40537","","null","","","null","11","","","","","","","","","","","","","","","",""
"","ITI","","html-keyboard-response","78","203818","0.0-1.0-108.0","0","0","40537","","null","","","null","11","","","","","","","","","","","","","","","NaN",""
"","S1","","html-keyboard-response","79","204073","0.0-1.0-110.0","0","0","40537","","null","","","null","12","","","","","","","","","","","","","","","",""
"","ISI","","html-keyboard-response","80","204227","0.0-1.0-111.0","0","0","40537","","null","","","null","12","NaN","","","","","","","","","","","","","","",""
"","S2","","html-keyboard-response","81","204482","0.0-1.0-112.0","0","0","40537","","null","","","null","12","","NaN","","","","","","","","","","","","","",""
"","response","","html-keyboard-response","82","205627","0.0-1.0-113.0-0.0","0","0","40537","","1141","","","75","12","","","1","12","training","adjacent","BA","2","1","O.jpg","Q.jpg","1","0","0","",""
"","feedback","","html-keyboard-response","83","206632","0.0-1.0-114.0-0.0","0","0","40537","","null","","","null","12","","","","","","","","","","","","","","","",""
"","time_out","","html-keyboard-response","84","208637","0.0-1.0-116.0-0.0","0","0","40537","","null","","","null","12","","","","","","","","","","","","","","","",""
"","ITI","","html-keyboard-response","85","209642","0.0-1.0-117.0","0","0","40537","","null","","","null","12","","","","","","","","","","","","","","","NaN",""
"","S1","","html-keyboard-response","86","209897","0.0-1.0-119.0","0","0","40537","","null","","","null","13","","","","","","","","","","","","","","","",""
"","ISI","","html-keyboard-response","87","210051","0.0-1.0-120.0","0","0","40537","","null","","","null","13","NaN","","","","","","","","","","","","","","",""
"","S2","","html-keyboard-response","88","210305","0.0-1.0-121.0","0","0","40537","","null","","","null","13","","NaN","","","","","","","","","","","","","",""
"","response","","html-keyboard-response","89","211379","0.0-1.0-122.0-0.0","0","0","40537","","1070","","","68","13","","","1","13","training","adjacent","BA","2","1","O.jpg","Q.jpg","0","0","1","",""
"","feedback","","html-keyboard-response","90","212383","0.0-1.0-123.0-0.0","0","0","40537","","null","","","null","13","","","","","","","","","","","","","","","",""
"","ITI","","html-keyboard-response","91","213387","0.0-1.0-126.0","0","0","40537","","null","","","null","13","","","","","","","","","","","","","","","NaN",""
"","S1","","html-keyboard-response","92","213641","0.0-1.0-128.0","0","0","40537","","null","","","null","14","","","","","","","","","","","","","","","",""
"","ISI","","html-keyboard-response","93","213796","0.0-1.0-129.0","0","0","40537","","null","","","null","14","NaN","","","","","","","","","","","","","","",""
"","S2","","html-keyboard-response","94","214050","0.0-1.0-130.0","0","0","40537","","null","","","null","14","","NaN","","","","","","","","","","","","","",""
"","response","","html-keyboard-response","95","215803","0.0-1.0-131.0-0.0","0","0","40537","","null","","","null","14","","","1","14","training","adjacent","ED","5","4","P.jpg","L.jpg","NaN","0","0","",""
"","too_slow_prompt","","html-keyboard-response","96","216805","0.0-1.0-133.0-0.0","1","0","40537","","null","","","null","","","","","","","","","","","","","","","","",""
"","time_out","","html-keyboard-response","97","218809","0.0-1.0-134.0-0.0","0","0","40537","","null","","","null","14","","","","","","","","","","","","","","","",""
"","ITI","","html-keyboard-response","98","219812","0.0-1.0-135.0","0","0","40537","","null","","","null","14","","","","","","","","","","","","","","","NaN",""
"","S1","","html-keyboard-response","99","220067","0.0-1.0-137.0","0","0","40537","","null","","","null","15","","","","","","","","","","","","","","","",""
"","ISI","","html-keyboard-response","100","220221","0.0-1.0-138.0","0","0","40537","","null","","","null","15","NaN","","","","","","","","","","","","","","",""
"","S2","","html-keyboard-response","101","220475","0.0-1.0-139.0","0","0","40537","","null","","","null","15","","NaN","","","","","","","","","","","","","",""
"","response","","html-keyboard-response","102","221110","0.0-1.0-140.0-0.0","0","0","40537","","632","","","75","15","","","1","15","training","adjacent","AB","1","2","Q.jpg","O.jpg","1","1","1","",""
"","feedback","","html-keyboard-response","103","222115","0.0-1.0-141.0-0.0","0","0","40537","","null","","","null","15","","","","","","","","","","","","","","","",""
"","ITI","","html-keyboard-response","104","223119","0.0-1.0-144.0","0","0","40537","","null","","","null","15","","","","","","","","","","","","","","","NaN",""
"","S1","","html-keyboard-response","105","223373","0.0-1.0-146.0","0","0","40537","","null","","","null","16","","","","","","","","","","","","","","","",""
"","ISI","","html-keyboard-response","106","223528","0.0-1.0-147.0","0","0","40537","","null","","","null","16","NaN","","","","","","","","","","","","","","",""
"","S2","","html-keyboard-response","107","223782","0.0-1.0-148.0","0","0","40537","","null","","","null","16","","NaN","","","","","","","","","","","","","",""
"","response","","html-keyboard-response","108","224764","0.0-1.0-149.0-0.0","0","0","40537","","980","","","75","16","","","1","16","training","adjacent","DE","4","5","L.jpg","P.jpg","1","1","1","",""
"","feedback","","html-keyboard-response","109","225768","0.0-1.0-150.0-0.0","0","0","40537","","null","","","null","16","","","","","","","","","","","","","","","",""
"","ITI","","html-keyboard-response","110","226773","0.0-1.0-153.0","0","0","40537","","null","","","null","16","","","","","","","","","","","","","","","NaN",""
"","S1","","html-keyboard-response","111","227028","0.0-1.0-155.0","0","0","40537","","null","","","null","17","","","","","","","","","","","","","","","",""
"","ISI","","html-keyboard-response","112","227182","0.0-1.0-156.0","0","0","40537","","null","","","null","17","NaN","","","","","","","","","","","","","","",""
"","S2","","html-keyboard-response","113","227437","0.0-1.0-157.0","0","0","40537","","null","","","null","17","","NaN","","","","","","","","","","","","","",""
"","response","","html-keyboard-response","114","228589","0.0-1.0-158.0-0.0","0","0","40537","","1148","","","68","17","","","1","17","training","adjacent","CD","3","4","R.jpg","L.jpg","0","1","0","",""
"","feedback","","html-keyboard-response","115","229593","0.0-1.0-159.0-0.0","0","0","40537","","null","","","null","17","","","","","","","","","","","","","","","",""
"","time_out","","html-keyboard-response","116","231597","0.0-1.0-161.0-0.0","0","0","40537","","null","","","null","17","","","","","","","","","","","","","","","",""
"","ITI","","html-keyboard-response","117","232600","0.0-1.0-162.0","0","0","40537","","null","","","null","17","","","","","","","","","","","","","","","NaN",""
"","S1","","html-keyboard-response","118","232853","0.0-1.0-164.0","0","0","40537","","null","","","null","18","","","","","","","","","","","","","","","",""
"","ISI","","html-keyboard-response","119","233007","0.0-1.0-165.0","0","0","40537","","null","","","null","18","NaN","","","","","","","","","","","","","","",""
"","S2","","html-keyboard-response","120","233262","0.0-1.0-166.0","0","0","40537","","null","","","null","18","","NaN","","","","","","","","","","","","","",""
"","response","","html-keyboard-response","121","234222","0.0-1.0-167.0-0.0","0","0","40537","","957","","","75","18","","","1","18","training","adjacent","FG","6","7","M.jpg","N.jpg","1","1","1","",""
"","feedback","","html-keyboard-response","122","235228","0.0-1.0-168.0-0.0","0","0","40537","","null","","","null","18","","","","","","","","","","","","","","","",""
"","ITI","","html-keyboard-response","123","236232","0.0-1.0-171.0","0","0","40537","","null","","","null","18","","","","","","","","","","","","","","","NaN",""
"","S1","","html-keyboard-response","124","236487","0.0-1.0-173.0","0","0","40537","","null","","","null","19","","","","","","","","","","","","","","","",""
"","ISI","","html-keyboard-response","125","236642","0.0-1.0-174.0","0","0","40537","","null","","","null","19","NaN","","","","","","","","","","","","","","",""
"","S2","","html-keyboard-response","126","236897","0.0-1.0-175.0","0","0","40537","","null","","","null","19","","NaN","","","","","","","","","","","","","",""
"","response","","html-keyboard-response","127","237486","0.0-1.0-176.0-0.0","0","0","40537","","585","","","68","19","","","1","19","training","adjacent","AB","1","2","Q.jpg","O.jpg","0","1","0","",""
"","feedback","","html-keyboard-response","128","238490","0.0-1.0-177.0-0.0","0","0","40537","","null","","","null","19","","","","","","","","","","","","","","","",""
"","time_out","","html-keyboard-response","129","240493","0.0-1.0-179.0-0.0","0","0","40537","","null","","","null","19","","","","","","","","","","","","","","","",""
"","ITI","","html-keyboard-response","130","241497","0.0-1.0-180.0","0","0","40537","","null","","","null","19","","","","","","","","","","","","","","","NaN",""
"","S1","","html-keyboard-response","131","241753","0.0-1.0-182.0","0","0","40537","","null","","","null","20","","","","","","","","","","","","","","","",""
"","ISI","","html-keyboard-response","132","241907","0.0-1.0-183.0","0","0","40537","","null","","","null","20","NaN","","","","","","","","","","","","","","",""
"","S2","","html-keyboard-response","133","242162","0.0-1.0-184.0","0","0","40537","","null","","","null","20","","NaN","","","","","","","","","","","","","",""
"","response","","html-keyboard-response","134","242893","0.0-1.0-185.0-0.0","0","0","40537","","727","","","75","20","","","1","20","training","adjacent","FE","6","5","M.jpg","P.jpg","1","0","0","",""
"","feedback","","html-keyboard-response","135","243898","0.0-1.0-186.0-0.0","0","0","40537","","null","","","null","20","","","","","","","","","","","","","","","",""
"","time_out","","html-keyboard-response","136","245902","0.0-1.0-188.0-0.0","0","0","40537","","null","","","null","20","","","","","","","","","","","","","","","",""
"","ITI","","html-keyboard-response","137","246907","0.0-1.0-189.0","0","0","40537","","83","","","75","20","","","","","","","","","","","","","","","k",""
"","S1","","html-keyboard-response","138","247162","0.0-1.0-191.0","0","0","40537","","null","","","null","21","","","","","","","","","","","","","","","",""
"","ISI","","html-keyboard-response","139","247316","0.0-1.0-192.0","0","0","40537","","null","","","null","21","NaN","","","","","","","","","","","","","","",""
"","S2","","html-keyboard-response","140","247578","0.0-1.0-193.0","0","0","40537","","null","","","null","21","","NaN","","","","","","","","","","","","","",""
"","response","","html-keyboard-response","141","248321","0.0-1.0-194.0-0.0","0","0","40537","","739","","","68","21","","","1","21","training","adjacent","GF","7","6","N.jpg","M.jpg","0","0","1","",""
"","feedback","","html-keyboard-response","142","249326","0.0-1.0-195.0-0.0","0","0","40537","","null","","","null","21","","","","","","","","","","","","","","","",""
"","ITI","","html-keyboard-response","143","250331","0.0-1.0-198.0","0","0","40537","","null","","","null","21","","","","","","","","","","","","","","","NaN",""
"","S1","","html-keyboard-response","144","250583","0.0-1.0-200.0","0","0","40537","","null","","","null","22","","","","","","","","","","","","","","","",""
"","ISI","","html-keyboard-response","145","250737","0.0-1.0-201.0","0","0","40537","","null","","","null","22","NaN","","","","","","","","","","","","","","",""
"","S2","","html-keyboard-response","146","250991","0.0-1.0-202.0","0","0","40537","","null","","","null","22","","NaN","","","","","","","","","","","","","",""
"","response","","html-keyboard-response","147","251830","0.0-1.0-203.0-0.0","0","0","40537","","836","","","68","22","","","1","22","training","adjacent","CB","3","2","R.jpg","O.jpg","0","0","1","",""
"","feedback","","html-keyboard-response","148","252845","0.0-1.0-204.0-0.0","0","0","40537","","null","","","null","22","","","","","","","","","","","","","","","",""
"","ITI","","html-keyboard-response","149","253862","0.0-1.0-207.0","0","0","40537","","null","","","null","22","","","","","","","","","","","","","","","NaN",""
"","S1","","html-keyboard-response","150","254117","0.0-1.0-209.0","0","0","40537","","null","","","null","23","","","","","","","","","","","","","","","",""
"","ISI","","html-keyboard-response","151","254285","0.0-1.0-210.0","0","0","40537","","null","","","null","23","NaN","","","","","","","","","","","","","","",""
"","S2","","html-keyboard-response","152","254540","0.0-1.0-211.0","0","0","40537","","null","","","null","23","","NaN","","","","","","","","","","","","","",""
"","response","","html-keyboard-response","153","255770","0.0-1.0-212.0-0.0","0","0","40537","","1227","","","75","23","","","1","23","training","adjacent","FG","6","7","M.jpg","N.jpg","1","1","1","",""
"","feedback","","html-keyboard-response","154","256776","0.0-1.0-213.0-0.0","0","0","40537","","null","","","null","23","","","","","","","","","","","","","","","",""
"","ITI","","html-keyboard-response","155","257780","0.0-1.0-216.0","0","0","40537","","null","","","null","23","","","","","","","","","","","","","","","NaN",""
"","S1","","html-keyboard-response","156","258035","0.0-1.0-218.0","0","0","40537","","null","","","null","24","","","","","","","","","","","","","","","",""
"","ISI","","html-keyboard-response","157","258189","0.0-1.0-219.0","0","0","40537","","null","","","null","24","NaN","","","","","","","","","","","","","","",""
"","S2","","html-keyboard-response","158","258452","0.0-1.0-220.0","0","0","40537","","null","","","null","24","","NaN","","","","","","","","","","","","","",""
"","response","","html-keyboard-response","159","259685","0.0-1.0-221.0-0.0","0","0","40537","","1229","","","75","24","","","1","24","training","adjacent","FE","6","5","M.jpg","P.jpg","1","0","0","",""
"","feedback","","html-keyboard-response","160","260690","0.0-1.0-222.0-0.0","0","0","40537","","null","","","null","24","","","","","","","","","","","","","","","",""
"","time_out","","html-keyboard-response","161","262695","0.0-1.0-224.0-0.0","0","0","40537","","null","","","null","24","","","","","","","","","","","","","","","",""
"","ITI","","html-keyboard-response","162","263699","0.0-1.0-225.0","0","0","40537","","null","","","null","24","","","","","","","","","","","","","","","NaN",""
"","S1","","html-keyboard-response","163","263954","0.0-1.0-227.0","0","0","40537","","null","","","null","25","","","","","","","","","","","","","","","",""
"","ISI","","html-keyboard-response","164","264108","0.0-1.0-228.0","0","0","40537","","null","","","null","25","NaN","","","","","","","","","","","","","","",""
"","S2","","html-keyboard-response","165","264361","0.0-1.0-229.0","0","0","40537","","null","","","null","25","","NaN","","","","","","","","","","","","","",""
"","response","","html-keyboard-response","166","265595","0.0-1.0-230.0-0.0","0","0","40537","","1230","","","75","25","","","1","25","training","adjacent","CB","3","2","R.jpg","O.jpg","1","0","0","",""
"","feedback","","html-keyboard-response","167","266600","0.0-1.0-231.0-0.0","0","0","40537","","null","","","null","25","","","","","","","","","","","","","","","",""
"","time_out","","html-keyboard-response","168","268603","0.0-1.0-233.0-0.0","0","0","40537","","null","","","null","25","","","","","","","","","","","","","","","",""
"","ITI","","html-keyboard-response","169","269608","0.0-1.0-234.0","0","0","40537","","null","","","null","25","","","","","","","","","","","","","","","NaN",""
"","S1","","html-keyboard-response","170","269862","0.0-1.0-236.0","0","0","40537","","null","","","null","26","","","","","","","","","","","","","","","",""
"","ISI","","html-keyboard-response","171","270017","0.0-1.0-237.0","0","0","40537","","null","","","null","26","NaN","","","","","","","","","","","","","","",""
"","S2","","html-keyboard-response","172","270273","0.0-1.0-238.0","0","0","40537","","null","","","null","26","","NaN","","","","","","","","","","","","","",""
"","response","","html-keyboard-response","173","271480","0.0-1.0-239.0-0.0","0","0","40537","","1204","","","75","26","","","1","26","training","adjacent","AB","1","2","Q.jpg","O.jpg","1","1","1","",""
"","feedback","","html-keyboard-response","174","272485","0.0-1.0-240.0-0.0","0","0","40537","","null","","","null","26","","","","","","","","","","","","","","","",""
"","ITI","","html-keyboard-response","175","273498","0.0-1.0-243.0","0","0","40537","","null","","","null","26","","","","","","","","","","","","","","","NaN",""
"","S1","","html-keyboard-response","176","273753","0.0-1.0-245.0","0","0","40537","","null","","","null","27","","","","","","","","","","","","","","","",""
"","ISI","","html-keyboard-response","177","273907","0.0-1.0-246.0","0","0","40537","","null","","","null","27","NaN","","","","","","","","","","","","","","",""
"","S2","","html-keyboard-response","178","274162","0.0-1.0-247.0","0","0","40537","","null","","","null","27","","NaN","","","","","","","","","","","","","",""
"","response","","html-keyboard-response","179","275017","0.0-1.0-248.0-0.0","0","0","40537","","851","","","75","27","","","1","27","training","adjacent","BA","2","1","O.jpg","Q.jpg","1","0","0","",""
"","feedback","","html-keyboard-response","180","276022","0.0-1.0-249.0-0.0","0","0","40537","","null","","","null","27","","","","","","","","","","","","","","","",""
"","time_out","","html-keyboard-response","181","278027","0.0-1.0-251.0-0.0","0","0","40537","","null","","","null","27","","","","","","","","","","","","","","","",""
"","ITI","","html-keyboard-response","182","279032","0.0-1.0-252.0","0","0","40537","","null","","","null","27","","","","","","","","","","","","","","","NaN",""
"","S1","","html-keyboard-response","183","279287","0.0-1.0-254.0","0","0","40537","","null","","","null","28","","","","","","","","","","","","","","","",""
"","ISI","","html-keyboard-response","184","279441","0.0-1.0-255.0","0","0","40537","","null","","","null","28","NaN","","","","","","","","","","","","","","",""
"","S2","","html-keyboard-response","185","279702","0.0-1.0-256.0","0","0","40537","","null","","","null","28","","NaN","","","","","","","","","","","","","",""
"","response","","html-keyboard-response","186","280557","0.0-1.0-257.0-0.0","0","0","40537","","852","","","68","28","","","1","28","training","adjacent","GF","7","6","N.jpg","M.jpg","0","0","1","",""
"","feedback","","html-keyboard-response","187","281561","0.0-1.0-258.0-0.0","0","0","40537","","null","","","null","28","","","","","","","","","","","","","","","",""
"","ITI","","html-keyboard-response","188","282565","0.0-1.0-261.0","0","0","40537","","null","","","null","28","","","","","","","","","","","","","","","NaN",""
"","S1","","html-keyboard-response","189","282820","0.0-1.0-263.0","0","0","40537","","null","","","null","29","","","","","","","","","","","","","","","",""
"","ISI","","html-keyboard-response","190","282973","0.0-1.0-264.0","0","0","40537","","null","","","null","29","NaN","","","","","","","","","","","","","","",""
"","S2","","html-keyboard-response","191","283228","0.0-1.0-265.0","0","0","40537","","null","","","null","29","","NaN","","","","","","","","","","","","","",""
"","response","","html-keyboard-response","192","284008","0.0-1.0-266.0-0.0","0","0","40537","","777","","","75","29","","","1","29","training","adjacent","CD","3","4","R.jpg","L.jpg","1","1","1","",""
"","feedback","","html-keyboard-response","193","285013","0.0-1.0-267.0-0.0","0","0","40537","","null","","","null","29","","","","","","","","","","","","","","","",""
"","ITI","","html-keyboard-response","194","286017","0.0-1.0-270.0","0","0","40537","","null","","","null","29","","","","","","","","","","","","","","","NaN",""
"","S1","","html-keyboard-response","195","286272","0.0-1.0-272.0","0","0","40537","","null","","","null","30","","","","","","","","","","","","","","","",""
"","ISI","","html-keyboard-response","196","286426","0.0-1.0-273.0","0","0","40537","","null","","","null","30","NaN","","","","","","","","","","","","","","",""
"","S2","","html-keyboard-response","197","286681","0.0-1.0-274.0","0","0","40537","","null","","","null","30","","NaN","","","","","","","","","","","","","",""
"","response","","html-keyboard-response","198","287617","0.0-1.0-275.0-0.0","0","0","40537","","933","","","75","30","","","1","30","training","adjacent","BC","2","3","O.jpg","R.jpg","1","1","1","",""
"","feedback","","html-keyboard-response","199","288621","0.0-1.0-276.0-0.0","0","0","40537","","null","","","null","30","","","","","","","","","","","","","","","",""
"","ITI","","html-keyboard-response","200","289627","0.0-1.0-279.0","0","0","40537","","null","","","null","30","","","","","","","","","","","","","","","NaN",""
"","S1","","html-keyboard-response","201","289893","0.0-1.0-281.0","0","0","40537","","null","","","null","31","","","","","","","","","","","","","","","",""
"","ISI","","html-keyboard-response","202","290046","0.0-1.0-282.0","0","0","40537","","null","","","null","31","NaN","","","","","","","","","","","","","","",""
"","S2","","html-keyboard-response","203","290302","0.0-1.0-283.0","0","0","40537","","null","","","null","31","","NaN","","","","","","","","","","","","","",""
"","response","","html-keyboard-response","204","291898","0.0-1.0-284.0-0.0","0","0","40537","","1593","","","75","31","","","1","31","training","adjacent","FG","6","7","M.jpg","N.jpg","1","1","1","",""
"","feedback","","html-keyboard-response","205","292905","0.0-1.0-285.0-0.0","0","0","40537","","null","","","null","31","","","","","","","","","","","","","","","",""
"","ITI","","html-keyboard-response","206","293909","0.0-1.0-288.0","0","0","40537","","null","","","null","31","","","","","","","","","","","","","","","NaN",""
"","S1","","html-keyboard-response","207","294165","0.0-1.0-290.0","0","0","40537","","null","","","null","32","","","","","","","","","","","","","","","",""
"","ISI","","html-keyboard-response","208","294318","0.0-1.0-291.0","0","0","40537","","null","","","null","32","NaN","","","","","","","","","","","","","","",""
"","S2","","html-keyboard-response","209","294574","0.0-1.0-292.0","0","0","40537","","null","","","null","32","","NaN","","","","","","","","","","","","","",""
"","response","","html-keyboard-response","210","295783","0.0-1.0-293.0-0.0","0","0","40537","","1207","","","75","32","","","1","32","training","adjacent","DC","4","3","L.jpg","R.jpg","1","0","0","",""
"","feedback","","html-keyboard-response","211","296789","0.0-1.0-294.0-0.0","0","0","40537","","null","","","null","32","","","","","","","","","","","","","","","",""
"","time_out","","html-keyboard-response","212","298793","0.0-1.0-296.0-0.0","0","0","40537","","null","","","null","32","","","","","","","","","","","","","","","",""
"","ITI","","html-keyboard-response","213","299809","0.0-1.0-297.0","0","0","40537","","null","","","null","32","","","","","","","","","","","","","","","NaN",""
"","S1","","html-keyboard-response","214","300064","0.0-1.0-299.0","0","0","40537","","null","","","null","33","","","","","","","","","","","","","","","",""
"","ISI","","html-keyboard-response","215","300219","0.0-1.0-300.0","0","0","40537","","null","","","null","33","NaN","","","","","","","","","","","","","","",""
"","S2","","html-keyboard-response","216","300473","0.0-1.0-301.0","0","0","40537","","null","","","null","33","","NaN","","","","","","","","","","","","","",""
"","response","","html-keyboard-response","217","301325","0.0-1.0-302.0-0.0","0","0","40537","","849","","","75","33","","","1","33","training","adjacent","CD","3","4","R.jpg","L.jpg","1","1","1","",""
"","feedback","","html-keyboard-response","218","302330","0.0-1.0-303.0-0.0","0","0","40537","","null","","","null","33","","","","","","","","","","","","","","","",""
"","ITI","","html-keyboard-response","219","303335","0.0-1.0-306.0","0","0","40537","","null","","","null","33","","","","","","","","","","","","","","","NaN",""
"","S1","","html-keyboard-response","220","303589","0.0-1.0-308.0","0","0","40537","","null","","","null","34","","","","","","","","","","","","","","","",""
"","ISI","","html-keyboard-response","221","303743","0.0-1.0-309.0","0","0","40537","","null","","","null","34","NaN","","","","","","","","","","","","","","",""
"","S2","","html-keyboard-response","222","303999","0.0-1.0-310.0","0","0","40537","","null","","","null","34","","NaN","","","","","","","","","","","","","",""
"","response","","html-keyboard-response","223","304776","0.0-1.0-311.0-0.0","0","0","40537","","771","","","68","34","","","1","34","training","adjacent","GF","7","6","N.jpg","M.jpg","0","0","1","",""
"","feedback","","html-keyboard-response","224","305780","0.0-1.0-312.0-0.0","0","0","40537","","null","","","null","34","","","","","","","","","","","","","","","",""
"","ITI","","html-keyboard-response","225","306785","0.0-1.0-315.0","0","0","40537","","null","","","null","34","","","","","","","","","","","","","","","NaN",""
"","S1","","html-keyboard-response","226","307040","0.0-1.0-317.0","0","0","40537","","null","","","null","35","","","","","","","","","","","","","","","",""
"","ISI","","html-keyboard-response","227","307199","0.0-1.0-318.0","0","0","40537","","null","","","null","35","NaN","","","","","","","","","","","","","","",""
"","S2","","html-keyboard-response","228","307453","0.0-1.0-319.0","0","0","40537","","null","","","null","35","","NaN","","","","","","","","","","","","","",""
"","response","","html-keyboard-response","229","308667","0.0-1.0-320.0-0.0","0","0","40537","","1210","","","75","35","","","1","35","training","adjacent","GF","7","6","N.jpg","M.jpg","1","0","0","",""
"","feedback","","html-keyboard-response","230","309672","0.0-1.0-321.0-0.0","0","0","40537","","null","","","null","35","","","","","","","","","","","","","","","",""
"","time_out","","html-keyboard-response","231","311677","0.0-1.0-323.0-0.0","0","0","40537","","null","","","null","35","","","","","","","","","","","","","","","",""
"","ITI","","html-keyboard-response","232","312681","0.0-1.0-324.0","0","0","40537","","null","","","null","35","","","","","","","","","","","","","","","NaN",""
"","S1","","html-keyboard-response","233","312935","0.0-1.0-326.0","0","0","40537","","null","","","null","36","","","","","","","","","","","","","","","",""
"","ISI","","html-keyboard-response","234","313089","0.0-1.0-327.0","0","0","40537","","null","","","null","36","NaN","","","","","","","","","","","","","","",""
"","S2","","html-keyboard-response","235","313345","0.0-1.0-328.0","0","0","40537","","null","","","null","36","","NaN","","","","","","","","","","","","","",""
"","response","","html-keyboard-response","236","314561","0.0-1.0-329.0-0.0","0","0","40537","","1212","","","75","36","","","1","36","training","adjacent","ED","5","4","P.jpg","L.jpg","1","0","0","",""
"","feedback","","html-keyboard-response","237","315566","0.0-1.0-330.0-0.0","0","0","40537","","null","","","null","36","","","","","","","","","","","","","","","",""
"","time_out","","html-keyboard-response","238","317570","0.0-1.0-332.0-0.0","0","0","40537","","null","","","null","36","","","","","","","","","","","","","","","",""
"","ITI","","html-keyboard-response","239","318575","0.0-1.0-333.0","0","0","40537","","null","","","null","36","","","","","","","","","","","","","","","NaN",""
"","S1","","html-keyboard-response","240","318829","0.0-1.0-335.0","0","0","40537","","null","","","null","37","","","","","","","","","","","","","","","",""
"","ISI","","html-keyboard-response","241","318983","0.0-1.0-336.0","0","0","40537","","null","","","null","37","NaN","","","","","","","","","","","","","","",""
"","S2","","html-keyboard-response","242","319237","0.0-1.0-337.0","0","0","40537","","null","","","null","37","","NaN","","","","","","","","","","","","","",""
"","response","","html-keyboard-response","243","320148","0.0-1.0-338.0-0.0","0","0","40537","","907","","","75","37","","","1","37","training","adjacent","FG","6","7","M.jpg","N.jpg","1","1","1","",""
"","feedback","","html-keyboard-response","244","321157","0.0-1.0-339.0-0.0","0","0","40537","","null","","","null","37","","","","","","","","","","","","","","","",""
"","ITI","","html-keyboard-response","245","322162","0.0-1.0-342.0","0","0","40537","","null","","","null","37","","","","","","","","","","","","","","","NaN",""
"","S1","","html-keyboard-response","246","322417","0.0-1.0-344.0","0","0","40537","","null","","","null","38","","","","","","","","","","","","","","","",""
"","ISI","","html-keyboard-response","247","322572","0.0-1.0-345.0","0","0","40537","","null","","","null","38","NaN","","","","","","","","","","","","","","",""
"","S2","","html-keyboard-response","248","322827","0.0-1.0-346.0","0","0","40537","","null","","","null","38","","NaN","","","","","","","","","","","","","",""
"","response","","html-keyboard-response","249","323890","0.0-1.0-347.0-0.0","0","0","40537","","1059","","","68","38","","","1","38","training","adjacent","FE","6","5","M.jpg","P.jpg","0","0","1","",""
"","feedback","","html-keyboard-response","250","324895","0.0-1.0-348.0-0.0","0","0","40537","","null","","","null","38","","","","","","","","","","","","","","","",""
"","ITI","","html-keyboard-response","251","325899","0.0-1.0-351.0","0","0","40537","","null","","","null","38","","","","","","","","","","","","","","","NaN",""
"","S1","","html-keyboard-response","252","326155","0.0-1.0-353.0","0","0","40537","","null","","","null","39","","","","","","","","","","","","","","","",""
"","ISI","","html-keyboard-response","253","326310","0.0-1.0-354.0","0","0","40537","","null","","","null","39","NaN","","","","","","","","","","","","","","",""
"","S2","","html-keyboard-response","254","326565","0.0-1.0-355.0","0","0","40537","","null","","","null","39","","NaN","","","","","","","","","","","","","",""
"","response","","html-keyboard-response","255","327396","0.0-1.0-356.0-0.0","0","0","40537","","827","","","75","39","","","1","39","training","adjacent","BA","2","1","O.jpg","Q.jpg","1","0","0","",""
"","feedback","","html-keyboard-response","256","328401","0.0-1.0-357.0-0.0","0","0","40537","","null","","","null","39","","","","","","","","","","","","","","","",""
"","time_out","","html-keyboard-response","257","330406","0.0-1.0-359.0-0.0","0","0","40537","","null","","","null","39","","","","","","","","","","","","","","","",""
"","ITI","","html-keyboard-response","258","331419","0.0-1.0-360.0","0","0","40537","","null","","","null","39","","","","","","","","","","","","","","","NaN",""
"","S1","","html-keyboard-response","259","331674","0.0-1.0-362.0","0","0","40537","","null","","","null","40","","","","","","","","","","","","","","","",""
"","ISI","","html-keyboard-response","260","331829","0.0-1.0-363.0","0","0","40537","","null","","","null","40","NaN","","","","","","","","","","","","","","",""
"","S2","","html-keyboard-response","261","332092","0.0-1.0-364.0","0","0","40537","","null","","","null","40","","NaN","","","","","","","","","","","","","",""
"","response","","html-keyboard-response","262","332899","0.0-1.0-365.0-0.0","0","0","40537","","804","","","68","40","","","1","40","training","adjacent","EF","5","6","P.jpg","M.jpg","0","1","0","",""
"","feedback","","html-keyboard-response","263","333904","0.0-1.0-366.0-0.0","0","0","40537","","null","","","null","40","","","","","","","","","","","","","","","",""
"","time_out","","html-keyboard-response","264","335908","0.0-1.0-368.0-0.0","0","0","40537","","null","","","null","40","","","","","","","","","","","","","","","",""
"","ITI","","html-keyboard-response","265","336912","0.0-1.0-369.0","0","0","40537","","null","","","null","40","","","","","","","","","","","","","","","NaN",""
"","S1","","html-keyboard-response","266","337167","0.0-1.0-371.0","0","0","40537","","null","","","null","41","","","","","","","","","","","","","","","",""
"","ISI","","html-keyboard-response","267","337322","0.0-1.0-372.0","0","0","40537","","null","","","null","41","NaN","","","","","","","","","","","","","","",""
"","S2","","html-keyboard-response","268","337578","0.0-1.0-373.0","0","0","40537","","null","","","null","41","","NaN","","","","","","","","","","","","","",""
"","response","","html-keyboard-response","269","339069","0.0-1.0-374.0-0.0","0","0","40537","","1487","","","75","41","","","1","41","training","adjacent","EF","5","6","P.jpg","M.jpg","1","1","1","",""
"","feedback","","html-keyboard-response","270","340074","0.0-1.0-375.0-0.0","0","0","40537","","null","","","null","41","","","","","","","","","","","","","","","",""
"","ITI","","html-keyboard-response","271","341079","0.0-1.0-378.0","0","0","40537","","null","","","null","41","","","","","","","","","","","","","","","NaN",""
"","S1","","html-keyboard-response","272","341332","0.0-1.0-380.0","0","0","40537","","null","","","null","42","","","","","","","","","","","","","","","",""
"","ISI","","html-keyboard-response","273","341485","0.0-1.0-381.0","0","0","40537","","null","","","null","42","NaN","","","","","","","","","","","","","","",""
"","S2","","html-keyboard-response","274","341740","0.0-1.0-382.0","0","0","40537","","null","","","null","42","","NaN","","","","","","","","","","","","","",""
"","response","","html-keyboard-response","275","342154","0.0-1.0-383.0-0.0","0","0","40537","","411","","","75","42","","","1","42","training","adjacent","EF","5","6","P.jpg","M.jpg","1","1","1","",""
"","feedback","","html-keyboard-response","276","343159","0.0-1.0-384.0-0.0","0","0","40537","","null","","","null","42","","","","","","","","","","","","","","","",""
"","ITI","","html-keyboard-response","277","344163","0.0-1.0-387.0","0","0","40537","","null","","","null","42","","","","","","","","","","","","","","","NaN",""
"","S1","","html-keyboard-response","278","344418","0.0-1.0-389.0","0","0","40537","","null","","","null","43","","","","","","","","","","","","","","","",""
"","ISI","","html-keyboard-response","279","344573","0.0-1.0-390.0","0","0","40537","","null","","","null","43","NaN","","","","","","","","","","","","","","",""
"","S2","","html-keyboard-response","280","344828","0.0-1.0-391.0","0","0","40537","","null","","","null","43","","NaN","","","","","","","","","","","","","",""
"","response","","html-keyboard-response","281","345799","0.0-1.0-392.0-0.0","0","0","40537","","967","","","75","43","","","1","43","training","adjacent","DC","4","3","L.jpg","R.jpg","1","0","0","",""
"","feedback","","html-keyboard-response","282","346803","0.0-1.0-393.0-0.0","0","0","40537","","null","","","null","43","","","","","","","","","","","","","","","",""
"","time_out","","html-keyboard-response","283","348807","0.0-1.0-395.0-0.0","0","0","40537","","null","","","null","43","","","","","","","","","","","","","","","",""
"","ITI","","html-keyboard-response","284","349812","0.0-1.0-396.0","0","0","40537","","null","","","null","43","","","","","","","","","","","","","","","NaN",""
"","S1","","html-keyboard-response","285","350079","0.0-1.0-398.0","0","0","40537","","null","","","null","44","","","","","","","","","","","","","","","",""
"","ISI","","html-keyboard-response","286","350234","0.0-1.0-399.0","0","0","40537","","null","","","null","44","NaN","","","","","","","","","","","","","","",""
"","S2","","html-keyboard-response","287","350488","0.0-1.0-400.0","0","0","40537","","null","","","null","44","","NaN","","","","","","","","","","","","","",""
"","response","","html-keyboard-response","288","351162","0.0-1.0-401.0-0.0","0","0","40537","","669","","","75","44","","","1","44","training","adjacent","AB","1","2","Q.jpg","O.jpg","1","1","1","",""
"","feedback","","html-keyboard-response","289","352166","0.0-1.0-402.0-0.0","0","0","40537","","null","","","null","44","","","","","","","","","","","","","","","",""
"","ITI","","html-keyboard-response","290","353182","0.0-1.0-405.0","0","0","40537","","null","","","null","44","","","","","","","","","","","","","","","NaN",""
"","S1","","html-keyboard-response","291","353435","0.0-1.0-407.0","0","0","40537","","null","","","null","45","","","","","","","","","","","","","","","",""
"","ISI","","html-keyboard-response","292","353588","0.0-1.0-408.0","0","0","40537","","null","","","null","45","NaN","","","","","","","","","","","","","","",""
"","S2","","html-keyboard-response","293","353843","0.0-1.0-409.0","0","0","40537","","null","","","null","45","","NaN","","","","","","","","","","","","","",""
"","response","","html-keyboard-response","294","354754","0.0-1.0-410.0-0.0","0","0","40537","","907","","","68","45","","","1","45","training","adjacent","DC","4","3","L.jpg","R.jpg","0","0","1","",""
"","feedback","","html-keyboard-response","295","355762","0.0-1.0-411.0-0.0","0","0","40537","","null","","","null","45","","","","","","","","","","","","","","","",""
"","ITI","","html-keyboard-response","296","356767","0.0-1.0-414.0","0","0","40537","","null","","","null","45","","","","","","","","","","","","","","","NaN",""
"","S1","","html-keyboard-response","297","357022","0.0-1.0-416.0","0","0","40537","","null","","","null","46","","","","","","","","","","","","","","","",""
"","ISI","","html-keyboard-response","298","357176","0.0-1.0-417.0","0","0","40537","","null","","","null","46","NaN","","","","","","","","","","","","","","",""
"","S2","","html-keyboard-response","299","357432","0.0-1.0-418.0","0","0","40537","","null","","","null","46","","NaN","","","","","","","","","","","","","",""
"","response","","html-keyboard-response","300","357782","0.0-1.0-419.0-0.0","0","0","40537","","346","","","68","46","","","1","46","training","adjacent","CD","3","4","R.jpg","L.jpg","0","1","0","",""
"","feedback","","html-keyboard-response","301","358787","0.0-1.0-420.0-0.0","0","0","40537","","null","","","null","46","","","","","","","","","","","","","","","",""
"","time_out","","html-keyboard-response","302","360792","0.0-1.0-422.0-0.0","0","0","40537","","null","","","null","46","","","","","","","","","","","","","","","",""
"","ITI","","html-keyboard-response","303","361797","0.0-1.0-423.0","0","0","40537","","null","","","null","46","","","","","","","","","","","","","","","NaN",""
"","S1","","html-keyboard-response","304","362052","0.0-1.0-425.0","0","0","40537","","null","","","null","47","","","","","","","","","","","","","","","",""
"","ISI","","html-keyboard-response","305","362205","0.0-1.0-426.0","0","0","40537","","null","","","null","47","NaN","","","","","","","","","","","","","","",""
"","S2","","html-keyboard-response","306","362460","0.0-1.0-427.0","0","0","40537","","null","","","null","47","","NaN","","","","","","","","","","","","","",""
"","response","","html-keyboard-response","307","363991","0.0-1.0-428.0-0.0","0","0","40537","","1529","","","75","47","","","1","47","training","adjacent","BC","2","3","O.jpg","R.jpg","1","1","1","",""
"","feedback","","html-keyboard-response","308","364997","0.0-1.0-429.0-0.0","0","0","40537","","null","","","null","47","","","","","","","","","","","","","","","",""
"","ITI","","html-keyboard-response","309","366002","0.0-1.0-432.0","0","0","40537","","null","","","null","47","","","","","","","","","","","","","","","NaN",""
"","block_over","","html-keyboard-response","310","412220","0.0-1.0-433.0-0.0","0","0","40537","","46215","","","32","47","","","","","","","","","","","","","","","",""
"","S1","","html-keyboard-response","311","412472","0.0-1.0-434.0","0","0","40537","","null","","","null","48","","","","","","","","","","","","","","","",""
"","ISI","","html-keyboard-response","312","412626","0.0-1.0-435.0","0","0","40537","","null","","","null","48","NaN","","","","","","","","","","","","","","",""
"","S2","","html-keyboard-response","313","412890","0.0-1.0-436.0","0","0","40537","","null","","","null","48","","NaN","","","","","","","","","","","","","",""
"","response","","html-keyboard-response","314","414627","0.0-1.0-437.0-0.0","0","0","40537","","1733","","","75","48","","","2","48","training","adjacent","DC","4","3","L.jpg","R.jpg","1","0","0","",""
"","feedback","","html-keyboard-response","315","415631","0.0-1.0-438.0-0.0","0","0","40537","","null","","","null","48","","","","","","","","","","","","","","","",""
"","time_out","","html-keyboard-response","316","417635","0.0-1.0-440.0-0.0","0","0","40537","","null","","","null","48","","","","","","","","","","","","","","","",""
"","ITI","","html-keyboard-response","317","418638","0.0-1.0-441.0","0","0","40537","","null","","","null","48","","","","","","","","","","","","","","","NaN",""
"","S1","","html-keyboard-response","318","418893","0.0-1.0-443.0","0","0","40537","","null","","","null","49","","","","","","","","","","","","","","","",""
"","ISI","","html-keyboard-response","319","419047","0.0-1.0-444.0","0","0","40537","","null","","","null","49","NaN","","","","","","","","","","","","","","",""
"","S2","","html-keyboard-response","320","419302","0.0-1.0-445.0","0","0","40537","","null","","","null","49","","NaN","","","","","","","","","","","","","",""
"","response","","html-keyboard-response","321","420274","0.0-1.0-446.0-0.0","0","0","40537","","967","","","75","49","","","2","49","training","adjacent","FE","6","5","M.jpg","P.jpg","1","0","0","",""
"","feedback","","html-keyboard-response","322","421293","0.0-1.0-447.0-0.0","0","0","40537","","null","","","null","49","","","","","","","","","","","","","","","",""
"","time_out","","html-keyboard-response","323","423297","0.0-1.0-449.0-0.0","0","0","40537","","null","","","null","49","","","","","","","","","","","","","","","",""
"","ITI","","html-keyboard-response","324","424308","0.0-1.0-450.0","0","0","40537","","null","","","null","49","","","","","","","","","","","","","","","NaN",""
"","S1","","html-keyboard-response","325","424563","0.0-1.0-452.0","0","0","40537","","null","","","null","50","","","","","","","","","","","","","","","",""
"","ISI","","html-keyboard-response","326","424717","0.0-1.0-453.0","0","0","40537","","null","","","null","50","NaN","","","","","","","","","","","","","","",""
"","S2","","html-keyboard-response","327","424977","0.0-1.0-454.0","0","0","40537","","null","","","null","50","","NaN","","","","","","","","","","","","","",""
"","response","","html-keyboard-response","328","426449","0.0-1.0-455.0-0.0","0","0","40537","","1468","","","75","50","","","2","50","training","adjacent","CB","3","2","R.jpg","O.jpg","1","0","0","",""
"","feedback","","html-keyboard-response","329","427454","0.0-1.0-456.0-0.0","0","0","40537","","null","","","null","50","","","","","","","","","","","","","","","",""
"","time_out","","html-keyboard-response","330","429458","0.0-1.0-458.0-0.0","0","0","40537","","null","","","null","50","","","","","","","","","","","","","","","",""
"","ITI","","html-keyboard-response","331","430462","0.0-1.0-459.0","0","0","40537","","null","","","null","50","","","","","","","","","","","","","","","NaN",""
"","S1","","html-keyboard-response","332","430717","0.0-1.0-461.0","0","0","40537","","null","","","null","51","","","","","","","","","","","","","","","",""
"","ISI","","html-keyboard-response","333","430870","0.0-1.0-462.0","0","0","40537","","null","","","null","51","NaN","","","","","","","","","","","","","","",""
"","S2","","html-keyboard-response","334","431123","0.0-1.0-463.0","0","0","40537","","null","","","null","51","","NaN","","","","","","","","","","","","","",""
"","response","","html-keyboard-response","335","432080","0.0-1.0-464.0-0.0","0","0","40537","","954","","","75","51","","","2","51","training","adjacent","GF","7","6","N.jpg","M.jpg","1","0","0","",""
"","feedback","","html-keyboard-response","336","433086","0.0-1.0-465.0-0.0","0","0","40537","","null","","","null","51","","","","","","","","","","","","","","","",""
"","time_out","","html-keyboard-response","337","435090","0.0-1.0-467.0-0.0","0","0","40537","","null","","","null","51","","","","","","","","","","","","","","","",""
"","ITI","","html-keyboard-response","338","436096","0.0-1.0-468.0","0","0","40537","","null","","","null","51","","","","","","","","","","","","","","","NaN",""
"","S1","","html-keyboard-response","339","436350","0.0-1.0-470.0","0","0","40537","","null","","","null","52","","","","","","","","","","","","","","","",""
"","ISI","","html-keyboard-response","340","436503","0.0-1.0-471.0","0","0","40537","","null","","","null","52","NaN","","","","","","","","","","","","","","",""
"","S2","","html-keyboard-response","341","436757","0.0-1.0-472.0","0","0","40537","","null","","","null","52","","NaN","","","","","","","","","","","","","",""
"","response","","html-keyboard-response","342","437323","0.0-1.0-473.0-0.0","0","0","40537","","563","","","68","52","","","2","52","training","adjacent","EF","5","6","P.jpg","M.jpg","0","1","0","",""
"","feedback","","html-keyboard-response","343","438328","0.0-1.0-474.0-0.0","0","0","40537","","null","","","null","52","","","","","","","","","","","","","","","",""
"","time_out","","html-keyboard-response","344","440332","0.0-1.0-476.0-0.0","0","0","40537","","null","","","null","52","","","","","","","","","","","","","","","",""
"","ITI","","html-keyboard-response","345","441335","0.0-1.0-477.0","0","0","40537","","null","","","null","52","","","","","","","","","","","","","","","NaN",""
"","S1","","html-keyboard-response","346","441588","0.0-1.0-479.0","0","0","40537","","null","","","null","53","","","","","","","","","","","","","","","",""
"","ISI","","html-keyboard-response","347","441741","0.0-1.0-480.0","0","0","40537","","null","","","null","53","NaN","","","","","","","","","","","","","","",""
"","S2","","html-keyboard-response","348","441995","0.0-1.0-481.0","0","0","40537","","null","","","null","53","","NaN","","","","","","","","","","","","","",""
"","response","","html-keyboard-response","349","443142","0.0-1.0-482.0-0.0","0","0","40537","","1144","","","75","53","","","2","53","training","adjacent","CD","3","4","R.jpg","L.jpg","1","1","1","",""
"","feedback","","html-keyboard-response","350","444148","0.0-1.0-483.0-0.0","0","0","40537","","null","","","null","53","","","","","","","","","","","","","","","",""
"","ITI","","html-keyboard-response","351","445153","0.0-1.0-486.0","0","0","40537","","null","","","null","53","","","","","","","","","","","","","","","NaN",""
"","S1","","html-keyboard-response","352","445408","0.0-1.0-488.0","0","0","40537","","null","","","null","54","","","","","","","","","","","","","","","",""
"","ISI","","html-keyboard-response","353","445562","0.0-1.0-489.0","0","0","40537","","null","","","null","54","NaN","","","","","","","","","","","","","","",""
"","S2","","html-keyboard-response","354","445816","0.0-1.0-490.0","0","0","40537","","null","","","null","54","","NaN","","","","","","","","","","","","","",""
"","response","","html-keyboard-response","355","446705","0.0-1.0-491.0-0.0","0","0","40537","","885","","","68","54","","","2","54","training","adjacent","BA","2","1","O.jpg","Q.jpg","0","0","1","",""
"","feedback","","html-keyboard-response","356","447710","0.0-1.0-492.0-0.0","0","0","40537","","null","","","null","54","","","","","","","","","","","","","","","",""
"","ITI","","html-keyboard-response","357","448715","0.0-1.0-495.0","0","0","40537","","null","","","null","54","","","","","","","","","","","","","","","NaN",""
"","S1","","html-keyboard-response","358","448970","0.0-1.0-497.0","0","0","40537","","null","","","null","55","","","","","","","","","","","","","","","",""
"","ISI","","html-keyboard-response","359","449125","0.0-1.0-498.0","0","0","40537","","null","","","null","55","NaN","","","","","","","","","","","","","","",""
"","S2","","html-keyboard-response","360","449380","0.0-1.0-499.0","0","0","40537","","null","","","null","55","","NaN","","","","","","","","","","","","","",""
"","response","","html-keyboard-response","361","450688","0.0-1.0-500.0-0.0","0","0","40537","","1306","","","75","55","","","2","55","training","adjacent","FE","6","5","M.jpg","P.jpg","1","0","0","",""
"","feedback","","html-keyboard-response","362","451693","0.0-1.0-501.0-0.0","0","0","40537","","null","","","null","55","","","","","","","","","","","","","","","",""
"","time_out","","html-keyboard-response","363","453698","0.0-1.0-503.0-0.0","0","0","40537","","null","","","null","55","","","","","","","","","","","","","","","",""
"","ITI","","html-keyboard-response","364","454702","0.0-1.0-504.0","0","0","40537","","null","","","null","55","","","","","","","","","","","","","","","NaN",""
"","S1","","html-keyboard-response","365","454958","0.0-1.0-506.0","0","0","40537","","null","","","null","56","","","","","","","","","","","","","","","",""
"","ISI","","html-keyboard-response","366","455112","0.0-1.0-507.0","0","0","40537","","null","","","null","56","NaN","","","","","","","","","","","","","","",""
"","S2","","html-keyboard-response","367","455367","0.0-1.0-508.0","0","0","40537","","null","","","null","56","","NaN","","","","","","","","","","","","","",""
"","response","","html-keyboard-response","368","456822","0.0-1.0-509.0-0.0","0","0","40537","","1450","","","75","56","","","2","56","training","adjacent","DC","4","3","L.jpg","R.jpg","1","0","0","",""
"","feedback","","html-keyboard-response","369","457826","0.0-1.0-510.0-0.0","0","0","40537","","null","","","null","56","","","","","","","","","","","","","","","",""
"","time_out","","html-keyboard-response","370","459830","0.0-1.0-512.0-0.0","0","0","40537","","null","","","null","56","","","","","","","","","","","","","","","",""
"","ITI","","html-keyboard-response","371","460832","0.0-1.0-513.0","0","0","40537","","null","","","null","56","","","","","","","","","","","","","","","NaN",""
"","S1","","html-keyboard-response","372","461087","0.0-1.0-515.0","0","0","40537","","null","","","null","57","","","","","","","","","","","","","","","",""
"","ISI","","html-keyboard-response","373","461241","0.0-1.0-516.0","0","0","40537","","null","","","null","57","NaN","","","","","","","","","","","","","","",""
"","S2","","html-keyboard-response","374","461496","0.0-1.0-517.0","0","0","40537","","null","","","null","57","","NaN","","","","","","","","","","","","","",""
"","response","","html-keyboard-response","375","462732","0.0-1.0-518.0-0.0","0","0","40537","","1232","","","75","57","","","2","57","training","adjacent","FG","6","7","M.jpg","N.jpg","1","1","1","",""
"","feedback","","html-keyboard-response","376","463737","0.0-1.0-519.0-0.0","0","0","40537","","null","","","null","57","","","","","","","","","","","","","","","",""
"","ITI","","html-keyboard-response","377","464742","0.0-1.0-522.0","0","0","40537","","null","","","null","57","","","","","","","","","","","","","","","NaN",""
"","S1","","html-keyboard-response","378","464997","0.0-1.0-524.0","0","0","40537","","null","","","null","58","","","","","","","","","","","","","","","",""
"","ISI","","html-keyboard-response","379","465152","0.0-1.0-525.0","0","0","40537","","null","","","null","58","NaN","","","","","","","","","","","","","","",""
"","S2","","html-keyboard-response","380","465407","0.0-1.0-526.0","0","0","40537","","null","","","null","58","","NaN","","","","","","","","","","","","","",""
"","response","","html-keyboard-response","381","466708","0.0-1.0-527.0-0.0","0","0","40537","","1297","","","75","58","","","2","58","training","adjacent","AB","1","2","Q.jpg","O.jpg","1","1","1","",""
"","feedback","","html-keyboard-response","382","467713","0.0-1.0-528.0-0.0","0","0","40537","","null","","","null","58","","","","","","","","","","","","","","","",""
"","ITI","","html-keyboard-response","383","468718","0.0-1.0-531.0","0","0","40537","","null","","","null","58","","","","","","","","","","","","","","","NaN",""
"","S1","","html-keyboard-response","384","468973","0.0-1.0-533.0","0","0","40537","","null","","","null","59","","","","","","","","","","","","","","","",""
"","ISI","","html-keyboard-response","385","469128","0.0-1.0-534.0","0","0","40537","","null","","","null","59","NaN","","","","","","","","","","","","","","",""
"","S2","","html-keyboard-response","386","469384","0.0-1.0-535.0","0","0","40537","","null","","","null","59","","NaN","","","","","","","","","","","","","",""
"","response","","html-keyboard-response","387","470843","0.0-1.0-536.0-0.0","0","0","40537","","1455","","","68","59","","","2","59","training","adjacent","FG","6","7","M.jpg","N.jpg","0","1","0","",""
"","feedback","","html-keyboard-response","388","471858","0.0-1.0-537.0-0.0","0","0","40537","","null","","","null","59","","","","","","","","","","","","","","","",""
"","time_out","","html-keyboard-response","389","473863","0.0-1.0-539.0-0.0","0","0","40537","","null","","","null","59","","","","","","","","","","","","","","","",""
"","ITI","","html-keyboard-response","390","474867","0.0-1.0-540.0","0","0","40537","","null","","","null","59","","","","","","","","","","","","","","","NaN",""
"","S1","","html-keyboard-response","391","475122","0.0-1.0-542.0","0","0","40537","","null","","","null","60","","","","","","","","","","","","","","","",""
"","ISI","","html-keyboard-response","392","475277","0.0-1.0-543.0","0","0","40537","","null","","","null","60","NaN","","","","","","","","","","","","","","",""
"","S2","","html-keyboard-response","393","475533","0.0-1.0-544.0","0","0","40537","","null","","","null","60","","NaN","","","","","","","","","","","","","",""
"","response","","html-keyboard-response","394","477171","0.0-1.0-545.0-0.0","0","0","40537","","1635","","","75","60","","","2","60","training","adjacent","FE","6","5","M.jpg","P.jpg","1","0","0","",""
"","feedback","","html-keyboard-response","395","478176","0.0-1.0-546.0-0.0","0","0","40537","","null","","","null","60","","","","","","","","","","","","","","","",""
"","time_out","","html-keyboard-response","396","480179","0.0-1.0-548.0-0.0","0","0","40537","","null","","","null","60","","","","","","","","","","","","","","","",""
"","ITI","","html-keyboard-response","397","481184","0.0-1.0-549.0","0","0","40537","","null","","","null","60","","","","","","","","","","","","","","","NaN",""
"","S1","","html-keyboard-response","398","481438","0.0-1.0-551.0","0","0","40537","","null","","","null","61","","","","","","","","","","","","","","","",""
"","ISI","","html-keyboard-response","399","481593","0.0-1.0-552.0","0","0","40537","","null","","","null","61","NaN","","","","","","","","","","","","","","",""
"","S2","","html-keyboard-response","400","481848","0.0-1.0-553.0","0","0","40537","","null","","","null","61","","NaN","","","","","","","","","","","","","",""
"","response","","html-keyboard-response","401","482977","0.0-1.0-554.0-0.0","0","0","40537","","1126","","","68","61","","","2","61","training","adjacent","CB","3","2","R.jpg","O.jpg","0","0","1","",""
"","feedback","","html-keyboard-response","402","483982","0.0-1.0-555.0-0.0","0","0","40537","","null","","","null","61","","","","","","","","","","","","","","","",""
"","ITI","","html-keyboard-response","403","484987","0.0-1.0-558.0","0","0","40537","","null","","","null","61","","","","","","","","","","","","","","","NaN",""
"","S1","","html-keyboard-response","404","485242","0.0-1.0-560.0","0","0","40537","","null","","","null","62","","","","","","","","","","","","","","","",""
"","ISI","","html-keyboard-response","405","485396","0.0-1.0-561.0","0","0","40537","","null","","","null","62","NaN","","","","","","","","","","","","","","",""
"","S2","","html-keyboard-response","406","485652","0.0-1.0-562.0","0","0","40537","","null","","","null","62","","NaN","","","","","","","","","","","","","",""
"","response","","html-keyboard-response","407","487216","0.0-1.0-563.0-0.0","0","0","40537","","1560","","","68","62","","","2","62","training","adjacent","CB","3","2","R.jpg","O.jpg","0","0","1","",""
"","feedback","","html-keyboard-response","408","488219","0.0-1.0-564.0-0.0","0","0","40537","","null","","","null","62","","","","","","","","","","","","","","","",""
"","ITI","","html-keyboard-response","409","489224","0.0-1.0-567.0","0","0","40537","","null","","","null","62","","","","","","","","","","","","","","","NaN",""
"","S1","","html-keyboard-response","410","489485","0.0-1.0-569.0","0","0","40537","","null","","","null","63","","","","","","","","","","","","","","","",""
"","ISI","","html-keyboard-response","411","489638","0.0-1.0-570.0","0","0","40537","","null","","","null","63","NaN","","","","","","","","","","","","","","",""
"","S2","","html-keyboard-response","412","489892","0.0-1.0-571.0","0","0","40537","","null","","","null","63","","NaN","","","","","","","","","","","","","",""
"","response","","html-keyboard-response","413","491178","0.0-1.0-572.0-0.0","0","0","40537","","1282","","","75","63","","","2","63","training","adjacent","EF","5","6","P.jpg","M.jpg","1","1","1","",""
"","feedback","","html-keyboard-response","414","492181","0.0-1.0-573.0-0.0","0","0","40537","","null","","","null","63","","","","","","","","","","","","","","","",""
"","ITI","","html-keyboard-response","415","493184","0.0-1.0-576.0","0","0","40537","","null","","","null","63","","","","","","","","","","","","","","","NaN",""
"","S1","","html-keyboard-response","416","493438","0.0-1.0-578.0","0","0","40537","","null","","","null","64","","","","","","","","","","","","","","","",""
"","ISI","","html-keyboard-response","417","493593","0.0-1.0-579.0","0","0","40537","","null","","","null","64","NaN","","","","","","","","","","","","","","",""
"","S2","","html-keyboard-response","418","493849","0.0-1.0-580.0","0","0","40537","","null","","","null","64","","NaN","","","","","","","","","","","","","",""
"","response","","html-keyboard-response","419","495220","0.0-1.0-581.0-0.0","0","0","40537","","1367","","","68","64","","","2","64","training","adjacent","CB","3","2","R.jpg","O.jpg","0","0","1","",""
"","feedback","","html-keyboard-response","420","496224","0.0-1.0-582.0-0.0","0","0","40537","","null","","","null","64","","","","","","","","","","","","","","","",""
"","ITI","","html-keyboard-response","421","497229","0.0-1.0-585.0","0","0","40537","","null","","","null","64","","","","","","","","","","","","","","","NaN",""
"","S1","","html-keyboard-response","422","497486","0.0-1.0-587.0","0","0","40537","","null","","","null","65","","","","","","","","","","","","","","","",""
"","ISI","","html-keyboard-response","423","497640","0.0-1.0-588.0","0","0","40537","","null","","","null","65","NaN","","","","","","","","","","","","","","",""
"","S2","","html-keyboard-response","424","497895","0.0-1.0-589.0","0","0","40537","","null","","","null","65","","NaN","","","","","","","","","","","","","",""
"","response","","html-keyboard-response","425","499275","0.0-1.0-590.0-0.0","0","0","40537","","1377","","","75","65","","","2","65","training","adjacent","BC","2","3","O.jpg","R.jpg","1","1","1","",""
"","feedback","","html-keyboard-response","426","500277","0.0-1.0-591.0-0.0","0","0","40537","","null","","","null","65","","","","","","","","","","","","","","","",""
"","ITI","","html-keyboard-response","427","501282","0.0-1.0-594.0","0","0","40537","","null","","","null","65","","","","","","","","","","","","","","","NaN",""
"","S1","","html-keyboard-response","428","501537","0.0-1.0-596.0","0","0","40537","","null","","","null","66","","","","","","","","","","","","","","","",""
"","ISI","","html-keyboard-response","429","501691","0.0-1.0-597.0","0","0","40537","","null","","","null","66","NaN","","","","","","","","","","","","","","",""
"","S2","","html-keyboard-response","430","501947","0.0-1.0-598.0","0","0","40537","","null","","","null","66","","NaN","","","","","","","","","","","","","",""
"","response","","html-keyboard-response","431","503386","0.0-1.0-599.0-0.0","0","0","40537","","1436","","","68","66","","","2","66","training","adjacent","GF","7","6","N.jpg","M.jpg","0","0","1","",""
"","feedback","","html-keyboard-response","432","504401","0.0-1.0-600.0-0.0","0","0","40537","","null","","","null","66","","","","","","","","","","","","","","","",""
"","ITI","","html-keyboard-response","433","505405","0.0-1.0-603.0","0","0","40537","","null","","","null","66","","","","","","","","","","","","","","","NaN",""
"","S1","","html-keyboard-response","434","505659","0.0-1.0-605.0","0","0","40537","","null","","","null","67","","","","","","","","","","","","","","","",""
"","ISI","","html-keyboard-response","435","505818","0.0-1.0-606.0","0","0","40537","","null","","","null","67","NaN","","","","","","","","","","","","","","",""
"","S2","","html-keyboard-response","436","506073","0.0-1.0-607.0","0","0","40537","","null","","","null","67","","NaN","","","","","","","","","","","","","",""
"","response","","html-keyboard-response","437","507625","0.0-1.0-608.0-0.0","0","0","40537","","1550","","","75","67","","","2","67","training","adjacent","ED","5","4","P.jpg","L.jpg","1","0","0","",""
"","feedback","","html-keyboard-response","438","508629","0.0-1.0-609.0-0.0","0","0","40537","","null","","","null","67","","","","","","","","","","","","","","","",""
"","time_out","","html-keyboard-response","439","510635","0.0-1.0-611.0-0.0","0","0","40537","","null","","","null","67","","","","","","","","","","","","","","","",""
"","ITI","","html-keyboard-response","440","511639","0.0-1.0-612.0","0","0","40537","","null","","","null","67","","","","","","","","","","","","","","","NaN",""
"","S1","","html-keyboard-response","441","511893","0.0-1.0-614.0","0","0","40537","","null","","","null","68","","","","","","","","","","","","","","","",""
"","ISI","","html-keyboard-response","442","512047","0.0-1.0-615.0","0","0","40537","","null","","","null","68","NaN","","","","","","","","","","","","","","",""
"","S2","","html-keyboard-response","443","512302","0.0-1.0-616.0","0","0","40537","","null","","","null","68","","NaN","","","","","","","","","","","","","",""
"","response","","html-keyboard-response","444","513886","0.0-1.0-617.0-0.0","0","0","40537","","1582","","","68","68","","","2","68","training","adjacent","ED","5","4","P.jpg","L.jpg","0","0","1","",""
"","feedback","","html-keyboard-response","445","514891","0.0-1.0-618.0-0.0","0","0","40537","","null","","","null","68","","","","","","","","","","","","","","","",""
"","ITI","","html-keyboard-response","446","515897","0.0-1.0-621.0","0","0","40537","","null","","","null","68","","","","","","","","","","","","","","","NaN",""
"","S1","","html-keyboard-response","447","516152","0.0-1.0-623.0","0","0","40537","","null","","","null","69","","","","","","","","","","","","","","","",""
"","ISI","","html-keyboard-response","448","516306","0.0-1.0-624.0","0","0","40537","","null","","","null","69","NaN","","","","","","","","","","","","","","",""
"","S2","","html-keyboard-response","449","516562","0.0-1.0-625.0","0","0","40537","","null","","","null","69","","NaN","","","","","","","","","","","","","",""
"","response","","html-keyboard-response","450","517884","0.0-1.0-626.0-0.0","0","0","40537","","1318","","","75","69","","","2","69","training","adjacent","AB","1","2","Q.jpg","O.jpg","1","1","1","",""
"","feedback","","html-keyboard-response","451","518889","0.0-1.0-627.0-0.0","0","0","40537","","null","","","null","69","","","","","","","","","","","","","","","",""
"","ITI","","html-keyboard-response","452","519893","0.0-1.0-630.0","0","0","40537","","null","","","null","69","","","","","","","","","","","","","","","NaN",""
"","S1","","html-keyboard-response","453","520148","0.0-1.0-632.0","0","0","40537","","null","","","null","70","","","","","","","","","","","","","","","",""
"","ISI","","html-keyboard-response","454","520303","0.0-1.0-633.0","0","0","40537","","null","","","null","70","NaN","","","","","","","","","","","","","","",""
"","S2","","html-keyboard-response","455","520557","0.0-1.0-634.0","0","0","40537","","null","","","null","70","","NaN","","","","","","","","","","","","","",""
"","response","","html-keyboard-response","456","521980","0.0-1.0-635.0-0.0","0","0","40537","","1420","","","68","70","","","2","70","training","adjacent","ED","5","4","P.jpg","L.jpg","0","0","1","",""
"","feedback","","html-keyboard-response","457","522986","0.0-1.0-636.0-0.0","0","0","40537","","null","","","null","70","","","","","","","","","","","","","","","",""
"","ITI","","html-keyboard-response","458","523991","0.0-1.0-639.0","0","0","40537","","null","","","null","70","","","","","","","","","","","","","","","NaN",""
"","S1","","html-keyboard-response","459","524245","0.0-1.0-641.0","0","0","40537","","null","","","null","71","","","","","","","","","","","","","","","",""
"","ISI","","html-keyboard-response","460","524399","0.0-1.0-642.0","0","0","40537","","null","","","null","71","NaN","","","","","","","","","","","","","","",""
"","S2","","html-keyboard-response","461","524653","0.0-1.0-643.0","0","0","40537","","null","","","null","71","","NaN","","","","","","","","","","","","","",""
"","response","","html-keyboard-response","462","525735","0.0-1.0-644.0-0.0","0","0","40537","","1078","","","75","71","","","2","71","training","adjacent","GF","7","6","N.jpg","M.jpg","1","0","0","",""
"","feedback","","html-keyboard-response","463","526741","0.0-1.0-645.0-0.0","0","0","40537","","null","","","null","71","","","","","","","","","","","","","","","",""
"","time_out","","html-keyboard-response","464","528745","0.0-1.0-647.0-0.0","0","0","40537","","null","","","null","71","","","","","","","","","","","","","","","",""
"","ITI","","html-keyboard-response","465","529750","0.0-1.0-648.0","0","0","40537","","null","","","null","71","","","","","","","","","","","","","","","NaN",""
"","S1","","html-keyboard-response","466","530004","0.0-1.0-650.0","0","0","40537","","null","","","null","72","","","","","","","","","","","","","","","",""
"","ISI","","html-keyboard-response","467","530158","0.0-1.0-651.0","0","0","40537","","null","","","null","72","NaN","","","","","","","","","","","","","","",""
"","S2","","html-keyboard-response","468","530413","0.0-1.0-652.0","0","0","40537","","null","","","null","72","","NaN","","","","","","","","","","","","","",""
"","response","","html-keyboard-response","469","531636","0.0-1.0-653.0-0.0","0","0","40537","","1220","","","75","72","","","2","72","training","adjacent","DE","4","5","L.jpg","P.jpg","1","1","1","",""
"","feedback","","html-keyboard-response","470","532655","0.0-1.0-654.0-0.0","0","0","40537","","null","","","null","72","","","","","","","","","","","","","","","",""
"","ITI","","html-keyboard-response","471","533661","0.0-1.0-657.0","0","0","40537","","null","","","null","72","","","","","","","","","","","","","","","NaN",""
"","S1","","html-keyboard-response","472","533916","0.0-1.0-659.0","0","0","40537","","null","","","null","73","","","","","","","","","","","","","","","",""
"","ISI","","html-keyboard-response","473","534070","0.0-1.0-660.0","0","0","40537","","null","","","null","73","NaN","","","","","","","","","","","","","","",""
"","S2","","html-keyboard-response","474","534325","0.0-1.0-661.0","0","0","40537","","null","","","null","73","","NaN","","","","","","","","","","","","","",""
"","response","","html-keyboard-response","475","534987","0.0-1.0-662.0-0.0","0","0","40537","","658","","","68","73","","","2","73","training","adjacent","CD","3","4","R.jpg","L.jpg","0","1","0","",""
"","feedback","","html-keyboard-response","476","535992","0.0-1.0-663.0-0.0","0","0","40537","","null","","","null","73","","","","","","","","","","","","","","","",""
"","time_out","","html-keyboard-response","477","537997","0.0-1.0-665.0-0.0","0","0","40537","","null","","","null","73","","","","","","","","","","","","","","","",""
"","ITI","","html-keyboard-response","478","539002","0.0-1.0-666.0","0","0","40537","","null","","","null","73","","","","","","","","","","","","","","","NaN",""
"","S1","","html-keyboard-response","479","539256","0.0-1.0-668.0","0","0","40537","","null","","","null","74","","","","","","","","","","","","","","","",""
"","ISI","","html-keyboard-response","480","539411","0.0-1.0-669.0","0","0","40537","","null","","","null","74","NaN","","","","","","","","","","","","","","",""
"","S2","","html-keyboard-response","481","539666","0.0-1.0-670.0","0","0","40537","","null","","","null","74","","NaN","","","","","","","","","","","","","",""
"","response","","html-keyboard-response","482","541420","0.0-1.0-671.0-0.0","0","0","40537","","null","","","null","74","","","2","74","training","adjacent","EF","5","6","P.jpg","M.jpg","NaN","1","0","",""
"","too_slow_prompt","","html-keyboard-response","483","542425","0.0-1.0-673.0-0.0","1","0","40537","","null","","","null","","","","","","","","","","","","","","","","",""
"","time_out","","html-keyboard-response","484","544429","0.0-1.0-674.0-0.0","0","0","40537","","null","","","null","74","","","","","","","","","","","","","","","",""
"","ITI","","html-keyboard-response","485","545433","0.0-1.0-675.0","0","0","40537","","null","","","null","74","","","","","","","","","","","","","","","NaN",""
"","S1","","html-keyboard-response","486","545687","0.0-1.0-677.0","0","0","40537","","null","","","null","75","","","","","","","","","","","","","","","",""
"","ISI","","html-keyboard-response","487","545843","0.0-1.0-678.0","0","0","40537","","null","","","null","75","NaN","","","","","","","","","","","","","","",""
"","S2","","html-keyboard-response","488","546097","0.0-1.0-679.0","0","0","40537","","null","","","null","75","","NaN","","","","","","","","","","","","","",""
"","response","","html-keyboard-response","489","547471","0.0-1.0-680.0-0.0","0","0","40537","","1369","","","68","75","","","2","75","training","adjacent","BC","2","3","O.jpg","R.jpg","0","1","0","",""
"","feedback","","html-keyboard-response","490","548476","0.0-1.0-681.0-0.0","0","0","40537","","null","","","null","75","","","","","","","","","","","","","","","",""
"","time_out","","html-keyboard-response","491","550481","0.0-1.0-683.0-0.0","0","0","40537","","null","","","null","75","","","","","","","","","","","","","","","",""
"","ITI","","html-keyboard-response","492","551486","0.0-1.0-684.0","0","0","40537","","null","","","null","75","","","","","","","","","","","","","","","NaN",""
"","S1","","html-keyboard-response","493","551740","0.0-1.0-686.0","0","0","40537","","null","","","null","76","","","","","","","","","","","","","","","",""
"","ISI","","html-keyboard-response","494","551895","0.0-1.0-687.0","0","0","40537","","null","","","null","76","NaN","","","","","","","","","","","","","","",""
"","S2","","html-keyboard-response","495","552150","0.0-1.0-688.0","0","0","40537","","null","","","null","76","","NaN","","","","","","","","","","","","","",""
"","response","","html-keyboard-response","496","553075","0.0-1.0-689.0-0.0","0","0","40537","","921","","","68","76","","","2","76","training","adjacent","BA","2","1","O.jpg","Q.jpg","0","0","1","",""
"","feedback","","html-keyboard-response","497","554080","0.0-1.0-690.0-0.0","0","0","40537","","null","","","null","76","","","","","","","","","","","","","","","",""
"","ITI","","html-keyboard-response","498","555086","0.0-1.0-693.0","0","0","40537","","null","","","null","76","","","","","","","","","","","","","","","NaN",""
"","S1","","html-keyboard-response","499","555340","0.0-1.0-695.0","0","0","40537","","null","","","null","77","","","","","","","","","","","","","","","",""
"","ISI","","html-keyboard-response","500","555495","0.0-1.0-696.0","0","0","40537","","null","","","null","77","NaN","","","","","","","","","","","","","","",""
"","S2","","html-keyboard-response","501","555749","0.0-1.0-697.0","0","0","40537","","null","","","null","77","","NaN","","","","","","","","","","","","","",""
"","response","","html-keyboard-response","502","556709","0.0-1.0-698.0-0.0","0","0","40537","","958","","","75","77","","","2","77","training","adjacent","BA","2","1","O.jpg","Q.jpg","1","0","0","",""
"","feedback","","html-keyboard-response","503","557715","0.0-1.0-699.0-0.0","0","0","40537","","null","","","null","77","","","","","","","","","","","","","","","",""
"","time_out","","html-keyboard-response","504","559720","0.0-1.0-701.0-0.0","0","0","40537","","null","","","null","77","","","","","","","","","","","","","","","",""
"","ITI","","html-keyboard-response","505","560725","0.0-1.0-702.0","0","0","40537","","null","","","null","77","","","","","","","","","","","","","","","NaN",""
"","S1","","html-keyboard-response","506","560979","0.0-1.0-704.0","0","0","40537","","null","","","null","78","","","","","","","","","","","","","","","",""
"","ISI","","html-keyboard-response","507","561136","0.0-1.0-705.0","0","0","40537","","null","","","null","78","NaN","","","","","","","","","","","","","","",""
"","S2","","html-keyboard-response","508","561392","0.0-1.0-706.0","0","0","40537","","null","","","null","78","","NaN","","","","","","","","","","","","","",""
"","response","","html-keyboard-response","509","562126","0.0-1.0-707.0-0.0","0","0","40537","","730","","","68","78","","","2","78","training","adjacent","AB","1","2","Q.jpg","O.jpg","0","1","0","",""
"","feedback","","html-keyboard-response","510","563132","0.0-1.0-708.0-0.0","0","0","40537","","null","","","null","78","","","","","","","","","","","","","","","",""
"","time_out","","html-keyboard-response","511","565138","0.0-1.0-710.0-0.0","0","0","40537","","null","","","null","78","","","","","","","","","","","","","","","",""
"","ITI","","html-keyboard-response","512","566142","0.0-1.0-711.0","0","0","40537","","null","","","null","78","","","","","","","","","","","","","","","NaN",""
"","S1","","html-keyboard-response","513","566395","0.0-1.0-713.0","0","0","40537","","null","","","null","79","","","","","","","","","","","","","","","",""
"","ISI","","html-keyboard-response","514","566547","0.0-1.0-714.0","0","0","40537","","null","","","null","79","NaN","","","","","","","","","","","","","","",""
"","S2","","html-keyboard-response","515","566803","0.0-1.0-715.0","0","0","40537","","null","","","null","79","","NaN","","","","","","","","","","","","","",""
"","response","","html-keyboard-response","516","567859","0.0-1.0-716.0-0.0","0","0","40537","","1052","","","75","79","","","2","79","training","adjacent","FG","6","7","M.jpg","N.jpg","1","1","1","",""
"","feedback","","html-keyboard-response","517","568864","0.0-1.0-717.0-0.0","0","0","40537","","null","","","null","79","","","","","","","","","","","","","","","",""
"","ITI","","html-keyboard-response","518","569869","0.0-1.0-720.0","0","0","40537","","null","","","null","79","","","","","","","","","","","","","","","NaN",""
"","S1","","html-keyboard-response","519","570121","0.0-1.0-722.0","0","0","40537","","null","","","null","80","","","","","","","","","","","","","","","",""
"","ISI","","html-keyboard-response","520","570275","0.0-1.0-723.0","0","0","40537","","null","","","null","80","NaN","","","","","","","","","","","","","","",""
"","S2","","html-keyboard-response","521","570530","0.0-1.0-724.0","0","0","40537","","null","","","null","80","","NaN","","","","","","","","","","","","","",""
"","response","","html-keyboard-response","522","571304","0.0-1.0-725.0-0.0","0","0","40537","","771","","","75","80","","","2","80","training","adjacent","DE","4","5","L.jpg","P.jpg","1","1","1","",""
"","feedback","","html-keyboard-response","523","572310","0.0-1.0-726.0-0.0","0","0","40537","","null","","","null","80","","","","","","","","","","","","","","","",""
"","ITI","","html-keyboard-response","524","573316","0.0-1.0-729.0","0","0","40537","","null","","","null","80","","","","","","","","","","","","","","","NaN",""
"","S1","","html-keyboard-response","525","573571","0.0-1.0-731.0","0","0","40537","","null","","","null","81","","","","","","","","","","","","","","","",""
"","ISI","","html-keyboard-response","526","573733","0.0-1.0-732.0","0","0","40537","","null","","","null","81","NaN","","","","","","","","","","","","","","",""
"","S2","","html-keyboard-response","527","573987","0.0-1.0-733.0","0","0","40537","","null","","","null","81","","NaN","","","","","","","","","","","","","",""
"","response","","html-keyboard-response","528","575492","0.0-1.0-734.0-0.0","0","0","40537","","1501","","","75","81","","","2","81","training","adjacent","BC","2","3","O.jpg","R.jpg","1","1","1","",""
"","feedback","","html-keyboard-response","529","576498","0.0-1.0-735.0-0.0","0","0","40537","","null","","","null","81","","","","","","","","","","","","","","","",""
"","ITI","","html-keyboard-response","530","577503","0.0-1.0-738.0","0","0","40537","","null","","","null","81","","","","","","","","","","","","","","","NaN",""
"","S1","","html-keyboard-response","531","577757","0.0-1.0-740.0","0","0","40537","","null","","","null","82","","","","","","","","","","","","","","","",""
"","ISI","","html-keyboard-response","532","577912","0.0-1.0-741.0","0","0","40537","","null","","","null","82","NaN","","","","","","","","","","","","","","",""
"","S2","","html-keyboard-response","533","578166","0.0-1.0-742.0","0","0","40537","","null","","","null","82","","NaN","","","","","","","","","","","","","",""
"","response","","html-keyboard-response","534","579410","0.0-1.0-743.0-0.0","0","0","40537","","1241","","","75","82","","","2","82","training","adjacent","EF","5","6","P.jpg","M.jpg","1","1","1","",""
"","feedback","","html-keyboard-response","535","580414","0.0-1.0-744.0-0.0","0","0","40537","","null","","","null","82","","","","","","","","","","","","","","","",""
"","ITI","","html-keyboard-response","536","581419","0.0-1.0-747.0","0","0","40537","","null","","","null","82","","","","","","","","","","","","","","","NaN",""
"","S1","","html-keyboard-response","537","581671","0.0-1.0-749.0","0","0","40537","","null","","","null","83","","","","","","","","","","","","","","","",""
"","ISI","","html-keyboard-response","538","581824","0.0-1.0-750.0","0","0","40537","","null","","","null","83","NaN","","","","","","","","","","","","","","",""
"","S2","","html-keyboard-response","539","582082","0.0-1.0-751.0","0","0","40537","","null","","","null","83","","NaN","","","","","","","","","","","","","",""
"","response","","html-keyboard-response","540","583060","0.0-1.0-752.0-0.0","0","0","40537","","975","","","68","83","","","2","83","training","adjacent","DC","4","3","L.jpg","R.jpg","0","0","1","",""
"","feedback","","html-keyboard-response","541","584072","0.0-1.0-753.0-0.0","0","0","40537","","null","","","null","83","","","","","","","","","","","","","","","",""
"","ITI","","html-keyboard-response","542","585077","0.0-1.0-756.0","0","0","40537","","null","","","null","83","","","","","","","","","","","","","","","NaN",""
"","S1","","html-keyboard-response","543","585333","0.0-1.0-758.0","0","0","40537","","null","","","null","84","","","","","","","","","","","","","","","",""
"","ISI","","html-keyboard-response","544","585487","0.0-1.0-759.0","0","0","40537","","null","","","null","84","NaN","","","","","","","","","","","","","","",""
"","S2","","html-keyboard-response","545","585743","0.0-1.0-760.0","0","0","40537","","null","","","null","84","","NaN","","","","","","","","","","","","","",""
"","response","","html-keyboard-response","546","586747","0.0-1.0-761.0-0.0","0","0","40537","","1001","","","68","84","","","2","84","training","adjacent","BA","2","1","O.jpg","Q.jpg","0","0","1","",""
"","feedback","","html-keyboard-response","547","587753","0.0-1.0-762.0-0.0","0","0","40537","","null","","","null","84","","","","","","","","","","","","","","","",""
"","ITI","","html-keyboard-response","548","588758","0.0-1.0-765.0","0","0","40537","","null","","","null","84","","","","","","","","","","","","","","","NaN",""
"","S1","","html-keyboard-response","549","589013","0.0-1.0-767.0","0","0","40537","","null","","","null","85","","","","","","","","","","","","","","","",""
"","ISI","","html-keyboard-response","550","589167","0.0-1.0-768.0","0","0","40537","","null","","","null","85","NaN","","","","","","","","","","","","","","",""
"","S2","","html-keyboard-response","551","589422","0.0-1.0-769.0","0","0","40537","","null","","","null","85","","NaN","","","","","","","","","","","","","",""
"","response","","html-keyboard-response","552","590540","0.0-1.0-770.0-0.0","0","0","40537","","1114","","","68","85","","","2","85","training","adjacent","CD","3","4","R.jpg","L.jpg","0","1","0","",""
"","feedback","","html-keyboard-response","553","591545","0.0-1.0-771.0-0.0","0","0","40537","","null","","","null","85","","","","","","","","","","","","","","","",""
"","time_out","","html-keyboard-response","554","593550","0.0-1.0-773.0-0.0","0","0","40537","","null","","","null","85","","","","","","","","","","","","","","","",""
"","ITI","","html-keyboard-response","555","594555","0.0-1.0-774.0","0","0","40537","","null","","","null","85","","","","","","","","","","","","","","","NaN",""
"","S1","","html-keyboard-response","556","594810","0.0-1.0-776.0","0","0","40537","","null","","","null","86","","","","","","","","","","","","","","","",""
"","ISI","","html-keyboard-response","557","594963","0.0-1.0-777.0","0","0","40537","","null","","","null","86","NaN","","","","","","","","","","","","","","",""
"","S2","","html-keyboard-response","558","595217","0.0-1.0-778.0","0","0","40537","","null","","","null","86","","NaN","","","","","","","","","","","","","",""
"","response","","html-keyboard-response","559","596062","0.0-1.0-779.0-0.0","0","0","40537","","840","","","75","86","","","2","86","training","adjacent","FG","6","7","M.jpg","N.jpg","1","1","1","",""
"","feedback","","html-keyboard-response","560","597066","0.0-1.0-780.0-0.0","0","0","40537","","null","","","null","86","","","","","","","","","","","","","","","",""
"","ITI","","html-keyboard-response","561","598070","0.0-1.0-783.0","0","0","40537","","null","","","null","86","","","","","","","","","","","","","","","NaN",""
"","S1","","html-keyboard-response","562","598325","0.0-1.0-785.0","0","0","40537","","null","","","null","87","","","","","","","","","","","","","","","",""
"","ISI","","html-keyboard-response","563","598478","0.0-1.0-786.0","0","0","40537","","null","","","null","87","NaN","","","","","","","","","","","","","","",""
"","S2","","html-keyboard-response","564","598733","0.0-1.0-787.0","0","0","40537","","null","","","null","87","","NaN","","","","","","","","","","","","","",""
"","response","","html-keyboard-response","565","599890","0.0-1.0-788.0-0.0","0","0","40537","","1153","","","68","87","","","2","87","training","adjacent","GF","7","6","N.jpg","M.jpg","0","0","1","",""
"","feedback","","html-keyboard-response","566","600896","0.0-1.0-789.0-0.0","0","0","40537","","null","","","null","87","","","","","","","","","","","","","","","",""
"","ITI","","html-keyboard-response","567","601901","0.0-1.0-792.0","0","0","40537","","null","","","null","87","","","","","","","","","","","","","","","NaN",""
"","S1","","html-keyboard-response","568","602156","0.0-1.0-794.0","0","0","40537","","null","","","null","88","","","","","","","","","","","","","","","",""
"","ISI","","html-keyboard-response","569","602310","0.0-1.0-795.0","0","0","40537","","null","","","null","88","NaN","","","","","","","","","","","","","","",""
"","S2","","html-keyboard-response","570","602565","0.0-1.0-796.0","0","0","40537","","null","","","null","88","","NaN","","","","","","","","","","","","","",""
"","response","","html-keyboard-response","571","603630","0.0-1.0-797.0-0.0","0","0","40537","","1061","","","75","88","","","2","88","training","adjacent","DE","4","5","L.jpg","P.jpg","1","1","1","",""
"","feedback","","html-keyboard-response","572","604635","0.0-1.0-798.0-0.0","0","0","40537","","null","","","null","88","","","","","","","","","","","","","","","",""
"","ITI","","html-keyboard-response","573","605640","0.0-1.0-801.0","0","0","40537","","null","","","null","88","","","","","","","","","","","","","","","NaN",""
"","S1","","html-keyboard-response","574","605895","0.0-1.0-803.0","0","0","40537","","null","","","null","89","","","","","","","","","","","","","","","",""
"","ISI","","html-keyboard-response","575","606050","0.0-1.0-804.0","0","0","40537","","null","","","null","89","NaN","","","","","","","","","","","","","","",""
"","S2","","html-keyboard-response","576","606309","0.0-1.0-805.0","0","0","40537","","null","","","null","89","","NaN","","","","","","","","","","","","","",""
"","response","","html-keyboard-response","577","607477","0.0-1.0-806.0-0.0","0","0","40537","","1164","","","75","89","","","2","89","training","adjacent","AB","1","2","Q.jpg","O.jpg","1","1","1","",""
"","feedback","","html-keyboard-response","578","608483","0.0-1.0-807.0-0.0","0","0","40537","","null","","","null","89","","","","","","","","","","","","","","","",""
"","ITI","","html-keyboard-response","579","609489","0.0-1.0-810.0","0","0","40537","","null","","","null","89","","","","","","","","","","","","","","","NaN",""
"","S1","","html-keyboard-response","580","609743","0.0-1.0-812.0","0","0","40537","","null","","","null","90","","","","","","","","","","","","","","","",""
"","ISI","","html-keyboard-response","581","609897","0.0-1.0-813.0","0","0","40537","","null","","","null","90","NaN","","","","","","","","","","","","","","",""
"","S2","","html-keyboard-response","582","610153","0.0-1.0-814.0","0","0","40537","","null","","","null","90","","NaN","","","","","","","","","","","","","",""
