"success","ttype","start_time","trial_type","trial_index","time_elapsed","internal_node_id","warning","missed_checkup","PID","view_history","rt","responses","repeat_instructions","key_press","index","keypress_isi","keypress_S2","block","trial_num","phase","group_type","pair_type","S1_stim","S2_stim","S1_img","S2_img","S1_chosen","S1_higher","accuracy","keypress_iti","total_bonus_tally"
"true","full_screen","d08012022hr1401","fullscreen","0","5710","0.0-0.0","0","0","77842","","","","","","","","","","","","","","","","","","","","","",""
"","instructions","","instructions","1","29103","0.0-1.0-0.0-0.0","0","0","77842","[{""page_index"":0,""viewing_time"":2854},{""page_index"":1,""viewing_time"":11292},{""page_index"":2,""viewing_time"":7969},{""page_index"":3,""viewing_time"":1274}]","23390","","","","","","","","","","","","","","","","","","","",""
"","comprehension_check","","survey-multi-choice","2","43017","0.0-1.0-0.0-1.0","0","0","77842","","13909","{""Q0"":""True"",""Q1"":""D"",""Q2"":""When you see the prompt 'MAKE A CHOICE' after the second image was presented"",""Q3"":""Green mark"",""Q4"":""either D or K""}","0","","","","","","","","","","","","","","","","","",""
"","start_exp","","html-keyboard-response","3","43986","0.0-1.0-1.0","0","0","77842","","965","","","32","","","","","","","","","","","","","","","","",""
"","S1","","html-keyboard-response","4","44240","0.0-1.0-2.0","0","0","77842","","null","","","null","0","","","","","","","","","","","","","","","",""
"","ISI","","html-keyboard-response","5","46244","0.0-1.0-3.0","0","0","77842","","null","","","null","0","NaN","","","","","","","","","","","","","","",""
"","S2","","html-keyboard-response","6","46498","0.0-1.0-4.0","0","0","77842","","null","","","null","0","","NaN","","","","","","","","","","","","","",""
"","response","","html-keyboard-response","7","47291","0.0-1.0-5.0","0","0","77842","","790","","","75","0","","","1","0","training","adjacent","ED","5","4","Q.jpg","P.jpg","0","0","1","",""
"","feedback","","html-keyboard-response","8","48296","0.0-1.0-6.0-0.0","0","0","77842","","null","","","null","0","","","","","","","","","","","","","","","",""
"","ITI","","html-keyboard-response","9","49300","0.0-1.0-9.0","0","0","77842","","null","","","null","0","","","","","","","","","","","","","","","NaN",""
"","S1","","html-keyboard-response","10","49553","0.0-1.0-11.0","0","0","77842","","null","","","null","1","","","","","","","","","","","","","","","",""
"","ISI","","html-keyboard-response","11","51557","0.0-1.0-12.0","0","0","77842","","null","","","null","1","NaN","","","","","","","","","","","","","","",""
"","S2","","html-keyboard-response","12","51810","0.0-1.0-13.0","0","0","77842","","null","","","null","1","","NaN","","","","","","","","","","","","","",""
"","response","","html-keyboard-response","13","52219","0.0-1.0-14.0","0","0","77842","","406","","","75","1","","","1","1","training","adjacent","CD","3","4","R.jpg","P.jpg","0","1","0","",""
"","feedback","","html-keyboard-response","14","53223","0.0-1.0-15.0-0.0","0","0","77842","","null","","","null","1","","","","","","","","","","","","","","","",""
"","time_out","","html-keyboard-response","15","55227","0.0-1.0-17.0-0.0","0","0","77842","","null","","","null","1","","","","","","","","","","","","","","","",""
"","ITI","","html-keyboard-response","16","56231","0.0-1.0-18.0","0","0","77842","","null","","","null","1","","","","","","","","","","","","","","","NaN",""
"","S1","","html-keyboard-response","17","56485","0.0-1.0-20.0","0","0","77842","","null","","","null","2","","","","","","","","","","","","","","","",""
"","ISI","","html-keyboard-response","18","58489","0.0-1.0-21.0","0","0","77842","","null","","","null","2","NaN","","","","","","","","","","","","","","",""
"","S2","","html-keyboard-response","19","58743","0.0-1.0-22.0","0","0","77842","","null","","","null","2","","NaN","","","","","","","","","","","","","",""
"","response","","html-keyboard-response","20","59416","0.0-1.0-23.0","0","0","77842","","670","","","75","2","","","1","2","training","adjacent","FG","6","7","M.jpg","L.jpg","0","1","0","",""
"","feedback","","html-keyboard-response","21","60420","0.0-1.0-24.0-0.0","0","0","77842","","null","","","null","2","","","","","","","","","","","","","","","",""
"","time_out","","html-keyboard-response","22","62423","0.0-1.0-26.0-0.0","0","0","77842","","null","","","null","2","","","","","","","","","","","","","","","",""
"","ITI","","html-keyboard-response","23","63426","0.0-1.0-27.0","0","0","77842","","null","","","null","2","","","","","","","","","","","","","","","NaN",""
"","S1","","html-keyboard-response","24","63680","0.0-1.0-29.0","0","0","77842","","null","","","null","3","","","","","","","","","","","","","","","",""
"","ISI","","html-keyboard-response","25","65683","0.0-1.0-30.0","0","0","77842","","null","","","null","3","NaN","","","","","","","","","","","","","","",""
"","S2","","html-keyboard-response","26","65938","0.0-1.0-31.0","0","0","77842","","null","","","null","3","","NaN","","","","","","","","","","","","","",""
"","response","","html-keyboard-response","27","66520","0.0-1.0-32.0","0","0","77842","","579","","","68","3","","","1","3","training","adjacent","EF","5","6","Q.jpg","M.jpg","1","1","1","",""
"","feedback","","html-keyboard-response","28","67524","0.0-1.0-33.0-0.0","0","0","77842","","null","","","null","3","","","","","","","","","","","","","","","",""
"","ITI","","html-keyboard-response","29","68528","0.0-1.0-36.0","0","0","77842","","null","","","null","3","","","","","","","","","","","","","","","NaN",""
"","S1","","html-keyboard-response","30","68782","0.0-1.0-38.0","0","0","77842","","null","","","null","4","","","","","","","","","","","","","","","",""
"","ISI","","html-keyboard-response","31","70785","0.0-1.0-39.0","0","0","77842","","null","","","null","4","NaN","","","","","","","","","","","","","","",""
"","S2","","html-keyboard-response","32","71039","0.0-1.0-40.0","0","0","77842","","null","","","null","4","","NaN","","","","","","","","","","","","","",""
"","response","","html-keyboard-response","33","71589","0.0-1.0-41.0","0","0","77842","","547","","","68","4","","","1","4","training","adjacent","CB","3","2","R.jpg","O.jpg","1","0","0","",""
"","feedback","","html-keyboard-response","34","72593","0.0-1.0-42.0-0.0","0","0","77842","","null","","","null","4","","","","","","","","","","","","","","","",""
"","time_out","","html-keyboard-response","35","74597","0.0-1.0-44.0-0.0","0","0","77842","","null","","","null","4","","","","","","","","","","","","","","","",""
"","ITI","","html-keyboard-response","36","75599","0.0-1.0-45.0","0","0","77842","","null","","","null","4","","","","","","","","","","","","","","","NaN",""
"","S1","","html-keyboard-response","37","75853","0.0-1.0-47.0","0","0","77842","","null","","","null","5","","","","","","","","","","","","","","","",""
"","ISI","","html-keyboard-response","38","77856","0.0-1.0-48.0","0","0","77842","","null","","","null","5","NaN","","","","","","","","","","","","","","",""
"","S2","","html-keyboard-response","39","78110","0.0-1.0-49.0","0","0","77842","","null","","","null","5","","NaN","","","","","","","","","","","","","",""
"","response","","html-keyboard-response","40","78693","0.0-1.0-50.0","0","0","77842","","581","","","75","5","","","1","5","training","adjacent","FG","6","7","M.jpg","L.jpg","0","1","0","",""
"","feedback","","html-keyboard-response","41","79698","0.0-1.0-51.0-0.0","0","0","77842","","null","","","null","5","","","","","","","","","","","","","","","",""
"","time_out","","html-keyboard-response","42","81702","0.0-1.0-53.0-0.0","0","0","77842","","null","","","null","5","","","","","","","","","","","","","","","",""
"","ITI","","html-keyboard-response","43","82705","0.0-1.0-54.0","0","0","77842","","null","","","null","5","","","","","","","","","","","","","","","NaN",""
"","S1","","html-keyboard-response","44","82959","0.0-1.0-56.0","0","0","77842","","null","","","null","6","","","","","","","","","","","","","","","",""
"","ISI","","html-keyboard-response","45","84963","0.0-1.0-57.0","0","0","77842","","null","","","null","6","NaN","","","","","","","","","","","","","","",""
"","S2","","html-keyboard-response","46","85217","0.0-1.0-58.0","0","0","77842","","null","","","null","6","","NaN","","","","","","","","","","","","","",""
"","response","","html-keyboard-response","47","85642","0.0-1.0-59.0","0","0","77842","","422","","","68","6","","","1","6","training","adjacent","ED","5","4","Q.jpg","P.jpg","1","0","0","",""
"","feedback","","html-keyboard-response","48","86646","0.0-1.0-60.0-0.0","0","0","77842","","null","","","null","6","","","","","","","","","","","","","","","",""
"","time_out","","html-keyboard-response","49","88649","0.0-1.0-62.0-0.0","0","0","77842","","null","","","null","6","","","","","","","","","","","","","","","",""
"","ITI","","html-keyboard-response","50","89652","0.0-1.0-63.0","0","0","77842","","null","","","null","6","","","","","","","","","","","","","","","NaN",""
"","S1","","html-keyboard-response","51","89905","0.0-1.0-65.0","0","0","77842","","null","","","null","7","","","","","","","","","","","","","","","",""
"","ISI","","html-keyboard-response","52","91909","0.0-1.0-66.0","0","0","77842","","null","","","null","7","NaN","","","","","","","","","","","","","","",""
"","S2","","html-keyboard-response","53","92163","0.0-1.0-67.0","0","0","77842","","null","","","null","7","","NaN","","","","","","","","","","","","","",""
"","response","","html-keyboard-response","54","92675","0.0-1.0-68.0","0","0","77842","","509","","","68","7","","","1","7","training","adjacent","BC","2","3","O.jpg","R.jpg","1","1","1","",""
"","feedback","","html-keyboard-response","55","93679","0.0-1.0-69.0-0.0","0","0","77842","","null","","","null","7","","","","","","","","","","","","","","","",""
"","ITI","","html-keyboard-response","56","94683","0.0-1.0-72.0","0","0","77842","","null","","","null","7","","","","","","","","","","","","","","","NaN",""
"","S1","","html-keyboard-response","57","94938","0.0-1.0-74.0","0","0","77842","","null","","","null","8","","","","","","","","","","","","","","","",""
"","ISI","","html-keyboard-response","58","96941","0.0-1.0-75.0","0","0","77842","","null","","","null","8","NaN","","","","","","","","","","","","","","",""
"","S2","","html-keyboard-response","59","97194","0.0-1.0-76.0","0","0","77842","","null","","","null","8","","NaN","","","","","","","","","","","","","",""
"","response","","html-keyboard-response","60","97444","0.0-1.0-77.0","0","0","77842","","247","","","68","8","","","1","8","training","adjacent","ED","5","4","Q.jpg","P.jpg","1","0","0","",""
"","feedback","","html-keyboard-response","61","98448","0.0-1.0-78.0-0.0","0","0","77842","","null","","","null","8","","","","","","","","","","","","","","","",""
"","time_out","","html-keyboard-response","62","100451","0.0-1.0-80.0-0.0","0","0","77842","","null","","","null","8","","","","","","","","","","","","","","","",""
"","ITI","","html-keyboard-response","63","101454","0.0-1.0-81.0","0","0","77842","","null","","","null","8","","","","","","","","","","","","","","","NaN",""
"","S1","","html-keyboard-response","64","101708","0.0-1.0-83.0","0","0","77842","","null","","","null","9","","","","","","","","","","","","","","","",""
"","ISI","","html-keyboard-response","65","103711","0.0-1.0-84.0","0","0","77842","","null","","","null","9","NaN","","","","","","","","","","","","","","",""
"","S2","","html-keyboard-response","66","103964","0.0-1.0-85.0","0","0","77842","","null","","","null","9","","NaN","","","","","","","","","","","","","",""
"","response","","html-keyboard-response","67","104190","0.0-1.0-86.0","0","0","77842","","223","","","75","9","","","1","9","training","adjacent","GF","7","6","L.jpg","M.jpg","0","0","1","",""
"","feedback","","html-keyboard-response","68","105194","0.0-1.0-87.0-0.0","0","0","77842","","null","","","null","9","","","","","","","","","","","","","","","",""
"","ITI","","html-keyboard-response","69","106197","0.0-1.0-90.0","0","0","77842","","null","","","null","9","","","","","","","","","","","","","","","NaN",""
"","S1","","html-keyboard-response","70","106452","0.0-1.0-92.0","0","0","77842","","null","","","null","10","","","","","","","","","","","","","","","",""
"","ISI","","html-keyboard-response","71","108454","0.0-1.0-93.0","0","0","77842","","null","","","null","10","NaN","","","","","","","","","","","","","","",""
"","S2","","html-keyboard-response","72","108709","0.0-1.0-94.0","0","0","77842","","null","","","null","10","","NaN","","","","","","","","","","","","","",""
"","response","","html-keyboard-response","73","109704","0.0-1.0-95.0","0","0","77842","","993","","","75","10","","","1","10","training","adjacent","CB","3","2","R.jpg","O.jpg","0","0","1","",""
"","feedback","","html-keyboard-response","74","110708","0.0-1.0-96.0-0.0","0","0","77842","","null","","","null","10","","","","","","","","","","","","","","","",""
"","ITI","","html-keyboard-response","75","111711","0.0-1.0-99.0","0","0","77842","","null","","","null","10","","","","","","","","","","","","","","","NaN",""
"","S1","","html-keyboard-response","76","111966","0.0-1.0-101.0","0","0","77842","","null","","","null","11","","","","","","","","","","","","","","","",""
"","ISI","","html-keyboard-response","77","113969","0.0-1.0-102.0","0","0","77842","","null","","","null","11","NaN","","","","","","","","","","","","","","",""
"","S2","","html-keyboard-response","78","114223","0.0-1.0-103.0","0","0","77842","","null","","","null","11","","NaN","","","","","","","","","","","","","",""
"","response","","html-keyboard-response","79","114700","0.0-1.0-104.0","0","0","77842","","474","","","75","11","","","1","11","training","adjacent","AB","1","2","N.jpg","O.jpg","0","1","0","",""
"","feedback","","html-keyboard-response","80","115703","0.0-1.0-105.0-0.0","0","0","77842","","null","","","null","11","","","","","","","","","","","","","","","",""
"","time_out","","html-keyboard-response","81","117708","0.0-1.0-107.0-0.0","0","0","77842","","null","","","null","11","","","","","","","","","","","","","","","",""
"","ITI","","html-keyboard-response","82","118711","0.0-1.0-108.0","0","0","77842","","null","","","null","11","","","","","","","","","","","","","","","NaN",""
"","S1","","html-keyboard-response","83","118965","0.0-1.0-110.0","0","0","77842","","null","","","null","12","","","","","","","","","","","","","","","",""
"","ISI","","html-keyboard-response","84","120969","0.0-1.0-111.0","0","0","77842","","null","","","null","12","NaN","","","","","","","","","","","","","","",""
"","S2","","html-keyboard-response","85","121222","0.0-1.0-112.0","0","0","77842","","null","","","null","12","","NaN","","","","","","","","","","","","","",""
"","response","","html-keyboard-response","86","121717","0.0-1.0-113.0","0","0","77842","","492","","","75","12","","","1","12","training","adjacent","DE","4","5","P.jpg","Q.jpg","0","1","0","",""
"","feedback","","html-keyboard-response","87","122722","0.0-1.0-114.0-0.0","0","0","77842","","null","","","null","12","","","","","","","","","","","","","","","",""
"","time_out","","html-keyboard-response","88","124725","0.0-1.0-116.0-0.0","0","0","77842","","null","","","null","12","","","","","","","","","","","","","","","",""
"","ITI","","html-keyboard-response","89","125729","0.0-1.0-117.0","0","0","77842","","null","","","null","12","","","","","","","","","","","","","","","NaN",""
"","S1","","html-keyboard-response","90","125982","0.0-1.0-119.0","0","0","77842","","null","","","null","13","","","","","","","","","","","","","","","",""
"","ISI","","html-keyboard-response","91","127986","0.0-1.0-120.0","0","0","77842","","null","","","null","13","NaN","","","","","","","","","","","","","","",""
"","S2","","html-keyboard-response","92","128239","0.0-1.0-121.0","0","0","77842","","null","","","null","13","","NaN","","","","","","","","","","","","","",""
"","response","","html-keyboard-response","93","128709","0.0-1.0-122.0","0","0","77842","","468","","","75","13","","","1","13","training","adjacent","CB","3","2","R.jpg","O.jpg","0","0","1","",""
"","feedback","","html-keyboard-response","94","129713","0.0-1.0-123.0-0.0","0","0","77842","","null","","","null","13","","","","","","","","","","","","","","","",""
"","ITI","","html-keyboard-response","95","130717","0.0-1.0-126.0","0","0","77842","","null","","","null","13","","","","","","","","","","","","","","","NaN",""
"","S1","","html-keyboard-response","96","130971","0.0-1.0-128.0","0","0","77842","","null","","","null","14","","","","","","","","","","","","","","","",""
"","ISI","","html-keyboard-response","97","132975","0.0-1.0-129.0","0","0","77842","","null","","","null","14","NaN","","","","","","","","","","","","","","",""
"","S2","","html-keyboard-response","98","133229","0.0-1.0-130.0","0","0","77842","","null","","","null","14","","NaN","","","","","","","","","","","","","",""
"","response","","html-keyboard-response","99","133629","0.0-1.0-131.0","0","0","77842","","397","","","75","14","","","1","14","training","adjacent","GF","7","6","L.jpg","M.jpg","0","0","1","",""
"","feedback","","html-keyboard-response","100","134633","0.0-1.0-132.0-0.0","0","0","77842","","null","","","null","14","","","","","","","","","","","","","","","",""
"","ITI","","html-keyboard-response","101","135636","0.0-1.0-135.0","0","0","77842","","null","","","null","14","","","","","","","","","","","","","","","NaN",""
"","S1","","html-keyboard-response","102","135890","0.0-1.0-137.0","0","0","77842","","null","","","null","15","","","","","","","","","","","","","","","",""
"","ISI","","html-keyboard-response","103","137894","0.0-1.0-138.0","0","0","77842","","null","","","null","15","NaN","","","","","","","","","","","","","","",""
"","S2","","html-keyboard-response","104","138149","0.0-1.0-139.0","0","0","77842","","null","","","null","15","","NaN","","","","","","","","","","","","","",""
"","response","","html-keyboard-response","105","138377","0.0-1.0-140.0","0","0","77842","","226","","","75","15","","","1","15","training","adjacent","BA","2","1","O.jpg","N.jpg","0","0","1","",""
"","feedback","","html-keyboard-response","106","139382","0.0-1.0-141.0-0.0","0","0","77842","","null","","","null","15","","","","","","","","","","","","","","","",""
"","ITI","","html-keyboard-response","107","140386","0.0-1.0-144.0","0","0","77842","","null","","","null","15","","","","","","","","","","","","","","","NaN",""
"","S1","","html-keyboard-response","108","140640","0.0-1.0-146.0","0","0","77842","","null","","","null","16","","","","","","","","","","","","","","","",""
"","ISI","","html-keyboard-response","109","142644","0.0-1.0-147.0","0","0","77842","","null","","","null","16","NaN","","","","","","","","","","","","","","",""
"","S2","","html-keyboard-response","110","142898","0.0-1.0-148.0","0","0","77842","","null","","","null","16","","NaN","","","","","","","","","","","","","",""
"","response","","html-keyboard-response","111","143644","0.0-1.0-149.0","0","0","77842","","743","","","68","16","","","1","16","training","adjacent","AB","1","2","N.jpg","O.jpg","1","1","1","",""
"","feedback","","html-keyboard-response","112","144648","0.0-1.0-150.0-0.0","0","0","77842","","null","","","null","16","","","","","","","","","","","","","","","",""
"","ITI","","html-keyboard-response","113","145651","0.0-1.0-153.0","0","0","77842","","null","","","null","16","","","","","","","","","","","","","","","NaN",""
"","S1","","html-keyboard-response","114","145905","0.0-1.0-155.0","0","0","77842","","null","","","null","17","","","","","","","","","","","","","","","",""
"","ISI","","html-keyboard-response","115","147909","0.0-1.0-156.0","0","0","77842","","null","","","null","17","NaN","","","","","","","","","","","","","","",""
"","S2","","html-keyboard-response","116","148163","0.0-1.0-157.0","0","0","77842","","null","","","null","17","","NaN","","","","","","","","","","","","","",""
"","response","","html-keyboard-response","117","148400","0.0-1.0-158.0","0","0","77842","","234","","","75","17","","","1","17","training","adjacent","GF","7","6","L.jpg","M.jpg","0","0","1","",""
"","feedback","","html-keyboard-response","118","149403","0.0-1.0-159.0-0.0","0","0","77842","","null","","","null","17","","","","","","","","","","","","","","","",""
"","ITI","","html-keyboard-response","119","150407","0.0-1.0-162.0","0","0","77842","","null","","","null","17","","","","","","","","","","","","","","","NaN",""
"","S1","","html-keyboard-response","120","150661","0.0-1.0-164.0","0","0","77842","","null","","","null","18","","","","","","","","","","","","","","","",""
"","ISI","","html-keyboard-response","121","152664","0.0-1.0-165.0","0","0","77842","","null","","","null","18","NaN","","","","","","","","","","","","","","",""
"","S2","","html-keyboard-response","122","152918","0.0-1.0-166.0","0","0","77842","","null","","","null","18","","NaN","","","","","","","","","","","","","",""
"","response","","html-keyboard-response","123","153305","0.0-1.0-167.0","0","0","77842","","384","","","75","18","","","1","18","training","adjacent","FE","6","5","M.jpg","Q.jpg","0","0","1","",""
"","feedback","","html-keyboard-response","124","154309","0.0-1.0-168.0-0.0","0","0","77842","","null","","","null","18","","","","","","","","","","","","","","","",""
"","ITI","","html-keyboard-response","125","155312","0.0-1.0-171.0","0","0","77842","","null","","","null","18","","","","","","","","","","","","","","","NaN",""
"","S1","","html-keyboard-response","126","155566","0.0-1.0-173.0","0","0","77842","","null","","","null","19","","","","","","","","","","","","","","","",""
"","ISI","","html-keyboard-response","127","157569","0.0-1.0-174.0","0","0","77842","","null","","","null","19","NaN","","","","","","","","","","","","","","",""
"","S2","","html-keyboard-response","128","157823","0.0-1.0-175.0","0","0","77842","","null","","","null","19","","NaN","","","","","","","","","","","","","",""
"","response","","html-keyboard-response","129","158233","0.0-1.0-176.0","0","0","77842","","407","","","75","19","","","1","19","training","adjacent","FE","6","5","M.jpg","Q.jpg","0","0","1","",""
"","feedback","","html-keyboard-response","130","159237","0.0-1.0-177.0-0.0","0","0","77842","","null","","","null","19","","","","","","","","","","","","","","","",""
"","ITI","","html-keyboard-response","131","160241","0.0-1.0-180.0","0","0","77842","","null","","","null","19","","","","","","","","","","","","","","","NaN",""
"","S1","","html-keyboard-response","132","160494","0.0-1.0-182.0","0","0","77842","","null","","","null","20","","","","","","","","","","","","","","","",""
"","ISI","","html-keyboard-response","133","162498","0.0-1.0-183.0","0","0","77842","","null","","","null","20","NaN","","","","","","","","","","","","","","",""
"","S2","","html-keyboard-response","134","162752","0.0-1.0-184.0","0","0","77842","","null","","","null","20","","NaN","","","","","","","","","","","","","",""
"","response","","html-keyboard-response","135","163176","0.0-1.0-185.0","0","0","77842","","422","","","75","20","","","1","20","training","adjacent","BA","2","1","O.jpg","N.jpg","0","0","1","",""
"","feedback","","html-keyboard-response","136","164179","0.0-1.0-186.0-0.0","0","0","77842","","null","","","null","20","","","","","","","","","","","","","","","",""
"","ITI","","html-keyboard-response","137","165182","0.0-1.0-189.0","0","0","77842","","null","","","null","20","","","","","","","","","","","","","","","NaN",""
"","S1","","html-keyboard-response","138","165436","0.0-1.0-191.0","0","0","77842","","null","","","null","21","","","","","","","","","","","","","","","",""
"","ISI","","html-keyboard-response","139","167439","0.0-1.0-192.0","0","0","77842","","null","","","null","21","NaN","","","","","","","","","","","","","","",""
"","S2","","html-keyboard-response","140","167692","0.0-1.0-193.0","0","0","77842","","null","","","null","21","","NaN","","","","","","","","","","","","","",""
"","response","","html-keyboard-response","141","168188","0.0-1.0-194.0","0","0","77842","","494","","","75","21","","","1","21","training","adjacent","BC","2","3","O.jpg","R.jpg","0","1","0","",""
"","feedback","","html-keyboard-response","142","169191","0.0-1.0-195.0-0.0","0","0","77842","","null","","","null","21","","","","","","","","","","","","","","","",""
"","time_out","","html-keyboard-response","143","171195","0.0-1.0-197.0-0.0","0","0","77842","","null","","","null","21","","","","","","","","","","","","","","","",""
"","ITI","","html-keyboard-response","144","172199","0.0-1.0-198.0","0","0","77842","","null","","","null","21","","","","","","","","","","","","","","","NaN",""
"","S1","","html-keyboard-response","145","172453","0.0-1.0-200.0","0","0","77842","","null","","","null","22","","","","","","","","","","","","","","","",""
"","ISI","","html-keyboard-response","146","174455","0.0-1.0-201.0","0","0","77842","","null","","","null","22","NaN","","","","","","","","","","","","","","",""
"","S2","","html-keyboard-response","147","174709","0.0-1.0-202.0","0","0","77842","","null","","","null","22","","NaN","","","","","","","","","","","","","",""
"","response","","html-keyboard-response","148","175276","0.0-1.0-203.0","0","0","77842","","565","","","75","22","","","1","22","training","adjacent","DC","4","3","P.jpg","R.jpg","0","0","1","",""
"","feedback","","html-keyboard-response","149","176280","0.0-1.0-204.0-0.0","0","0","77842","","null","","","null","22","","","","","","","","","","","","","","","",""
"","ITI","","html-keyboard-response","150","177283","0.0-1.0-207.0","0","0","77842","","null","","","null","22","","","","","","","","","","","","","","","NaN",""
"","S1","","html-keyboard-response","151","177537","0.0-1.0-209.0","0","0","77842","","null","","","null","23","","","","","","","","","","","","","","","",""
"","ISI","","html-keyboard-response","152","179541","0.0-1.0-210.0","0","0","77842","","265","","","50","23","2","","","","","","","","","","","","","","",""
"","S2","","html-keyboard-response","153","179796","0.0-1.0-211.0","0","0","77842","","null","","","null","23","","NaN","","","","","","","","","","","","","",""
"","response","","html-keyboard-response","154","180038","0.0-1.0-212.0","0","0","77842","","239","","","75","23","","","1","23","training","adjacent","DE","4","5","P.jpg","Q.jpg","0","1","0","",""
"","feedback","","html-keyboard-response","155","181042","0.0-1.0-213.0-0.0","0","0","77842","","null","","","null","23","","","","","","","","","","","","","","","",""
"","time_out","","html-keyboard-response","156","183045","0.0-1.0-215.0-0.0","0","0","77842","","null","","","null","23","","","","","","","","","","","","","","","",""
"","ITI","","html-keyboard-response","157","184049","0.0-1.0-216.0","0","0","77842","","null","","","null","23","","","","","","","","","","","","","","","NaN",""
"","S1","","html-keyboard-response","158","184303","0.0-1.0-218.0","0","0","77842","","null","","","null","24","","","","","","","","","","","","","","","",""
"","ISI","","html-keyboard-response","159","186306","0.0-1.0-219.0","0","0","77842","","null","","","null","24","NaN","","","","","","","","","","","","","","",""
"","S2","","html-keyboard-response","160","186561","0.0-1.0-220.0","0","0","77842","","null","","","null","24","","NaN","","","","","","","","","","","","","",""
"","response","","html-keyboard-response","161","187301","0.0-1.0-221.0","0","0","77842","","737","","","68","24","","","1","24","training","adjacent","FG","6","7","M.jpg","L.jpg","1","1","1","",""
"","feedback","","html-keyboard-response","162","188305","0.0-1.0-222.0-0.0","0","0","77842","","null","","","null","24","","","","","","","","","","","","","","","",""
"","ITI","","html-keyboard-response","163","189310","0.0-1.0-225.0","0","0","77842","","null","","","null","24","","","","","","","","","","","","","","","NaN",""
"","S1","","html-keyboard-response","164","189564","0.0-1.0-227.0","0","0","77842","","null","","","null","25","","","","","","","","","","","","","","","",""
"","ISI","","html-keyboard-response","165","191568","0.0-1.0-228.0","0","0","77842","","null","","","null","25","NaN","","","","","","","","","","","","","","",""
"","S2","","html-keyboard-response","166","191822","0.0-1.0-229.0","0","0","77842","","null","","","null","25","","NaN","","","","","","","","","","","","","",""
"","response","","html-keyboard-response","167","192738","0.0-1.0-230.0","0","0","77842","","914","","","75","25","","","1","25","training","adjacent","CD","3","4","R.jpg","P.jpg","0","1","0","",""
"","feedback","","html-keyboard-response","168","193742","0.0-1.0-231.0-0.0","0","0","77842","","null","","","null","25","","","","","","","","","","","","","","","",""
"","time_out","","html-keyboard-response","169","195744","0.0-1.0-233.0-0.0","0","0","77842","","null","","","null","25","","","","","","","","","","","","","","","",""
"","ITI","","html-keyboard-response","170","196749","0.0-1.0-234.0","0","0","77842","","null","","","null","25","","","","","","","","","","","","","","","NaN",""
"","S1","","html-keyboard-response","171","197003","0.0-1.0-236.0","0","0","77842","","null","","","null","26","","","","","","","","","","","","","","","",""
"","ISI","","html-keyboard-response","172","199007","0.0-1.0-237.0","0","0","77842","","null","","","null","26","NaN","","","","","","","","","","","","","","",""
"","S2","","html-keyboard-response","173","199260","0.0-1.0-238.0","0","0","77842","","null","","","null","26","","NaN","","","","","","","","","","","","","",""
"","response","","html-keyboard-response","174","199774","0.0-1.0-239.0","0","0","77842","","511","","","75","26","","","1","26","training","adjacent","CB","3","2","R.jpg","O.jpg","0","0","1","",""
"","feedback","","html-keyboard-response","175","200777","0.0-1.0-240.0-0.0","0","0","77842","","null","","","null","26","","","","","","","","","","","","","","","",""
"","ITI","","html-keyboard-response","176","201781","0.0-1.0-243.0","0","0","77842","","null","","","null","26","","","","","","","","","","","","","","","NaN",""
"","S1","","html-keyboard-response","177","202034","0.0-1.0-245.0","0","0","77842","","null","","","null","27","","","","","","","","","","","","","","","",""
"","ISI","","html-keyboard-response","178","204037","0.0-1.0-246.0","0","0","77842","","null","","","null","27","NaN","","","","","","","","","","","","","","",""
"","S2","","html-keyboard-response","179","204291","0.0-1.0-247.0","0","0","77842","","null","","","null","27","","NaN","","","","","","","","","","","","","",""
"","response","","html-keyboard-response","180","204979","0.0-1.0-248.0","0","0","77842","","686","","","75","27","","","1","27","training","adjacent","CD","3","4","R.jpg","P.jpg","0","1","0","",""
"","feedback","","html-keyboard-response","181","205983","0.0-1.0-249.0-0.0","0","0","77842","","null","","","null","27","","","","","","","","","","","","","","","",""
"","time_out","","html-keyboard-response","182","207986","0.0-1.0-251.0-0.0","0","0","77842","","null","","","null","27","","","","","","","","","","","","","","","",""
"","ITI","","html-keyboard-response","183","208990","0.0-1.0-252.0","0","0","77842","","null","","","null","27","","","","","","","","","","","","","","","NaN",""
"","S1","","html-keyboard-response","184","209244","0.0-1.0-254.0","0","0","77842","","null","","","null","28","","","","","","","","","","","","","","","",""
"","ISI","","html-keyboard-response","185","211247","0.0-1.0-255.0","0","0","77842","","null","","","null","28","NaN","","","","","","","","","","","","","","",""
"","S2","","html-keyboard-response","186","211502","0.0-1.0-256.0","0","0","77842","","null","","","null","28","","NaN","","","","","","","","","","","","","",""
"","response","","html-keyboard-response","187","211890","0.0-1.0-257.0","0","0","77842","","386","","","68","28","","","1","28","training","adjacent","EF","5","6","Q.jpg","M.jpg","1","1","1","",""
"","feedback","","html-keyboard-response","188","212894","0.0-1.0-258.0-0.0","0","0","77842","","null","","","null","28","","","","","","","","","","","","","","","",""
"","ITI","","html-keyboard-response","189","213899","0.0-1.0-261.0","0","0","77842","","null","","","null","28","","","","","","","","","","","","","","","NaN",""
"","S1","","html-keyboard-response","190","214152","0.0-1.0-263.0","0","0","77842","","null","","","null","29","","","","","","","","","","","","","","","",""
"","ISI","","html-keyboard-response","191","216156","0.0-1.0-264.0","0","0","77842","","null","","","null","29","NaN","","","","","","","","","","","","","","",""
"","S2","","html-keyboard-response","192","216409","0.0-1.0-265.0","0","0","77842","","null","","","null","29","","NaN","","","","","","","","","","","","","",""
"","response","","html-keyboard-response","193","216868","0.0-1.0-266.0","0","0","77842","","456","","","75","29","","","1","29","training","adjacent","AB","1","2","N.jpg","O.jpg","0","1","0","",""
"","feedback","","html-keyboard-response","194","217871","0.0-1.0-267.0-0.0","0","0","77842","","null","","","null","29","","","","","","","","","","","","","","","",""
"","time_out","","html-keyboard-response","195","219875","0.0-1.0-269.0-0.0","0","0","77842","","null","","","null","29","","","","","","","","","","","","","","","",""
"","ITI","","html-keyboard-response","196","220879","0.0-1.0-270.0","0","0","77842","","null","","","null","29","","","","","","","","","","","","","","","NaN",""
"","S1","","html-keyboard-response","197","221133","0.0-1.0-272.0","0","0","77842","","null","","","null","30","","","","","","","","","","","","","","","",""
"","ISI","","html-keyboard-response","198","223138","0.0-1.0-273.0","0","0","77842","","null","","","null","30","NaN","","","","","","","","","","","","","","",""
"","S2","","html-keyboard-response","199","223391","0.0-1.0-274.0","0","0","77842","","null","","","null","30","","NaN","","","","","","","","","","","","","",""
"","response","","html-keyboard-response","200","223666","0.0-1.0-275.0","0","0","77842","","272","","","75","30","","","1","30","training","adjacent","FE","6","5","M.jpg","Q.jpg","0","0","1","",""
"","feedback","","html-keyboard-response","201","224671","0.0-1.0-276.0-0.0","0","0","77842","","null","","","null","30","","","","","","","","","","","","","","","",""
"","ITI","","html-keyboard-response","202","225674","0.0-1.0-279.0","0","0","77842","","null","","","null","30","","","","","","","","","","","","","","","NaN",""
"","S1","","html-keyboard-response","203","225928","0.0-1.0-281.0","0","0","77842","","null","","","null","31","","","","","","","","","","","","","","","",""
"","ISI","","html-keyboard-response","204","227931","0.0-1.0-282.0","0","0","77842","","null","","","null","31","NaN","","","","","","","","","","","","","","",""
"","S2","","html-keyboard-response","205","228186","0.0-1.0-283.0","0","0","77842","","null","","","null","31","","NaN","","","","","","","","","","","","","",""
"","response","","html-keyboard-response","206","228650","0.0-1.0-284.0","0","0","77842","","461","","","75","31","","","1","31","training","adjacent","FE","6","5","M.jpg","Q.jpg","0","0","1","",""
"","feedback","","html-keyboard-response","207","229654","0.0-1.0-285.0-0.0","0","0","77842","","null","","","null","31","","","","","","","","","","","","","","","",""
"","ITI","","html-keyboard-response","208","230658","0.0-1.0-288.0","0","0","77842","","null","","","null","31","","","","","","","","","","","","","","","NaN",""
"","S1","","html-keyboard-response","209","230912","0.0-1.0-290.0","0","0","77842","","null","","","null","32","","","","","","","","","","","","","","","",""
"","ISI","","html-keyboard-response","210","232914","0.0-1.0-291.0","0","0","77842","","null","","","null","32","NaN","","","","","","","","","","","","","","",""
"","S2","","html-keyboard-response","211","233169","0.0-1.0-292.0","0","0","77842","","null","","","null","32","","NaN","","","","","","","","","","","","","",""
"","response","","html-keyboard-response","212","233714","0.0-1.0-293.0","0","0","77842","","542","","","75","32","","","1","32","training","adjacent","CD","3","4","R.jpg","P.jpg","0","1","0","",""
"","feedback","","html-keyboard-response","213","234718","0.0-1.0-294.0-0.0","0","0","77842","","null","","","null","32","","","","","","","","","","","","","","","",""
"","time_out","","html-keyboard-response","214","236723","0.0-1.0-296.0-0.0","0","0","77842","","null","","","null","32","","","","","","","","","","","","","","","",""
"","ITI","","html-keyboard-response","215","237726","0.0-1.0-297.0","0","0","77842","","null","","","null","32","","","","","","","","","","","","","","","NaN",""
"","S1","","html-keyboard-response","216","237980","0.0-1.0-299.0","0","0","77842","","null","","","null","33","","","","","","","","","","","","","","","",""
"","ISI","","html-keyboard-response","217","239984","0.0-1.0-300.0","0","0","77842","","null","","","null","33","NaN","","","","","","","","","","","","","","",""
"","S2","","html-keyboard-response","218","240238","0.0-1.0-301.0","0","0","77842","","null","","","null","33","","NaN","","","","","","","","","","","","","",""
"","response","","html-keyboard-response","219","240781","0.0-1.0-302.0","0","0","77842","","540","","","68","33","","","1","33","training","adjacent","EF","5","6","Q.jpg","M.jpg","1","1","1","",""
"","feedback","","html-keyboard-response","220","241784","0.0-1.0-303.0-0.0","0","0","77842","","null","","","null","33","","","","","","","","","","","","","","","",""
"","ITI","","html-keyboard-response","221","242788","0.0-1.0-306.0","0","0","77842","","null","","","null","33","","","","","","","","","","","","","","","NaN",""
"","S1","","html-keyboard-response","222","243042","0.0-1.0-308.0","0","0","77842","","null","","","null","34","","","","","","","","","","","","","","","",""
"","ISI","","html-keyboard-response","223","245046","0.0-1.0-309.0","0","0","77842","","null","","","null","34","NaN","","","","","","","","","","","","","","",""
"","S2","","html-keyboard-response","224","245300","0.0-1.0-310.0","0","0","77842","","null","","","null","34","","NaN","","","","","","","","","","","","","",""
"","response","","html-keyboard-response","225","246228","0.0-1.0-311.0","0","0","77842","","925","","","75","34","","","1","34","training","adjacent","ED","5","4","Q.jpg","P.jpg","0","0","1","",""
"","feedback","","html-keyboard-response","226","247232","0.0-1.0-312.0-0.0","0","0","77842","","null","","","null","34","","","","","","","","","","","","","","","",""
"","ITI","","html-keyboard-response","227","248236","0.0-1.0-315.0","0","0","77842","","null","","","null","34","","","","","","","","","","","","","","","NaN",""
"","S1","","html-keyboard-response","228","248490","0.0-1.0-317.0","0","0","77842","","null","","","null","35","","","","","","","","","","","","","","","",""
"","ISI","","html-keyboard-response","229","250494","0.0-1.0-318.0","0","0","77842","","null","","","null","35","NaN","","","","","","","","","","","","","","",""
"","S2","","html-keyboard-response","230","250748","0.0-1.0-319.0","0","0","77842","","null","","","null","35","","NaN","","","","","","","","","","","","","",""
"","response","","html-keyboard-response","231","250941","0.0-1.0-320.0","0","0","77842","","191","","","68","35","","","1","35","training","adjacent","BC","2","3","O.jpg","R.jpg","1","1","1","",""
"","feedback","","html-keyboard-response","232","251945","0.0-1.0-321.0-0.0","0","0","77842","","null","","","null","35","","","","","","","","","","","","","","","",""
"","ITI","","html-keyboard-response","233","252950","0.0-1.0-324.0","0","0","77842","","null","","","null","35","","","","","","","","","","","","","","","NaN",""
"","S1","","html-keyboard-response","234","253203","0.0-1.0-326.0","0","0","77842","","null","","","null","36","","","","","","","","","","","","","","","",""
"","ISI","","html-keyboard-response","235","255207","0.0-1.0-327.0","0","0","77842","","null","","","null","36","NaN","","","","","","","","","","","","","","",""
"","S2","","html-keyboard-response","236","255460","0.0-1.0-328.0","0","0","77842","","null","","","null","36","","NaN","","","","","","","","","","","","","",""
"","response","","html-keyboard-response","237","255778","0.0-1.0-329.0","0","0","77842","","314","","","75","36","","","1","36","training","adjacent","AB","1","2","N.jpg","O.jpg","0","1","0","",""
"","feedback","","html-keyboard-response","238","256781","0.0-1.0-330.0-0.0","0","0","77842","","null","","","null","36","","","","","","","","","","","","","","","",""
"","time_out","","html-keyboard-response","239","258785","0.0-1.0-332.0-0.0","0","0","77842","","null","","","null","36","","","","","","","","","","","","","","","",""
"","ITI","","html-keyboard-response","240","259788","0.0-1.0-333.0","0","0","77842","","null","","","null","36","","","","","","","","","","","","","","","NaN",""
"","S1","","html-keyboard-response","241","260041","0.0-1.0-335.0","0","0","77842","","null","","","null","37","","","","","","","","","","","","","","","",""
"","ISI","","html-keyboard-response","242","262044","0.0-1.0-336.0","0","0","77842","","null","","","null","37","NaN","","","","","","","","","","","","","","",""
"","S2","","html-keyboard-response","243","262298","0.0-1.0-337.0","0","0","77842","","null","","","null","37","","NaN","","","","","","","","","","","","","",""
"","response","","html-keyboard-response","244","262697","0.0-1.0-338.0","0","0","77842","","396","","","75","37","","","1","37","training","adjacent","DE","4","5","P.jpg","Q.jpg","0","1","0","",""
"","feedback","","html-keyboard-response","245","263701","0.0-1.0-339.0-0.0","0","0","77842","","null","","","null","37","","","","","","","","","","","","","","","",""
"","time_out","","html-keyboard-response","246","265705","0.0-1.0-341.0-0.0","0","0","77842","","null","","","null","37","","","","","","","","","","","","","","","",""
"","ITI","","html-keyboard-response","247","266709","0.0-1.0-342.0","0","0","77842","","null","","","null","37","","","","","","","","","","","","","","","NaN",""
"","S1","","html-keyboard-response","248","266963","0.0-1.0-344.0","0","0","77842","","null","","","null","38","","","","","","","","","","","","","","","",""
"","ISI","","html-keyboard-response","249","268967","0.0-1.0-345.0","0","0","77842","","null","","","null","38","NaN","","","","","","","","","","","","","","",""
"","S2","","html-keyboard-response","250","269220","0.0-1.0-346.0","0","0","77842","","null","","","null","38","","NaN","","","","","","","","","","","","","",""
"","response","","html-keyboard-response","251","269946","0.0-1.0-347.0","0","0","77842","","723","","","68","38","","","1","38","training","adjacent","FG","6","7","M.jpg","L.jpg","1","1","1","",""
"","feedback","","html-keyboard-response","252","270949","0.0-1.0-348.0-0.0","0","0","77842","","null","","","null","38","","","","","","","","","","","","","","","",""
"","ITI","","html-keyboard-response","253","271953","0.0-1.0-351.0","0","0","77842","","null","","","null","38","","","","","","","","","","","","","","","NaN",""
"","S1","","html-keyboard-response","254","272207","0.0-1.0-353.0","0","0","77842","","null","","","null","39","","","","","","","","","","","","","","","",""
"","ISI","","html-keyboard-response","255","274210","0.0-1.0-354.0","0","0","77842","","null","","","null","39","NaN","","","","","","","","","","","","","","",""
"","S2","","html-keyboard-response","256","274463","0.0-1.0-355.0","0","0","77842","","null","","","null","39","","NaN","","","","","","","","","","","","","",""
"","response","","html-keyboard-response","257","274762","0.0-1.0-356.0","0","0","77842","","296","","","75","39","","","1","39","training","adjacent","DE","4","5","P.jpg","Q.jpg","0","1","0","",""
"","feedback","","html-keyboard-response","258","275766","0.0-1.0-357.0-0.0","0","0","77842","","null","","","null","39","","","","","","","","","","","","","","","",""
"","time_out","","html-keyboard-response","259","277769","0.0-1.0-359.0-0.0","0","0","77842","","null","","","null","39","","","","","","","","","","","","","","","",""
"","ITI","","html-keyboard-response","260","278774","0.0-1.0-360.0","0","0","77842","","null","","","null","39","","","","","","","","","","","","","","","NaN",""
"","S1","","html-keyboard-response","261","279027","0.0-1.0-362.0","0","0","77842","","null","","","null","40","","","","","","","","","","","","","","","",""
"","ISI","","html-keyboard-response","262","281031","0.0-1.0-363.0","0","0","77842","","null","","","null","40","NaN","","","","","","","","","","","","","","",""
"","S2","","html-keyboard-response","263","281285","0.0-1.0-364.0","0","0","77842","","null","","","null","40","","NaN","","","","","","","","","","","","","",""
"","response","","html-keyboard-response","264","281716","0.0-1.0-365.0","0","0","77842","","428","","","75","40","","","1","40","training","adjacent","EF","5","6","Q.jpg","M.jpg","0","1","0","",""
"","feedback","","html-keyboard-response","265","282720","0.0-1.0-366.0-0.0","0","0","77842","","null","","","null","40","","","","","","","","","","","","","","","",""
"","time_out","","html-keyboard-response","266","284724","0.0-1.0-368.0-0.0","0","0","77842","","null","","","null","40","","","","","","","","","","","","","","","",""
"","ITI","","html-keyboard-response","267","285727","0.0-1.0-369.0","0","0","77842","","null","","","null","40","","","","","","","","","","","","","","","NaN",""
"","S1","","html-keyboard-response","268","285982","0.0-1.0-371.0","0","0","77842","","null","","","null","41","","","","","","","","","","","","","","","",""
"","ISI","","html-keyboard-response","269","287987","0.0-1.0-372.0","0","0","77842","","null","","","null","41","NaN","","","","","","","","","","","","","","",""
"","S2","","html-keyboard-response","270","288241","0.0-1.0-373.0","0","0","77842","","null","","","null","41","","NaN","","","","","","","","","","","","","",""
"","response","","html-keyboard-response","271","288769","0.0-1.0-374.0","0","0","77842","","526","","","75","41","","","1","41","training","adjacent","DC","4","3","P.jpg","R.jpg","0","0","1","",""
"","feedback","","html-keyboard-response","272","289773","0.0-1.0-375.0-0.0","0","0","77842","","null","","","null","41","","","","","","","","","","","","","","","",""
"","ITI","","html-keyboard-response","273","290777","0.0-1.0-378.0","0","0","77842","","null","","","null","41","","","","","","","","","","","","","","","NaN",""
"","S1","","html-keyboard-response","274","291030","0.0-1.0-380.0","0","0","77842","","null","","","null","42","","","","","","","","","","","","","","","",""
"","ISI","","html-keyboard-response","275","293033","0.0-1.0-381.0","0","0","77842","","null","","","null","42","NaN","","","","","","","","","","","","","","",""
"","S2","","html-keyboard-response","276","293287","0.0-1.0-382.0","0","0","77842","","null","","","null","42","","NaN","","","","","","","","","","","","","",""
"","response","","html-keyboard-response","277","293656","0.0-1.0-383.0","0","0","77842","","366","","","75","42","","","1","42","training","adjacent","BA","2","1","O.jpg","N.jpg","0","0","1","",""
"","feedback","","html-keyboard-response","278","294659","0.0-1.0-384.0-0.0","0","0","77842","","null","","","null","42","","","","","","","","","","","","","","","",""
"","ITI","","html-keyboard-response","279","295663","0.0-1.0-387.0","0","0","77842","","null","","","null","42","","","","","","","","","","","","","","","NaN",""
"","S1","","html-keyboard-response","280","295917","0.0-1.0-389.0","0","0","77842","","null","","","null","43","","","","","","","","","","","","","","","",""
"","ISI","","html-keyboard-response","281","297920","0.0-1.0-390.0","0","0","77842","","null","","","null","43","NaN","","","","","","","","","","","","","","",""
"","S2","","html-keyboard-response","282","298175","0.0-1.0-391.0","0","0","77842","","null","","","null","43","","NaN","","","","","","","","","","","","","",""
"","response","","html-keyboard-response","283","298701","0.0-1.0-392.0","0","0","77842","","524","","","75","43","","","1","43","training","adjacent","BA","2","1","O.jpg","N.jpg","0","0","1","",""
"","feedback","","html-keyboard-response","284","299704","0.0-1.0-393.0-0.0","0","0","77842","","null","","","null","43","","","","","","","","","","","","","","","",""
"","ITI","","html-keyboard-response","285","300709","0.0-1.0-396.0","0","0","77842","","null","","","null","43","","","","","","","","","","","","","","","NaN",""
"","S1","","html-keyboard-response","286","300963","0.0-1.0-398.0","0","0","77842","","null","","","null","44","","","","","","","","","","","","","","","",""
"","ISI","","html-keyboard-response","287","302966","0.0-1.0-399.0","0","0","77842","","null","","","null","44","NaN","","","","","","","","","","","","","","",""
"","S2","","html-keyboard-response","288","303220","0.0-1.0-400.0","0","0","77842","","null","","","null","44","","NaN","","","","","","","","","","","","","",""
"","response","","html-keyboard-response","289","303735","0.0-1.0-401.0","0","0","77842","","512","","","75","44","","","1","44","training","adjacent","GF","7","6","L.jpg","M.jpg","0","0","1","",""
"","feedback","","html-keyboard-response","290","304739","0.0-1.0-402.0-0.0","0","0","77842","","null","","","null","44","","","","","","","","","","","","","","","",""
"","ITI","","html-keyboard-response","291","305743","0.0-1.0-405.0","0","0","77842","","null","","","null","44","","","","","","","","","","","","","","","NaN",""
"","S1","","html-keyboard-response","292","305997","0.0-1.0-407.0","0","0","77842","","null","","","null","45","","","","","","","","","","","","","","","",""
"","ISI","","html-keyboard-response","293","308000","0.0-1.0-408.0","0","0","77842","","null","","","null","45","NaN","","","","","","","","","","","","","","",""
"","S2","","html-keyboard-response","294","308255","0.0-1.0-409.0","0","0","77842","","null","","","null","45","","NaN","","","","","","","","","","","","","",""
"","response","","html-keyboard-response","295","308862","0.0-1.0-410.0","0","0","77842","","605","","","75","45","","","1","45","training","adjacent","BC","2","3","O.jpg","R.jpg","0","1","0","",""
"","feedback","","html-keyboard-response","296","309866","0.0-1.0-411.0-0.0","0","0","77842","","null","","","null","45","","","","","","","","","","","","","","","",""
"","time_out","","html-keyboard-response","297","311869","0.0-1.0-413.0-0.0","0","0","77842","","null","","","null","45","","","","","","","","","","","","","","","",""
"","ITI","","html-keyboard-response","298","312873","0.0-1.0-414.0","0","0","77842","","null","","","null","45","","","","","","","","","","","","","","","NaN",""
"","S1","","html-keyboard-response","299","313127","0.0-1.0-416.0","0","0","77842","","null","","","null","46","","","","","","","","","","","","","","","",""
"","ISI","","html-keyboard-response","300","315130","0.0-1.0-417.0","0","0","77842","","null","","","null","46","NaN","","","","","","","","","","","","","","",""
"","S2","","html-keyboard-response","301","315384","0.0-1.0-418.0","0","0","77842","","null","","","null","46","","NaN","","","","","","","","","","","","","",""
"","response","","html-keyboard-response","302","315983","0.0-1.0-419.0","0","0","77842","","596","","","75","46","","","1","46","training","adjacent","DC","4","3","P.jpg","R.jpg","0","0","1","",""
"","feedback","","html-keyboard-response","303","316987","0.0-1.0-420.0-0.0","0","0","77842","","null","","","null","46","","","","","","","","","","","","","","","",""
"","ITI","","html-keyboard-response","304","317991","0.0-1.0-423.0","0","0","77842","","null","","","null","46","","","","","","","","","","","","","","","NaN",""
"","S1","","html-keyboard-response","305","318245","0.0-1.0-425.0","0","0","77842","","null","","","null","47","","","","","","","","","","","","","","","",""
"","ISI","","html-keyboard-response","306","320248","0.0-1.0-426.0","0","0","77842","","null","","","null","47","NaN","","","","","","","","","","","","","","",""
"","S2","","html-keyboard-response","307","320503","0.0-1.0-427.0","0","0","77842","","null","","","null","47","","NaN","","","","","","","","","","","","","",""
"","response","","html-keyboard-response","308","320978","0.0-1.0-428.0","0","0","77842","","472","","","75","47","","","1","47","training","adjacent","DC","4","3","P.jpg","R.jpg","0","0","1","",""
"","feedback","","html-keyboard-response","309","321982","0.0-1.0-429.0-0.0","0","0","77842","","null","","","null","47","","","","","","","","","","","","","","","",""
"","ITI","","html-keyboard-response","310","322985","0.0-1.0-432.0","0","0","77842","","null","","","null","47","","","","","","","","","","","","","","","NaN",""
"","block_over","","html-keyboard-response","311","341623","0.0-1.0-433.0-0.0","0","0","77842","","18634","","","32","47","","","","","","","","","","","","","","","",""
"","S1","","html-keyboard-response","312","341877","0.0-1.0-434.0","0","0","77842","","null","","","null","48","","","","","","","","","","","","","","","",""
"","ISI","","html-keyboard-response","313","343881","0.0-1.0-435.0","0","0","77842","","null","","","null","48","NaN","","","","","","","","","","","","","","",""
"","S2","","html-keyboard-response","314","344135","0.0-1.0-436.0","0","0","77842","","null","","","null","48","","NaN","","","","","","","","","","","","","",""
"","response","","html-keyboard-response","315","344532","0.0-1.0-437.0","0","0","77842","","394","","","75","48","","","2","48","training","adjacent","FE","6","5","M.jpg","Q.jpg","0","0","1","",""
"","feedback","","html-keyboard-response","316","345536","0.0-1.0-438.0-0.0","0","0","77842","","null","","","null","48","","","","","","","","","","","","","","","",""
"","ITI","","html-keyboard-response","317","346539","0.0-1.0-441.0","0","0","77842","","null","","","null","48","","","","","","","","","","","","","","","NaN",""
"","S1","","html-keyboard-response","318","346793","0.0-1.0-443.0","0","0","77842","","null","","","null","49","","","","","","","","","","","","","","","",""
"","ISI","","html-keyboard-response","319","348797","0.0-1.0-444.0","0","0","77842","","null","","","null","49","NaN","","","","","","","","","","","","","","",""
"","S2","","html-keyboard-response","320","349050","0.0-1.0-445.0","0","0","77842","","null","","","null","49","","NaN","","","","","","","","","","","","","",""
"","response","","html-keyboard-response","321","349710","0.0-1.0-446.0","0","0","77842","","657","","","75","49","","","2","49","training","adjacent","DE","4","5","P.jpg","Q.jpg","0","1","0","",""
"","feedback","","html-keyboard-response","322","350714","0.0-1.0-447.0-0.0","0","0","77842","","null","","","null","49","","","","","","","","","","","","","","","",""
"","time_out","","html-keyboard-response","323","352718","0.0-1.0-449.0-0.0","0","0","77842","","null","","","null","49","","","","","","","","","","","","","","","",""
"","ITI","","html-keyboard-response","324","353721","0.0-1.0-450.0","0","0","77842","","null","","","null","49","","","","","","","","","","","","","","","NaN",""
"","S1","","html-keyboard-response","325","353976","0.0-1.0-452.0","0","0","77842","","null","","","null","50","","","","","","","","","","","","","","","",""
"","ISI","","html-keyboard-response","326","355979","0.0-1.0-453.0","0","0","77842","","null","","","null","50","NaN","","","","","","","","","","","","","","",""
"","S2","","html-keyboard-response","327","356233","0.0-1.0-454.0","0","0","77842","","null","","","null","50","","NaN","","","","","","","","","","","","","",""
"","response","","html-keyboard-response","328","356678","0.0-1.0-455.0","0","0","77842","","443","","","75","50","","","2","50","training","adjacent","AB","1","2","N.jpg","O.jpg","0","1","0","",""
"","feedback","","html-keyboard-response","329","357681","0.0-1.0-456.0-0.0","0","0","77842","","null","","","null","50","","","","","","","","","","","","","","","",""
"","time_out","","html-keyboard-response","330","359686","0.0-1.0-458.0-0.0","0","0","77842","","null","","","null","50","","","","","","","","","","","","","","","",""
"","ITI","","html-keyboard-response","331","360690","0.0-1.0-459.0","0","0","77842","","null","","","null","50","","","","","","","","","","","","","","","NaN",""
"","S1","","html-keyboard-response","332","360943","0.0-1.0-461.0","0","0","77842","","null","","","null","51","","","","","","","","","","","","","","","",""
"","ISI","","html-keyboard-response","333","362947","0.0-1.0-462.0","0","0","77842","","null","","","null","51","NaN","","","","","","","","","","","","","","",""
"","S2","","html-keyboard-response","334","363201","0.0-1.0-463.0","0","0","77842","","null","","","null","51","","NaN","","","","","","","","","","","","","",""
"","response","","html-keyboard-response","335","363551","0.0-1.0-464.0","0","0","77842","","347","","","68","51","","","2","51","training","adjacent","EF","5","6","Q.jpg","M.jpg","1","1","1","",""
"","feedback","","html-keyboard-response","336","364555","0.0-1.0-465.0-0.0","0","0","77842","","null","","","null","51","","","","","","","","","","","","","","","",""
"","ITI","","html-keyboard-response","337","365559","0.0-1.0-468.0","0","0","77842","","null","","","null","51","","","","","","","","","","","","","","","NaN",""
"","S1","","html-keyboard-response","338","365812","0.0-1.0-470.0","0","0","77842","","null","","","null","52","","","","","","","","","","","","","","","",""
"","ISI","","html-keyboard-response","339","367817","0.0-1.0-471.0","0","0","77842","","null","","","null","52","NaN","","","","","","","","","","","","","","",""
"","S2","","html-keyboard-response","340","368071","0.0-1.0-472.0","0","0","77842","","null","","","null","52","","NaN","","","","","","","","","","","","","",""
"","response","","html-keyboard-response","341","368591","0.0-1.0-473.0","0","0","77842","","518","","","68","52","","","2","52","training","adjacent","EF","5","6","Q.jpg","M.jpg","1","1","1","",""
"","feedback","","html-keyboard-response","342","369595","0.0-1.0-474.0-0.0","0","0","77842","","null","","","null","52","","","","","","","","","","","","","","","",""
"","ITI","","html-keyboard-response","343","370600","0.0-1.0-477.0","0","0","77842","","null","","","null","52","","","","","","","","","","","","","","","NaN",""
"","S1","","html-keyboard-response","344","370853","0.0-1.0-479.0","0","0","77842","","null","","","null","53","","","","","","","","","","","","","","","",""
"","ISI","","html-keyboard-response","345","372856","0.0-1.0-480.0","0","0","77842","","null","","","null","53","NaN","","","","","","","","","","","","","","",""
"","S2","","html-keyboard-response","346","373110","0.0-1.0-481.0","0","0","77842","","null","","","null","53","","NaN","","","","","","","","","","","","","",""
"","response","","html-keyboard-response","347","373802","0.0-1.0-482.0","0","0","77842","","689","","","75","53","","","2","53","training","adjacent","FE","6","5","M.jpg","Q.jpg","0","0","1","",""
"","feedback","","html-keyboard-response","348","374806","0.0-1.0-483.0-0.0","0","0","77842","","null","","","null","53","","","","","","","","","","","","","","","",""
"","ITI","","html-keyboard-response","349","375810","0.0-1.0-486.0","0","0","77842","","null","","","null","53","","","","","","","","","","","","","","","NaN",""
"","S1","","html-keyboard-response","350","376064","0.0-1.0-488.0","0","0","77842","","null","","","null","54","","","","","","","","","","","","","","","",""
"","ISI","","html-keyboard-response","351","378067","0.0-1.0-489.0","0","0","77842","","null","","","null","54","NaN","","","","","","","","","","","","","","",""
"","S2","","html-keyboard-response","352","378321","0.0-1.0-490.0","0","0","77842","","null","","","null","54","","NaN","","","","","","","","","","","","","",""
"","response","","html-keyboard-response","353","379665","0.0-1.0-491.0","0","0","77842","","1341","","","75","54","","","2","54","training","adjacent","AB","1","2","N.jpg","O.jpg","0","1","0","",""
"","feedback","","html-keyboard-response","354","380669","0.0-1.0-492.0-0.0","0","0","77842","","null","","","null","54","","","","","","","","","","","","","","","",""
"","time_out","","html-keyboard-response","355","382674","0.0-1.0-494.0-0.0","0","0","77842","","null","","","null","54","","","","","","","","","","","","","","","",""
"","ITI","","html-keyboard-response","356","383677","0.0-1.0-495.0","0","0","77842","","null","","","null","54","","","","","","","","","","","","","","","NaN",""
"","S1","","html-keyboard-response","357","383931","0.0-1.0-497.0","0","0","77842","","null","","","null","55","","","","","","","","","","","","","","","",""
"","ISI","","html-keyboard-response","358","385935","0.0-1.0-498.0","0","0","77842","","null","","","null","55","NaN","","","","","","","","","","","","","","",""
"","S2","","html-keyboard-response","359","386190","0.0-1.0-499.0","0","0","77842","","null","","","null","55","","NaN","","","","","","","","","","","","","",""
"","response","","html-keyboard-response","360","386533","0.0-1.0-500.0","0","0","77842","","339","","","68","55","","","2","55","training","adjacent","DE","4","5","P.jpg","Q.jpg","1","1","1","",""
"","feedback","","html-keyboard-response","361","387537","0.0-1.0-501.0-0.0","0","0","77842","","null","","","null","55","","","","","","","","","","","","","","","",""
"","ITI","","html-keyboard-response","362","388541","0.0-1.0-504.0","0","0","77842","","null","","","null","55","","","","","","","","","","","","","","","NaN",""
"","S1","","html-keyboard-response","363","388794","0.0-1.0-506.0","0","0","77842","","null","","","null","56","","","","","","","","","","","","","","","",""
"","ISI","","html-keyboard-response","364","390797","0.0-1.0-507.0","0","0","77842","","null","","","null","56","NaN","","","","","","","","","","","","","","",""
"","S2","","html-keyboard-response","365","391051","0.0-1.0-508.0","0","0","77842","","null","","","null","56","","NaN","","","","","","","","","","","","","",""
"","response","","html-keyboard-response","366","391317","0.0-1.0-509.0","0","0","77842","","263","","","75","56","","","2","56","training","adjacent","GF","7","6","L.jpg","M.jpg","0","0","1","",""
"","feedback","","html-keyboard-response","367","392321","0.0-1.0-510.0-0.0","0","0","77842","","null","","","null","56","","","","","","","","","","","","","","","",""
"","ITI","","html-keyboard-response","368","393324","0.0-1.0-513.0","0","0","77842","","null","","","null","56","","","","","","","","","","","","","","","NaN",""
"","S1","","html-keyboard-response","369","393578","0.0-1.0-515.0","0","0","77842","","null","","","null","57","","","","","","","","","","","","","","","",""
"","ISI","","html-keyboard-response","370","395582","0.0-1.0-516.0","0","0","77842","","null","","","null","57","NaN","","","","","","","","","","","","","","",""
"","S2","","html-keyboard-response","371","395836","0.0-1.0-517.0","0","0","77842","","null","","","null","57","","NaN","","","","","","","","","","","","","",""
"","response","","html-keyboard-response","372","396207","0.0-1.0-518.0","0","0","77842","","369","","","75","57","","","2","57","training","adjacent","CB","3","2","R.jpg","O.jpg","0","0","1","",""
"","feedback","","html-keyboard-response","373","397212","0.0-1.0-519.0-0.0","0","0","77842","","null","","","null","57","","","","","","","","","","","","","","","",""
"","ITI","","html-keyboard-response","374","398215","0.0-1.0-522.0","0","0","77842","","null","","","null","57","","","","","","","","","","","","","","","NaN",""
"","S1","","html-keyboard-response","375","398468","0.0-1.0-524.0","0","0","77842","","null","","","null","58","","","","","","","","","","","","","","","",""
"","ISI","","html-keyboard-response","376","400472","0.0-1.0-525.0","0","0","77842","","null","","","null","58","NaN","","","","","","","","","","","","","","",""
"","S2","","html-keyboard-response","377","400726","0.0-1.0-526.0","0","0","77842","","null","","","null","58","","NaN","","","","","","","","","","","","","",""
"","response","","html-keyboard-response","378","401297","0.0-1.0-527.0","0","0","77842","","569","","","75","58","","","2","58","training","adjacent","FE","6","5","M.jpg","Q.jpg","0","0","1","",""
"","feedback","","html-keyboard-response","379","402301","0.0-1.0-528.0-0.0","0","0","77842","","null","","","null","58","","","","","","","","","","","","","","","",""
"","ITI","","html-keyboard-response","380","403304","0.0-1.0-531.0","0","0","77842","","null","","","null","58","","","","","","","","","","","","","","","NaN",""
"","S1","","html-keyboard-response","381","403558","0.0-1.0-533.0","0","0","77842","","null","","","null","59","","","","","","","","","","","","","","","",""
"","ISI","","html-keyboard-response","382","405561","0.0-1.0-534.0","0","0","77842","","null","","","null","59","NaN","","","","","","","","","","","","","","",""
"","S2","","html-keyboard-response","383","405815","0.0-1.0-535.0","0","0","77842","","null","","","null","59","","NaN","","","","","","","","","","","","","",""
"","response","","html-keyboard-response","384","406479","0.0-1.0-536.0","0","0","77842","","661","","","75","59","","","2","59","training","adjacent","ED","5","4","Q.jpg","P.jpg","0","0","1","",""
"","feedback","","html-keyboard-response","385","407484","0.0-1.0-537.0-0.0","0","0","77842","","null","","","null","59","","","","","","","","","","","","","","","",""
"","ITI","","html-keyboard-response","386","408488","0.0-1.0-540.0","0","0","77842","","null","","","null","59","","","","","","","","","","","","","","","NaN",""
"","S1","","html-keyboard-response","387","408741","0.0-1.0-542.0","0","0","77842","","null","","","null","60","","","","","","","","","","","","","","","",""
"","ISI","","html-keyboard-response","388","410745","0.0-1.0-543.0","0","0","77842","","null","","","null","60","NaN","","","","","","","","","","","","","","",""
"","S2","","html-keyboard-response","389","410998","0.0-1.0-544.0","0","0","77842","","null","","","null","60","","NaN","","","","","","","","","","","","","",""
"","response","","html-keyboard-response","390","411523","0.0-1.0-545.0","0","0","77842","","522","","","75","60","","","2","60","training","adjacent","DE","4","5","P.jpg","Q.jpg","0","1","0","",""
"","feedback","","html-keyboard-response","391","412527","0.0-1.0-546.0-0.0","0","0","77842","","null","","","null","60","","","","","","","","","","","","","","","",""
"","time_out","","html-keyboard-response","392","414530","0.0-1.0-548.0-0.0","0","0","77842","","null","","","null","60","","","","","","","","","","","","","","","",""
"","ITI","","html-keyboard-response","393","415534","0.0-1.0-549.0","0","0","77842","","null","","","null","60","","","","","","","","","","","","","","","NaN",""
"","S1","","html-keyboard-response","394","415788","0.0-1.0-551.0","0","0","77842","","null","","","null","61","","","","","","","","","","","","","","","",""
"","ISI","","html-keyboard-response","395","417792","0.0-1.0-552.0","0","0","77842","","null","","","null","61","NaN","","","","","","","","","","","","","","",""
"","S2","","html-keyboard-response","396","418046","0.0-1.0-553.0","0","0","77842","","null","","","null","61","","NaN","","","","","","","","","","","","","",""
"","response","","html-keyboard-response","397","418581","0.0-1.0-554.0","0","0","77842","","532","","","68","61","","","2","61","training","adjacent","DC","4","3","P.jpg","R.jpg","1","0","0","",""
"","feedback","","html-keyboard-response","398","419586","0.0-1.0-555.0-0.0","0","0","77842","","null","","","null","61","","","","","","","","","","","","","","","",""
"","time_out","","html-keyboard-response","399","421590","0.0-1.0-557.0-0.0","0","0","77842","","null","","","null","61","","","","","","","","","","","","","","","",""
"","ITI","","html-keyboard-response","400","422593","0.0-1.0-558.0","0","0","77842","","null","","","null","61","","","","","","","","","","","","","","","NaN",""
"","S1","","html-keyboard-response","401","422847","0.0-1.0-560.0","0","0","77842","","null","","","null","62","","","","","","","","","","","","","","","",""
"","ISI","","html-keyboard-response","402","424850","0.0-1.0-561.0","0","0","77842","","null","","","null","62","NaN","","","","","","","","","","","","","","",""
"","S2","","html-keyboard-response","403","425105","0.0-1.0-562.0","0","0","77842","","null","","","null","62","","NaN","","","","","","","","","","","","","",""
"","response","","html-keyboard-response","404","425478","0.0-1.0-563.0","0","0","77842","","370","","","68","62","","","2","62","training","adjacent","BC","2","3","O.jpg","R.jpg","1","1","1","",""
"","feedback","","html-keyboard-response","405","426482","0.0-1.0-564.0-0.0","0","0","77842","","null","","","null","62","","","","","","","","","","","","","","","",""
"","ITI","","html-keyboard-response","406","427486","0.0-1.0-567.0","0","0","77842","","null","","","null","62","","","","","","","","","","","","","","","NaN",""
"","S1","","html-keyboard-response","407","427740","0.0-1.0-569.0","0","0","77842","","null","","","null","63","","","","","","","","","","","","","","","",""
"","ISI","","html-keyboard-response","408","429744","0.0-1.0-570.0","0","0","77842","","null","","","null","63","NaN","","","","","","","","","","","","","","",""
"","S2","","html-keyboard-response","409","429998","0.0-1.0-571.0","0","0","77842","","null","","","null","63","","NaN","","","","","","","","","","","","","",""
"","response","","html-keyboard-response","410","430325","0.0-1.0-572.0","0","0","77842","","325","","","75","63","","","2","63","training","adjacent","CB","3","2","R.jpg","O.jpg","0","0","1","",""
"","feedback","","html-keyboard-response","411","431329","0.0-1.0-573.0-0.0","0","0","77842","","null","","","null","63","","","","","","","","","","","","","","","",""
"","ITI","","html-keyboard-response","412","432333","0.0-1.0-576.0","0","0","77842","","null","","","null","63","","","","","","","","","","","","","","","NaN",""
"","S1","","html-keyboard-response","413","432587","0.0-1.0-578.0","0","0","77842","","null","","","null","64","","","","","","","","","","","","","","","",""
"","ISI","","html-keyboard-response","414","434591","0.0-1.0-579.0","0","0","77842","","null","","","null","64","NaN","","","","","","","","","","","","","","",""
"","S2","","html-keyboard-response","415","434845","0.0-1.0-580.0","0","0","77842","","null","","","null","64","","NaN","","","","","","","","","","","","","",""
"","response","","html-keyboard-response","416","435277","0.0-1.0-581.0","0","0","77842","","429","","","75","64","","","2","64","training","adjacent","BC","2","3","O.jpg","R.jpg","0","1","0","",""
"","feedback","","html-keyboard-response","417","436281","0.0-1.0-582.0-0.0","0","0","77842","","null","","","null","64","","","","","","","","","","","","","","","",""
"","time_out","","html-keyboard-response","418","438285","0.0-1.0-584.0-0.0","0","0","77842","","null","","","null","64","","","","","","","","","","","","","","","",""
"","ITI","","html-keyboard-response","419","439289","0.0-1.0-585.0","0","0","77842","","null","","","null","64","","","","","","","","","","","","","","","NaN",""
"","S1","","html-keyboard-response","420","439543","0.0-1.0-587.0","0","0","77842","","null","","","null","65","","","","","","","","","","","","","","","",""
"","ISI","","html-keyboard-response","421","441547","0.0-1.0-588.0","0","0","77842","","null","","","null","65","NaN","","","","","","","","","","","","","","",""
"","S2","","html-keyboard-response","422","441801","0.0-1.0-589.0","0","0","77842","","null","","","null","65","","NaN","","","","","","","","","","","","","",""
"","response","","html-keyboard-response","423","442116","0.0-1.0-590.0","0","0","77842","","313","","","75","65","","","2","65","training","adjacent","FE","6","5","M.jpg","Q.jpg","0","0","1","",""
"","feedback","","html-keyboard-response","424","443120","0.0-1.0-591.0-0.0","0","0","77842","","null","","","null","65","","","","","","","","","","","","","","","",""
"","ITI","","html-keyboard-response","425","444124","0.0-1.0-594.0","0","0","77842","","null","","","null","65","","","","","","","","","","","","","","","NaN",""
"","S1","","html-keyboard-response","426","444378","0.0-1.0-596.0","0","0","77842","","null","","","null","66","","","","","","","","","","","","","","","",""
"","ISI","","html-keyboard-response","427","446382","0.0-1.0-597.0","0","0","77842","","null","","","null","66","NaN","","","","","","","","","","","","","","",""
"","S2","","html-keyboard-response","428","446637","0.0-1.0-598.0","0","0","77842","","null","","","null","66","","NaN","","","","","","","","","","","","","",""
"","response","","html-keyboard-response","429","447148","0.0-1.0-599.0","0","0","77842","","509","","","68","66","","","2","66","training","adjacent","AB","1","2","N.jpg","O.jpg","1","1","1","",""
"","feedback","","html-keyboard-response","430","448152","0.0-1.0-600.0-0.0","0","0","77842","","null","","","null","66","","","","","","","","","","","","","","","",""
"","ITI","","html-keyboard-response","431","449157","0.0-1.0-603.0","0","0","77842","","null","","","null","66","","","","","","","","","","","","","","","NaN",""
"","S1","","html-keyboard-response","432","449411","0.0-1.0-605.0","0","0","77842","","null","","","null","67","","","","","","","","","","","","","","","",""
"","ISI","","html-keyboard-response","433","451414","0.0-1.0-606.0","0","0","77842","","null","","","null","67","NaN","","","","","","","","","","","","","","",""
"","S2","","html-keyboard-response","434","451668","0.0-1.0-607.0","0","0","77842","","null","","","null","67","","NaN","","","","","","","","","","","","","",""
"","response","","html-keyboard-response","435","451851","0.0-1.0-608.0","0","0","77842","","181","","","75","67","","","2","67","training","adjacent","ED","5","4","Q.jpg","P.jpg","0","0","1","",""
"","feedback","","html-keyboard-response","436","452855","0.0-1.0-609.0-0.0","0","0","77842","","null","","","null","67","","","","","","","","","","","","","","","",""
"","ITI","","html-keyboard-response","437","453858","0.0-1.0-612.0","0","0","77842","","null","","","null","67","","","","","","","","","","","","","","","NaN",""
"","S1","","html-keyboard-response","438","454113","0.0-1.0-614.0","0","0","77842","","null","","","null","68","","","","","","","","","","","","","","","",""
"","ISI","","html-keyboard-response","439","456116","0.0-1.0-615.0","0","0","77842","","null","","","null","68","NaN","","","","","","","","","","","","","","",""
"","S2","","html-keyboard-response","440","456370","0.0-1.0-616.0","0","0","77842","","null","","","null","68","","NaN","","","","","","","","","","","","","",""
"","response","","html-keyboard-response","441","456794","0.0-1.0-617.0","0","0","77842","","421","","","75","68","","","2","68","training","adjacent","FG","6","7","M.jpg","L.jpg","0","1","0","",""
"","feedback","","html-keyboard-response","442","457798","0.0-1.0-618.0-0.0","0","0","77842","","null","","","null","68","","","","","","","","","","","","","","","",""
"","time_out","","html-keyboard-response","443","459802","0.0-1.0-620.0-0.0","0","0","77842","","null","","","null","68","","","","","","","","","","","","","","","",""
"","ITI","","html-keyboard-response","444","460806","0.0-1.0-621.0","0","0","77842","","null","","","null","68","","","","","","","","","","","","","","","NaN",""
"","S1","","html-keyboard-response","445","461060","0.0-1.0-623.0","0","0","77842","","null","","","null","69","","","","","","","","","","","","","","","",""
"","ISI","","html-keyboard-response","446","463064","0.0-1.0-624.0","0","0","77842","","null","","","null","69","NaN","","","","","","","","","","","","","","",""
"","S2","","html-keyboard-response","447","463317","0.0-1.0-625.0","0","0","77842","","null","","","null","69","","NaN","","","","","","","","","","","","","",""
"","response","","html-keyboard-response","448","464128","0.0-1.0-626.0","0","0","77842","","808","","","75","69","","","2","69","training","adjacent","GF","7","6","L.jpg","M.jpg","0","0","1","",""
"","feedback","","html-keyboard-response","449","465132","0.0-1.0-627.0-0.0","0","0","77842","","null","","","null","69","","","","","","","","","","","","","","","",""
"","ITI","","html-keyboard-response","450","466136","0.0-1.0-630.0","0","0","77842","","null","","","null","69","","","","","","","","","","","","","","","NaN",""
"","S1","","html-keyboard-response","451","466390","0.0-1.0-632.0","0","0","77842","","null","","","null","70","","","","","","","","","","","","","","","",""
"","ISI","","html-keyboard-response","452","468394","0.0-1.0-633.0","0","0","77842","","null","","","null","70","NaN","","","","","","","","","","","","","","",""
"","S2","","html-keyboard-response","453","468648","0.0-1.0-634.0","0","0","77842","","null","","","null","70","","NaN","","","","","","","","","","","","","",""
"","response","","html-keyboard-response","454","468846","0.0-1.0-635.0","0","0","77842","","195","","","75","70","","","2","70","training","adjacent","BA","2","1","O.jpg","N.jpg","0","0","1","",""
"","feedback","","html-keyboard-response","455","469851","0.0-1.0-636.0-0.0","0","0","77842","","null","","","null","70","","","","","","","","","","","","","","","",""
"","ITI","","html-keyboard-response","456","470855","0.0-1.0-639.0","0","0","77842","","null","","","null","70","","","","","","","","","","","","","","","NaN",""
"","S1","","html-keyboard-response","457","471109","0.0-1.0-641.0","0","0","77842","","null","","","null","71","","","","","","","","","","","","","","","",""
"","ISI","","html-keyboard-response","458","473113","0.0-1.0-642.0","0","0","77842","","274","","","50","71","2","","","","","","","","","","","","","","",""
"","S2","","html-keyboard-response","459","473367","0.0-1.0-643.0","0","0","77842","","null","","","null","71","","NaN","","","","","","","","","","","","","",""
"","response","","html-keyboard-response","460","473700","0.0-1.0-644.0","0","0","77842","","330","","","75","71","","","2","71","training","adjacent","CB","3","2","R.jpg","O.jpg","0","0","1","",""
"","feedback","","html-keyboard-response","461","474705","0.0-1.0-645.0-0.0","0","0","77842","","null","","","null","71","","","","","","","","","","","","","","","",""
"","ITI","","html-keyboard-response","462","475708","0.0-1.0-648.0","0","0","77842","","null","","","null","71","","","","","","","","","","","","","","","NaN",""
"","S1","","html-keyboard-response","463","475961","0.0-1.0-650.0","0","0","77842","","null","","","null","72","","","","","","","","","","","","","","","",""
"","ISI","","html-keyboard-response","464","477965","0.0-1.0-651.0","0","0","77842","","null","","","null","72","NaN","","","","","","","","","","","","","","",""
"","S2","","html-keyboard-response","465","478220","0.0-1.0-652.0","0","0","77842","","null","","","null","72","","NaN","","","","","","","","","","","","","",""
"","response","","html-keyboard-response","466","478738","0.0-1.0-653.0","0","0","77842","","515","","","75","72","","","2","72","training","adjacent","CD","3","4","R.jpg","P.jpg","0","1","0","",""
"","feedback","","html-keyboard-response","467","479742","0.0-1.0-654.0-0.0","0","0","77842","","null","","","null","72","","","","","","","","","","","","","","","",""
"","time_out","","html-keyboard-response","468","481747","0.0-1.0-656.0-0.0","0","0","77842","","null","","","null","72","","","","","","","","","","","","","","","",""
"","ITI","","html-keyboard-response","469","482751","0.0-1.0-657.0","0","0","77842","","null","","","null","72","","","","","","","","","","","","","","","NaN",""
"","S1","","html-keyboard-response","470","483005","0.0-1.0-659.0","0","0","77842","","null","","","null","73","","","","","","","","","","","","","","","",""
"","ISI","","html-keyboard-response","471","485008","0.0-1.0-660.0","0","0","77842","","null","","","null","73","NaN","","","","","","","","","","","","","","",""
"","S2","","html-keyboard-response","472","485262","0.0-1.0-661.0","0","0","77842","","null","","","null","73","","NaN","","","","","","","","","","","","","",""
"","response","","html-keyboard-response","473","485848","0.0-1.0-662.0","0","0","77842","","583","","","75","73","","","2","73","training","adjacent","ED","5","4","Q.jpg","P.jpg","0","0","1","",""
"","feedback","","html-keyboard-response","474","486852","0.0-1.0-663.0-0.0","0","0","77842","","null","","","null","73","","","","","","","","","","","","","","","",""
"","ITI","","html-keyboard-response","475","487856","0.0-1.0-666.0","0","0","77842","","null","","","null","73","","","","","","","","","","","","","","","NaN",""
"","S1","","html-keyboard-response","476","488110","0.0-1.0-668.0","0","0","77842","","null","","","null","74","","","","","","","","","","","","","","","",""
"","ISI","","html-keyboard-response","477","490114","0.0-1.0-669.0","0","0","77842","","null","","","null","74","NaN","","","","","","","","","","","","","","",""
"","S2","","html-keyboard-response","478","490368","0.0-1.0-670.0","0","0","77842","","null","","","null","74","","NaN","","","","","","","","","","","","","",""
"","response","","html-keyboard-response","479","490693","0.0-1.0-671.0","0","0","77842","","322","","","75","74","","","2","74","training","adjacent","GF","7","6","L.jpg","M.jpg","0","0","1","",""
"","feedback","","html-keyboard-response","480","491698","0.0-1.0-672.0-0.0","0","0","77842","","null","","","null","74","","","","","","","","","","","","","","","",""
"","ITI","","html-keyboard-response","481","492702","0.0-1.0-675.0","0","0","77842","","null","","","null","74","","","","","","","","","","","","","","","NaN",""
"","S1","","html-keyboard-response","482","492956","0.0-1.0-677.0","0","0","77842","","null","","","null","75","","","","","","","","","","","","","","","",""
"","ISI","","html-keyboard-response","483","494960","0.0-1.0-678.0","0","0","77842","","654","","","50","75","2","","","","","","","","","","","","","","",""
"","S2","","html-keyboard-response","484","495214","0.0-1.0-679.0","0","0","77842","","null","","","null","75","","NaN","","","","","","","","","","","","","",""
"","response","","html-keyboard-response","485","495397","0.0-1.0-680.0","0","0","77842","","180","","","75","75","","","2","75","training","adjacent","BA","2","1","O.jpg","N.jpg","0","0","1","",""
"","feedback","","html-keyboard-response","486","496401","0.0-1.0-681.0-0.0","0","0","77842","","null","","","null","75","","","","","","","","","","","","","","","",""
"","ITI","","html-keyboard-response","487","497406","0.0-1.0-684.0","0","0","77842","","504","","","50","75","","","","","","","","","","","","","","","2",""
"","S1","","html-keyboard-response","488","497659","0.0-1.0-686.0","0","0","77842","","null","","","null","76","","","","","","","","","","","","","","","",""
"","ISI","","html-keyboard-response","489","499663","0.0-1.0-687.0","0","0","77842","","727","","","50","76","2","","","","","","","","","","","","","","",""
"","S2","","html-keyboard-response","490","499917","0.0-1.0-688.0","0","0","77842","","null","","","null","76","","NaN","","","","","","","","","","","","","",""
"","response","","html-keyboard-response","491","500432","0.0-1.0-689.0","0","0","77842","","512","","","75","76","","","2","76","training","adjacent","DE","4","5","P.jpg","Q.jpg","0","1","0","",""
"","feedback","","html-keyboard-response","492","501436","0.0-1.0-690.0-0.0","0","0","77842","","null","","","null","76","","","","","","","","","","","","","","","",""
"","time_out","","html-keyboard-response","493","503440","0.0-1.0-692.0-0.0","0","0","77842","","null","","","null","76","","","","","","","","","","","","","","","",""
"","ITI","","html-keyboard-response","494","504443","0.0-1.0-693.0","0","0","77842","","765","","","50","76","","","","","","","","","","","","","","","2",""
"","S1","","html-keyboard-response","495","504698","0.0-1.0-695.0","0","0","77842","","null","","","null","77","","","","","","","","","","","","","","","",""
"","ISI","","html-keyboard-response","496","506701","0.0-1.0-696.0","0","0","77842","","626","","","50","77","2","","","","","","","","","","","","","","",""
"","S2","","html-keyboard-response","497","506955","0.0-1.0-697.0","0","0","77842","","null","","","null","77","","NaN","","","","","","","","","","","","","",""
"","response","","html-keyboard-response","498","507461","0.0-1.0-698.0","0","0","77842","","503","","","68","77","","","2","77","training","adjacent","FG","6","7","M.jpg","L.jpg","1","1","1","",""
"","feedback","","html-keyboard-response","499","508466","0.0-1.0-699.0-0.0","0","0","77842","","null","","","null","77","","","","","","","","","","","","","","","",""
"","ITI","","html-keyboard-response","500","509470","0.0-1.0-702.0","0","0","77842","","null","","","null","77","","","","","","","","","","","","","","","NaN",""
"","S1","","html-keyboard-response","501","509724","0.0-1.0-704.0","0","0","77842","","null","","","null","78","","","","","","","","","","","","","","","",""
"","ISI","","html-keyboard-response","502","511728","0.0-1.0-705.0","0","0","77842","","null","","","null","78","NaN","","","","","","","","","","","","","","",""
"","S2","","html-keyboard-response","503","511982","0.0-1.0-706.0","0","0","77842","","null","","","null","78","","NaN","","","","","","","","","","","","","",""
"","response","","html-keyboard-response","504","512466","0.0-1.0-707.0","0","0","77842","","482","","","75","78","","","2","78","training","adjacent","CB","3","2","R.jpg","O.jpg","0","0","1","",""
"","feedback","","html-keyboard-response","505","513469","0.0-1.0-708.0-0.0","0","0","77842","","null","","","null","78","","","","","","","","","","","","","","","",""
"","ITI","","html-keyboard-response","506","514473","0.0-1.0-711.0","0","0","77842","","null","","","null","78","","","","","","","","","","","","","","","NaN",""
"","S1","","html-keyboard-response","507","514727","0.0-1.0-713.0","0","0","77842","","null","","","null","79","","","","","","","","","","","","","","","",""
"","ISI","","html-keyboard-response","508","516730","0.0-1.0-714.0","0","0","77842","","null","","","null","79","NaN","","","","","","","","","","","","","","",""
"","S2","","html-keyboard-response","509","516984","0.0-1.0-715.0","0","0","77842","","null","","","null","79","","NaN","","","","","","","","","","","","","",""
"","response","","html-keyboard-response","510","517565","0.0-1.0-716.0","0","0","77842","","579","","","68","79","","","2","79","training","adjacent","EF","5","6","Q.jpg","M.jpg","1","1","1","",""
"","feedback","","html-keyboard-response","511","518569","0.0-1.0-717.0-0.0","0","0","77842","","null","","","null","79","","","","","","","","","","","","","","","",""
"","ITI","","html-keyboard-response","512","519573","0.0-1.0-720.0","0","0","77842","","null","","","null","79","","","","","","","","","","","","","","","NaN",""
"","S1","","html-keyboard-response","513","519827","0.0-1.0-722.0","0","0","77842","","null","","","null","80","","","","","","","","","","","","","","","",""
"","ISI","","html-keyboard-response","514","521831","0.0-1.0-723.0","0","0","77842","","null","","","null","80","NaN","","","","","","","","","","","","","","",""
"","S2","","html-keyboard-response","515","522085","0.0-1.0-724.0","0","0","77842","","null","","","null","80","","NaN","","","","","","","","","","","","","",""
"","response","","html-keyboard-response","516","522689","0.0-1.0-725.0","0","0","77842","","601","","","75","80","","","2","80","training","adjacent","DC","4","3","P.jpg","R.jpg","0","0","1","",""
"","feedback","","html-keyboard-response","517","523694","0.0-1.0-726.0-0.0","0","0","77842","","null","","","null","80","","","","","","","","","","","","","","","",""
"","ITI","","html-keyboard-response","518","524698","0.0-1.0-729.0","0","0","77842","","null","","","null","80","","","","","","","","","","","","","","","NaN",""
"","S1","","html-keyboard-response","519","524951","0.0-1.0-731.0","0","0","77842","","null","","","null","81","","","","","","","","","","","","","","","",""
"","ISI","","html-keyboard-response","520","526954","0.0-1.0-732.0","0","0","77842","","null","","","null","81","NaN","","","","","","","","","","","","","","",""
"","S2","","html-keyboard-response","521","527207","0.0-1.0-733.0","0","0","77842","","null","","","null","81","","NaN","","","","","","","","","","","","","",""
"","response","","html-keyboard-response","522","527738","0.0-1.0-734.0","0","0","77842","","528","","","75","81","","","2","81","training","adjacent","BC","2","3","O.jpg","R.jpg","0","1","0","",""
"","feedback","","html-keyboard-response","523","528743","0.0-1.0-735.0-0.0","0","0","77842","","null","","","null","81","","","","","","","","","","","","","","","",""
"","time_out","","html-keyboard-response","524","530746","0.0-1.0-737.0-0.0","0","0","77842","","null","","","null","81","","","","","","","","","","","","","","","",""
"","ITI","","html-keyboard-response","525","531750","0.0-1.0-738.0","0","0","77842","","null","","","null","81","","","","","","","","","","","","","","","NaN",""
"","S1","","html-keyboard-response","526","532004","0.0-1.0-740.0","0","0","77842","","null","","","null","82","","","","","","","","","","","","","","","",""
"","ISI","","html-keyboard-response","527","534008","0.0-1.0-741.0","0","0","77842","","null","","","null","82","NaN","","","","","","","","","","","","","","",""
"","S2","","html-keyboard-response","528","534261","0.0-1.0-742.0","0","0","77842","","null","","","null","82","","NaN","","","","","","","","","","","","","",""
"","response","","html-keyboard-response","529","534795","0.0-1.0-743.0","0","0","77842","","531","","","75","82","","","2","82","training","adjacent","BC","2","3","O.jpg","R.jpg","0","1","0","",""
"","feedback","","html-keyboard-response","530","535800","0.0-1.0-744.0-0.0","0","0","77842","","null","","","null","82","","","","","","","","","","","","","","","",""
"","time_out","","html-keyboard-response","531","537804","0.0-1.0-746.0-0.0","0","0","77842","","null","","","null","82","","","","","","","","","","","","","","","",""
"","ITI","","html-keyboard-response","532","538808","0.0-1.0-747.0","0","0","77842","","null","","","null","82","","","","","","","","","","","","","","","NaN",""
"","S1","","html-keyboard-response","533","539062","0.0-1.0-749.0","0","0","77842","","null","","","null","83","","","","","","","","","","","","","","","",""
"","ISI","","html-keyboard-response","534","541065","0.0-1.0-750.0","0","0","77842","","null","","","null","83","NaN","","","","","","","","","","","","","","",""
"","S2","","html-keyboard-response","535","541319","0.0-1.0-751.0","0","0","77842","","null","","","null","83","","NaN","","","","","","","","","","","","","",""
"","response","","html-keyboard-response","536","541637","0.0-1.0-752.0","0","0","77842","","315","","","75","83","","","2","83","training","adjacent","BA","2","1","O.jpg","N.jpg","0","0","1","",""
"","feedback","","html-keyboard-response","537","542641","0.0-1.0-753.0-0.0","0","0","77842","","null","","","null","83","","","","","","","","","","","","","","","",""
"","ITI","","html-keyboard-response","538","543646","0.0-1.0-756.0","0","0","77842","","null","","","null","83","","","","","","","","","","","","","","","NaN",""
"","S1","","html-keyboard-response","539","543900","0.0-1.0-758.0","0","0","77842","","null","","","null","84","","","","","","","","","","","","","","","",""
"","ISI","","html-keyboard-response","540","545903","0.0-1.0-759.0","0","0","77842","","null","","","null","84","NaN","","","","","","","","","","","","","","",""
"","S2","","html-keyboard-response","541","546156","0.0-1.0-760.0","0","0","77842","","null","","","null","84","","NaN","","","","","","","","","","","","","",""
"","response","","html-keyboard-response","542","546583","0.0-1.0-761.0","0","0","77842","","424","","","68","84","","","2","84","training","adjacent","AB","1","2","N.jpg","O.jpg","1","1","1","",""
"","feedback","","html-keyboard-response","543","547587","0.0-1.0-762.0-0.0","0","0","77842","","null","","","null","84","","","","","","","","","","","","","","","",""
"","ITI","","html-keyboard-response","544","548591","0.0-1.0-765.0","0","0","77842","","null","","","null","84","","","","","","","","","","","","","","","NaN",""
"","S1","","html-keyboard-response","545","548845","0.0-1.0-767.0","0","0","77842","","null","","","null","85","","","","","","","","","","","","","","","",""
"","ISI","","html-keyboard-response","546","550848","0.0-1.0-768.0","0","0","77842","","null","","","null","85","NaN","","","","","","","","","","","","","","",""
"","S2","","html-keyboard-response","547","551102","0.0-1.0-769.0","0","0","77842","","null","","","null","85","","NaN","","","","","","","","","","","","","",""
"","response","","html-keyboard-response","548","551657","0.0-1.0-770.0","0","0","77842","","552","","","75","85","","","2","85","training","adjacent","DC","4","3","P.jpg","R.jpg","0","0","1","",""
"","feedback","","html-keyboard-response","549","552661","0.0-1.0-771.0-0.0","0","0","77842","","null","","","null","85","","","","","","","","","","","","","","","",""
"","ITI","","html-keyboard-response","550","553666","0.0-1.0-774.0","0","0","77842","","null","","","null","85","","","","","","","","","","","","","","","NaN",""
"","S1","","html-keyboard-response","551","553919","0.0-1.0-776.0","0","0","77842","","null","","","null","86","","","","","","","","","","","","","","","",""
"","ISI","","html-keyboard-response","552","555923","0.0-1.0-777.0","0","0","77842","","null","","","null","86","NaN","","","","","","","","","","","","","","",""
"","S2","","html-keyboard-response","553","556177","0.0-1.0-778.0","0","0","77842","","null","","","null","86","","NaN","","","","","","","","","","","","","",""
"","response","","html-keyboard-response","554","556431","0.0-1.0-779.0","0","0","77842","","251","","","75","86","","","2","86","training","adjacent","BA","2","1","O.jpg","N.jpg","0","0","1","",""
"","feedback","","html-keyboard-response","555","557435","0.0-1.0-780.0-0.0","0","0","77842","","null","","","null","86","","","","","","","","","","","","","","","",""
"","ITI","","html-keyboard-response","556","558439","0.0-1.0-783.0","0","0","77842","","null","","","null","86","","","","","","","","","","","","","","","NaN",""
"","S1","","html-keyboard-response","557","558693","0.0-1.0-785.0","0","0","77842","","null","","","null","87","","","","","","","","","","","","","","","",""
"","ISI","","html-keyboard-response","558","560697","0.0-1.0-786.0","0","0","77842","","null","","","null","87","NaN","","","","","","","","","","","","","","",""
"","S2","","html-keyboard-response","559","560950","0.0-1.0-787.0","0","0","77842","","null","","","null","87","","NaN","","","","","","","","","","","","","",""
"","response","","html-keyboard-response","560","561804","0.0-1.0-788.0","0","0","77842","","851","","","68","87","","","2","87","training","adjacent","DC","4","3","P.jpg","R.jpg","1","0","0","",""
"","feedback","","html-keyboard-response","561","562809","0.0-1.0-789.0-0.0","0","0","77842","","null","","","null","87","","","","","","","","","","","","","","","",""
"","time_out","","html-keyboard-response","562","564813","0.0-1.0-791.0-0.0","0","0","77842","","null","","","null","87","","","","","","","","","","","","","","","",""
"","ITI","","html-keyboard-response","563","565817","0.0-1.0-792.0","0","0","77842","","null","","","null","87","","","","","","","","","","","","","","","NaN",""
"","S1","","html-keyboard-response","564","566071","0.0-1.0-794.0","0","0","77842","","null","","","null","88","","","","","","","","","","","","","","","",""
"","ISI","","html-keyboard-response","565","568075","0.0-1.0-795.0","0","0","77842","","null","","","null","88","NaN","","","","","","","","","","","","","","",""
"","S2","","html-keyboard-response","566","568329","0.0-1.0-796.0","0","0","77842","","null","","","null","88","","NaN","","","","","","","","","","","","","",""
"","response","","html-keyboard-response","567","568658","0.0-1.0-797.0","0","0","77842","","326","","","68","88","","","2","88","training","adjacent","EF","5","6","Q.jpg","M.jpg","1","1","1","",""
"","feedback","","html-keyboard-response","568","569663","0.0-1.0-798.0-0.0","0","0","77842","","null","","","null","88","","","","","","","","","","","","","","","",""
"","ITI","","html-keyboard-response","569","570667","0.0-1.0-801.0","0","0","77842","","null","","","null","88","","","","","","","","","","","","","","","NaN",""
"","S1","","html-keyboard-response","570","570921","0.0-1.0-803.0","0","0","77842","","null","","","null","89","","","","","","","","","","","","","","","",""
"","ISI","","html-keyboard-response","571","572924","0.0-1.0-804.0","0","0","77842","","null","","","null","89","NaN","","","","","","","","","","","","","","",""
"","S2","","html-keyboard-response","572","573179","0.0-1.0-805.0","0","0","77842","","null","","","null","89","","NaN","","","","","","","","","","","","","",""
"","response","","html-keyboard-response","573","574147","0.0-1.0-806.0","0","0","77842","","966","","","75","89","","","2","89","training","adjacent","CD","3","4","R.jpg","P.jpg","0","1","0","",""
"","feedback","","html-keyboard-response","574","575151","0.0-1.0-807.0-0.0","0","0","77842","","null","","","null","89","","","","","","","","","","","","","","","",""
"","time_out","","html-keyboard-response","575","577155","0.0-1.0-809.0-0.0","0","0","77842","","null","","","null","89","","","","","","","","","","","","","","","",""
"","ITI","","html-keyboard-response","576","578158","0.0-1.0-810.0","0","0","77842","","null","","","null","89","","","","","","","","","","","","","","","NaN",""
"","S1","","html-keyboard-response","577","578413","0.0-1.0-812.0","0","0","77842","","null","","","null","90","","","","","","","","","","","","","","","",""
"","ISI","","html-keyboard-response","578","580417","0.0-1.0-813.0","0","0","77842","","null","","","null","90","NaN","","","","","","","","","","","","","","",""
"","S2","","html-keyboard-response","579","580671","0.0-1.0-814.0","0","0","77842","","null","","","null","90","","NaN","","","","","","","","","","","","","",""
"","response","","html-keyboard-response","580","581037","0.0-1.0-815.0","0","0","77842","","364","","","75","90","","","2","90","training","adjacent","CD","3","4","R.jpg","P.jpg","0","1","0","",""
"","feedback","","html-keyboard-response","581","582040","0.0-1.0-816.0-0.0","0","0","77842","","null","","","null","90","","","","","","","","","","","","","","","",""
"","time_out","","html-keyboard-response","582","584045","0.0-1.0-818.0-0.0","0","0","77842","","null","","","null","90","","","","","","","","","","","","","","","",""
"","ITI","","html-keyboard-response","583","585048","0.0-1.0-819.0","0","0","77842","","null","","","null","90","","","","","","","","","","","","","","","NaN",""
"","S1","","html-keyboard-response","584","585302","0.0-1.0-821.0","0","0","77842","","null","","","null","91","","","","","","","","","","","","","","","",""
"","ISI","","html-keyboard-response","585","587307","0.0-1.0-822.0","0","0","77842","","null","","","null","91","NaN","","","","","","","","","","","","","","",""
