"success","ttype","start_time","trial_type","trial_index","time_elapsed","internal_node_id","warning","missed_checkup","PID","view_history","rt","responses","repeat_instructions","key_press","index","keypress_isi","keypress_S2","block","trial_num","phase","group_type","pair_type","S1_stim","S2_stim","S1_img","S2_img","S1_chosen","S1_higher","accuracy","keypress_iti","total_bonus_tally"
"true","full_screen","d03072023hr1845","fullscreen","0","1530104","0.0-0.0","0","0","82950","","","","","","","","","","","","","","","","","","","","","",""
"","instructions","","instructions","1","1548804","0.0-1.0-0.0-0.0","0","0","82950","[{""page_index"":0,""viewing_time"":2952},{""page_index"":1,""viewing_time"":7552},{""page_index"":2,""viewing_time"":6920},{""page_index"":3,""viewing_time"":1274}]","18698","","","","","","","","","","","","","","","","","","","",""
"","comprehension_check","","survey-multi-choice","2","1576492","0.0-1.0-0.0-1.0","0","0","82950","","27685","{""Q0"":""True"",""Q1"":""D"",""Q2"":""Only when the screen 'MAKE A CHOICE' is shown"",""Q3"":""Green mark"",""Q4"":""either D or K""}","1","","","","","","","","","","","","","","","","","",""
"","missed_instruction_checkup","","html-keyboard-response","3","1579083","0.0-1.0-0.0-2.0-0.0","0","1","82950","","2589","","","32","","","","","","","","","","","","","","","","",""
"","instructions","","instructions","4","1602908","0.0-1.0-0.1-0.1","0","0","82950","[{""page_index"":0,""viewing_time"":3635},{""page_index"":1,""viewing_time"":17796},{""page_index"":2,""viewing_time"":1624},{""page_index"":3,""viewing_time"":768}]","23824","","","","","","","","","","","","","","","","","","","",""
"","comprehension_check","","survey-multi-choice","5","1617259","0.0-1.0-0.1-1.1","0","0","82950","","14348","{""Q0"":""True"",""Q1"":""D"",""Q2"":""Once the second image appears and while the screen 'MAKE A CHOICE' is shown"",""Q3"":""Green mark"",""Q4"":""either D or K""}","0","","","","","","","","","","","","","","","","","",""
"","start_exp","","html-keyboard-response","6","1619115","0.0-1.0-1.0","0","0","82950","","1855","","","32","","","","","","","","","","","","","","","","",""
"","S1","","html-keyboard-response","7","1619367","0.0-1.0-2.0","0","0","82950","","null","","","null","0","","","","","","","","","","","","","","","",""
"","ISI","","html-keyboard-response","8","1620369","0.0-1.0-3.0","0","0","82950","","null","","","null","0","NaN","","","","","","","","","","","","","","",""
"","S2","","html-keyboard-response","9","1620621","0.0-1.0-4.0","0","0","82950","","null","","","null","0","","NaN","","","","","","","","","","","","","",""
"","response","","html-keyboard-response","10","1621659","0.0-1.0-5.0-0.0","0","0","82950","","1038","","","68","0","","","1","0","training","adjacent","CD","3","4","M.jpg","O.jpg","1","1","1","",""
"","feedback","","html-keyboard-response","11","1622661","0.0-1.0-6.0-0.0","0","0","82950","","null","","","null","0","","","","","","","","","","","","","","","",""
"","ITI","","html-keyboard-response","12","1623663","0.0-1.0-9.0","0","0","82950","","null","","","null","0","","","","","","","","","","","","","","","NaN",""
"","S1","","html-keyboard-response","13","1623915","0.0-1.0-11.0","0","0","82950","","null","","","null","1","","","","","","","","","","","","","","","",""
"","ISI","","html-keyboard-response","14","1624917","0.0-1.0-12.0","0","0","82950","","null","","","null","1","NaN","","","","","","","","","","","","","","",""
"","S2","","html-keyboard-response","15","1625169","0.0-1.0-13.0","0","0","82950","","null","","","null","1","","NaN","","","","","","","","","","","","","",""
"","response","","html-keyboard-response","16","1625747","0.0-1.0-14.0-0.0","0","0","82950","","578","","","68","1","","","1","1","training","adjacent","BA","2","1","L.jpg","N.jpg","1","0","0","",""
"","feedback","","html-keyboard-response","17","1626749","0.0-1.0-15.0-0.0","0","0","82950","","null","","","null","1","","","","","","","","","","","","","","","",""
"","time_out","","html-keyboard-response","18","1628751","0.0-1.0-17.0-0.0","0","0","82950","","null","","","null","1","","","","","","","","","","","","","","","",""
"","ITI","","html-keyboard-response","19","1629752","0.0-1.0-18.0","0","0","82950","","null","","","null","1","","","","","","","","","","","","","","","NaN",""
"","S1","","html-keyboard-response","20","1630004","0.0-1.0-20.0","0","0","82950","","null","","","null","2","","","","","","","","","","","","","","","",""
"","ISI","","html-keyboard-response","21","1631006","0.0-1.0-21.0","0","0","82950","","null","","","null","2","NaN","","","","","","","","","","","","","","",""
"","S2","","html-keyboard-response","22","1631257","0.0-1.0-22.0","0","0","82950","","null","","","null","2","","NaN","","","","","","","","","","","","","",""
"","response","","html-keyboard-response","23","1631619","0.0-1.0-23.0-0.0","0","0","82950","","362","","","75","2","","","1","2","training","adjacent","BC","2","3","L.jpg","M.jpg","0","1","0","",""
"","feedback","","html-keyboard-response","24","1632622","0.0-1.0-24.0-0.0","0","0","82950","","null","","","null","2","","","","","","","","","","","","","","","",""
"","time_out","","html-keyboard-response","25","1634624","0.0-1.0-26.0-0.0","0","0","82950","","null","","","null","2","","","","","","","","","","","","","","","",""
"","ITI","","html-keyboard-response","26","1635626","0.0-1.0-27.0","0","0","82950","","null","","","null","2","","","","","","","","","","","","","","","NaN",""
"","S1","","html-keyboard-response","27","1635877","0.0-1.0-29.0","0","0","82950","","null","","","null","3","","","","","","","","","","","","","","","",""
"","ISI","","html-keyboard-response","28","1636879","0.0-1.0-30.0","0","0","82950","","null","","","null","3","NaN","","","","","","","","","","","","","","",""
"","S2","","html-keyboard-response","29","1637132","0.0-1.0-31.0","0","0","82950","","null","","","null","3","","NaN","","","","","","","","","","","","","",""
"","response","","html-keyboard-response","30","1637444","0.0-1.0-32.0-0.0","0","0","82950","","311","","","68","3","","","1","3","training","adjacent","EF","5","6","R.jpg","Q.jpg","1","1","1","",""
"","feedback","","html-keyboard-response","31","1638445","0.0-1.0-33.0-0.0","0","0","82950","","null","","","null","3","","","","","","","","","","","","","","","",""
"","ITI","","html-keyboard-response","32","1639448","0.0-1.0-36.0","0","0","82950","","null","","","null","3","","","","","","","","","","","","","","","NaN",""
"","S1","","html-keyboard-response","33","1639699","0.0-1.0-38.0","0","0","82950","","null","","","null","4","","","","","","","","","","","","","","","",""
"","ISI","","html-keyboard-response","34","1640700","0.0-1.0-39.0","0","0","82950","","null","","","null","4","NaN","","","","","","","","","","","","","","",""
"","S2","","html-keyboard-response","35","1640953","0.0-1.0-40.0","0","0","82950","","null","","","null","4","","NaN","","","","","","","","","","","","","",""
"","response","","html-keyboard-response","36","1641707","0.0-1.0-41.0-0.0","0","0","82950","","752","","","75","4","","","1","4","training","adjacent","DE","4","5","O.jpg","R.jpg","0","1","0","",""
"","feedback","","html-keyboard-response","37","1642708","0.0-1.0-42.0-0.0","0","0","82950","","null","","","null","4","","","","","","","","","","","","","","","",""
"","time_out","","html-keyboard-response","38","1644710","0.0-1.0-44.0-0.0","0","0","82950","","null","","","null","4","","","","","","","","","","","","","","","",""
"","ITI","","html-keyboard-response","39","1645712","0.0-1.0-45.0","0","0","82950","","null","","","null","4","","","","","","","","","","","","","","","NaN",""
"","S1","","html-keyboard-response","40","1645963","0.0-1.0-47.0","0","0","82950","","null","","","null","5","","","","","","","","","","","","","","","",""
"","ISI","","html-keyboard-response","41","1646966","0.0-1.0-48.0","0","0","82950","","null","","","null","5","NaN","","","","","","","","","","","","","","",""
"","S2","","html-keyboard-response","42","1647218","0.0-1.0-49.0","0","0","82950","","null","","","null","5","","NaN","","","","","","","","","","","","","",""
"","response","","html-keyboard-response","43","1647827","0.0-1.0-50.0-0.0","0","0","82950","","607","","","68","5","","","1","5","training","adjacent","ED","5","4","R.jpg","O.jpg","1","0","0","",""
"","feedback","","html-keyboard-response","44","1648829","0.0-1.0-51.0-0.0","0","0","82950","","null","","","null","5","","","","","","","","","","","","","","","",""
"","time_out","","html-keyboard-response","45","1650830","0.0-1.0-53.0-0.0","0","0","82950","","null","","","null","5","","","","","","","","","","","","","","","",""
"","ITI","","html-keyboard-response","46","1651831","0.0-1.0-54.0","0","0","82950","","null","","","null","5","","","","","","","","","","","","","","","NaN",""
"","S1","","html-keyboard-response","47","1652083","0.0-1.0-56.0","0","0","82950","","null","","","null","6","","","","","","","","","","","","","","","",""
"","ISI","","html-keyboard-response","48","1653085","0.0-1.0-57.0","0","0","82950","","null","","","null","6","NaN","","","","","","","","","","","","","","",""
"","S2","","html-keyboard-response","49","1653337","0.0-1.0-58.0","0","0","82950","","null","","","null","6","","NaN","","","","","","","","","","","","","",""
"","response","","html-keyboard-response","50","1653891","0.0-1.0-59.0-0.0","0","0","82950","","552","","","68","6","","","1","6","training","adjacent","AB","1","2","N.jpg","L.jpg","1","1","1","",""
"","feedback","","html-keyboard-response","51","1654893","0.0-1.0-60.0-0.0","0","0","82950","","null","","","null","6","","","","","","","","","","","","","","","",""
"","ITI","","html-keyboard-response","52","1655894","0.0-1.0-63.0","0","0","82950","","null","","","null","6","","","","","","","","","","","","","","","NaN",""
"","S1","","html-keyboard-response","53","1656146","0.0-1.0-65.0","0","0","82950","","null","","","null","7","","","","","","","","","","","","","","","",""
"","ISI","","html-keyboard-response","54","1657147","0.0-1.0-66.0","0","0","82950","","null","","","null","7","NaN","","","","","","","","","","","","","","",""
"","S2","","html-keyboard-response","55","1657399","0.0-1.0-67.0","0","0","82950","","null","","","null","7","","NaN","","","","","","","","","","","","","",""
"","response","","html-keyboard-response","56","1657779","0.0-1.0-68.0-0.0","0","0","82950","","379","","","68","7","","","1","7","training","adjacent","BA","2","1","L.jpg","N.jpg","1","0","0","",""
"","feedback","","html-keyboard-response","57","1658781","0.0-1.0-69.0-0.0","0","0","82950","","null","","","null","7","","","","","","","","","","","","","","","",""
"","time_out","","html-keyboard-response","58","1660783","0.0-1.0-71.0-0.0","0","0","82950","","null","","","null","7","","","","","","","","","","","","","","","",""
"","ITI","","html-keyboard-response","59","1661784","0.0-1.0-72.0","0","0","82950","","null","","","null","7","","","","","","","","","","","","","","","NaN",""
"","S1","","html-keyboard-response","60","1662037","0.0-1.0-74.0","0","0","82950","","null","","","null","8","","","","","","","","","","","","","","","",""
"","ISI","","html-keyboard-response","61","1663038","0.0-1.0-75.0","0","0","82950","","null","","","null","8","NaN","","","","","","","","","","","","","","",""
"","S2","","html-keyboard-response","62","1663290","0.0-1.0-76.0","0","0","82950","","null","","","null","8","","NaN","","","","","","","","","","","","","",""
"","response","","html-keyboard-response","63","1663947","0.0-1.0-77.0-0.0","0","0","82950","","656","","","68","8","","","1","8","training","adjacent","FE","6","5","Q.jpg","R.jpg","1","0","0","",""
"","feedback","","html-keyboard-response","64","1664948","0.0-1.0-78.0-0.0","0","0","82950","","null","","","null","8","","","","","","","","","","","","","","","",""
"","time_out","","html-keyboard-response","65","1666951","0.0-1.0-80.0-0.0","0","0","82950","","null","","","null","8","","","","","","","","","","","","","","","",""
"","ITI","","html-keyboard-response","66","1667953","0.0-1.0-81.0","0","0","82950","","null","","","null","8","","","","","","","","","","","","","","","NaN",""
"","S1","","html-keyboard-response","67","1668205","0.0-1.0-83.0","0","0","82950","","null","","","null","9","","","","","","","","","","","","","","","",""
"","ISI","","html-keyboard-response","68","1669206","0.0-1.0-84.0","0","0","82950","","null","","","null","9","NaN","","","","","","","","","","","","","","",""
"","S2","","html-keyboard-response","69","1669459","0.0-1.0-85.0","0","0","82950","","null","","","null","9","","NaN","","","","","","","","","","","","","",""
"","response","","html-keyboard-response","70","1669947","0.0-1.0-86.0-0.0","0","0","82950","","487","","","68","9","","","1","9","training","adjacent","BC","2","3","L.jpg","M.jpg","1","1","1","",""
"","feedback","","html-keyboard-response","71","1670949","0.0-1.0-87.0-0.0","0","0","82950","","null","","","null","9","","","","","","","","","","","","","","","",""
"","ITI","","html-keyboard-response","72","1671950","0.0-1.0-90.0","0","0","82950","","null","","","null","9","","","","","","","","","","","","","","","NaN",""
"","S1","","html-keyboard-response","73","1672203","0.0-1.0-92.0","0","0","82950","","null","","","null","10","","","","","","","","","","","","","","","",""
"","ISI","","html-keyboard-response","74","1673205","0.0-1.0-93.0","0","0","82950","","null","","","null","10","NaN","","","","","","","","","","","","","","",""
"","S2","","html-keyboard-response","75","1673457","0.0-1.0-94.0","0","0","82950","","null","","","null","10","","NaN","","","","","","","","","","","","","",""
"","response","","html-keyboard-response","76","1674611","0.0-1.0-95.0-0.0","0","0","82950","","1153","","","75","10","","","1","10","training","adjacent","CB","3","2","M.jpg","L.jpg","0","0","1","",""
"","feedback","","html-keyboard-response","77","1675614","0.0-1.0-96.0-0.0","0","0","82950","","null","","","null","10","","","","","","","","","","","","","","","",""
"","ITI","","html-keyboard-response","78","1676615","0.0-1.0-99.0","0","0","82950","","null","","","null","10","","","","","","","","","","","","","","","NaN",""
"","S1","","html-keyboard-response","79","1676867","0.0-1.0-101.0","0","0","82950","","null","","","null","11","","","","","","","","","","","","","","","",""
"","ISI","","html-keyboard-response","80","1677877","0.0-1.0-102.0","0","0","82950","","null","","","null","11","NaN","","","","","","","","","","","","","","",""
"","S2","","html-keyboard-response","81","1678129","0.0-1.0-103.0","0","0","82950","","null","","","null","11","","NaN","","","","","","","","","","","","","",""
"","response","","html-keyboard-response","82","1678587","0.0-1.0-104.0-0.0","0","0","82950","","457","","","75","11","","","1","11","training","adjacent","CB","3","2","M.jpg","L.jpg","0","0","1","",""
"","feedback","","html-keyboard-response","83","1679588","0.0-1.0-105.0-0.0","0","0","82950","","null","","","null","11","","","","","","","","","","","","","","","",""
"","ITI","","html-keyboard-response","84","1680590","0.0-1.0-108.0","0","0","82950","","null","","","null","11","","","","","","","","","","","","","","","NaN",""
"","S1","","html-keyboard-response","85","1680842","0.0-1.0-110.0","0","0","82950","","null","","","null","12","","","","","","","","","","","","","","","",""
"","ISI","","html-keyboard-response","86","1681844","0.0-1.0-111.0","0","0","82950","","null","","","null","12","NaN","","","","","","","","","","","","","","",""
"","S2","","html-keyboard-response","87","1682105","0.0-1.0-112.0","0","0","82950","","null","","","null","12","","NaN","","","","","","","","","","","","","",""
"","response","","html-keyboard-response","88","1683507","0.0-1.0-113.0-0.0","0","0","82950","","1400","","","68","12","","","1","12","training","adjacent","GF","7","6","P.jpg","Q.jpg","1","0","0","",""
"","feedback","","html-keyboard-response","89","1684508","0.0-1.0-114.0-0.0","0","0","82950","","null","","","null","12","","","","","","","","","","","","","","","",""
"","time_out","","html-keyboard-response","90","1686510","0.0-1.0-116.0-0.0","0","0","82950","","null","","","null","12","","","","","","","","","","","","","","","",""
"","ITI","","html-keyboard-response","91","1687512","0.0-1.0-117.0","0","0","82950","","null","","","null","12","","","","","","","","","","","","","","","NaN",""
"","S1","","html-keyboard-response","92","1687764","0.0-1.0-119.0","0","0","82950","","null","","","null","13","","","","","","","","","","","","","","","",""
"","ISI","","html-keyboard-response","93","1688766","0.0-1.0-120.0","0","0","82950","","null","","","null","13","NaN","","","","","","","","","","","","","","",""
"","S2","","html-keyboard-response","94","1689027","0.0-1.0-121.0","0","0","82950","","null","","","null","13","","NaN","","","","","","","","","","","","","",""
"","response","","html-keyboard-response","95","1689635","0.0-1.0-122.0-0.0","0","0","82950","","606","","","68","13","","","1","13","training","adjacent","FG","6","7","Q.jpg","P.jpg","1","1","1","",""
"","feedback","","html-keyboard-response","96","1690637","0.0-1.0-123.0-0.0","0","0","82950","","null","","","null","13","","","","","","","","","","","","","","","",""
"","ITI","","html-keyboard-response","97","1691640","0.0-1.0-126.0","0","0","82950","","null","","","null","13","","","","","","","","","","","","","","","NaN",""
"","S1","","html-keyboard-response","98","1691891","0.0-1.0-128.0","0","0","82950","","null","","","null","14","","","","","","","","","","","","","","","",""
"","ISI","","html-keyboard-response","99","1692905","0.0-1.0-129.0","0","0","82950","","null","","","null","14","NaN","","","","","","","","","","","","","","",""
"","S2","","html-keyboard-response","100","1693157","0.0-1.0-130.0","0","0","82950","","null","","","null","14","","NaN","","","","","","","","","","","","","",""
"","response","","html-keyboard-response","101","1694691","0.0-1.0-131.0-0.0","0","0","82950","","1532","","","68","14","","","1","14","training","adjacent","GF","7","6","P.jpg","Q.jpg","1","0","0","",""
"","feedback","","html-keyboard-response","102","1695692","0.0-1.0-132.0-0.0","0","0","82950","","null","","","null","14","","","","","","","","","","","","","","","",""
"","time_out","","html-keyboard-response","103","1697694","0.0-1.0-134.0-0.0","0","0","82950","","null","","","null","14","","","","","","","","","","","","","","","",""
"","ITI","","html-keyboard-response","104","1698696","0.0-1.0-135.0","0","0","82950","","null","","","null","14","","","","","","","","","","","","","","","NaN",""
"","S1","","html-keyboard-response","105","1698948","0.0-1.0-137.0","0","0","82950","","null","","","null","15","","","","","","","","","","","","","","","",""
"","ISI","","html-keyboard-response","106","1699948","0.0-1.0-138.0","0","0","82950","","null","","","null","15","NaN","","","","","","","","","","","","","","",""
"","S2","","html-keyboard-response","107","1700200","0.0-1.0-139.0","0","0","82950","","null","","","null","15","","NaN","","","","","","","","","","","","","",""
"","response","","html-keyboard-response","108","1700803","0.0-1.0-140.0-0.0","0","0","82950","","601","","","75","15","","","1","15","training","adjacent","ED","5","4","R.jpg","O.jpg","0","0","1","",""
"","feedback","","html-keyboard-response","109","1701804","0.0-1.0-141.0-0.0","0","0","82950","","null","","","null","15","","","","","","","","","","","","","","","",""
"","ITI","","html-keyboard-response","110","1702805","0.0-1.0-144.0","0","0","82950","","null","","","null","15","","","","","","","","","","","","","","","NaN",""
"","S1","","html-keyboard-response","111","1703057","0.0-1.0-146.0","0","0","82950","","null","","","null","16","","","","","","","","","","","","","","","",""
"","ISI","","html-keyboard-response","112","1704059","0.0-1.0-147.0","0","0","82950","","null","","","null","16","NaN","","","","","","","","","","","","","","",""
"","S2","","html-keyboard-response","113","1704312","0.0-1.0-148.0","0","0","82950","","null","","","null","16","","NaN","","","","","","","","","","","","","",""
"","response","","html-keyboard-response","114","1704627","0.0-1.0-149.0-0.0","0","0","82950","","314","","","75","16","","","1","16","training","adjacent","ED","5","4","R.jpg","O.jpg","0","0","1","",""
"","feedback","","html-keyboard-response","115","1705628","0.0-1.0-150.0-0.0","0","0","82950","","null","","","null","16","","","","","","","","","","","","","","","",""
"","ITI","","html-keyboard-response","116","1706630","0.0-1.0-153.0","0","0","82950","","null","","","null","16","","","","","","","","","","","","","","","NaN",""
"","S1","","html-keyboard-response","117","1706881","0.0-1.0-155.0","0","0","82950","","null","","","null","17","","","","","","","","","","","","","","","",""
"","ISI","","html-keyboard-response","118","1707883","0.0-1.0-156.0","0","0","82950","","null","","","null","17","NaN","","","","","","","","","","","","","","",""
"","S2","","html-keyboard-response","119","1708135","0.0-1.0-157.0","0","0","82950","","null","","","null","17","","NaN","","","","","","","","","","","","","",""
"","response","","html-keyboard-response","120","1708475","0.0-1.0-158.0-0.0","0","0","82950","","339","","","75","17","","","1","17","training","adjacent","FG","6","7","Q.jpg","P.jpg","0","1","0","",""
"","feedback","","html-keyboard-response","121","1709476","0.0-1.0-159.0-0.0","0","0","82950","","null","","","null","17","","","","","","","","","","","","","","","",""
"","time_out","","html-keyboard-response","122","1711478","0.0-1.0-161.0-0.0","0","0","82950","","null","","","null","17","","","","","","","","","","","","","","","",""
"","ITI","","html-keyboard-response","123","1712479","0.0-1.0-162.0","0","0","82950","","null","","","null","17","","","","","","","","","","","","","","","NaN",""
"","S1","","html-keyboard-response","124","1712731","0.0-1.0-164.0","0","0","82950","","null","","","null","18","","","","","","","","","","","","","","","",""
"","ISI","","html-keyboard-response","125","1713732","0.0-1.0-165.0","0","0","82950","","null","","","null","18","NaN","","","","","","","","","","","","","","",""
"","S2","","html-keyboard-response","126","1713984","0.0-1.0-166.0","0","0","82950","","null","","","null","18","","NaN","","","","","","","","","","","","","",""
"","response","","html-keyboard-response","127","1714307","0.0-1.0-167.0-0.0","0","0","82950","","321","","","75","18","","","1","18","training","adjacent","AB","1","2","N.jpg","L.jpg","0","1","0","",""
"","feedback","","html-keyboard-response","128","1715308","0.0-1.0-168.0-0.0","0","0","82950","","null","","","null","18","","","","","","","","","","","","","","","",""
"","time_out","","html-keyboard-response","129","1717310","0.0-1.0-170.0-0.0","0","0","82950","","null","","","null","18","","","","","","","","","","","","","","","",""
"","ITI","","html-keyboard-response","130","1718312","0.0-1.0-171.0","0","0","82950","","null","","","null","18","","","","","","","","","","","","","","","NaN",""
"","S1","","html-keyboard-response","131","1718564","0.0-1.0-173.0","0","0","82950","","null","","","null","19","","","","","","","","","","","","","","","",""
"","ISI","","html-keyboard-response","132","1719566","0.0-1.0-174.0","0","0","82950","","null","","","null","19","NaN","","","","","","","","","","","","","","",""
"","S2","","html-keyboard-response","133","1719818","0.0-1.0-175.0","0","0","82950","","null","","","null","19","","NaN","","","","","","","","","","","","","",""
"","response","","html-keyboard-response","134","1720515","0.0-1.0-176.0-0.0","0","0","82950","","696","","","75","19","","","1","19","training","adjacent","CD","3","4","M.jpg","O.jpg","0","1","0","",""
"","feedback","","html-keyboard-response","135","1721524","0.0-1.0-177.0-0.0","0","0","82950","","null","","","null","19","","","","","","","","","","","","","","","",""
"","time_out","","html-keyboard-response","136","1723526","0.0-1.0-179.0-0.0","0","0","82950","","null","","","null","19","","","","","","","","","","","","","","","",""
"","ITI","","html-keyboard-response","137","1724528","0.0-1.0-180.0","0","0","82950","","null","","","null","19","","","","","","","","","","","","","","","NaN",""
"","S1","","html-keyboard-response","138","1724779","0.0-1.0-182.0","0","0","82950","","null","","","null","20","","","","","","","","","","","","","","","",""
"","ISI","","html-keyboard-response","139","1725781","0.0-1.0-183.0","0","0","82950","","null","","","null","20","NaN","","","","","","","","","","","","","","",""
"","S2","","html-keyboard-response","140","1726033","0.0-1.0-184.0","0","0","82950","","null","","","null","20","","NaN","","","","","","","","","","","","","",""
"","response","","html-keyboard-response","141","1726987","0.0-1.0-185.0-0.0","0","0","82950","","952","","","75","20","","","1","20","training","adjacent","CB","3","2","M.jpg","L.jpg","0","0","1","",""
"","feedback","","html-keyboard-response","142","1727989","0.0-1.0-186.0-0.0","0","0","82950","","null","","","null","20","","","","","","","","","","","","","","","",""
"","ITI","","html-keyboard-response","143","1728991","0.0-1.0-189.0","0","0","82950","","null","","","null","20","","","","","","","","","","","","","","","NaN",""
"","S1","","html-keyboard-response","144","1729243","0.0-1.0-191.0","0","0","82950","","null","","","null","21","","","","","","","","","","","","","","","",""
"","ISI","","html-keyboard-response","145","1730245","0.0-1.0-192.0","0","0","82950","","null","","","null","21","NaN","","","","","","","","","","","","","","",""
"","S2","","html-keyboard-response","146","1730497","0.0-1.0-193.0","0","0","82950","","null","","","null","21","","NaN","","","","","","","","","","","","","",""
"","response","","html-keyboard-response","147","1731363","0.0-1.0-194.0-0.0","0","0","82950","","865","","","75","21","","","1","21","training","adjacent","FE","6","5","Q.jpg","R.jpg","0","0","1","",""
"","feedback","","html-keyboard-response","148","1732364","0.0-1.0-195.0-0.0","0","0","82950","","null","","","null","21","","","","","","","","","","","","","","","",""
"","ITI","","html-keyboard-response","149","1733366","0.0-1.0-198.0","0","0","82950","","null","","","null","21","","","","","","","","","","","","","","","NaN",""
"","S1","","html-keyboard-response","150","1733617","0.0-1.0-200.0","0","0","82950","","null","","","null","22","","","","","","","","","","","","","","","",""
"","ISI","","html-keyboard-response","151","1734627","0.0-1.0-201.0","0","0","82950","","null","","","null","22","NaN","","","","","","","","","","","","","","",""
"","S2","","html-keyboard-response","152","1734880","0.0-1.0-202.0","0","0","82950","","null","","","null","22","","NaN","","","","","","","","","","","","","",""
"","response","","html-keyboard-response","153","1735571","0.0-1.0-203.0-0.0","0","0","82950","","689","","","68","22","","","1","22","training","adjacent","DC","4","3","O.jpg","M.jpg","1","0","0","",""
"","feedback","","html-keyboard-response","154","1736572","0.0-1.0-204.0-0.0","0","0","82950","","null","","","null","22","","","","","","","","","","","","","","","",""
"","time_out","","html-keyboard-response","155","1738573","0.0-1.0-206.0-0.0","0","0","82950","","null","","","null","22","","","","","","","","","","","","","","","",""
"","ITI","","html-keyboard-response","156","1739575","0.0-1.0-207.0","0","0","82950","","null","","","null","22","","","","","","","","","","","","","","","NaN",""
"","S1","","html-keyboard-response","157","1739827","0.0-1.0-209.0","0","0","82950","","null","","","null","23","","","","","","","","","","","","","","","",""
"","ISI","","html-keyboard-response","158","1740834","0.0-1.0-210.0","0","0","82950","","null","","","null","23","NaN","","","","","","","","","","","","","","",""
"","S2","","html-keyboard-response","159","1741087","0.0-1.0-211.0","0","0","82950","","null","","","null","23","","NaN","","","","","","","","","","","","","",""
"","response","","html-keyboard-response","160","1741779","0.0-1.0-212.0-0.0","0","0","82950","","691","","","68","23","","","1","23","training","adjacent","DC","4","3","O.jpg","M.jpg","1","0","0","",""
"","feedback","","html-keyboard-response","161","1742780","0.0-1.0-213.0-0.0","0","0","82950","","null","","","null","23","","","","","","","","","","","","","","","",""
"","time_out","","html-keyboard-response","162","1744782","0.0-1.0-215.0-0.0","0","0","82950","","null","","","null","23","","","","","","","","","","","","","","","",""
"","ITI","","html-keyboard-response","163","1745783","0.0-1.0-216.0","0","0","82950","","null","","","null","23","","","","","","","","","","","","","","","NaN",""
"","S1","","html-keyboard-response","164","1746035","0.0-1.0-218.0","0","0","82950","","null","","","null","24","","","","","","","","","","","","","","","",""
"","ISI","","html-keyboard-response","165","1747037","0.0-1.0-219.0","0","0","82950","","null","","","null","24","NaN","","","","","","","","","","","","","","",""
"","S2","","html-keyboard-response","166","1747289","0.0-1.0-220.0","0","0","82950","","null","","","null","24","","NaN","","","","","","","","","","","","","",""
"","response","","html-keyboard-response","167","1748427","0.0-1.0-221.0-0.0","0","0","82950","","1137","","","75","24","","","1","24","training","adjacent","BC","2","3","L.jpg","M.jpg","0","1","0","",""
"","feedback","","html-keyboard-response","168","1749429","0.0-1.0-222.0-0.0","0","0","82950","","null","","","null","24","","","","","","","","","","","","","","","",""
"","time_out","","html-keyboard-response","169","1751431","0.0-1.0-224.0-0.0","0","0","82950","","null","","","null","24","","","","","","","","","","","","","","","",""
"","ITI","","html-keyboard-response","170","1752432","0.0-1.0-225.0","0","0","82950","","null","","","null","24","","","","","","","","","","","","","","","NaN",""
"","S1","","html-keyboard-response","171","1752683","0.0-1.0-227.0","0","0","82950","","null","","","null","25","","","","","","","","","","","","","","","",""
"","ISI","","html-keyboard-response","172","1753685","0.0-1.0-228.0","0","0","82950","","null","","","null","25","NaN","","","","","","","","","","","","","","",""
"","S2","","html-keyboard-response","173","1753937","0.0-1.0-229.0","0","0","82950","","null","","","null","25","","NaN","","","","","","","","","","","","","",""
"","response","","html-keyboard-response","174","1754707","0.0-1.0-230.0-0.0","0","0","82950","","768","","","75","25","","","1","25","training","adjacent","CD","3","4","M.jpg","O.jpg","0","1","0","",""
"","feedback","","html-keyboard-response","175","1755709","0.0-1.0-231.0-0.0","0","0","82950","","null","","","null","25","","","","","","","","","","","","","","","",""
"","time_out","","html-keyboard-response","176","1757712","0.0-1.0-233.0-0.0","0","0","82950","","null","","","null","25","","","","","","","","","","","","","","","",""
"","ITI","","html-keyboard-response","177","1758713","0.0-1.0-234.0","0","0","82950","","null","","","null","25","","","","","","","","","","","","","","","NaN",""
"","S1","","html-keyboard-response","178","1758965","0.0-1.0-236.0","0","0","82950","","null","","","null","26","","","","","","","","","","","","","","","",""
"","ISI","","html-keyboard-response","179","1759967","0.0-1.0-237.0","0","0","82950","","null","","","null","26","NaN","","","","","","","","","","","","","","",""
"","S2","","html-keyboard-response","180","1760219","0.0-1.0-238.0","0","0","82950","","null","","","null","26","","NaN","","","","","","","","","","","","","",""
"","response","","html-keyboard-response","181","1760451","0.0-1.0-239.0-0.0","0","0","82950","","230","","","68","26","","","1","26","training","adjacent","EF","5","6","R.jpg","Q.jpg","1","1","1","",""
"","feedback","","html-keyboard-response","182","1761453","0.0-1.0-240.0-0.0","0","0","82950","","null","","","null","26","","","","","","","","","","","","","","","",""
"","ITI","","html-keyboard-response","183","1762461","0.0-1.0-243.0","0","0","82950","","null","","","null","26","","","","","","","","","","","","","","","NaN",""
"","S1","","html-keyboard-response","184","1762713","0.0-1.0-245.0","0","0","82950","","null","","","null","27","","","","","","","","","","","","","","","",""
"","ISI","","html-keyboard-response","185","1763715","0.0-1.0-246.0","0","0","82950","","null","","","null","27","NaN","","","","","","","","","","","","","","",""
"","S2","","html-keyboard-response","186","1763967","0.0-1.0-247.0","0","0","82950","","null","","","null","27","","NaN","","","","","","","","","","","","","",""
"","response","","html-keyboard-response","187","1764411","0.0-1.0-248.0-0.0","0","0","82950","","442","","","68","27","","","1","27","training","adjacent","DC","4","3","O.jpg","M.jpg","1","0","0","",""
"","feedback","","html-keyboard-response","188","1765412","0.0-1.0-249.0-0.0","0","0","82950","","null","","","null","27","","","","","","","","","","","","","","","",""
"","time_out","","html-keyboard-response","189","1767413","0.0-1.0-251.0-0.0","0","0","82950","","null","","","null","27","","","","","","","","","","","","","","","",""
"","ITI","","html-keyboard-response","190","1768415","0.0-1.0-252.0","0","0","82950","","null","","","null","27","","","","","","","","","","","","","","","NaN",""
"","S1","","html-keyboard-response","191","1768666","0.0-1.0-254.0","0","0","82950","","null","","","null","28","","","","","","","","","","","","","","","",""
"","ISI","","html-keyboard-response","192","1769682","0.0-1.0-255.0","0","0","82950","","null","","","null","28","NaN","","","","","","","","","","","","","","",""
"","S2","","html-keyboard-response","193","1769935","0.0-1.0-256.0","0","0","82950","","null","","","null","28","","NaN","","","","","","","","","","","","","",""
"","response","","html-keyboard-response","194","1770195","0.0-1.0-257.0-0.0","0","0","82950","","260","","","75","28","","","1","28","training","adjacent","FE","6","5","Q.jpg","R.jpg","0","0","1","",""
"","feedback","","html-keyboard-response","195","1771197","0.0-1.0-258.0-0.0","0","0","82950","","null","","","null","28","","","","","","","","","","","","","","","",""
"","ITI","","html-keyboard-response","196","1772199","0.0-1.0-261.0","0","0","82950","","null","","","null","28","","","","","","","","","","","","","","","NaN",""
"","S1","","html-keyboard-response","197","1772450","0.0-1.0-263.0","0","0","82950","","null","","","null","29","","","","","","","","","","","","","","","",""
"","ISI","","html-keyboard-response","198","1773451","0.0-1.0-264.0","0","0","82950","","null","","","null","29","NaN","","","","","","","","","","","","","","",""
"","S2","","html-keyboard-response","199","1773704","0.0-1.0-265.0","0","0","82950","","null","","","null","29","","NaN","","","","","","","","","","","","","",""
"","response","","html-keyboard-response","200","1774251","0.0-1.0-266.0-0.0","0","0","82950","","545","","","75","29","","","1","29","training","adjacent","CB","3","2","M.jpg","L.jpg","0","0","1","",""
"","feedback","","html-keyboard-response","201","1775263","0.0-1.0-267.0-0.0","0","0","82950","","null","","","null","29","","","","","","","","","","","","","","","",""
"","ITI","","html-keyboard-response","202","1776265","0.0-1.0-270.0","0","0","82950","","null","","","null","29","","","","","","","","","","","","","","","NaN",""
"","S1","","html-keyboard-response","203","1776516","0.0-1.0-272.0","0","0","82950","","null","","","null","30","","","","","","","","","","","","","","","",""
"","ISI","","html-keyboard-response","204","1777518","0.0-1.0-273.0","0","0","82950","","null","","","null","30","NaN","","","","","","","","","","","","","","",""
"","S2","","html-keyboard-response","205","1777771","0.0-1.0-274.0","0","0","82950","","null","","","null","30","","NaN","","","","","","","","","","","","","",""
"","response","","html-keyboard-response","206","1778235","0.0-1.0-275.0-0.0","0","0","82950","","462","","","68","30","","","1","30","training","adjacent","BC","2","3","L.jpg","M.jpg","1","1","1","",""
"","feedback","","html-keyboard-response","207","1779237","0.0-1.0-276.0-0.0","0","0","82950","","null","","","null","30","","","","","","","","","","","","","","","",""
"","ITI","","html-keyboard-response","208","1780239","0.0-1.0-279.0","0","0","82950","","null","","","null","30","","","","","","","","","","","","","","","NaN",""
"","S1","","html-keyboard-response","209","1780491","0.0-1.0-281.0","0","0","82950","","null","","","null","31","","","","","","","","","","","","","","","",""
"","ISI","","html-keyboard-response","210","1781492","0.0-1.0-282.0","0","0","82950","","null","","","null","31","NaN","","","","","","","","","","","","","","",""
"","S2","","html-keyboard-response","211","1781744","0.0-1.0-283.0","0","0","82950","","null","","","null","31","","NaN","","","","","","","","","","","","","",""
"","response","","html-keyboard-response","212","1782203","0.0-1.0-284.0-0.0","0","0","82950","","458","","","75","31","","","1","31","training","adjacent","FG","6","7","Q.jpg","P.jpg","0","1","0","",""
"","feedback","","html-keyboard-response","213","1783205","0.0-1.0-285.0-0.0","0","0","82950","","null","","","null","31","","","","","","","","","","","","","","","",""
"","time_out","","html-keyboard-response","214","1785208","0.0-1.0-287.0-0.0","0","0","82950","","null","","","null","31","","","","","","","","","","","","","","","",""
"","ITI","","html-keyboard-response","215","1786209","0.0-1.0-288.0","0","0","82950","","null","","","null","31","","","","","","","","","","","","","","","NaN",""
"","S1","","html-keyboard-response","216","1786460","0.0-1.0-290.0","0","0","82950","","null","","","null","32","","","","","","","","","","","","","","","",""
"","ISI","","html-keyboard-response","217","1787462","0.0-1.0-291.0","0","0","82950","","null","","","null","32","NaN","","","","","","","","","","","","","","",""
"","S2","","html-keyboard-response","218","1787715","0.0-1.0-292.0","0","0","82950","","null","","","null","32","","NaN","","","","","","","","","","","","","",""
"","response","","html-keyboard-response","219","1788419","0.0-1.0-293.0-0.0","0","0","82950","","703","","","75","32","","","1","32","training","adjacent","ED","5","4","R.jpg","O.jpg","0","0","1","",""
"","feedback","","html-keyboard-response","220","1789421","0.0-1.0-294.0-0.0","0","0","82950","","null","","","null","32","","","","","","","","","","","","","","","",""
"","ITI","","html-keyboard-response","221","1790422","0.0-1.0-297.0","0","0","82950","","null","","","null","32","","","","","","","","","","","","","","","NaN",""
"","S1","","html-keyboard-response","222","1790675","0.0-1.0-299.0","0","0","82950","","null","","","null","33","","","","","","","","","","","","","","","",""
"","ISI","","html-keyboard-response","223","1791677","0.0-1.0-300.0","0","0","82950","","null","","","null","33","NaN","","","","","","","","","","","","","","",""
"","S2","","html-keyboard-response","224","1791929","0.0-1.0-301.0","0","0","82950","","null","","","null","33","","NaN","","","","","","","","","","","","","",""
"","response","","html-keyboard-response","225","1793075","0.0-1.0-302.0-0.0","0","0","82950","","1145","","","68","33","","","1","33","training","adjacent","EF","5","6","R.jpg","Q.jpg","1","1","1","",""
"","feedback","","html-keyboard-response","226","1794077","0.0-1.0-303.0-0.0","0","0","82950","","null","","","null","33","","","","","","","","","","","","","","","",""
"","ITI","","html-keyboard-response","227","1795079","0.0-1.0-306.0","0","0","82950","","null","","","null","33","","","","","","","","","","","","","","","NaN",""
"","S1","","html-keyboard-response","228","1795339","0.0-1.0-308.0","0","0","82950","","null","","","null","34","","","","","","","","","","","","","","","",""
"","ISI","","html-keyboard-response","229","1796341","0.0-1.0-309.0","0","0","82950","","null","","","null","34","NaN","","","","","","","","","","","","","","",""
"","S2","","html-keyboard-response","230","1796593","0.0-1.0-310.0","0","0","82950","","null","","","null","34","","NaN","","","","","","","","","","","","","",""
"","response","","html-keyboard-response","231","1796907","0.0-1.0-311.0-0.0","0","0","82950","","313","","","68","34","","","1","34","training","adjacent","AB","1","2","N.jpg","L.jpg","1","1","1","",""
"","feedback","","html-keyboard-response","232","1797919","0.0-1.0-312.0-0.0","0","0","82950","","null","","","null","34","","","","","","","","","","","","","","","",""
"","ITI","","html-keyboard-response","233","1798921","0.0-1.0-315.0","0","0","82950","","null","","","null","34","","","","","","","","","","","","","","","NaN",""
"","S1","","html-keyboard-response","234","1799172","0.0-1.0-317.0","0","0","82950","","null","","","null","35","","","","","","","","","","","","","","","",""
"","ISI","","html-keyboard-response","235","1800174","0.0-1.0-318.0","0","0","82950","","null","","","null","35","NaN","","","","","","","","","","","","","","",""
"","S2","","html-keyboard-response","236","1800426","0.0-1.0-319.0","0","0","82950","","null","","","null","35","","NaN","","","","","","","","","","","","","",""
"","response","","html-keyboard-response","237","1801043","0.0-1.0-320.0-0.0","0","0","82950","","615","","","75","35","","","1","35","training","adjacent","BA","2","1","L.jpg","N.jpg","0","0","1","",""
"","feedback","","html-keyboard-response","238","1802045","0.0-1.0-321.0-0.0","0","0","82950","","null","","","null","35","","","","","","","","","","","","","","","",""
"","ITI","","html-keyboard-response","239","1803047","0.0-1.0-324.0","0","0","82950","","null","","","null","35","","","","","","","","","","","","","","","NaN",""
"","S1","","html-keyboard-response","240","1803298","0.0-1.0-326.0","0","0","82950","","null","","","null","36","","","","","","","","","","","","","","","",""
"","ISI","","html-keyboard-response","241","1804301","0.0-1.0-327.0","0","0","82950","","null","","","null","36","NaN","","","","","","","","","","","","","","",""
"","S2","","html-keyboard-response","242","1804553","0.0-1.0-328.0","0","0","82950","","null","","","null","36","","NaN","","","","","","","","","","","","","",""
"","response","","html-keyboard-response","243","1805019","0.0-1.0-329.0-0.0","0","0","82950","","465","","","75","36","","","1","36","training","adjacent","DE","4","5","O.jpg","R.jpg","0","1","0","",""
"","feedback","","html-keyboard-response","244","1806022","0.0-1.0-330.0-0.0","0","0","82950","","null","","","null","36","","","","","","","","","","","","","","","",""
"","time_out","","html-keyboard-response","245","1808024","0.0-1.0-332.0-0.0","0","0","82950","","null","","","null","36","","","","","","","","","","","","","","","",""
"","ITI","","html-keyboard-response","246","1809025","0.0-1.0-333.0","0","0","82950","","null","","","null","36","","","","","","","","","","","","","","","NaN",""
"","S1","","html-keyboard-response","247","1809276","0.0-1.0-335.0","0","0","82950","","null","","","null","37","","","","","","","","","","","","","","","",""
"","ISI","","html-keyboard-response","248","1810279","0.0-1.0-336.0","0","0","82950","","null","","","null","37","NaN","","","","","","","","","","","","","","",""
"","S2","","html-keyboard-response","249","1810531","0.0-1.0-337.0","0","0","82950","","null","","","null","37","","NaN","","","","","","","","","","","","","",""
"","response","","html-keyboard-response","250","1810843","0.0-1.0-338.0-0.0","0","0","82950","","311","","","68","37","","","1","37","training","adjacent","EF","5","6","R.jpg","Q.jpg","1","1","1","",""
"","feedback","","html-keyboard-response","251","1811844","0.0-1.0-339.0-0.0","0","0","82950","","null","","","null","37","","","","","","","","","","","","","","","",""
"","ITI","","html-keyboard-response","252","1812846","0.0-1.0-342.0","0","0","82950","","null","","","null","37","","","","","","","","","","","","","","","NaN",""
"","S1","","html-keyboard-response","253","1813098","0.0-1.0-344.0","0","0","82950","","null","","","null","38","","","","","","","","","","","","","","","",""
"","ISI","","html-keyboard-response","254","1814100","0.0-1.0-345.0","0","0","82950","","null","","","null","38","NaN","","","","","","","","","","","","","","",""
"","S2","","html-keyboard-response","255","1814351","0.0-1.0-346.0","0","0","82950","","null","","","null","38","","NaN","","","","","","","","","","","","","",""
"","response","","html-keyboard-response","256","1814699","0.0-1.0-347.0-0.0","0","0","82950","","346","","","75","38","","","1","38","training","adjacent","DE","4","5","O.jpg","R.jpg","0","1","0","",""
"","feedback","","html-keyboard-response","257","1815701","0.0-1.0-348.0-0.0","0","0","82950","","null","","","null","38","","","","","","","","","","","","","","","",""
"","time_out","","html-keyboard-response","258","1817702","0.0-1.0-350.0-0.0","0","0","82950","","null","","","null","38","","","","","","","","","","","","","","","",""
"","ITI","","html-keyboard-response","259","1818704","0.0-1.0-351.0","0","0","82950","","null","","","null","38","","","","","","","","","","","","","","","NaN",""
"","S1","","html-keyboard-response","260","1818955","0.0-1.0-353.0","0","0","82950","","null","","","null","39","","","","","","","","","","","","","","","",""
"","ISI","","html-keyboard-response","261","1819956","0.0-1.0-354.0","0","0","82950","","null","","","null","39","NaN","","","","","","","","","","","","","","",""
"","S2","","html-keyboard-response","262","1820208","0.0-1.0-355.0","0","0","82950","","null","","","null","39","","NaN","","","","","","","","","","","","","",""
"","response","","html-keyboard-response","263","1820779","0.0-1.0-356.0-0.0","0","0","82950","","571","","","75","39","","","1","39","training","adjacent","DC","4","3","O.jpg","M.jpg","0","0","1","",""
"","feedback","","html-keyboard-response","264","1821786","0.0-1.0-357.0-0.0","0","0","82950","","null","","","null","39","","","","","","","","","","","","","","","",""
"","ITI","","html-keyboard-response","265","1822787","0.0-1.0-360.0","0","0","82950","","null","","","null","39","","","","","","","","","","","","","","","NaN",""
"","S1","","html-keyboard-response","266","1823039","0.0-1.0-362.0","0","0","82950","","null","","","null","40","","","","","","","","","","","","","","","",""
"","ISI","","html-keyboard-response","267","1824040","0.0-1.0-363.0","0","0","82950","","null","","","null","40","NaN","","","","","","","","","","","","","","",""
"","S2","","html-keyboard-response","268","1824292","0.0-1.0-364.0","0","0","82950","","null","","","null","40","","NaN","","","","","","","","","","","","","",""
"","response","","html-keyboard-response","269","1824683","0.0-1.0-365.0-0.0","0","0","82950","","389","","","75","40","","","1","40","training","adjacent","FE","6","5","Q.jpg","R.jpg","0","0","1","",""
"","feedback","","html-keyboard-response","270","1825685","0.0-1.0-366.0-0.0","0","0","82950","","null","","","null","40","","","","","","","","","","","","","","","",""
"","ITI","","html-keyboard-response","271","1826686","0.0-1.0-369.0","0","0","82950","","null","","","null","40","","","","","","","","","","","","","","","NaN",""
"","S1","","html-keyboard-response","272","1826948","0.0-1.0-371.0","0","0","82950","","null","","","null","41","","","","","","","","","","","","","","","",""
"","ISI","","html-keyboard-response","273","1827949","0.0-1.0-372.0","0","0","82950","","null","","","null","41","NaN","","","","","","","","","","","","","","",""
"","S2","","html-keyboard-response","274","1828202","0.0-1.0-373.0","0","0","82950","","null","","","null","41","","NaN","","","","","","","","","","","","","",""
"","response","","html-keyboard-response","275","1828491","0.0-1.0-374.0-0.0","0","0","82950","","288","","","68","41","","","1","41","training","adjacent","GF","7","6","P.jpg","Q.jpg","1","0","0","",""
"","feedback","","html-keyboard-response","276","1829504","0.0-1.0-375.0-0.0","0","0","82950","","null","","","null","41","","","","","","","","","","","","","","","",""
"","time_out","","html-keyboard-response","277","1831518","0.0-1.0-377.0-0.0","0","0","82950","","null","","","null","41","","","","","","","","","","","","","","","",""
"","ITI","","html-keyboard-response","278","1832520","0.0-1.0-378.0","0","0","82950","","null","","","null","41","","","","","","","","","","","","","","","NaN",""
"","S1","","html-keyboard-response","279","1832771","0.0-1.0-380.0","0","0","82950","","null","","","null","42","","","","","","","","","","","","","","","",""
"","ISI","","html-keyboard-response","280","1833773","0.0-1.0-381.0","0","0","82950","","null","","","null","42","NaN","","","","","","","","","","","","","","",""
"","S2","","html-keyboard-response","281","1834025","0.0-1.0-382.0","0","0","82950","","null","","","null","42","","NaN","","","","","","","","","","","","","",""
"","response","","html-keyboard-response","282","1834403","0.0-1.0-383.0-0.0","0","0","82950","","378","","","75","42","","","1","42","training","adjacent","BA","2","1","L.jpg","N.jpg","0","0","1","",""
"","feedback","","html-keyboard-response","283","1835405","0.0-1.0-384.0-0.0","0","0","82950","","null","","","null","42","","","","","","","","","","","","","","","",""
"","ITI","","html-keyboard-response","284","1836408","0.0-1.0-387.0","0","0","82950","","null","","","null","42","","","","","","","","","","","","","","","NaN",""
"","S1","","html-keyboard-response","285","1836659","0.0-1.0-389.0","0","0","82950","","null","","","null","43","","","","","","","","","","","","","","","",""
"","ISI","","html-keyboard-response","286","1837661","0.0-1.0-390.0","0","0","82950","","null","","","null","43","NaN","","","","","","","","","","","","","","",""
"","S2","","html-keyboard-response","287","1837914","0.0-1.0-391.0","0","0","82950","","null","","","null","43","","NaN","","","","","","","","","","","","","",""
"","response","","html-keyboard-response","288","1838675","0.0-1.0-392.0-0.0","0","0","82950","","760","","","75","43","","","1","43","training","adjacent","DE","4","5","O.jpg","R.jpg","0","1","0","",""
"","feedback","","html-keyboard-response","289","1839681","0.0-1.0-393.0-0.0","0","0","82950","","null","","","null","43","","","","","","","","","","","","","","","",""
"","time_out","","html-keyboard-response","290","1841683","0.0-1.0-395.0-0.0","0","0","82950","","null","","","null","43","","","","","","","","","","","","","","","",""
"","ITI","","html-keyboard-response","291","1842684","0.0-1.0-396.0","0","0","82950","","null","","","null","43","","","","","","","","","","","","","","","NaN",""
"","S1","","html-keyboard-response","292","1842936","0.0-1.0-398.0","0","0","82950","","null","","","null","44","","","","","","","","","","","","","","","",""
"","ISI","","html-keyboard-response","293","1843951","0.0-1.0-399.0","0","0","82950","","null","","","null","44","NaN","","","","","","","","","","","","","","",""
"","S2","","html-keyboard-response","294","1844202","0.0-1.0-400.0","0","0","82950","","null","","","null","44","","NaN","","","","","","","","","","","","","",""
"","response","","html-keyboard-response","295","1844499","0.0-1.0-401.0-0.0","0","0","82950","","296","","","68","44","","","1","44","training","adjacent","GF","7","6","P.jpg","Q.jpg","1","0","0","",""
"","feedback","","html-keyboard-response","296","1845502","0.0-1.0-402.0-0.0","0","0","82950","","null","","","null","44","","","","","","","","","","","","","","","",""
"","time_out","","html-keyboard-response","297","1847504","0.0-1.0-404.0-0.0","0","0","82950","","null","","","null","44","","","","","","","","","","","","","","","",""
"","ITI","","html-keyboard-response","298","1848506","0.0-1.0-405.0","0","0","82950","","null","","","null","44","","","","","","","","","","","","","","","NaN",""
"","S1","","html-keyboard-response","299","1848758","0.0-1.0-407.0","0","0","82950","","null","","","null","45","","","","","","","","","","","","","","","",""
"","ISI","","html-keyboard-response","300","1849760","0.0-1.0-408.0","0","0","82950","","null","","","null","45","NaN","","","","","","","","","","","","","","",""
"","S2","","html-keyboard-response","301","1850011","0.0-1.0-409.0","0","0","82950","","null","","","null","45","","NaN","","","","","","","","","","","","","",""
"","response","","html-keyboard-response","302","1850771","0.0-1.0-410.0-0.0","0","0","82950","","760","","","75","45","","","1","45","training","adjacent","CD","3","4","M.jpg","O.jpg","0","1","0","",""
"","feedback","","html-keyboard-response","303","1851773","0.0-1.0-411.0-0.0","0","0","82950","","null","","","null","45","","","","","","","","","","","","","","","",""
"","time_out","","html-keyboard-response","304","1853774","0.0-1.0-413.0-0.0","0","0","82950","","null","","","null","45","","","","","","","","","","","","","","","",""
"","ITI","","html-keyboard-response","305","1854776","0.0-1.0-414.0","0","0","82950","","null","","","null","45","","","","","","","","","","","","","","","NaN",""
"","S1","","html-keyboard-response","306","1855035","0.0-1.0-416.0","0","0","82950","","null","","","null","46","","","","","","","","","","","","","","","",""
"","ISI","","html-keyboard-response","307","1856037","0.0-1.0-417.0","0","0","82950","","null","","","null","46","NaN","","","","","","","","","","","","","","",""
"","S2","","html-keyboard-response","308","1856289","0.0-1.0-418.0","0","0","82950","","null","","","null","46","","NaN","","","","","","","","","","","","","",""
"","response","","html-keyboard-response","309","1856795","0.0-1.0-419.0-0.0","0","0","82950","","506","","","68","46","","","1","46","training","adjacent","FG","6","7","Q.jpg","P.jpg","1","1","1","",""
"","feedback","","html-keyboard-response","310","1857797","0.0-1.0-420.0-0.0","0","0","82950","","null","","","null","46","","","","","","","","","","","","","","","",""
"","ITI","","html-keyboard-response","311","1858799","0.0-1.0-423.0","0","0","82950","","null","","","null","46","","","","","","","","","","","","","","","NaN",""
"","S1","","html-keyboard-response","312","1859051","0.0-1.0-425.0","0","0","82950","","null","","","null","47","","","","","","","","","","","","","","","",""
"","ISI","","html-keyboard-response","313","1860053","0.0-1.0-426.0","0","0","82950","","null","","","null","47","NaN","","","","","","","","","","","","","","",""
"","S2","","html-keyboard-response","314","1860304","0.0-1.0-427.0","0","0","82950","","null","","","null","47","","NaN","","","","","","","","","","","","","",""
"","response","","html-keyboard-response","315","1861075","0.0-1.0-428.0-0.0","0","0","82950","","769","","","68","47","","","1","47","training","adjacent","AB","1","2","N.jpg","L.jpg","1","1","1","",""
"","feedback","","html-keyboard-response","316","1862078","0.0-1.0-429.0-0.0","0","0","82950","","null","","","null","47","","","","","","","","","","","","","","","",""
"","ITI","","html-keyboard-response","317","1863079","0.0-1.0-432.0","0","0","82950","","null","","","null","47","","","","","","","","","","","","","","","NaN",""
"","block_over","","html-keyboard-response","318","1867691","0.0-1.0-433.0-0.0","0","0","82950","","4611","","","32","47","","","","","","","","","","","","","","","",""
"","S1","","html-keyboard-response","319","1867944","0.0-1.0-434.0","0","0","82950","","null","","","null","48","","","","","","","","","","","","","","","",""
"","ISI","","html-keyboard-response","320","1868945","0.0-1.0-435.0","0","0","82950","","null","","","null","48","NaN","","","","","","","","","","","","","","",""
"","S2","","html-keyboard-response","321","1869197","0.0-1.0-436.0","0","0","82950","","null","","","null","48","","NaN","","","","","","","","","","","","","",""
"","response","","html-keyboard-response","322","1869387","0.0-1.0-437.0-0.0","0","0","82950","","189","","","75","48","","","2","48","training","adjacent","BA","2","1","L.jpg","N.jpg","0","0","1","",""
"","feedback","","html-keyboard-response","323","1870395","0.0-1.0-438.0-0.0","0","0","82950","","null","","","null","48","","","","","","","","","","","","","","","",""
"","ITI","","html-keyboard-response","324","1871396","0.0-1.0-441.0","0","0","82950","","null","","","null","48","","","","","","","","","","","","","","","NaN",""
"","S1","","html-keyboard-response","325","1871663","0.0-1.0-443.0","0","0","82950","","null","","","null","49","","","","","","","","","","","","","","","",""
"","ISI","","html-keyboard-response","326","1872665","0.0-1.0-444.0","0","0","82950","","null","","","null","49","NaN","","","","","","","","","","","","","","",""
"","S2","","html-keyboard-response","327","1872917","0.0-1.0-445.0","0","0","82950","","null","","","null","49","","NaN","","","","","","","","","","","","","",""
"","response","","html-keyboard-response","328","1873555","0.0-1.0-446.0-0.0","0","0","82950","","637","","","68","49","","","2","49","training","adjacent","BC","2","3","L.jpg","M.jpg","1","1","1","",""
"","feedback","","html-keyboard-response","329","1874557","0.0-1.0-447.0-0.0","0","0","82950","","null","","","null","49","","","","","","","","","","","","","","","",""
"","ITI","","html-keyboard-response","330","1875559","0.0-1.0-450.0","0","0","82950","","null","","","null","49","","","","","","","","","","","","","","","NaN",""
"","S1","","html-keyboard-response","331","1875812","0.0-1.0-452.0","0","0","82950","","null","","","null","50","","","","","","","","","","","","","","","",""
"","ISI","","html-keyboard-response","332","1876814","0.0-1.0-453.0","0","0","82950","","null","","","null","50","NaN","","","","","","","","","","","","","","",""
"","S2","","html-keyboard-response","333","1877065","0.0-1.0-454.0","0","0","82950","","null","","","null","50","","NaN","","","","","","","","","","","","","",""
"","response","","html-keyboard-response","334","1877931","0.0-1.0-455.0-0.0","0","0","82950","","866","","","75","50","","","2","50","training","adjacent","BC","2","3","L.jpg","M.jpg","0","1","0","",""
"","feedback","","html-keyboard-response","335","1878933","0.0-1.0-456.0-0.0","0","0","82950","","null","","","null","50","","","","","","","","","","","","","","","",""
"","time_out","","html-keyboard-response","336","1880935","0.0-1.0-458.0-0.0","0","0","82950","","null","","","null","50","","","","","","","","","","","","","","","",""
"","ITI","","html-keyboard-response","337","1881936","0.0-1.0-459.0","0","0","82950","","null","","","null","50","","","","","","","","","","","","","","","NaN",""
"","S1","","html-keyboard-response","338","1882188","0.0-1.0-461.0","0","0","82950","","null","","","null","51","","","","","","","","","","","","","","","",""
"","ISI","","html-keyboard-response","339","1883189","0.0-1.0-462.0","0","0","82950","","null","","","null","51","NaN","","","","","","","","","","","","","","",""
"","S2","","html-keyboard-response","340","1883441","0.0-1.0-463.0","0","0","82950","","null","","","null","51","","NaN","","","","","","","","","","","","","",""
"","response","","html-keyboard-response","341","1883659","0.0-1.0-464.0-0.0","0","0","82950","","218","","","75","51","","","2","51","training","adjacent","GF","7","6","P.jpg","Q.jpg","0","0","1","",""
"","feedback","","html-keyboard-response","342","1884662","0.0-1.0-465.0-0.0","0","0","82950","","null","","","null","51","","","","","","","","","","","","","","","",""
"","ITI","","html-keyboard-response","343","1885664","0.0-1.0-468.0","0","0","82950","","null","","","null","51","","","","","","","","","","","","","","","NaN",""
"","S1","","html-keyboard-response","344","1885916","0.0-1.0-470.0","0","0","82950","","null","","","null","52","","","","","","","","","","","","","","","",""
"","ISI","","html-keyboard-response","345","1886918","0.0-1.0-471.0","0","0","82950","","null","","","null","52","NaN","","","","","","","","","","","","","","",""
"","S2","","html-keyboard-response","346","1887170","0.0-1.0-472.0","0","0","82950","","null","","","null","52","","NaN","","","","","","","","","","","","","",""
"","response","","html-keyboard-response","347","1887779","0.0-1.0-473.0-0.0","0","0","82950","","609","","","68","52","","","2","52","training","adjacent","ED","5","4","R.jpg","O.jpg","1","0","0","",""
"","feedback","","html-keyboard-response","348","1888782","0.0-1.0-474.0-0.0","0","0","82950","","null","","","null","52","","","","","","","","","","","","","","","",""
"","time_out","","html-keyboard-response","349","1890784","0.0-1.0-476.0-0.0","0","0","82950","","null","","","null","52","","","","","","","","","","","","","","","",""
"","ITI","","html-keyboard-response","350","1891786","0.0-1.0-477.0","0","0","82950","","null","","","null","52","","","","","","","","","","","","","","","NaN",""
"","S1","","html-keyboard-response","351","1892046","0.0-1.0-479.0","0","0","82950","","null","","","null","53","","","","","","","","","","","","","","","",""
"","ISI","","html-keyboard-response","352","1893048","0.0-1.0-480.0","0","0","82950","","null","","","null","53","NaN","","","","","","","","","","","","","","",""
"","S2","","html-keyboard-response","353","1893300","0.0-1.0-481.0","0","0","82950","","null","","","null","53","","NaN","","","","","","","","","","","","","",""
"","response","","html-keyboard-response","354","1893556","0.0-1.0-482.0-0.0","0","0","82950","","255","","","68","53","","","2","53","training","adjacent","FG","6","7","Q.jpg","P.jpg","1","1","1","",""
"","feedback","","html-keyboard-response","355","1894557","0.0-1.0-483.0-0.0","0","0","82950","","null","","","null","53","","","","","","","","","","","","","","","",""
"","ITI","","html-keyboard-response","356","1895558","0.0-1.0-486.0","0","0","82950","","null","","","null","53","","","","","","","","","","","","","","","NaN",""
"","S1","","html-keyboard-response","357","1895809","0.0-1.0-488.0","0","0","82950","","null","","","null","54","","","","","","","","","","","","","","","",""
"","ISI","","html-keyboard-response","358","1896811","0.0-1.0-489.0","0","0","82950","","null","","","null","54","NaN","","","","","","","","","","","","","","",""
"","S2","","html-keyboard-response","359","1897063","0.0-1.0-490.0","0","0","82950","","null","","","null","54","","NaN","","","","","","","","","","","","","",""
"","response","","html-keyboard-response","360","1897851","0.0-1.0-491.0-0.0","0","0","82950","","788","","","68","54","","","2","54","training","adjacent","ED","5","4","R.jpg","O.jpg","1","0","0","",""
"","feedback","","html-keyboard-response","361","1898854","0.0-1.0-492.0-0.0","0","0","82950","","null","","","null","54","","","","","","","","","","","","","","","",""
"","time_out","","html-keyboard-response","362","1900855","0.0-1.0-494.0-0.0","0","0","82950","","null","","","null","54","","","","","","","","","","","","","","","",""
"","ITI","","html-keyboard-response","363","1901857","0.0-1.0-495.0","0","0","82950","","null","","","null","54","","","","","","","","","","","","","","","NaN",""
"","S1","","html-keyboard-response","364","1902117","0.0-1.0-497.0","0","0","82950","","null","","","null","55","","","","","","","","","","","","","","","",""
"","ISI","","html-keyboard-response","365","1903119","0.0-1.0-498.0","0","0","82950","","null","","","null","55","NaN","","","","","","","","","","","","","","",""
"","S2","","html-keyboard-response","366","1903339","0.0-1.0-499.0","0","0","82950","","220","","","68","55","","d","2","55","training","adjacent","AB","1","2","N.jpg","L.jpg","1","1","1","",""
"","feedback","","html-keyboard-response","367","1904342","0.0-1.0-501.0-0.0","0","0","82950","","null","","","null","55","","","","","","","","","","","","","","","",""
"","ITI","","html-keyboard-response","368","1905344","0.0-1.0-504.0","0","0","82950","","null","","","null","55","","","","","","","","","","","","","","","NaN",""
"","S1","","html-keyboard-response","369","1905596","0.0-1.0-506.0","0","0","82950","","null","","","null","56","","","","","","","","","","","","","","","",""
"","ISI","","html-keyboard-response","370","1906598","0.0-1.0-507.0","0","0","82950","","null","","","null","56","NaN","","","","","","","","","","","","","","",""
"","S2","","html-keyboard-response","371","1906850","0.0-1.0-508.0","0","0","82950","","null","","","null","56","","NaN","","","","","","","","","","","","","",""
"","response","","html-keyboard-response","372","1907740","0.0-1.0-509.0-0.0","0","0","82950","","889","","","75","56","","","2","56","training","adjacent","CD","3","4","M.jpg","O.jpg","0","1","0","",""
"","feedback","","html-keyboard-response","373","1908741","0.0-1.0-510.0-0.0","0","0","82950","","null","","","null","56","","","","","","","","","","","","","","","",""
"","time_out","","html-keyboard-response","374","1910744","0.0-1.0-512.0-0.0","0","0","82950","","null","","","null","56","","","","","","","","","","","","","","","",""
"","ITI","","html-keyboard-response","375","1911745","0.0-1.0-513.0","0","0","82950","","null","","","null","56","","","","","","","","","","","","","","","NaN",""
"","S1","","html-keyboard-response","376","1911996","0.0-1.0-515.0","0","0","82950","","null","","","null","57","","","","","","","","","","","","","","","",""
"","ISI","","html-keyboard-response","377","1912998","0.0-1.0-516.0","0","0","82950","","null","","","null","57","NaN","","","","","","","","","","","","","","",""
"","S2","","html-keyboard-response","378","1913249","0.0-1.0-517.0","0","0","82950","","null","","","null","57","","NaN","","","","","","","","","","","","","",""
"","response","","html-keyboard-response","379","1914059","0.0-1.0-518.0-0.0","0","0","82950","","809","","","68","57","","","2","57","training","adjacent","ED","5","4","R.jpg","O.jpg","1","0","0","",""
"","feedback","","html-keyboard-response","380","1915061","0.0-1.0-519.0-0.0","0","0","82950","","null","","","null","57","","","","","","","","","","","","","","","",""
"","time_out","","html-keyboard-response","381","1917063","0.0-1.0-521.0-0.0","0","0","82950","","null","","","null","57","","","","","","","","","","","","","","","",""
"","ITI","","html-keyboard-response","382","1918065","0.0-1.0-522.0","0","0","82950","","null","","","null","57","","","","","","","","","","","","","","","NaN",""
"","S1","","html-keyboard-response","383","1918321","0.0-1.0-524.0","0","0","82950","","null","","","null","58","","","","","","","","","","","","","","","",""
"","ISI","","html-keyboard-response","384","1919322","0.0-1.0-525.0","0","0","82950","","null","","","null","58","NaN","","","","","","","","","","","","","","",""
"","S2","","html-keyboard-response","385","1919574","0.0-1.0-526.0","0","0","82950","","null","","","null","58","","NaN","","","","","","","","","","","","","",""
"","response","","html-keyboard-response","386","1919963","0.0-1.0-527.0-0.0","0","0","82950","","388","","","68","58","","","2","58","training","adjacent","AB","1","2","N.jpg","L.jpg","1","1","1","",""
"","feedback","","html-keyboard-response","387","1920965","0.0-1.0-528.0-0.0","0","0","82950","","null","","","null","58","","","","","","","","","","","","","","","",""
"","ITI","","html-keyboard-response","388","1921982","0.0-1.0-531.0","0","0","82950","","null","","","null","58","","","","","","","","","","","","","","","NaN",""
"","S1","","html-keyboard-response","389","1922234","0.0-1.0-533.0","0","0","82950","","null","","","null","59","","","","","","","","","","","","","","","",""
"","ISI","","html-keyboard-response","390","1923236","0.0-1.0-534.0","0","0","82950","","null","","","null","59","NaN","","","","","","","","","","","","","","",""
"","S2","","html-keyboard-response","391","1923489","0.0-1.0-535.0","0","0","82950","","null","","","null","59","","NaN","","","","","","","","","","","","","",""
"","response","","html-keyboard-response","392","1924435","0.0-1.0-536.0-0.0","0","0","82950","","946","","","75","59","","","2","59","training","adjacent","CD","3","4","M.jpg","O.jpg","0","1","0","",""
"","feedback","","html-keyboard-response","393","1925437","0.0-1.0-537.0-0.0","0","0","82950","","null","","","null","59","","","","","","","","","","","","","","","",""
"","time_out","","html-keyboard-response","394","1927440","0.0-1.0-539.0-0.0","0","0","82950","","null","","","null","59","","","","","","","","","","","","","","","",""
"","ITI","","html-keyboard-response","395","1928442","0.0-1.0-540.0","0","0","82950","","null","","","null","59","","","","","","","","","","","","","","","NaN",""
"","S1","","html-keyboard-response","396","1928694","0.0-1.0-542.0","0","0","82950","","null","","","null","60","","","","","","","","","","","","","","","",""
"","ISI","","html-keyboard-response","397","1929695","0.0-1.0-543.0","0","0","82950","","null","","","null","60","NaN","","","","","","","","","","","","","","",""
"","S2","","html-keyboard-response","398","1929947","0.0-1.0-544.0","0","0","82950","","null","","","null","60","","NaN","","","","","","","","","","","","","",""
"","response","","html-keyboard-response","399","1930332","0.0-1.0-545.0-0.0","0","0","82950","","384","","","75","60","","","2","60","training","adjacent","DE","4","5","O.jpg","R.jpg","0","1","0","",""
"","feedback","","html-keyboard-response","400","1931333","0.0-1.0-546.0-0.0","0","0","82950","","null","","","null","60","","","","","","","","","","","","","","","",""
"","time_out","","html-keyboard-response","401","1933335","0.0-1.0-548.0-0.0","0","0","82950","","null","","","null","60","","","","","","","","","","","","","","","",""
"","ITI","","html-keyboard-response","402","1934336","0.0-1.0-549.0","0","0","82950","","null","","","null","60","","","","","","","","","","","","","","","NaN",""
"","S1","","html-keyboard-response","403","1934588","0.0-1.0-551.0","0","0","82950","","null","","","null","61","","","","","","","","","","","","","","","",""
"","ISI","","html-keyboard-response","404","1935590","0.0-1.0-552.0","0","0","82950","","null","","","null","61","NaN","","","","","","","","","","","","","","",""
"","S2","","html-keyboard-response","405","1935842","0.0-1.0-553.0","0","0","82950","","null","","","null","61","","NaN","","","","","","","","","","","","","",""
"","response","","html-keyboard-response","406","1936267","0.0-1.0-554.0-0.0","0","0","82950","","424","","","68","61","","","2","61","training","adjacent","FE","6","5","Q.jpg","R.jpg","1","0","0","",""
"","feedback","","html-keyboard-response","407","1937269","0.0-1.0-555.0-0.0","0","0","82950","","null","","","null","61","","","","","","","","","","","","","","","",""
"","time_out","","html-keyboard-response","408","1939271","0.0-1.0-557.0-0.0","0","0","82950","","null","","","null","61","","","","","","","","","","","","","","","",""
"","ITI","","html-keyboard-response","409","1940272","0.0-1.0-558.0","0","0","82950","","null","","","null","61","","","","","","","","","","","","","","","NaN",""
"","S1","","html-keyboard-response","410","1940524","0.0-1.0-560.0","0","0","82950","","null","","","null","62","","","","","","","","","","","","","","","",""
"","ISI","","html-keyboard-response","411","1941526","0.0-1.0-561.0","0","0","82950","","null","","","null","62","NaN","","","","","","","","","","","","","","",""
"","S2","","html-keyboard-response","412","1941789","0.0-1.0-562.0","0","0","82950","","null","","","null","62","","NaN","","","","","","","","","","","","","",""
"","response","","html-keyboard-response","413","1942476","0.0-1.0-563.0-0.0","0","0","82950","","685","","","68","62","","","2","62","training","adjacent","FG","6","7","Q.jpg","P.jpg","1","1","1","",""
"","feedback","","html-keyboard-response","414","1943478","0.0-1.0-564.0-0.0","0","0","82950","","null","","","null","62","","","","","","","","","","","","","","","",""
"","ITI","","html-keyboard-response","415","1944480","0.0-1.0-567.0","0","0","82950","","null","","","null","62","","","","","","","","","","","","","","","NaN",""
"","S1","","html-keyboard-response","416","1944731","0.0-1.0-569.0","0","0","82950","","null","","","null","63","","","","","","","","","","","","","","","",""
"","ISI","","html-keyboard-response","417","1945733","0.0-1.0-570.0","0","0","82950","","null","","","null","63","NaN","","","","","","","","","","","","","","",""
"","S2","","html-keyboard-response","418","1945985","0.0-1.0-571.0","0","0","82950","","null","","","null","63","","NaN","","","","","","","","","","","","","",""
"","response","","html-keyboard-response","419","1946667","0.0-1.0-572.0-0.0","0","0","82950","","681","","","68","63","","","2","63","training","adjacent","DC","4","3","O.jpg","M.jpg","1","0","0","",""
"","feedback","","html-keyboard-response","420","1947670","0.0-1.0-573.0-0.0","0","0","82950","","null","","","null","63","","","","","","","","","","","","","","","",""
"","time_out","","html-keyboard-response","421","1949672","0.0-1.0-575.0-0.0","0","0","82950","","null","","","null","63","","","","","","","","","","","","","","","",""
"","ITI","","html-keyboard-response","422","1950673","0.0-1.0-576.0","0","0","82950","","null","","","null","63","","","","","","","","","","","","","","","NaN",""
"","S1","","html-keyboard-response","423","1950924","0.0-1.0-578.0","0","0","82950","","null","","","null","64","","","","","","","","","","","","","","","",""
"","ISI","","html-keyboard-response","424","1951925","0.0-1.0-579.0","0","0","82950","","null","","","null","64","NaN","","","","","","","","","","","","","","",""
"","S2","","html-keyboard-response","425","1952184","0.0-1.0-580.0","0","0","82950","","null","","","null","64","","NaN","","","","","","","","","","","","","",""
"","response","","html-keyboard-response","426","1952996","0.0-1.0-581.0-0.0","0","0","82950","","811","","","75","64","","","2","64","training","adjacent","EF","5","6","R.jpg","Q.jpg","0","1","0","",""
"","feedback","","html-keyboard-response","427","1953998","0.0-1.0-582.0-0.0","0","0","82950","","null","","","null","64","","","","","","","","","","","","","","","",""
"","time_out","","html-keyboard-response","428","1956000","0.0-1.0-584.0-0.0","0","0","82950","","null","","","null","64","","","","","","","","","","","","","","","",""
"","ITI","","html-keyboard-response","429","1957002","0.0-1.0-585.0","0","0","82950","","null","","","null","64","","","","","","","","","","","","","","","NaN",""
"","S1","","html-keyboard-response","430","1957254","0.0-1.0-587.0","0","0","82950","","null","","","null","65","","","","","","","","","","","","","","","",""
"","ISI","","html-keyboard-response","431","1958256","0.0-1.0-588.0","0","0","82950","","null","","","null","65","NaN","","","","","","","","","","","","","","",""
"","S2","","html-keyboard-response","432","1958521","0.0-1.0-589.0","0","0","82950","","null","","","null","65","","NaN","","","","","","","","","","","","","",""
"","response","","html-keyboard-response","433","1959683","0.0-1.0-590.0-0.0","0","0","82950","","1161","","","75","65","","","2","65","training","adjacent","DE","4","5","O.jpg","R.jpg","0","1","0","",""
"","feedback","","html-keyboard-response","434","1960684","0.0-1.0-591.0-0.0","0","0","82950","","null","","","null","65","","","","","","","","","","","","","","","",""
"","time_out","","html-keyboard-response","435","1962686","0.0-1.0-593.0-0.0","0","0","82950","","null","","","null","65","","","","","","","","","","","","","","","",""
"","ITI","","html-keyboard-response","436","1963687","0.0-1.0-594.0","0","0","82950","","null","","","null","65","","","","","","","","","","","","","","","NaN",""
"","S1","","html-keyboard-response","437","1963939","0.0-1.0-596.0","0","0","82950","","null","","","null","66","","","","","","","","","","","","","","","",""
"","ISI","","html-keyboard-response","438","1964940","0.0-1.0-597.0","0","0","82950","","null","","","null","66","NaN","","","","","","","","","","","","","","",""
"","S2","","html-keyboard-response","439","1965192","0.0-1.0-598.0","0","0","82950","","null","","","null","66","","NaN","","","","","","","","","","","","","",""
"","response","","html-keyboard-response","440","1965724","0.0-1.0-599.0-0.0","0","0","82950","","530","","","75","66","","","2","66","training","adjacent","GF","7","6","P.jpg","Q.jpg","0","0","1","",""
"","feedback","","html-keyboard-response","441","1966725","0.0-1.0-600.0-0.0","0","0","82950","","null","","","null","66","","","","","","","","","","","","","","","",""
"","ITI","","html-keyboard-response","442","1967726","0.0-1.0-603.0","0","0","82950","","null","","","null","66","","","","","","","","","","","","","","","NaN",""
"","S1","","html-keyboard-response","443","1967978","0.0-1.0-605.0","0","0","82950","","null","","","null","67","","","","","","","","","","","","","","","",""
"","ISI","","html-keyboard-response","444","1968979","0.0-1.0-606.0","0","0","82950","","null","","","null","67","NaN","","","","","","","","","","","","","","",""
"","S2","","html-keyboard-response","445","1969231","0.0-1.0-607.0","0","0","82950","","null","","","null","67","","NaN","","","","","","","","","","","","","",""
"","response","","html-keyboard-response","446","1969819","0.0-1.0-608.0-0.0","0","0","82950","","587","","","75","67","","","2","67","training","adjacent","DC","4","3","O.jpg","M.jpg","0","0","1","",""
"","feedback","","html-keyboard-response","447","1970822","0.0-1.0-609.0-0.0","0","0","82950","","null","","","null","67","","","","","","","","","","","","","","","",""
"","ITI","","html-keyboard-response","448","1971823","0.0-1.0-612.0","0","0","82950","","null","","","null","67","","","","","","","","","","","","","","","NaN",""
"","S1","","html-keyboard-response","449","1972075","0.0-1.0-614.0","0","0","82950","","null","","","null","68","","","","","","","","","","","","","","","",""
"","ISI","","html-keyboard-response","450","1973077","0.0-1.0-615.0","0","0","82950","","null","","","null","68","NaN","","","","","","","","","","","","","","",""
"","S2","","html-keyboard-response","451","1973329","0.0-1.0-616.0","0","0","82950","","null","","","null","68","","NaN","","","","","","","","","","","","","",""
"","response","","html-keyboard-response","452","1974347","0.0-1.0-617.0-0.0","0","0","82950","","1018","","","68","68","","","2","68","training","adjacent","EF","5","6","R.jpg","Q.jpg","1","1","1","",""
"","feedback","","html-keyboard-response","453","1975349","0.0-1.0-618.0-0.0","0","0","82950","","null","","","null","68","","","","","","","","","","","","","","","",""
"","ITI","","html-keyboard-response","454","1976358","0.0-1.0-621.0","0","0","82950","","null","","","null","68","","","","","","","","","","","","","","","NaN",""
"","S1","","html-keyboard-response","455","1976610","0.0-1.0-623.0","0","0","82950","","null","","","null","69","","","","","","","","","","","","","","","",""
"","ISI","","html-keyboard-response","456","1977612","0.0-1.0-624.0","0","0","82950","","null","","","null","69","NaN","","","","","","","","","","","","","","",""
"","S2","","html-keyboard-response","457","1977865","0.0-1.0-625.0","0","0","82950","","null","","","null","69","","NaN","","","","","","","","","","","","","",""
"","response","","html-keyboard-response","458","1978100","0.0-1.0-626.0-0.0","0","0","82950","","233","","","75","69","","","2","69","training","adjacent","BA","2","1","L.jpg","N.jpg","0","0","1","",""
"","feedback","","html-keyboard-response","459","1979101","0.0-1.0-627.0-0.0","0","0","82950","","null","","","null","69","","","","","","","","","","","","","","","",""
"","ITI","","html-keyboard-response","460","1980103","0.0-1.0-630.0","0","0","82950","","null","","","null","69","","","","","","","","","","","","","","","NaN",""
"","S1","","html-keyboard-response","461","1980355","0.0-1.0-632.0","0","0","82950","","null","","","null","70","","","","","","","","","","","","","","","",""
"","ISI","","html-keyboard-response","462","1981356","0.0-1.0-633.0","0","0","82950","","null","","","null","70","NaN","","","","","","","","","","","","","","",""
"","S2","","html-keyboard-response","463","1981621","0.0-1.0-634.0","0","0","82950","","null","","","null","70","","NaN","","","","","","","","","","","","","",""
"","response","","html-keyboard-response","464","1982092","0.0-1.0-635.0-0.0","0","0","82950","","469","","","68","70","","","2","70","training","adjacent","FE","6","5","Q.jpg","R.jpg","1","0","0","",""
"","feedback","","html-keyboard-response","465","1983094","0.0-1.0-636.0-0.0","0","0","82950","","null","","","null","70","","","","","","","","","","","","","","","",""
"","time_out","","html-keyboard-response","466","1985096","0.0-1.0-638.0-0.0","0","0","82950","","null","","","null","70","","","","","","","","","","","","","","","",""
"","ITI","","html-keyboard-response","467","1986098","0.0-1.0-639.0","0","0","82950","","null","","","null","70","","","","","","","","","","","","","","","NaN",""
"","S1","","html-keyboard-response","468","1986349","0.0-1.0-641.0","0","0","82950","","null","","","null","71","","","","","","","","","","","","","","","",""
"","ISI","","html-keyboard-response","469","1987351","0.0-1.0-642.0","0","0","82950","","null","","","null","71","NaN","","","","","","","","","","","","","","",""
"","S2","","html-keyboard-response","470","1987603","0.0-1.0-643.0","0","0","82950","","null","","","null","71","","NaN","","","","","","","","","","","","","",""
"","response","","html-keyboard-response","471","1988140","0.0-1.0-644.0-0.0","0","0","82950","","535","","","75","71","","","2","71","training","adjacent","EF","5","6","R.jpg","Q.jpg","0","1","0","",""
"","feedback","","html-keyboard-response","472","1989141","0.0-1.0-645.0-0.0","0","0","82950","","null","","","null","71","","","","","","","","","","","","","","","",""
"","time_out","","html-keyboard-response","473","1991143","0.0-1.0-647.0-0.0","0","0","82950","","null","","","null","71","","","","","","","","","","","","","","","",""
"","ITI","","html-keyboard-response","474","1992144","0.0-1.0-648.0","0","0","82950","","null","","","null","71","","","","","","","","","","","","","","","NaN",""
"","S1","","html-keyboard-response","475","1992397","0.0-1.0-650.0","0","0","82950","","null","","","null","72","","","","","","","","","","","","","","","",""
"","ISI","","html-keyboard-response","476","1993398","0.0-1.0-651.0","0","0","82950","","null","","","null","72","NaN","","","","","","","","","","","","","","",""
"","S2","","html-keyboard-response","477","1993650","0.0-1.0-652.0","0","0","82950","","null","","","null","72","","NaN","","","","","","","","","","","","","",""
"","response","","html-keyboard-response","478","1994868","0.0-1.0-653.0-0.0","0","0","82950","","1216","","","75","72","","","2","72","training","adjacent","CB","3","2","M.jpg","L.jpg","0","0","1","",""
"","feedback","","html-keyboard-response","479","1995869","0.0-1.0-654.0-0.0","0","0","82950","","null","","","null","72","","","","","","","","","","","","","","","",""
"","ITI","","html-keyboard-response","480","1996871","0.0-1.0-657.0","0","0","82950","","null","","","null","72","","","","","","","","","","","","","","","NaN",""
"","S1","","html-keyboard-response","481","1997122","0.0-1.0-659.0","0","0","82950","","null","","","null","73","","","","","","","","","","","","","","","",""
"","ISI","","html-keyboard-response","482","1998124","0.0-1.0-660.0","0","0","82950","","null","","","null","73","NaN","","","","","","","","","","","","","","",""
"","S2","","html-keyboard-response","483","1998377","0.0-1.0-661.0","0","0","82950","","null","","","null","73","","NaN","","","","","","","","","","","","","",""
"","response","","html-keyboard-response","484","1999260","0.0-1.0-662.0-0.0","0","0","82950","","881","","","75","73","","","2","73","training","adjacent","GF","7","6","P.jpg","Q.jpg","0","0","1","",""
"","feedback","","html-keyboard-response","485","2000262","0.0-1.0-663.0-0.0","0","0","82950","","null","","","null","73","","","","","","","","","","","","","","","",""
"","ITI","","html-keyboard-response","486","2001263","0.0-1.0-666.0","0","0","82950","","null","","","null","73","","","","","","","","","","","","","","","NaN",""
"","S1","","html-keyboard-response","487","2001515","0.0-1.0-668.0","0","0","82950","","null","","","null","74","","","","","","","","","","","","","","","",""
"","ISI","","html-keyboard-response","488","2002517","0.0-1.0-669.0","0","0","82950","","null","","","null","74","NaN","","","","","","","","","","","","","","",""
"","S2","","html-keyboard-response","489","2002769","0.0-1.0-670.0","0","0","82950","","null","","","null","74","","NaN","","","","","","","","","","","","","",""
"","response","","html-keyboard-response","490","2003516","0.0-1.0-671.0-0.0","0","0","82950","","746","","","68","74","","","2","74","training","adjacent","CD","3","4","M.jpg","O.jpg","1","1","1","",""
"","feedback","","html-keyboard-response","491","2004518","0.0-1.0-672.0-0.0","0","0","82950","","null","","","null","74","","","","","","","","","","","","","","","",""
"","ITI","","html-keyboard-response","492","2005519","0.0-1.0-675.0","0","0","82950","","null","","","null","74","","","","","","","","","","","","","","","NaN",""
"","S1","","html-keyboard-response","493","2005770","0.0-1.0-677.0","0","0","82950","","null","","","null","75","","","","","","","","","","","","","","","",""
"","ISI","","html-keyboard-response","494","2006772","0.0-1.0-678.0","0","0","82950","","null","","","null","75","NaN","","","","","","","","","","","","","","",""
"","S2","","html-keyboard-response","495","2007025","0.0-1.0-679.0","0","0","82950","","null","","","null","75","","NaN","","","","","","","","","","","","","",""
"","response","","html-keyboard-response","496","2007660","0.0-1.0-680.0-0.0","0","0","82950","","634","","","68","75","","","2","75","training","adjacent","FG","6","7","Q.jpg","P.jpg","1","1","1","",""
"","feedback","","html-keyboard-response","497","2008662","0.0-1.0-681.0-0.0","0","0","82950","","null","","","null","75","","","","","","","","","","","","","","","",""
"","ITI","","html-keyboard-response","498","2009664","0.0-1.0-684.0","0","0","82950","","null","","","null","75","","","","","","","","","","","","","","","NaN",""
"","S1","","html-keyboard-response","499","2009915","0.0-1.0-686.0","0","0","82950","","null","","","null","76","","","","","","","","","","","","","","","",""
"","ISI","","html-keyboard-response","500","2010917","0.0-1.0-687.0","0","0","82950","","null","","","null","76","NaN","","","","","","","","","","","","","","",""
"","S2","","html-keyboard-response","501","2011169","0.0-1.0-688.0","0","0","82950","","null","","","null","76","","NaN","","","","","","","","","","","","","",""
"","response","","html-keyboard-response","502","2011668","0.0-1.0-689.0-0.0","0","0","82950","","497","","","75","76","","","2","76","training","adjacent","DC","4","3","O.jpg","M.jpg","0","0","1","",""
"","feedback","","html-keyboard-response","503","2012670","0.0-1.0-690.0-0.0","0","0","82950","","null","","","null","76","","","","","","","","","","","","","","","",""
"","ITI","","html-keyboard-response","504","2013672","0.0-1.0-693.0","0","0","82950","","null","","","null","76","","","","","","","","","","","","","","","NaN",""
"","S1","","html-keyboard-response","505","2013923","0.0-1.0-695.0","0","0","82950","","null","","","null","77","","","","","","","","","","","","","","","",""
"","ISI","","html-keyboard-response","506","2014925","0.0-1.0-696.0","0","0","82950","","null","","","null","77","NaN","","","","","","","","","","","","","","",""
"","S2","","html-keyboard-response","507","2015177","0.0-1.0-697.0","0","0","82950","","null","","","null","77","","NaN","","","","","","","","","","","","","",""
"","response","","html-keyboard-response","508","2015764","0.0-1.0-698.0-0.0","0","0","82950","","585","","","75","77","","","2","77","training","adjacent","CB","3","2","M.jpg","L.jpg","0","0","1","",""
"","feedback","","html-keyboard-response","509","2016765","0.0-1.0-699.0-0.0","0","0","82950","","null","","","null","77","","","","","","","","","","","","","","","",""
"","ITI","","html-keyboard-response","510","2017767","0.0-1.0-702.0","0","0","82950","","null","","","null","77","","","","","","","","","","","","","","","NaN",""
"","S1","","html-keyboard-response","511","2018018","0.0-1.0-704.0","0","0","82950","","null","","","null","78","","","","","","","","","","","","","","","",""
"","ISI","","html-keyboard-response","512","2019020","0.0-1.0-705.0","0","0","82950","","null","","","null","78","NaN","","","","","","","","","","","","","","",""
"","S2","","html-keyboard-response","513","2019272","0.0-1.0-706.0","0","0","82950","","null","","","null","78","","NaN","","","","","","","","","","","","","",""
"","response","","html-keyboard-response","514","2019636","0.0-1.0-707.0-0.0","0","0","82950","","363","","","75","78","","","2","78","training","adjacent","BA","2","1","L.jpg","N.jpg","0","0","1","",""
"","feedback","","html-keyboard-response","515","2020638","0.0-1.0-708.0-0.0","0","0","82950","","null","","","null","78","","","","","","","","","","","","","","","",""
"","ITI","","html-keyboard-response","516","2021639","0.0-1.0-711.0","0","0","82950","","null","","","null","78","","","","","","","","","","","","","","","NaN",""
"","S1","","html-keyboard-response","517","2021891","0.0-1.0-713.0","0","0","82950","","null","","","null","79","","","","","","","","","","","","","","","",""
"","ISI","","html-keyboard-response","518","2022892","0.0-1.0-714.0","0","0","82950","","null","","","null","79","NaN","","","","","","","","","","","","","","",""
"","S2","","html-keyboard-response","519","2023146","0.0-1.0-715.0","0","0","82950","","null","","","null","79","","NaN","","","","","","","","","","","","","",""
"","response","","html-keyboard-response","520","2023684","0.0-1.0-716.0-0.0","0","0","82950","","537","","","75","79","","","2","79","training","adjacent","CB","3","2","M.jpg","L.jpg","0","0","1","",""
"","feedback","","html-keyboard-response","521","2024686","0.0-1.0-717.0-0.0","0","0","82950","","null","","","null","79","","","","","","","","","","","","","","","",""
"","ITI","","html-keyboard-response","522","2025687","0.0-1.0-720.0","0","0","82950","","null","","","null","79","","","","","","","","","","","","","","","NaN",""
"","S1","","html-keyboard-response","523","2025939","0.0-1.0-722.0","0","0","82950","","null","","","null","80","","","","","","","","","","","","","","","",""
"","ISI","","html-keyboard-response","524","2026940","0.0-1.0-723.0","0","0","82950","","null","","","null","80","NaN","","","","","","","","","","","","","","",""
"","S2","","html-keyboard-response","525","2027192","0.0-1.0-724.0","0","0","82950","","null","","","null","80","","NaN","","","","","","","","","","","","","",""
"","response","","html-keyboard-response","526","2028436","0.0-1.0-725.0-0.0","0","0","82950","","1242","","","68","80","","","2","80","training","adjacent","FG","6","7","Q.jpg","P.jpg","1","1","1","",""
"","feedback","","html-keyboard-response","527","2029444","0.0-1.0-726.0-0.0","0","0","82950","","null","","","null","80","","","","","","","","","","","","","","","",""
"","ITI","","html-keyboard-response","528","2030446","0.0-1.0-729.0","0","0","82950","","null","","","null","80","","","","","","","","","","","","","","","NaN",""
"","S1","","html-keyboard-response","529","2030703","0.0-1.0-731.0","0","0","82950","","null","","","null","81","","","","","","","","","","","","","","","",""
"","ISI","","html-keyboard-response","530","2031718","0.0-1.0-732.0","0","0","82950","","null","","","null","81","NaN","","","","","","","","","","","","","","",""
"","S2","","html-keyboard-response","531","2031971","0.0-1.0-733.0","0","0","82950","","null","","","null","81","","NaN","","","","","","","","","","","","","",""
"","response","","html-keyboard-response","532","2032316","0.0-1.0-734.0-0.0","0","0","82950","","343","","","75","81","","","2","81","training","adjacent","GF","7","6","P.jpg","Q.jpg","0","0","1","",""
"","feedback","","html-keyboard-response","533","2033318","0.0-1.0-735.0-0.0","0","0","82950","","null","","","null","81","","","","","","","","","","","","","","","",""
"","ITI","","html-keyboard-response","534","2034320","0.0-1.0-738.0","0","0","82950","","null","","","null","81","","","","","","","","","","","","","","","NaN",""
"","S1","","html-keyboard-response","535","2034584","0.0-1.0-740.0","0","0","82950","","null","","","null","82","","","","","","","","","","","","","","","",""
"","ISI","","html-keyboard-response","536","2035585","0.0-1.0-741.0","0","0","82950","","null","","","null","82","NaN","","","","","","","","","","","","","","",""
"","S2","","html-keyboard-response","537","2035837","0.0-1.0-742.0","0","0","82950","","null","","","null","82","","NaN","","","","","","","","","","","","","",""
"","response","","html-keyboard-response","538","2036180","0.0-1.0-743.0-0.0","0","0","82950","","341","","","68","82","","","2","82","training","adjacent","AB","1","2","N.jpg","L.jpg","1","1","1","",""
"","feedback","","html-keyboard-response","539","2037181","0.0-1.0-744.0-0.0","0","0","82950","","null","","","null","82","","","","","","","","","","","","","","","",""
"","ITI","","html-keyboard-response","540","2038184","0.0-1.0-747.0","0","0","82950","","null","","","null","82","","","","","","","","","","","","","","","NaN",""
"","S1","","html-keyboard-response","541","2038435","0.0-1.0-749.0","0","0","82950","","null","","","null","83","","","","","","","","","","","","","","","",""
"","ISI","","html-keyboard-response","542","2039436","0.0-1.0-750.0","0","0","82950","","null","","","null","83","NaN","","","","","","","","","","","","","","",""
"","S2","","html-keyboard-response","543","2039693","0.0-1.0-751.0","0","0","82950","","null","","","null","83","","NaN","","","","","","","","","","","","","",""
"","response","","html-keyboard-response","544","2040116","0.0-1.0-752.0-0.0","0","0","82950","","421","","","75","83","","","2","83","training","adjacent","ED","5","4","R.jpg","O.jpg","0","0","1","",""
"","feedback","","html-keyboard-response","545","2041118","0.0-1.0-753.0-0.0","0","0","82950","","null","","","null","83","","","","","","","","","","","","","","","",""
"","ITI","","html-keyboard-response","546","2042120","0.0-1.0-756.0","0","0","82950","","null","","","null","83","","","","","","","","","","","","","","","NaN",""
"","S1","","html-keyboard-response","547","2042372","0.0-1.0-758.0","0","0","82950","","null","","","null","84","","","","","","","","","","","","","","","",""
"","ISI","","html-keyboard-response","548","2043373","0.0-1.0-759.0","0","0","82950","","null","","","null","84","NaN","","","","","","","","","","","","","","",""
"","S2","","html-keyboard-response","549","2043625","0.0-1.0-760.0","0","0","82950","","null","","","null","84","","NaN","","","","","","","","","","","","","",""
"","response","","html-keyboard-response","550","2044340","0.0-1.0-761.0-0.0","0","0","82950","","714","","","75","84","","","2","84","training","adjacent","BC","2","3","L.jpg","M.jpg","0","1","0","",""
"","feedback","","html-keyboard-response","551","2045342","0.0-1.0-762.0-0.0","0","0","82950","","null","","","null","84","","","","","","","","","","","","","","","",""
"","time_out","","html-keyboard-response","552","2047345","0.0-1.0-764.0-0.0","0","0","82950","","null","","","null","84","","","","","","","","","","","","","","","",""
"","ITI","","html-keyboard-response","553","2048347","0.0-1.0-765.0","0","0","82950","","null","","","null","84","","","","","","","","","","","","","","","NaN",""
"","S1","","html-keyboard-response","554","2048598","0.0-1.0-767.0","0","0","82950","","null","","","null","85","","","","","","","","","","","","","","","",""
"","ISI","","html-keyboard-response","555","2049601","0.0-1.0-768.0","0","0","82950","","null","","","null","85","NaN","","","","","","","","","","","","","","",""
"","S2","","html-keyboard-response","556","2049853","0.0-1.0-769.0","0","0","82950","","null","","","null","85","","NaN","","","","","","","","","","","","","",""
"","response","","html-keyboard-response","557","2050292","0.0-1.0-770.0-0.0","0","0","82950","","437","","","75","85","","","2","85","training","adjacent","EF","5","6","R.jpg","Q.jpg","0","1","0","",""
"","feedback","","html-keyboard-response","558","2051294","0.0-1.0-771.0-0.0","0","0","82950","","null","","","null","85","","","","","","","","","","","","","","","",""
"","time_out","","html-keyboard-response","559","2053296","0.0-1.0-773.0-0.0","0","0","82950","","null","","","null","85","","","","","","","","","","","","","","","",""
"","ITI","","html-keyboard-response","560","2054297","0.0-1.0-774.0","0","0","82950","","null","","","null","85","","","","","","","","","","","","","","","NaN",""
"","S1","","html-keyboard-response","561","2054549","0.0-1.0-776.0","0","0","82950","","null","","","null","86","","","","","","","","","","","","","","","",""
"","ISI","","html-keyboard-response","562","2055551","0.0-1.0-777.0","0","0","82950","","null","","","null","86","NaN","","","","","","","","","","","","","","",""
"","S2","","html-keyboard-response","563","2055804","0.0-1.0-778.0","0","0","82950","","null","","","null","86","","NaN","","","","","","","","","","","","","",""
"","response","","html-keyboard-response","564","2056244","0.0-1.0-779.0-0.0","0","0","82950","","438","","","75","86","","","2","86","training","adjacent","FE","6","5","Q.jpg","R.jpg","0","0","1","",""
"","feedback","","html-keyboard-response","565","2057246","0.0-1.0-780.0-0.0","0","0","82950","","null","","","null","86","","","","","","","","","","","","","","","",""
"","ITI","","html-keyboard-response","566","2058248","0.0-1.0-783.0","0","0","82950","","null","","","null","86","","","","","","","","","","","","","","","NaN",""
"","S1","","html-keyboard-response","567","2058500","0.0-1.0-785.0","0","0","82950","","null","","","null","87","","","","","","","","","","","","","","","",""
"","ISI","","html-keyboard-response","568","2059502","0.0-1.0-786.0","0","0","82950","","null","","","null","87","NaN","","","","","","","","","","","","","","",""
"","S2","","html-keyboard-response","569","2059754","0.0-1.0-787.0","0","0","82950","","null","","","null","87","","NaN","","","","","","","","","","","","","",""
"","response","","html-keyboard-response","570","2060916","0.0-1.0-788.0-0.0","0","0","82950","","1160","","","68","87","","","2","87","training","adjacent","DC","4","3","O.jpg","M.jpg","1","0","0","",""
"","feedback","","html-keyboard-response","571","2061917","0.0-1.0-789.0-0.0","0","0","82950","","null","","","null","87","","","","","","","","","","","","","","","",""
"","time_out","","html-keyboard-response","572","2063920","0.0-1.0-791.0-0.0","0","0","82950","","null","","","null","87","","","","","","","","","","","","","","","",""
"","ITI","","html-keyboard-response","573","2064921","0.0-1.0-792.0","0","0","82950","","null","","","null","87","","","","","","","","","","","","","","","NaN",""
"","S1","","html-keyboard-response","574","2065172","0.0-1.0-794.0","0","0","82950","","null","","","null","88","","","","","","","","","","","","","","","",""
"","ISI","","html-keyboard-response","575","2066174","0.0-1.0-795.0","0","0","82950","","null","","","null","88","NaN","","","","","","","","","","","","","","",""
"","S2","","html-keyboard-response","576","2066426","0.0-1.0-796.0","0","0","82950","","null","","","null","88","","NaN","","","","","","","","","","","","","",""
"","response","","html-keyboard-response","577","2066940","0.0-1.0-797.0-0.0","0","0","82950","","513","","","75","88","","","2","88","training","adjacent","CB","3","2","M.jpg","L.jpg","0","0","1","",""
