"success","ttype","start_time","trial_type","trial_index","time_elapsed","internal_node_id","warning","missed_checkup","PID","view_history","rt","responses","repeat_instructions","key_press","index","keypress_isi","keypress_S2","block","trial_num","phase","group_type","pair_type","S1_stim","S2_stim","S1_img","S2_img","S1_chosen","S1_higher","accuracy","keypress_iti","total_bonus_tally"
"true","full_screen","d08012022hr1341","fullscreen","0","6593","0.0-0.0","0","0","39050","","","","","","","","","","","","","","","","","","","","","",""
"","instructions","","instructions","1","37059","0.0-1.0-0.0-0.0","0","0","39050","[{""page_index"":0,""viewing_time"":4681},{""page_index"":1,""viewing_time"":15961},{""page_index"":2,""viewing_time"":7722},{""page_index"":3,""viewing_time"":2096}]","30461","","","","","","","","","","","","","","","","","","","",""
"","comprehension_check","","survey-multi-choice","2","57617","0.0-1.0-0.0-1.0","0","0","39050","","20550","{""Q0"":""False"",""Q1"":""D"",""Q2"":""When you see the prompt 'MAKE A CHOICE' after the second image was presented"",""Q3"":""Green mark"",""Q4"":""either D or K""}","1","","","","","","","","","","","","","","","","","",""
"","missed_instruction_checkup","","html-keyboard-response","3","59229","0.0-1.0-0.0-2.0-0.0","0","1","39050","","1605","","","32","","","","","","","","","","","","","","","","",""
"","instructions","","instructions","4","75476","0.0-1.0-0.1-0.1","0","0","39050","[{""page_index"":0,""viewing_time"":4164},{""page_index"":1,""viewing_time"":1945},{""page_index"":2,""viewing_time"":1576},{""page_index"":1,""viewing_time"":5322},{""page_index"":2,""viewing_time"":2280},{""page_index"":3,""viewing_time"":954}]","16242","","","","","","","","","","","","","","","","","","","",""
"","comprehension_check","","survey-multi-choice","5","91231","0.0-1.0-0.1-1.1","0","0","39050","","15745","{""Q0"":""True"",""Q1"":""D"",""Q2"":""When you see the prompt 'MAKE A CHOICE' after the second image was presented"",""Q3"":""Green mark"",""Q4"":""either D or K""}","0","","","","","","","","","","","","","","","","","",""
"","start_exp","","html-keyboard-response","6","302015","0.0-1.0-1.0","0","0","39050","","210779","","","32","","","","","","","","","","","","","","","","",""
"","S1","","html-keyboard-response","7","302270","0.0-1.0-2.0","0","0","39050","","null","","","null","0","","","","","","","","","","","","","","","",""
"","ISI","","html-keyboard-response","8","304274","0.0-1.0-3.0","0","0","39050","","null","","","null","0","NaN","","","","","","","","","","","","","","",""
"","S2","","html-keyboard-response","9","304529","0.0-1.0-4.0","0","0","39050","","null","","","null","0","","NaN","","","","","","","","","","","","","",""
"","response","","html-keyboard-response","10","306403","0.0-1.0-5.0","0","0","39050","","1870","","","68","0","","","1","0","training","adjacent","GF","7","6","L.jpg","M.jpg","1","0","0","",""
"","feedback","","html-keyboard-response","11","307408","0.0-1.0-6.0-0.0","0","0","39050","","null","","","null","0","","","","","","","","","","","","","","","",""
"","time_out","","html-keyboard-response","12","309413","0.0-1.0-8.0-0.0","0","0","39050","","null","","","null","0","","","","","","","","","","","","","","","",""
"","ITI","","html-keyboard-response","13","310417","0.0-1.0-9.0","0","0","39050","","null","","","null","0","","","","","","","","","","","","","","","NaN",""
"","S1","","html-keyboard-response","14","310671","0.0-1.0-11.0","0","0","39050","","null","","","null","1","","","","","","","","","","","","","","","",""
"","ISI","","html-keyboard-response","15","312675","0.0-1.0-12.0","0","0","39050","","null","","","null","1","NaN","","","","","","","","","","","","","","",""
"","S2","","html-keyboard-response","16","312929","0.0-1.0-13.0","0","0","39050","","null","","","null","1","","NaN","","","","","","","","","","","","","",""
"","response","","html-keyboard-response","17","313621","0.0-1.0-14.0","0","0","39050","","688","","","75","1","","","1","1","training","adjacent","CB","3","2","R.jpg","O.jpg","0","0","1","",""
"","feedback","","html-keyboard-response","18","314626","0.0-1.0-15.0-0.0","0","0","39050","","null","","","null","1","","","","","","","","","","","","","","","",""
"","ITI","","html-keyboard-response","19","315630","0.0-1.0-18.0","0","0","39050","","null","","","null","1","","","","","","","","","","","","","","","NaN",""
"","S1","","html-keyboard-response","20","315884","0.0-1.0-20.0","0","0","39050","","null","","","null","2","","","","","","","","","","","","","","","",""
"","ISI","","html-keyboard-response","21","317888","0.0-1.0-21.0","0","0","39050","","null","","","null","2","NaN","","","","","","","","","","","","","","",""
"","S2","","html-keyboard-response","22","318142","0.0-1.0-22.0","0","0","39050","","null","","","null","2","","NaN","","","","","","","","","","","","","",""
"","response","","html-keyboard-response","23","318865","0.0-1.0-23.0","0","0","39050","","719","","","68","2","","","1","2","training","adjacent","GF","7","6","L.jpg","M.jpg","1","0","0","",""
"","feedback","","html-keyboard-response","24","319869","0.0-1.0-24.0-0.0","0","0","39050","","null","","","null","2","","","","","","","","","","","","","","","",""
"","time_out","","html-keyboard-response","25","321873","0.0-1.0-26.0-0.0","0","0","39050","","null","","","null","2","","","","","","","","","","","","","","","",""
"","ITI","","html-keyboard-response","26","322877","0.0-1.0-27.0","0","0","39050","","null","","","null","2","","","","","","","","","","","","","","","NaN",""
"","S1","","html-keyboard-response","27","323130","0.0-1.0-29.0","0","0","39050","","null","","","null","3","","","","","","","","","","","","","","","",""
"","ISI","","html-keyboard-response","28","325134","0.0-1.0-30.0","0","0","39050","","null","","","null","3","NaN","","","","","","","","","","","","","","",""
"","S2","","html-keyboard-response","29","325389","0.0-1.0-31.0","0","0","39050","","null","","","null","3","","NaN","","","","","","","","","","","","","",""
"","response","","html-keyboard-response","30","325997","0.0-1.0-32.0","0","0","39050","","605","","","68","3","","","1","3","training","adjacent","BC","2","3","O.jpg","R.jpg","1","1","1","",""
"","feedback","","html-keyboard-response","31","327001","0.0-1.0-33.0-0.0","0","0","39050","","null","","","null","3","","","","","","","","","","","","","","","",""
"","ITI","","html-keyboard-response","32","328005","0.0-1.0-36.0","0","0","39050","","null","","","null","3","","","","","","","","","","","","","","","NaN",""
"","S1","","html-keyboard-response","33","328259","0.0-1.0-38.0","0","0","39050","","null","","","null","4","","","","","","","","","","","","","","","",""
"","ISI","","html-keyboard-response","34","330263","0.0-1.0-39.0","0","0","39050","","null","","","null","4","NaN","","","","","","","","","","","","","","",""
"","S2","","html-keyboard-response","35","330516","0.0-1.0-40.0","0","0","39050","","null","","","null","4","","NaN","","","","","","","","","","","","","",""
"","response","","html-keyboard-response","36","331460","0.0-1.0-41.0","0","0","39050","","941","","","75","4","","","1","4","training","adjacent","CB","3","2","R.jpg","O.jpg","0","0","1","",""
"","feedback","","html-keyboard-response","37","332465","0.0-1.0-42.0-0.0","0","0","39050","","null","","","null","4","","","","","","","","","","","","","","","",""
"","ITI","","html-keyboard-response","38","333468","0.0-1.0-45.0","0","0","39050","","null","","","null","4","","","","","","","","","","","","","","","NaN",""
"","S1","","html-keyboard-response","39","333723","0.0-1.0-47.0","0","0","39050","","null","","","null","5","","","","","","","","","","","","","","","",""
"","ISI","","html-keyboard-response","40","335726","0.0-1.0-48.0","0","0","39050","","null","","","null","5","NaN","","","","","","","","","","","","","","",""
"","S2","","html-keyboard-response","41","335982","0.0-1.0-49.0","0","0","39050","","null","","","null","5","","NaN","","","","","","","","","","","","","",""
"","response","","html-keyboard-response","42","336649","0.0-1.0-50.0","0","0","39050","","665","","","68","5","","","1","5","training","adjacent","FG","6","7","M.jpg","L.jpg","1","1","1","",""
"","feedback","","html-keyboard-response","43","337655","0.0-1.0-51.0-0.0","0","0","39050","","null","","","null","5","","","","","","","","","","","","","","","",""
"","ITI","","html-keyboard-response","44","338659","0.0-1.0-54.0","0","0","39050","","null","","","null","5","","","","","","","","","","","","","","","NaN",""
"","S1","","html-keyboard-response","45","338913","0.0-1.0-56.0","0","0","39050","","null","","","null","6","","","","","","","","","","","","","","","",""
"","ISI","","html-keyboard-response","46","340917","0.0-1.0-57.0","0","0","39050","","null","","","null","6","NaN","","","","","","","","","","","","","","",""
"","S2","","html-keyboard-response","47","341171","0.0-1.0-58.0","0","0","39050","","null","","","null","6","","NaN","","","","","","","","","","","","","",""
"","response","","html-keyboard-response","48","341799","0.0-1.0-59.0","0","0","39050","","624","","","75","6","","","1","6","training","adjacent","FE","6","5","M.jpg","Q.jpg","0","0","1","",""
"","feedback","","html-keyboard-response","49","342804","0.0-1.0-60.0-0.0","0","0","39050","","null","","","null","6","","","","","","","","","","","","","","","",""
"","ITI","","html-keyboard-response","50","343808","0.0-1.0-63.0","0","0","39050","","null","","","null","6","","","","","","","","","","","","","","","NaN",""
"","S1","","html-keyboard-response","51","344063","0.0-1.0-65.0","0","0","39050","","null","","","null","7","","","","","","","","","","","","","","","",""
"","ISI","","html-keyboard-response","52","346067","0.0-1.0-66.0","0","0","39050","","null","","","null","7","NaN","","","","","","","","","","","","","","",""
"","S2","","html-keyboard-response","53","346322","0.0-1.0-67.0","0","0","39050","","null","","","null","7","","NaN","","","","","","","","","","","","","",""
"","response","","html-keyboard-response","54","346676","0.0-1.0-68.0","0","0","39050","","350","","","68","7","","","1","7","training","adjacent","BC","2","3","O.jpg","R.jpg","1","1","1","",""
"","feedback","","html-keyboard-response","55","347680","0.0-1.0-69.0-0.0","0","0","39050","","null","","","null","7","","","","","","","","","","","","","","","",""
"","ITI","","html-keyboard-response","56","348684","0.0-1.0-72.0","0","0","39050","","null","","","null","7","","","","","","","","","","","","","","","NaN",""
"","S1","","html-keyboard-response","57","348938","0.0-1.0-74.0","0","0","39050","","null","","","null","8","","","","","","","","","","","","","","","",""
"","ISI","","html-keyboard-response","58","350942","0.0-1.0-75.0","0","0","39050","","null","","","null","8","NaN","","","","","","","","","","","","","","",""
"","S2","","html-keyboard-response","59","351196","0.0-1.0-76.0","0","0","39050","","null","","","null","8","","NaN","","","","","","","","","","","","","",""
"","response","","html-keyboard-response","60","351571","0.0-1.0-77.0","0","0","39050","","371","","","75","8","","","1","8","training","adjacent","FE","6","5","M.jpg","Q.jpg","0","0","1","",""
"","feedback","","html-keyboard-response","61","352575","0.0-1.0-78.0-0.0","0","0","39050","","null","","","null","8","","","","","","","","","","","","","","","",""
"","ITI","","html-keyboard-response","62","353579","0.0-1.0-81.0","0","0","39050","","null","","","null","8","","","","","","","","","","","","","","","NaN",""
"","S1","","html-keyboard-response","63","353833","0.0-1.0-83.0","0","0","39050","","null","","","null","9","","","","","","","","","","","","","","","",""
"","ISI","","html-keyboard-response","64","355837","0.0-1.0-84.0","0","0","39050","","null","","","null","9","NaN","","","","","","","","","","","","","","",""
"","S2","","html-keyboard-response","65","356091","0.0-1.0-85.0","0","0","39050","","null","","","null","9","","NaN","","","","","","","","","","","","","",""
"","response","","html-keyboard-response","66","356381","0.0-1.0-86.0","0","0","39050","","286","","","68","9","","","1","9","training","adjacent","EF","5","6","Q.jpg","M.jpg","1","1","1","",""
"","feedback","","html-keyboard-response","67","357385","0.0-1.0-87.0-0.0","0","0","39050","","null","","","null","9","","","","","","","","","","","","","","","",""
"","ITI","","html-keyboard-response","68","358389","0.0-1.0-90.0","0","0","39050","","null","","","null","9","","","","","","","","","","","","","","","NaN",""
"","S1","","html-keyboard-response","69","358644","0.0-1.0-92.0","0","0","39050","","null","","","null","10","","","","","","","","","","","","","","","",""
"","ISI","","html-keyboard-response","70","360648","0.0-1.0-93.0","0","0","39050","","null","","","null","10","NaN","","","","","","","","","","","","","","",""
"","S2","","html-keyboard-response","71","360902","0.0-1.0-94.0","0","0","39050","","null","","","null","10","","NaN","","","","","","","","","","","","","",""
"","response","","html-keyboard-response","72","361450","0.0-1.0-95.0","0","0","39050","","544","","","68","10","","","1","10","training","adjacent","DC","4","3","N.jpg","R.jpg","1","0","0","",""
"","feedback","","html-keyboard-response","73","362454","0.0-1.0-96.0-0.0","0","0","39050","","null","","","null","10","","","","","","","","","","","","","","","",""
"","time_out","","html-keyboard-response","74","364458","0.0-1.0-98.0-0.0","0","0","39050","","null","","","null","10","","","","","","","","","","","","","","","",""
"","ITI","","html-keyboard-response","75","365462","0.0-1.0-99.0","0","0","39050","","null","","","null","10","","","","","","","","","","","","","","","NaN",""
"","S1","","html-keyboard-response","76","365717","0.0-1.0-101.0","0","0","39050","","null","","","null","11","","","","","","","","","","","","","","","",""
"","ISI","","html-keyboard-response","77","367721","0.0-1.0-102.0","0","0","39050","","null","","","null","11","NaN","","","","","","","","","","","","","","",""
"","S2","","html-keyboard-response","78","367975","0.0-1.0-103.0","0","0","39050","","null","","","null","11","","NaN","","","","","","","","","","","","","",""
"","response","","html-keyboard-response","79","368283","0.0-1.0-104.0","0","0","39050","","304","","","75","11","","","1","11","training","adjacent","AB","1","2","P.jpg","O.jpg","0","1","0","",""
"","feedback","","html-keyboard-response","80","369287","0.0-1.0-105.0-0.0","0","0","39050","","null","","","null","11","","","","","","","","","","","","","","","",""
"","time_out","","html-keyboard-response","81","371291","0.0-1.0-107.0-0.0","0","0","39050","","null","","","null","11","","","","","","","","","","","","","","","",""
"","ITI","","html-keyboard-response","82","372295","0.0-1.0-108.0","0","0","39050","","null","","","null","11","","","","","","","","","","","","","","","NaN",""
"","S1","","html-keyboard-response","83","372549","0.0-1.0-110.0","0","0","39050","","null","","","null","12","","","","","","","","","","","","","","","",""
"","ISI","","html-keyboard-response","84","374553","0.0-1.0-111.0","0","0","39050","","null","","","null","12","NaN","","","","","","","","","","","","","","",""
"","S2","","html-keyboard-response","85","374807","0.0-1.0-112.0","0","0","39050","","null","","","null","12","","NaN","","","","","","","","","","","","","",""
"","response","","html-keyboard-response","86","374963","0.0-1.0-113.0","0","0","39050","","151","","","75","12","","","1","12","training","adjacent","FE","6","5","M.jpg","Q.jpg","0","0","1","",""
"","feedback","","html-keyboard-response","87","375968","0.0-1.0-114.0-0.0","0","0","39050","","null","","","null","12","","","","","","","","","","","","","","","",""
"","ITI","","html-keyboard-response","88","376971","0.0-1.0-117.0","0","0","39050","","null","","","null","12","","","","","","","","","","","","","","","NaN",""
"","S1","","html-keyboard-response","89","377225","0.0-1.0-119.0","0","0","39050","","null","","","null","13","","","","","","","","","","","","","","","",""
"","ISI","","html-keyboard-response","90","379229","0.0-1.0-120.0","0","0","39050","","null","","","null","13","NaN","","","","","","","","","","","","","","",""
"","S2","","html-keyboard-response","91","379483","0.0-1.0-121.0","0","0","39050","","null","","","null","13","","NaN","","","","","","","","","","","","","",""
"","response","","html-keyboard-response","92","379687","0.0-1.0-122.0","0","0","39050","","200","","","68","13","","","1","13","training","adjacent","EF","5","6","Q.jpg","M.jpg","1","1","1","",""
"","feedback","","html-keyboard-response","93","380691","0.0-1.0-123.0-0.0","0","0","39050","","null","","","null","13","","","","","","","","","","","","","","","",""
"","ITI","","html-keyboard-response","94","381695","0.0-1.0-126.0","0","0","39050","","null","","","null","13","","","","","","","","","","","","","","","NaN",""
"","S1","","html-keyboard-response","95","381949","0.0-1.0-128.0","0","0","39050","","null","","","null","14","","","","","","","","","","","","","","","",""
"","ISI","","html-keyboard-response","96","383953","0.0-1.0-129.0","0","0","39050","","null","","","null","14","NaN","","","","","","","","","","","","","","",""
"","S2","","html-keyboard-response","97","384207","0.0-1.0-130.0","0","0","39050","","null","","","null","14","","NaN","","","","","","","","","","","","","",""
"","response","","html-keyboard-response","98","384782","0.0-1.0-131.0","0","0","39050","","571","","","68","14","","","1","14","training","adjacent","CD","3","4","R.jpg","N.jpg","1","1","1","",""
"","feedback","","html-keyboard-response","99","385787","0.0-1.0-132.0-0.0","0","0","39050","","null","","","null","14","","","","","","","","","","","","","","","",""
"","ITI","","html-keyboard-response","100","386791","0.0-1.0-135.0","0","0","39050","","null","","","null","14","","","","","","","","","","","","","","","NaN",""
"","S1","","html-keyboard-response","101","387045","0.0-1.0-137.0","0","0","39050","","null","","","null","15","","","","","","","","","","","","","","","",""
"","ISI","","html-keyboard-response","102","389048","0.0-1.0-138.0","0","0","39050","","null","","","null","15","NaN","","","","","","","","","","","","","","",""
"","S2","","html-keyboard-response","103","389302","0.0-1.0-139.0","0","0","39050","","null","","","null","15","","NaN","","","","","","","","","","","","","",""
"","response","","html-keyboard-response","104","390490","0.0-1.0-140.0","0","0","39050","","1185","","","68","15","","","1","15","training","adjacent","CD","3","4","R.jpg","N.jpg","1","1","1","",""
"","feedback","","html-keyboard-response","105","391495","0.0-1.0-141.0-0.0","0","0","39050","","null","","","null","15","","","","","","","","","","","","","","","",""
"","ITI","","html-keyboard-response","106","392499","0.0-1.0-144.0","0","0","39050","","null","","","null","15","","","","","","","","","","","","","","","NaN",""
"","S1","","html-keyboard-response","107","392753","0.0-1.0-146.0","0","0","39050","","null","","","null","16","","","","","","","","","","","","","","","",""
"","ISI","","html-keyboard-response","108","394757","0.0-1.0-147.0","0","0","39050","","null","","","null","16","NaN","","","","","","","","","","","","","","",""
"","S2","","html-keyboard-response","109","395011","0.0-1.0-148.0","0","0","39050","","247","","","68","16","","d","","","","","","","","","","","","","",""
"","response","","html-keyboard-response","110","396437","0.0-1.0-149.0","0","0","39050","","1421","","","68","16","","","1","16","training","adjacent","EF","5","6","Q.jpg","M.jpg","1","1","1","",""
"","feedback","","html-keyboard-response","111","397441","0.0-1.0-150.0-0.0","0","0","39050","","null","","","null","16","","","","","","","","","","","","","","","",""
"","ITI","","html-keyboard-response","112","398445","0.0-1.0-153.0","0","0","39050","","null","","","null","16","","","","","","","","","","","","","","","NaN",""
"","S1","","html-keyboard-response","113","398699","0.0-1.0-155.0","0","0","39050","","null","","","null","17","","","","","","","","","","","","","","","",""
"","ISI","","html-keyboard-response","114","400703","0.0-1.0-156.0","0","0","39050","","null","","","null","17","NaN","","","","","","","","","","","","","","",""
"","S2","","html-keyboard-response","115","400957","0.0-1.0-157.0","0","0","39050","","null","","","null","17","","NaN","","","","","","","","","","","","","",""
"","response","","html-keyboard-response","116","401071","0.0-1.0-158.0","0","0","39050","","110","","","68","17","","","1","17","training","adjacent","BA","2","1","O.jpg","P.jpg","1","0","0","",""
"","feedback","","html-keyboard-response","117","402076","0.0-1.0-159.0-0.0","0","0","39050","","null","","","null","17","","","","","","","","","","","","","","","",""
"","time_out","","html-keyboard-response","118","404081","0.0-1.0-161.0-0.0","0","0","39050","","null","","","null","17","","","","","","","","","","","","","","","",""
"","ITI","","html-keyboard-response","119","405086","0.0-1.0-162.0","0","0","39050","","null","","","null","17","","","","","","","","","","","","","","","NaN",""
"","S1","","html-keyboard-response","120","405340","0.0-1.0-164.0","0","0","39050","","null","","","null","18","","","","","","","","","","","","","","","",""
"","ISI","","html-keyboard-response","121","407345","0.0-1.0-165.0","0","0","39050","","null","","","null","18","NaN","","","","","","","","","","","","","","",""
"","S2","","html-keyboard-response","122","407599","0.0-1.0-166.0","0","0","39050","","null","","","null","18","","NaN","","","","","","","","","","","","","",""
"","response","","html-keyboard-response","123","407928","0.0-1.0-167.0","0","0","39050","","325","","","75","18","","","1","18","training","adjacent","DC","4","3","N.jpg","R.jpg","0","0","1","",""
"","feedback","","html-keyboard-response","124","408933","0.0-1.0-168.0-0.0","0","0","39050","","null","","","null","18","","","","","","","","","","","","","","","",""
"","ITI","","html-keyboard-response","125","409937","0.0-1.0-171.0","0","0","39050","","null","","","null","18","","","","","","","","","","","","","","","NaN",""
"","S1","","html-keyboard-response","126","410193","0.0-1.0-173.0","0","0","39050","","null","","","null","19","","","","","","","","","","","","","","","",""
"","ISI","","html-keyboard-response","127","412196","0.0-1.0-174.0","0","0","39050","","null","","","null","19","NaN","","","","","","","","","","","","","","",""
"","S2","","html-keyboard-response","128","412451","0.0-1.0-175.0","0","0","39050","","null","","","null","19","","NaN","","","","","","","","","","","","","",""
"","response","","html-keyboard-response","129","412670","0.0-1.0-176.0","0","0","39050","","215","","","68","19","","","1","19","training","adjacent","BA","2","1","O.jpg","P.jpg","1","0","0","",""
"","feedback","","html-keyboard-response","130","413673","0.0-1.0-177.0-0.0","0","0","39050","","null","","","null","19","","","","","","","","","","","","","","","",""
"","time_out","","html-keyboard-response","131","415678","0.0-1.0-179.0-0.0","0","0","39050","","null","","","null","19","","","","","","","","","","","","","","","",""
"","ITI","","html-keyboard-response","132","416682","0.0-1.0-180.0","0","0","39050","","null","","","null","19","","","","","","","","","","","","","","","NaN",""
"","S1","","html-keyboard-response","133","416936","0.0-1.0-182.0","0","0","39050","","null","","","null","20","","","","","","","","","","","","","","","",""
"","ISI","","html-keyboard-response","134","418940","0.0-1.0-183.0","0","0","39050","","null","","","null","20","NaN","","","","","","","","","","","","","","",""
"","S2","","html-keyboard-response","135","419197","0.0-1.0-184.0","0","0","39050","","null","","","null","20","","NaN","","","","","","","","","","","","","",""
"","response","","html-keyboard-response","136","419354","0.0-1.0-185.0","0","0","39050","","153","","","75","20","","","1","20","training","adjacent","DC","4","3","N.jpg","R.jpg","0","0","1","",""
"","feedback","","html-keyboard-response","137","420358","0.0-1.0-186.0-0.0","0","0","39050","","null","","","null","20","","","","","","","","","","","","","","","",""
"","ITI","","html-keyboard-response","138","421363","0.0-1.0-189.0","0","0","39050","","null","","","null","20","","","","","","","","","","","","","","","NaN",""
"","S1","","html-keyboard-response","139","421618","0.0-1.0-191.0","0","0","39050","","null","","","null","21","","","","","","","","","","","","","","","",""
"","ISI","","html-keyboard-response","140","423622","0.0-1.0-192.0","0","0","39050","","null","","","null","21","NaN","","","","","","","","","","","","","","",""
"","S2","","html-keyboard-response","141","423876","0.0-1.0-193.0","0","0","39050","","null","","","null","21","","NaN","","","","","","","","","","","","","",""
"","response","","html-keyboard-response","142","424185","0.0-1.0-194.0","0","0","39050","","305","","","75","21","","","1","21","training","adjacent","BA","2","1","O.jpg","P.jpg","0","0","1","",""
"","feedback","","html-keyboard-response","143","425190","0.0-1.0-195.0-0.0","0","0","39050","","null","","","null","21","","","","","","","","","","","","","","","",""
"","ITI","","html-keyboard-response","144","426194","0.0-1.0-198.0","0","0","39050","","null","","","null","21","","","","","","","","","","","","","","","NaN",""
"","S1","","html-keyboard-response","145","426448","0.0-1.0-200.0","0","0","39050","","null","","","null","22","","","","","","","","","","","","","","","",""
"","ISI","","html-keyboard-response","146","428452","0.0-1.0-201.0","0","0","39050","","null","","","null","22","NaN","","","","","","","","","","","","","","",""
"","S2","","html-keyboard-response","147","428707","0.0-1.0-202.0","0","0","39050","","null","","","null","22","","NaN","","","","","","","","","","","","","",""
"","response","","html-keyboard-response","148","428715","0.0-1.0-203.0","0","0","39050","","3","","","68","22","","","1","22","training","adjacent","ED","5","4","Q.jpg","N.jpg","1","0","0","",""
"","feedback","","html-keyboard-response","149","429720","0.0-1.0-204.0-0.0","0","0","39050","","null","","","null","22","","","","","","","","","","","","","","","",""
"","time_out","","html-keyboard-response","150","431724","0.0-1.0-206.0-0.0","0","0","39050","","null","","","null","22","","","","","","","","","","","","","","","",""
"","ITI","","html-keyboard-response","151","432728","0.0-1.0-207.0","0","0","39050","","null","","","null","22","","","","","","","","","","","","","","","NaN",""
"","S1","","html-keyboard-response","152","432982","0.0-1.0-209.0","0","0","39050","","null","","","null","23","","","","","","","","","","","","","","","",""
"","ISI","","html-keyboard-response","153","434986","0.0-1.0-210.0","0","0","39050","","null","","","null","23","NaN","","","","","","","","","","","","","","",""
"","S2","","html-keyboard-response","154","435241","0.0-1.0-211.0","0","0","39050","","null","","","null","23","","NaN","","","","","","","","","","","","","",""
"","response","","html-keyboard-response","155","435271","0.0-1.0-212.0","0","0","39050","","25","","","68","23","","","1","23","training","adjacent","ED","5","4","Q.jpg","N.jpg","1","0","0","",""
"","feedback","","html-keyboard-response","156","436275","0.0-1.0-213.0-0.0","0","0","39050","","null","","","null","23","","","","","","","","","","","","","","","",""
"","time_out","","html-keyboard-response","157","438279","0.0-1.0-215.0-0.0","0","0","39050","","null","","","null","23","","","","","","","","","","","","","","","",""
"","ITI","","html-keyboard-response","158","439283","0.0-1.0-216.0","0","0","39050","","null","","","null","23","","","","","","","","","","","","","","","NaN",""
"","S1","","html-keyboard-response","159","439538","0.0-1.0-218.0","0","0","39050","","null","","","null","24","","","","","","","","","","","","","","","",""
"","ISI","","html-keyboard-response","160","441543","0.0-1.0-219.0","0","0","39050","","null","","","null","24","NaN","","","","","","","","","","","","","","",""
"","S2","","html-keyboard-response","161","441797","0.0-1.0-220.0","0","0","39050","","null","","","null","24","","NaN","","","","","","","","","","","","","",""
"","response","","html-keyboard-response","162","442183","0.0-1.0-221.0","0","0","39050","","382","","","75","24","","","1","24","training","adjacent","DE","4","5","N.jpg","Q.jpg","0","1","0","",""
"","feedback","","html-keyboard-response","163","443187","0.0-1.0-222.0-0.0","0","0","39050","","null","","","null","24","","","","","","","","","","","","","","","",""
"","time_out","","html-keyboard-response","164","445191","0.0-1.0-224.0-0.0","0","0","39050","","null","","","null","24","","","","","","","","","","","","","","","",""
"","ITI","","html-keyboard-response","165","446195","0.0-1.0-225.0","0","0","39050","","null","","","null","24","","","","","","","","","","","","","","","NaN",""
"","S1","","html-keyboard-response","166","446449","0.0-1.0-227.0","0","0","39050","","null","","","null","25","","","","","","","","","","","","","","","",""
"","ISI","","html-keyboard-response","167","448453","0.0-1.0-228.0","0","0","39050","","null","","","null","25","NaN","","","","","","","","","","","","","","",""
"","S2","","html-keyboard-response","168","448708","0.0-1.0-229.0","0","0","39050","","null","","","null","25","","NaN","","","","","","","","","","","","","",""
"","response","","html-keyboard-response","169","449257","0.0-1.0-230.0","0","0","39050","","545","","","75","25","","","1","25","training","adjacent","GF","7","6","L.jpg","M.jpg","0","0","1","",""
"","feedback","","html-keyboard-response","170","450262","0.0-1.0-231.0-0.0","0","0","39050","","null","","","null","25","","","","","","","","","","","","","","","",""
"","ITI","","html-keyboard-response","171","451266","0.0-1.0-234.0","0","0","39050","","null","","","null","25","","","","","","","","","","","","","","","NaN",""
"","S1","","html-keyboard-response","172","451520","0.0-1.0-236.0","0","0","39050","","null","","","null","26","","","","","","","","","","","","","","","",""
"","ISI","","html-keyboard-response","173","453525","0.0-1.0-237.0","0","0","39050","","null","","","null","26","NaN","","","","","","","","","","","","","","",""
"","S2","","html-keyboard-response","174","453779","0.0-1.0-238.0","0","0","39050","","null","","","null","26","","NaN","","","","","","","","","","","","","",""
"","response","","html-keyboard-response","175","454175","0.0-1.0-239.0","0","0","39050","","392","","","75","26","","","1","26","training","adjacent","DE","4","5","N.jpg","Q.jpg","0","1","0","",""
"","feedback","","html-keyboard-response","176","455180","0.0-1.0-240.0-0.0","0","0","39050","","null","","","null","26","","","","","","","","","","","","","","","",""
"","time_out","","html-keyboard-response","177","457184","0.0-1.0-242.0-0.0","0","0","39050","","null","","","null","26","","","","","","","","","","","","","","","",""
"","ITI","","html-keyboard-response","178","458188","0.0-1.0-243.0","0","0","39050","","null","","","null","26","","","","","","","","","","","","","","","NaN",""
"","S1","","html-keyboard-response","179","458442","0.0-1.0-245.0","0","0","39050","","null","","","null","27","","","","","","","","","","","","","","","",""
"","ISI","","html-keyboard-response","180","460445","0.0-1.0-246.0","0","0","39050","","null","","","null","27","NaN","","","","","","","","","","","","","","",""
"","S2","","html-keyboard-response","181","460700","0.0-1.0-247.0","0","0","39050","","null","","","null","27","","NaN","","","","","","","","","","","","","",""
"","response","","html-keyboard-response","182","461285","0.0-1.0-248.0","0","0","39050","","581","","","68","27","","","1","27","training","adjacent","AB","1","2","P.jpg","O.jpg","1","1","1","",""
"","feedback","","html-keyboard-response","183","462290","0.0-1.0-249.0-0.0","0","0","39050","","null","","","null","27","","","","","","","","","","","","","","","",""
"","ITI","","html-keyboard-response","184","463294","0.0-1.0-252.0","0","0","39050","","null","","","null","27","","","","","","","","","","","","","","","NaN",""
"","S1","","html-keyboard-response","185","463549","0.0-1.0-254.0","0","0","39050","","null","","","null","28","","","","","","","","","","","","","","","",""
"","ISI","","html-keyboard-response","186","465553","0.0-1.0-255.0","0","0","39050","","null","","","null","28","NaN","","","","","","","","","","","","","","",""
"","S2","","html-keyboard-response","187","465807","0.0-1.0-256.0","0","0","39050","","null","","","null","28","","NaN","","","","","","","","","","","","","",""
"","response","","html-keyboard-response","188","466644","0.0-1.0-257.0","0","0","39050","","833","","","68","28","","","1","28","training","adjacent","DE","4","5","N.jpg","Q.jpg","1","1","1","",""
"","feedback","","html-keyboard-response","189","467648","0.0-1.0-258.0-0.0","0","0","39050","","null","","","null","28","","","","","","","","","","","","","","","",""
"","ITI","","html-keyboard-response","190","468652","0.0-1.0-261.0","0","0","39050","","null","","","null","28","","","","","","","","","","","","","","","NaN",""
"","S1","","html-keyboard-response","191","468907","0.0-1.0-263.0","0","0","39050","","null","","","null","29","","","","","","","","","","","","","","","",""
"","ISI","","html-keyboard-response","192","470910","0.0-1.0-264.0","0","0","39050","","null","","","null","29","NaN","","","","","","","","","","","","","","",""
"","S2","","html-keyboard-response","193","471165","0.0-1.0-265.0","0","0","39050","","null","","","null","29","","NaN","","","","","","","","","","","","","",""
"","response","","html-keyboard-response","194","471624","0.0-1.0-266.0","0","0","39050","","456","","","68","29","","","1","29","training","adjacent","CB","3","2","R.jpg","O.jpg","1","0","0","",""
"","feedback","","html-keyboard-response","195","472629","0.0-1.0-267.0-0.0","0","0","39050","","null","","","null","29","","","","","","","","","","","","","","","",""
"","time_out","","html-keyboard-response","196","474633","0.0-1.0-269.0-0.0","0","0","39050","","null","","","null","29","","","","","","","","","","","","","","","",""
"","ITI","","html-keyboard-response","197","475638","0.0-1.0-270.0","0","0","39050","","null","","","null","29","","","","","","","","","","","","","","","NaN",""
"","S1","","html-keyboard-response","198","475892","0.0-1.0-272.0","0","0","39050","","null","","","null","30","","","","","","","","","","","","","","","",""
"","ISI","","html-keyboard-response","199","477896","0.0-1.0-273.0","0","0","39050","","null","","","null","30","NaN","","","","","","","","","","","","","","",""
"","S2","","html-keyboard-response","200","478150","0.0-1.0-274.0","0","0","39050","","null","","","null","30","","NaN","","","","","","","","","","","","","",""
"","response","","html-keyboard-response","201","478928","0.0-1.0-275.0","0","0","39050","","774","","","68","30","","","1","30","training","adjacent","DE","4","5","N.jpg","Q.jpg","1","1","1","",""
"","feedback","","html-keyboard-response","202","479932","0.0-1.0-276.0-0.0","0","0","39050","","null","","","null","30","","","","","","","","","","","","","","","",""
"","ITI","","html-keyboard-response","203","480937","0.0-1.0-279.0","0","0","39050","","null","","","null","30","","","","","","","","","","","","","","","NaN",""
"","S1","","html-keyboard-response","204","481191","0.0-1.0-281.0","0","0","39050","","null","","","null","31","","","","","","","","","","","","","","","",""
"","ISI","","html-keyboard-response","205","483195","0.0-1.0-282.0","0","0","39050","","null","","","null","31","NaN","","","","","","","","","","","","","","",""
"","S2","","html-keyboard-response","206","483449","0.0-1.0-283.0","0","0","39050","","null","","","null","31","","NaN","","","","","","","","","","","","","",""
"","response","","html-keyboard-response","207","484455","0.0-1.0-284.0","0","0","39050","","1002","","","75","31","","","1","31","training","adjacent","FE","6","5","M.jpg","Q.jpg","0","0","1","",""
"","feedback","","html-keyboard-response","208","485460","0.0-1.0-285.0-0.0","0","0","39050","","null","","","null","31","","","","","","","","","","","","","","","",""
"","ITI","","html-keyboard-response","209","486464","0.0-1.0-288.0","0","0","39050","","null","","","null","31","","","","","","","","","","","","","","","NaN",""
"","S1","","html-keyboard-response","210","486718","0.0-1.0-290.0","0","0","39050","","null","","","null","32","","","","","","","","","","","","","","","",""
"","ISI","","html-keyboard-response","211","488722","0.0-1.0-291.0","0","0","39050","","null","","","null","32","NaN","","","","","","","","","","","","","","",""
"","S2","","html-keyboard-response","212","488976","0.0-1.0-292.0","0","0","39050","","null","","","null","32","","NaN","","","","","","","","","","","","","",""
"","response","","html-keyboard-response","213","489584","0.0-1.0-293.0","0","0","39050","","603","","","68","32","","","1","32","training","adjacent","CD","3","4","R.jpg","N.jpg","1","1","1","",""
"","feedback","","html-keyboard-response","214","490589","0.0-1.0-294.0-0.0","0","0","39050","","null","","","null","32","","","","","","","","","","","","","","","",""
"","ITI","","html-keyboard-response","215","491593","0.0-1.0-297.0","0","0","39050","","null","","","null","32","","","","","","","","","","","","","","","NaN",""
"","S1","","html-keyboard-response","216","491847","0.0-1.0-299.0","0","0","39050","","null","","","null","33","","","","","","","","","","","","","","","",""
"","ISI","","html-keyboard-response","217","493851","0.0-1.0-300.0","0","0","39050","","null","","","null","33","NaN","","","","","","","","","","","","","","",""
"","S2","","html-keyboard-response","218","494105","0.0-1.0-301.0","0","0","39050","","null","","","null","33","","NaN","","","","","","","","","","","","","",""
"","response","","html-keyboard-response","219","494957","0.0-1.0-302.0","0","0","39050","","848","","","68","33","","","1","33","training","adjacent","BC","2","3","O.jpg","R.jpg","1","1","1","",""
"","feedback","","html-keyboard-response","220","495962","0.0-1.0-303.0-0.0","0","0","39050","","null","","","null","33","","","","","","","","","","","","","","","",""
"","ITI","","html-keyboard-response","221","496966","0.0-1.0-306.0","0","0","39050","","null","","","null","33","","","","","","","","","","","","","","","NaN",""
"","S1","","html-keyboard-response","222","497221","0.0-1.0-308.0","0","0","39050","","null","","","null","34","","","","","","","","","","","","","","","",""
"","ISI","","html-keyboard-response","223","499225","0.0-1.0-309.0","0","0","39050","","null","","","null","34","NaN","","","","","","","","","","","","","","",""
"","S2","","html-keyboard-response","224","499479","0.0-1.0-310.0","0","0","39050","","null","","","null","34","","NaN","","","","","","","","","","","","","",""
"","response","","html-keyboard-response","225","501056","0.0-1.0-311.0","0","0","39050","","1573","","","68","34","","","1","34","training","adjacent","AB","1","2","P.jpg","O.jpg","1","1","1","",""
"","feedback","","html-keyboard-response","226","502061","0.0-1.0-312.0-0.0","0","0","39050","","null","","","null","34","","","","","","","","","","","","","","","",""
"","ITI","","html-keyboard-response","227","503065","0.0-1.0-315.0","0","0","39050","","null","","","null","34","","","","","","","","","","","","","","","NaN",""
"","S1","","html-keyboard-response","228","503320","0.0-1.0-317.0","0","0","39050","","null","","","null","35","","","","","","","","","","","","","","","",""
"","ISI","","html-keyboard-response","229","505324","0.0-1.0-318.0","0","0","39050","","null","","","null","35","NaN","","","","","","","","","","","","","","",""
"","S2","","html-keyboard-response","230","505578","0.0-1.0-319.0","0","0","39050","","null","","","null","35","","NaN","","","","","","","","","","","","","",""
"","response","","html-keyboard-response","231","506634","0.0-1.0-320.0","0","0","39050","","1052","","","68","35","","","1","35","training","adjacent","ED","5","4","Q.jpg","N.jpg","1","0","0","",""
"","feedback","","html-keyboard-response","232","507638","0.0-1.0-321.0-0.0","0","0","39050","","null","","","null","35","","","","","","","","","","","","","","","",""
"","time_out","","html-keyboard-response","233","509642","0.0-1.0-323.0-0.0","0","0","39050","","null","","","null","35","","","","","","","","","","","","","","","",""
"","ITI","","html-keyboard-response","234","510646","0.0-1.0-324.0","0","0","39050","","null","","","null","35","","","","","","","","","","","","","","","NaN",""
"","S1","","html-keyboard-response","235","510901","0.0-1.0-326.0","0","0","39050","","null","","","null","36","","","","","","","","","","","","","","","",""
"","ISI","","html-keyboard-response","236","512905","0.0-1.0-327.0","0","0","39050","","null","","","null","36","NaN","","","","","","","","","","","","","","",""
"","S2","","html-keyboard-response","237","513160","0.0-1.0-328.0","0","0","39050","","null","","","null","36","","NaN","","","","","","","","","","","","","",""
"","response","","html-keyboard-response","238","513552","0.0-1.0-329.0","0","0","39050","","387","","","75","36","","","1","36","training","adjacent","ED","5","4","Q.jpg","N.jpg","0","0","1","",""
"","feedback","","html-keyboard-response","239","514556","0.0-1.0-330.0-0.0","0","0","39050","","null","","","null","36","","","","","","","","","","","","","","","",""
"","ITI","","html-keyboard-response","240","515560","0.0-1.0-333.0","0","0","39050","","null","","","null","36","","","","","","","","","","","","","","","NaN",""
"","S1","","html-keyboard-response","241","515814","0.0-1.0-335.0","0","0","39050","","null","","","null","37","","","","","","","","","","","","","","","",""
"","ISI","","html-keyboard-response","242","517818","0.0-1.0-336.0","0","0","39050","","null","","","null","37","NaN","","","","","","","","","","","","","","",""
"","S2","","html-keyboard-response","243","518072","0.0-1.0-337.0","0","0","39050","","null","","","null","37","","NaN","","","","","","","","","","","","","",""
"","response","","html-keyboard-response","244","519211","0.0-1.0-338.0","0","0","39050","","1135","","","68","37","","","1","37","training","adjacent","AB","1","2","P.jpg","O.jpg","1","1","1","",""
"","feedback","","html-keyboard-response","245","520215","0.0-1.0-339.0-0.0","0","0","39050","","null","","","null","37","","","","","","","","","","","","","","","",""
"","ITI","","html-keyboard-response","246","521219","0.0-1.0-342.0","0","0","39050","","null","","","null","37","","","","","","","","","","","","","","","NaN",""
"","S1","","html-keyboard-response","247","521474","0.0-1.0-344.0","0","0","39050","","null","","","null","38","","","","","","","","","","","","","","","",""
"","ISI","","html-keyboard-response","248","523478","0.0-1.0-345.0","0","0","39050","","null","","","null","38","NaN","","","","","","","","","","","","","","",""
"","S2","","html-keyboard-response","249","523732","0.0-1.0-346.0","0","0","39050","","null","","","null","38","","NaN","","","","","","","","","","","","","",""
"","response","","html-keyboard-response","250","524384","0.0-1.0-347.0","0","0","39050","","647","","","68","38","","","1","38","training","adjacent","EF","5","6","Q.jpg","M.jpg","1","1","1","",""
"","feedback","","html-keyboard-response","251","525388","0.0-1.0-348.0-0.0","0","0","39050","","null","","","null","38","","","","","","","","","","","","","","","",""
"","ITI","","html-keyboard-response","252","526393","0.0-1.0-351.0","0","0","39050","","null","","","null","38","","","","","","","","","","","","","","","NaN",""
"","S1","","html-keyboard-response","253","526648","0.0-1.0-353.0","0","0","39050","","null","","","null","39","","","","","","","","","","","","","","","",""
"","ISI","","html-keyboard-response","254","528651","0.0-1.0-354.0","0","0","39050","","null","","","null","39","NaN","","","","","","","","","","","","","","",""
"","S2","","html-keyboard-response","255","528906","0.0-1.0-355.0","0","0","39050","","null","","","null","39","","NaN","","","","","","","","","","","","","",""
"","response","","html-keyboard-response","256","529290","0.0-1.0-356.0","0","0","39050","","381","","","75","39","","","1","39","training","adjacent","GF","7","6","L.jpg","M.jpg","0","0","1","",""
"","feedback","","html-keyboard-response","257","530295","0.0-1.0-357.0-0.0","0","0","39050","","null","","","null","39","","","","","","","","","","","","","","","",""
"","ITI","","html-keyboard-response","258","531299","0.0-1.0-360.0","0","0","39050","","null","","","null","39","","","","","","","","","","","","","","","NaN",""
"","S1","","html-keyboard-response","259","531553","0.0-1.0-362.0","0","0","39050","","null","","","null","40","","","","","","","","","","","","","","","",""
"","ISI","","html-keyboard-response","260","533557","0.0-1.0-363.0","0","0","39050","","null","","","null","40","NaN","","","","","","","","","","","","","","",""
"","S2","","html-keyboard-response","261","533811","0.0-1.0-364.0","0","0","39050","","null","","","null","40","","NaN","","","","","","","","","","","","","",""
"","response","","html-keyboard-response","262","534792","0.0-1.0-365.0","0","0","39050","","977","","","75","40","","","1","40","training","adjacent","CB","3","2","R.jpg","O.jpg","0","0","1","",""
"","feedback","","html-keyboard-response","263","535797","0.0-1.0-366.0-0.0","0","0","39050","","null","","","null","40","","","","","","","","","","","","","","","",""
"","ITI","","html-keyboard-response","264","536801","0.0-1.0-369.0","0","0","39050","","null","","","null","40","","","","","","","","","","","","","","","NaN",""
"","S1","","html-keyboard-response","265","537055","0.0-1.0-371.0","0","0","39050","","null","","","null","41","","","","","","","","","","","","","","","",""
"","ISI","","html-keyboard-response","266","539060","0.0-1.0-372.0","0","0","39050","","null","","","null","41","NaN","","","","","","","","","","","","","","",""
"","S2","","html-keyboard-response","267","539315","0.0-1.0-373.0","0","0","39050","","null","","","null","41","","NaN","","","","","","","","","","","","","",""
"","response","","html-keyboard-response","268","539822","0.0-1.0-374.0","0","0","39050","","504","","","68","41","","","1","41","training","adjacent","DC","4","3","N.jpg","R.jpg","1","0","0","",""
"","feedback","","html-keyboard-response","269","540826","0.0-1.0-375.0-0.0","0","0","39050","","null","","","null","41","","","","","","","","","","","","","","","",""
"","time_out","","html-keyboard-response","270","542831","0.0-1.0-377.0-0.0","0","0","39050","","null","","","null","41","","","","","","","","","","","","","","","",""
"","ITI","","html-keyboard-response","271","543835","0.0-1.0-378.0","0","0","39050","","null","","","null","41","","","","","","","","","","","","","","","NaN",""
"","S1","","html-keyboard-response","272","544089","0.0-1.0-380.0","0","0","39050","","null","","","null","42","","","","","","","","","","","","","","","",""
"","ISI","","html-keyboard-response","273","546093","0.0-1.0-381.0","0","0","39050","","null","","","null","42","NaN","","","","","","","","","","","","","","",""
"","S2","","html-keyboard-response","274","546347","0.0-1.0-382.0","0","0","39050","","null","","","null","42","","NaN","","","","","","","","","","","","","",""
"","response","","html-keyboard-response","275","547864","0.0-1.0-383.0","0","0","39050","","1513","","","68","42","","","1","42","training","adjacent","FG","6","7","M.jpg","L.jpg","1","1","1","",""
"","feedback","","html-keyboard-response","276","548868","0.0-1.0-384.0-0.0","0","0","39050","","null","","","null","42","","","","","","","","","","","","","","","",""
"","ITI","","html-keyboard-response","277","549872","0.0-1.0-387.0","0","0","39050","","null","","","null","42","","","","","","","","","","","","","","","NaN",""
"","S1","","html-keyboard-response","278","550127","0.0-1.0-389.0","0","0","39050","","null","","","null","43","","","","","","","","","","","","","","","",""
"","ISI","","html-keyboard-response","279","552131","0.0-1.0-390.0","0","0","39050","","null","","","null","43","NaN","","","","","","","","","","","","","","",""
"","S2","","html-keyboard-response","280","552385","0.0-1.0-391.0","0","0","39050","","null","","","null","43","","NaN","","","","","","","","","","","","","",""
"","response","","html-keyboard-response","281","552946","0.0-1.0-392.0","0","0","39050","","558","","","68","43","","","1","43","training","adjacent","FG","6","7","M.jpg","L.jpg","1","1","1","",""
"","feedback","","html-keyboard-response","282","553951","0.0-1.0-393.0-0.0","0","0","39050","","null","","","null","43","","","","","","","","","","","","","","","",""
"","ITI","","html-keyboard-response","283","554955","0.0-1.0-396.0","0","0","39050","","null","","","null","43","","","","","","","","","","","","","","","NaN",""
"","S1","","html-keyboard-response","284","555210","0.0-1.0-398.0","0","0","39050","","null","","","null","44","","","","","","","","","","","","","","","",""
"","ISI","","html-keyboard-response","285","557213","0.0-1.0-399.0","0","0","39050","","null","","","null","44","NaN","","","","","","","","","","","","","","",""
"","S2","","html-keyboard-response","286","557468","0.0-1.0-400.0","0","0","39050","","null","","","null","44","","NaN","","","","","","","","","","","","","",""
"","response","","html-keyboard-response","287","558396","0.0-1.0-401.0","0","0","39050","","923","","","68","44","","","1","44","training","adjacent","BC","2","3","O.jpg","R.jpg","1","1","1","",""
"","feedback","","html-keyboard-response","288","559401","0.0-1.0-402.0-0.0","0","0","39050","","null","","","null","44","","","","","","","","","","","","","","","",""
"","ITI","","html-keyboard-response","289","560405","0.0-1.0-405.0","0","0","39050","","null","","","null","44","","","","","","","","","","","","","","","NaN",""
"","S1","","html-keyboard-response","290","560660","0.0-1.0-407.0","0","0","39050","","null","","","null","45","","","","","","","","","","","","","","","",""
"","ISI","","html-keyboard-response","291","562664","0.0-1.0-408.0","0","0","39050","","null","","","null","45","NaN","","","","","","","","","","","","","","",""
"","S2","","html-keyboard-response","292","562919","0.0-1.0-409.0","0","0","39050","","null","","","null","45","","NaN","","","","","","","","","","","","","",""
"","response","","html-keyboard-response","293","563228","0.0-1.0-410.0","0","0","39050","","305","","","68","45","","","1","45","training","adjacent","FG","6","7","M.jpg","L.jpg","1","1","1","",""
"","feedback","","html-keyboard-response","294","564232","0.0-1.0-411.0-0.0","0","0","39050","","null","","","null","45","","","","","","","","","","","","","","","",""
"","ITI","","html-keyboard-response","295","565236","0.0-1.0-414.0","0","0","39050","","null","","","null","45","","","","","","","","","","","","","","","NaN",""
"","S1","","html-keyboard-response","296","565491","0.0-1.0-416.0","0","0","39050","","null","","","null","46","","","","","","","","","","","","","","","",""
"","ISI","","html-keyboard-response","297","567496","0.0-1.0-417.0","0","0","39050","","null","","","null","46","NaN","","","","","","","","","","","","","","",""
"","S2","","html-keyboard-response","298","567750","0.0-1.0-418.0","0","0","39050","","null","","","null","46","","NaN","","","","","","","","","","","","","",""
"","response","","html-keyboard-response","299","568195","0.0-1.0-419.0","0","0","39050","","441","","","75","46","","","1","46","training","adjacent","BA","2","1","O.jpg","P.jpg","0","0","1","",""
"","feedback","","html-keyboard-response","300","569201","0.0-1.0-420.0-0.0","0","0","39050","","null","","","null","46","","","","","","","","","","","","","","","",""
"","ITI","","html-keyboard-response","301","570206","0.0-1.0-423.0","0","0","39050","","null","","","null","46","","","","","","","","","","","","","","","NaN",""
"","S1","","html-keyboard-response","302","570461","0.0-1.0-425.0","0","0","39050","","null","","","null","47","","","","","","","","","","","","","","","",""
"","ISI","","html-keyboard-response","303","572465","0.0-1.0-426.0","0","0","39050","","null","","","null","47","NaN","","","","","","","","","","","","","","",""
"","S2","","html-keyboard-response","304","572719","0.0-1.0-427.0","0","0","39050","","null","","","null","47","","NaN","","","","","","","","","","","","","",""
"","response","","html-keyboard-response","305","573269","0.0-1.0-428.0","0","0","39050","","546","","","75","47","","","1","47","training","adjacent","CD","3","4","R.jpg","N.jpg","0","1","0","",""
"","feedback","","html-keyboard-response","306","574273","0.0-1.0-429.0-0.0","0","0","39050","","null","","","null","47","","","","","","","","","","","","","","","",""
"","time_out","","html-keyboard-response","307","576278","0.0-1.0-431.0-0.0","0","0","39050","","null","","","null","47","","","","","","","","","","","","","","","",""
"","ITI","","html-keyboard-response","308","577283","0.0-1.0-432.0","0","0","39050","","null","","","null","47","","","","","","","","","","","","","","","NaN",""
"","block_over","","html-keyboard-response","309","581570","0.0-1.0-433.0-0.0","0","0","39050","","4283","","","32","47","","","","","","","","","","","","","","","",""
"","S1","","html-keyboard-response","310","581824","0.0-1.0-434.0","0","0","39050","","null","","","null","48","","","","","","","","","","","","","","","",""
"","ISI","","html-keyboard-response","311","583829","0.0-1.0-435.0","0","0","39050","","null","","","null","48","NaN","","","","","","","","","","","","","","",""
"","S2","","html-keyboard-response","312","584083","0.0-1.0-436.0","0","0","39050","","null","","","null","48","","NaN","","","","","","","","","","","","","",""
"","response","","html-keyboard-response","313","586013","0.0-1.0-437.0","0","0","39050","","1926","","","68","48","","","2","48","training","adjacent","EF","5","6","Q.jpg","M.jpg","1","1","1","",""
"","feedback","","html-keyboard-response","314","587017","0.0-1.0-438.0-0.0","0","0","39050","","null","","","null","48","","","","","","","","","","","","","","","",""
"","ITI","","html-keyboard-response","315","588021","0.0-1.0-441.0","0","0","39050","","null","","","null","48","","","","","","","","","","","","","","","NaN",""
"","S1","","html-keyboard-response","316","588276","0.0-1.0-443.0","0","0","39050","","null","","","null","49","","","","","","","","","","","","","","","",""
"","ISI","","html-keyboard-response","317","590280","0.0-1.0-444.0","0","0","39050","","null","","","null","49","NaN","","","","","","","","","","","","","","",""
"","S2","","html-keyboard-response","318","590535","0.0-1.0-445.0","0","0","39050","","null","","","null","49","","NaN","","","","","","","","","","","","","",""
"","response","","html-keyboard-response","319","590925","0.0-1.0-446.0","0","0","39050","","387","","","75","49","","","2","49","training","adjacent","CD","3","4","R.jpg","N.jpg","0","1","0","",""
"","feedback","","html-keyboard-response","320","591930","0.0-1.0-447.0-0.0","0","0","39050","","null","","","null","49","","","","","","","","","","","","","","","",""
"","time_out","","html-keyboard-response","321","593934","0.0-1.0-449.0-0.0","0","0","39050","","null","","","null","49","","","","","","","","","","","","","","","",""
"","ITI","","html-keyboard-response","322","594938","0.0-1.0-450.0","0","0","39050","","null","","","null","49","","","","","","","","","","","","","","","NaN",""
"","S1","","html-keyboard-response","323","595193","0.0-1.0-452.0","0","0","39050","","null","","","null","50","","","","","","","","","","","","","","","",""
"","ISI","","html-keyboard-response","324","597197","0.0-1.0-453.0","0","0","39050","","null","","","null","50","NaN","","","","","","","","","","","","","","",""
"","S2","","html-keyboard-response","325","597453","0.0-1.0-454.0","0","0","39050","","null","","","null","50","","NaN","","","","","","","","","","","","","",""
"","response","","html-keyboard-response","326","598262","0.0-1.0-455.0","0","0","39050","","805","","","68","50","","","2","50","training","adjacent","FG","6","7","M.jpg","L.jpg","1","1","1","",""
"","feedback","","html-keyboard-response","327","599266","0.0-1.0-456.0-0.0","0","0","39050","","null","","","null","50","","","","","","","","","","","","","","","",""
"","ITI","","html-keyboard-response","328","600270","0.0-1.0-459.0","0","0","39050","","null","","","null","50","","","","","","","","","","","","","","","NaN",""
"","S1","","html-keyboard-response","329","600525","0.0-1.0-461.0","0","0","39050","","null","","","null","51","","","","","","","","","","","","","","","",""
"","ISI","","html-keyboard-response","330","602529","0.0-1.0-462.0","0","0","39050","","null","","","null","51","NaN","","","","","","","","","","","","","","",""
"","S2","","html-keyboard-response","331","602783","0.0-1.0-463.0","0","0","39050","","null","","","null","51","","NaN","","","","","","","","","","","","","",""
"","response","","html-keyboard-response","332","603225","0.0-1.0-464.0","0","0","39050","","438","","","75","51","","","2","51","training","adjacent","CD","3","4","R.jpg","N.jpg","0","1","0","",""
"","feedback","","html-keyboard-response","333","604229","0.0-1.0-465.0-0.0","0","0","39050","","null","","","null","51","","","","","","","","","","","","","","","",""
"","time_out","","html-keyboard-response","334","606233","0.0-1.0-467.0-0.0","0","0","39050","","null","","","null","51","","","","","","","","","","","","","","","",""
"","ITI","","html-keyboard-response","335","607238","0.0-1.0-468.0","0","0","39050","","null","","","null","51","","","","","","","","","","","","","","","NaN",""
"","S1","","html-keyboard-response","336","607493","0.0-1.0-470.0","0","0","39050","","null","","","null","52","","","","","","","","","","","","","","","",""
"","ISI","","html-keyboard-response","337","609497","0.0-1.0-471.0","0","0","39050","","null","","","null","52","NaN","","","","","","","","","","","","","","",""
"","S2","","html-keyboard-response","338","609752","0.0-1.0-472.0","0","0","39050","","null","","","null","52","","NaN","","","","","","","","","","","","","",""
"","response","","html-keyboard-response","339","610163","0.0-1.0-473.0","0","0","39050","","406","","","75","52","","","2","52","training","adjacent","ED","5","4","Q.jpg","N.jpg","0","0","1","",""
"","feedback","","html-keyboard-response","340","611168","0.0-1.0-474.0-0.0","0","0","39050","","null","","","null","52","","","","","","","","","","","","","","","",""
"","ITI","","html-keyboard-response","341","612172","0.0-1.0-477.0","0","0","39050","","null","","","null","52","","","","","","","","","","","","","","","NaN",""
"","S1","","html-keyboard-response","342","612431","0.0-1.0-479.0","0","0","39050","","null","","","null","53","","","","","","","","","","","","","","","",""
"","ISI","","html-keyboard-response","343","614435","0.0-1.0-480.0","0","0","39050","","null","","","null","53","NaN","","","","","","","","","","","","","","",""
"","S2","","html-keyboard-response","344","614691","0.0-1.0-481.0","0","0","39050","","null","","","null","53","","NaN","","","","","","","","","","","","","",""
"","response","","html-keyboard-response","345","615142","0.0-1.0-482.0","0","0","39050","","446","","","75","53","","","2","53","training","adjacent","BA","2","1","O.jpg","P.jpg","0","0","1","",""
"","feedback","","html-keyboard-response","346","616147","0.0-1.0-483.0-0.0","0","0","39050","","null","","","null","53","","","","","","","","","","","","","","","",""
"","ITI","","html-keyboard-response","347","617151","0.0-1.0-486.0","0","0","39050","","null","","","null","53","","","","","","","","","","","","","","","NaN",""
"","S1","","html-keyboard-response","348","617405","0.0-1.0-488.0","0","0","39050","","null","","","null","54","","","","","","","","","","","","","","","",""
"","ISI","","html-keyboard-response","349","619410","0.0-1.0-489.0","0","0","39050","","null","","","null","54","NaN","","","","","","","","","","","","","","",""
"","S2","","html-keyboard-response","350","619665","0.0-1.0-490.0","0","0","39050","","null","","","null","54","","NaN","","","","","","","","","","","","","",""
"","response","","html-keyboard-response","351","620352","0.0-1.0-491.0","0","0","39050","","683","","","68","54","","","2","54","training","adjacent","FG","6","7","M.jpg","L.jpg","1","1","1","",""
"","feedback","","html-keyboard-response","352","621357","0.0-1.0-492.0-0.0","0","0","39050","","null","","","null","54","","","","","","","","","","","","","","","",""
"","ITI","","html-keyboard-response","353","622361","0.0-1.0-495.0","0","0","39050","","null","","","null","54","","","","","","","","","","","","","","","NaN",""
"","S1","","html-keyboard-response","354","622615","0.0-1.0-497.0","0","0","39050","","null","","","null","55","","","","","","","","","","","","","","","",""
"","ISI","","html-keyboard-response","355","624619","0.0-1.0-498.0","0","0","39050","","null","","","null","55","NaN","","","","","","","","","","","","","","",""
"","S2","","html-keyboard-response","356","624874","0.0-1.0-499.0","0","0","39050","","null","","","null","55","","NaN","","","","","","","","","","","","","",""
"","response","","html-keyboard-response","357","625237","0.0-1.0-500.0","0","0","39050","","360","","","75","55","","","2","55","training","adjacent","ED","5","4","Q.jpg","N.jpg","0","0","1","",""
"","feedback","","html-keyboard-response","358","626242","0.0-1.0-501.0-0.0","0","0","39050","","null","","","null","55","","","","","","","","","","","","","","","",""
"","ITI","","html-keyboard-response","359","627246","0.0-1.0-504.0","0","0","39050","","null","","","null","55","","","","","","","","","","","","","","","NaN",""
"","S1","","html-keyboard-response","360","627500","0.0-1.0-506.0","0","0","39050","","null","","","null","56","","","","","","","","","","","","","","","",""
"","ISI","","html-keyboard-response","361","629506","0.0-1.0-507.0","0","0","39050","","null","","","null","56","NaN","","","","","","","","","","","","","","",""
"","S2","","html-keyboard-response","362","629763","0.0-1.0-508.0","0","0","39050","","null","","","null","56","","NaN","","","","","","","","","","","","","",""
"","response","","html-keyboard-response","363","630120","0.0-1.0-509.0","0","0","39050","","353","","","68","56","","","2","56","training","adjacent","FG","6","7","M.jpg","L.jpg","1","1","1","",""
"","feedback","","html-keyboard-response","364","631125","0.0-1.0-510.0-0.0","0","0","39050","","null","","","null","56","","","","","","","","","","","","","","","",""
"","ITI","","html-keyboard-response","365","632130","0.0-1.0-513.0","0","0","39050","","null","","","null","56","","","","","","","","","","","","","","","NaN",""
"","S1","","html-keyboard-response","366","632384","0.0-1.0-515.0","0","0","39050","","null","","","null","57","","","","","","","","","","","","","","","",""
"","ISI","","html-keyboard-response","367","634389","0.0-1.0-516.0","0","0","39050","","null","","","null","57","NaN","","","","","","","","","","","","","","",""
"","S2","","html-keyboard-response","368","634644","0.0-1.0-517.0","0","0","39050","","null","","","null","57","","NaN","","","","","","","","","","","","","",""
"","response","","html-keyboard-response","369","635640","0.0-1.0-518.0","0","0","39050","","992","","","75","57","","","2","57","training","adjacent","GF","7","6","L.jpg","M.jpg","0","0","1","",""
"","feedback","","html-keyboard-response","370","636644","0.0-1.0-519.0-0.0","0","0","39050","","null","","","null","57","","","","","","","","","","","","","","","",""
"","ITI","","html-keyboard-response","371","637648","0.0-1.0-522.0","0","0","39050","","null","","","null","57","","","","","","","","","","","","","","","NaN",""
"","S1","","html-keyboard-response","372","637903","0.0-1.0-524.0","0","0","39050","","null","","","null","58","","","","","","","","","","","","","","","",""
"","ISI","","html-keyboard-response","373","639907","0.0-1.0-525.0","0","0","39050","","null","","","null","58","NaN","","","","","","","","","","","","","","",""
"","S2","","html-keyboard-response","374","640163","0.0-1.0-526.0","0","0","39050","","null","","","null","58","","NaN","","","","","","","","","","","","","",""
"","response","","html-keyboard-response","375","641613","0.0-1.0-527.0","0","0","39050","","1446","","","68","58","","","2","58","training","adjacent","BC","2","3","O.jpg","R.jpg","1","1","1","",""
"","feedback","","html-keyboard-response","376","642617","0.0-1.0-528.0-0.0","0","0","39050","","null","","","null","58","","","","","","","","","","","","","","","",""
"","ITI","","html-keyboard-response","377","643623","0.0-1.0-531.0","0","0","39050","","null","","","null","58","","","","","","","","","","","","","","","NaN",""
"","S1","","html-keyboard-response","378","643877","0.0-1.0-533.0","0","0","39050","","null","","","null","59","","","","","","","","","","","","","","","",""
"","ISI","","html-keyboard-response","379","645882","0.0-1.0-534.0","0","0","39050","","null","","","null","59","NaN","","","","","","","","","","","","","","",""
"","S2","","html-keyboard-response","380","646136","0.0-1.0-535.0","0","0","39050","","null","","","null","59","","NaN","","","","","","","","","","","","","",""
"","response","","html-keyboard-response","381","646808","0.0-1.0-536.0","0","0","39050","","668","","","75","59","","","2","59","training","adjacent","FE","6","5","M.jpg","Q.jpg","0","0","1","",""
"","feedback","","html-keyboard-response","382","647812","0.0-1.0-537.0-0.0","0","0","39050","","null","","","null","59","","","","","","","","","","","","","","","",""
"","ITI","","html-keyboard-response","383","648817","0.0-1.0-540.0","0","0","39050","","null","","","null","59","","","","","","","","","","","","","","","NaN",""
"","S1","","html-keyboard-response","384","649072","0.0-1.0-542.0","0","0","39050","","null","","","null","60","","","","","","","","","","","","","","","",""
"","ISI","","html-keyboard-response","385","651076","0.0-1.0-543.0","0","0","39050","","null","","","null","60","NaN","","","","","","","","","","","","","","",""
"","S2","","html-keyboard-response","386","651330","0.0-1.0-544.0","0","0","39050","","null","","","null","60","","NaN","","","","","","","","","","","","","",""
"","response","","html-keyboard-response","387","651728","0.0-1.0-545.0","0","0","39050","","395","","","75","60","","","2","60","training","adjacent","BC","2","3","O.jpg","R.jpg","0","1","0","",""
"","feedback","","html-keyboard-response","388","652733","0.0-1.0-546.0-0.0","0","0","39050","","null","","","null","60","","","","","","","","","","","","","","","",""
"","time_out","","html-keyboard-response","389","654737","0.0-1.0-548.0-0.0","0","0","39050","","null","","","null","60","","","","","","","","","","","","","","","",""
"","ITI","","html-keyboard-response","390","655741","0.0-1.0-549.0","0","0","39050","","null","","","null","60","","","","","","","","","","","","","","","NaN",""
"","S1","","html-keyboard-response","391","655995","0.0-1.0-551.0","0","0","39050","","null","","","null","61","","","","","","","","","","","","","","","",""
"","ISI","","html-keyboard-response","392","657999","0.0-1.0-552.0","0","0","39050","","null","","","null","61","NaN","","","","","","","","","","","","","","",""
"","S2","","html-keyboard-response","393","658253","0.0-1.0-553.0","0","0","39050","","null","","","null","61","","NaN","","","","","","","","","","","","","",""
"","response","","html-keyboard-response","394","658671","0.0-1.0-554.0","0","0","39050","","414","","","75","61","","","2","61","training","adjacent","CD","3","4","R.jpg","N.jpg","0","1","0","",""
"","feedback","","html-keyboard-response","395","659675","0.0-1.0-555.0-0.0","0","0","39050","","null","","","null","61","","","","","","","","","","","","","","","",""
"","time_out","","html-keyboard-response","396","661679","0.0-1.0-557.0-0.0","0","0","39050","","null","","","null","61","","","","","","","","","","","","","","","",""
"","ITI","","html-keyboard-response","397","662682","0.0-1.0-558.0","0","0","39050","","null","","","null","61","","","","","","","","","","","","","","","NaN",""
"","S1","","html-keyboard-response","398","662937","0.0-1.0-560.0","0","0","39050","","null","","","null","62","","","","","","","","","","","","","","","",""
"","ISI","","html-keyboard-response","399","664940","0.0-1.0-561.0","0","0","39050","","null","","","null","62","NaN","","","","","","","","","","","","","","",""
"","S2","","html-keyboard-response","400","665194","0.0-1.0-562.0","0","0","39050","","null","","","null","62","","NaN","","","","","","","","","","","","","",""
"","response","","html-keyboard-response","401","665667","0.0-1.0-563.0","0","0","39050","","469","","","75","62","","","2","62","training","adjacent","ED","5","4","Q.jpg","N.jpg","0","0","1","",""
"","feedback","","html-keyboard-response","402","666672","0.0-1.0-564.0-0.0","0","0","39050","","null","","","null","62","","","","","","","","","","","","","","","",""
"","ITI","","html-keyboard-response","403","667676","0.0-1.0-567.0","0","0","39050","","null","","","null","62","","","","","","","","","","","","","","","NaN",""
"","S1","","html-keyboard-response","404","667930","0.0-1.0-569.0","0","0","39050","","null","","","null","63","","","","","","","","","","","","","","","",""
"","ISI","","html-keyboard-response","405","669933","0.0-1.0-570.0","0","0","39050","","null","","","null","63","NaN","","","","","","","","","","","","","","",""
"","S2","","html-keyboard-response","406","670187","0.0-1.0-571.0","0","0","39050","","null","","","null","63","","NaN","","","","","","","","","","","","","",""
"","response","","html-keyboard-response","407","670611","0.0-1.0-572.0","0","0","39050","","420","","","75","63","","","2","63","training","adjacent","BA","2","1","O.jpg","P.jpg","0","0","1","",""
"","feedback","","html-keyboard-response","408","671615","0.0-1.0-573.0-0.0","0","0","39050","","null","","","null","63","","","","","","","","","","","","","","","",""
"","ITI","","html-keyboard-response","409","672619","0.0-1.0-576.0","0","0","39050","","null","","","null","63","","","","","","","","","","","","","","","NaN",""
"","S1","","html-keyboard-response","410","672873","0.0-1.0-578.0","0","0","39050","","null","","","null","64","","","","","","","","","","","","","","","",""
"","ISI","","html-keyboard-response","411","674877","0.0-1.0-579.0","0","0","39050","","null","","","null","64","NaN","","","","","","","","","","","","","","",""
"","S2","","html-keyboard-response","412","675132","0.0-1.0-580.0","0","0","39050","","null","","","null","64","","NaN","","","","","","","","","","","","","",""
"","response","","html-keyboard-response","413","675739","0.0-1.0-581.0","0","0","39050","","605","","","75","64","","","2","64","training","adjacent","CB","3","2","R.jpg","O.jpg","0","0","1","",""
"","feedback","","html-keyboard-response","414","676743","0.0-1.0-582.0-0.0","0","0","39050","","null","","","null","64","","","","","","","","","","","","","","","",""
"","ITI","","html-keyboard-response","415","677747","0.0-1.0-585.0","0","0","39050","","null","","","null","64","","","","","","","","","","","","","","","NaN",""
"","S1","","html-keyboard-response","416","678002","0.0-1.0-587.0","0","0","39050","","null","","","null","65","","","","","","","","","","","","","","","",""
"","ISI","","html-keyboard-response","417","680006","0.0-1.0-588.0","0","0","39050","","null","","","null","65","NaN","","","","","","","","","","","","","","",""
"","S2","","html-keyboard-response","418","680260","0.0-1.0-589.0","0","0","39050","","null","","","null","65","","NaN","","","","","","","","","","","","","",""
"","response","","html-keyboard-response","419","681426","0.0-1.0-590.0","0","0","39050","","1161","","","75","65","","","2","65","training","adjacent","DE","4","5","N.jpg","Q.jpg","0","1","0","",""
"","feedback","","html-keyboard-response","420","682430","0.0-1.0-591.0-0.0","0","0","39050","","null","","","null","65","","","","","","","","","","","","","","","",""
"","time_out","","html-keyboard-response","421","684434","0.0-1.0-593.0-0.0","0","0","39050","","null","","","null","65","","","","","","","","","","","","","","","",""
"","ITI","","html-keyboard-response","422","685438","0.0-1.0-594.0","0","0","39050","","null","","","null","65","","","","","","","","","","","","","","","NaN",""
"","S1","","html-keyboard-response","423","685692","0.0-1.0-596.0","0","0","39050","","null","","","null","66","","","","","","","","","","","","","","","",""
"","ISI","","html-keyboard-response","424","687695","0.0-1.0-597.0","0","0","39050","","null","","","null","66","NaN","","","","","","","","","","","","","","",""
"","S2","","html-keyboard-response","425","687949","0.0-1.0-598.0","0","0","39050","","null","","","null","66","","NaN","","","","","","","","","","","","","",""
"","response","","html-keyboard-response","426","688252","0.0-1.0-599.0","0","0","39050","","299","","","68","66","","","2","66","training","adjacent","AB","1","2","P.jpg","O.jpg","1","1","1","",""
"","feedback","","html-keyboard-response","427","689257","0.0-1.0-600.0-0.0","0","0","39050","","null","","","null","66","","","","","","","","","","","","","","","",""
"","ITI","","html-keyboard-response","428","690261","0.0-1.0-603.0","0","0","39050","","null","","","null","66","","","","","","","","","","","","","","","NaN",""
"","S1","","html-keyboard-response","429","690515","0.0-1.0-605.0","0","0","39050","","null","","","null","67","","","","","","","","","","","","","","","",""
"","ISI","","html-keyboard-response","430","692519","0.0-1.0-606.0","0","0","39050","","null","","","null","67","NaN","","","","","","","","","","","","","","",""
"","S2","","html-keyboard-response","431","692772","0.0-1.0-607.0","0","0","39050","","null","","","null","67","","NaN","","","","","","","","","","","","","",""
"","response","","html-keyboard-response","432","693262","0.0-1.0-608.0","0","0","39050","","485","","","68","67","","","2","67","training","adjacent","AB","1","2","P.jpg","O.jpg","1","1","1","",""
"","feedback","","html-keyboard-response","433","694266","0.0-1.0-609.0-0.0","0","0","39050","","null","","","null","67","","","","","","","","","","","","","","","",""
"","ITI","","html-keyboard-response","434","695269","0.0-1.0-612.0","0","0","39050","","null","","","null","67","","","","","","","","","","","","","","","NaN",""
"","S1","","html-keyboard-response","435","695524","0.0-1.0-614.0","0","0","39050","","null","","","null","68","","","","","","","","","","","","","","","",""
"","ISI","","html-keyboard-response","436","697527","0.0-1.0-615.0","0","0","39050","","null","","","null","68","NaN","","","","","","","","","","","","","","",""
"","S2","","html-keyboard-response","437","697783","0.0-1.0-616.0","0","0","39050","","null","","","null","68","","NaN","","","","","","","","","","","","","",""
"","response","","html-keyboard-response","438","698542","0.0-1.0-617.0","0","0","39050","","755","","","75","68","","","2","68","training","adjacent","CB","3","2","R.jpg","O.jpg","0","0","1","",""
"","feedback","","html-keyboard-response","439","699546","0.0-1.0-618.0-0.0","0","0","39050","","null","","","null","68","","","","","","","","","","","","","","","",""
"","ITI","","html-keyboard-response","440","700550","0.0-1.0-621.0","0","0","39050","","null","","","null","68","","","","","","","","","","","","","","","NaN",""
"","S1","","html-keyboard-response","441","700804","0.0-1.0-623.0","0","0","39050","","null","","","null","69","","","","","","","","","","","","","","","",""
"","ISI","","html-keyboard-response","442","702808","0.0-1.0-624.0","0","0","39050","","null","","","null","69","NaN","","","","","","","","","","","","","","",""
"","S2","","html-keyboard-response","443","703062","0.0-1.0-625.0","0","0","39050","","null","","","null","69","","NaN","","","","","","","","","","","","","",""
"","response","","html-keyboard-response","444","703416","0.0-1.0-626.0","0","0","39050","","350","","","75","69","","","2","69","training","adjacent","GF","7","6","L.jpg","M.jpg","0","0","1","",""
"","feedback","","html-keyboard-response","445","704420","0.0-1.0-627.0-0.0","0","0","39050","","null","","","null","69","","","","","","","","","","","","","","","",""
"","ITI","","html-keyboard-response","446","705424","0.0-1.0-630.0","0","0","39050","","null","","","null","69","","","","","","","","","","","","","","","NaN",""
"","S1","","html-keyboard-response","447","705679","0.0-1.0-632.0","0","0","39050","","null","","","null","70","","","","","","","","","","","","","","","",""
"","ISI","","html-keyboard-response","448","707682","0.0-1.0-633.0","0","0","39050","","null","","","null","70","NaN","","","","","","","","","","","","","","",""
"","S2","","html-keyboard-response","449","707937","0.0-1.0-634.0","0","0","39050","","null","","","null","70","","NaN","","","","","","","","","","","","","",""
"","response","","html-keyboard-response","450","708572","0.0-1.0-635.0","0","0","39050","","631","","","68","70","","","2","70","training","adjacent","DC","4","3","N.jpg","R.jpg","1","0","0","",""
"","feedback","","html-keyboard-response","451","709576","0.0-1.0-636.0-0.0","0","0","39050","","null","","","null","70","","","","","","","","","","","","","","","",""
"","time_out","","html-keyboard-response","452","711581","0.0-1.0-638.0-0.0","0","0","39050","","null","","","null","70","","","","","","","","","","","","","","","",""
"","ITI","","html-keyboard-response","453","712586","0.0-1.0-639.0","0","0","39050","","null","","","null","70","","","","","","","","","","","","","","","NaN",""
"","S1","","html-keyboard-response","454","712840","0.0-1.0-641.0","0","0","39050","","null","","","null","71","","","","","","","","","","","","","","","",""
"","ISI","","html-keyboard-response","455","714843","0.0-1.0-642.0","0","0","39050","","null","","","null","71","NaN","","","","","","","","","","","","","","",""
"","S2","","html-keyboard-response","456","715098","0.0-1.0-643.0","0","0","39050","","null","","","null","71","","NaN","","","","","","","","","","","","","",""
"","response","","html-keyboard-response","457","715876","0.0-1.0-644.0","0","0","39050","","776","","","68","71","","","2","71","training","adjacent","EF","5","6","Q.jpg","M.jpg","1","1","1","",""
"","feedback","","html-keyboard-response","458","716882","0.0-1.0-645.0-0.0","0","0","39050","","null","","","null","71","","","","","","","","","","","","","","","",""
"","ITI","","html-keyboard-response","459","717886","0.0-1.0-648.0","0","0","39050","","null","","","null","71","","","","","","","","","","","","","","","NaN",""
"","S1","","html-keyboard-response","460","718142","0.0-1.0-650.0","0","0","39050","","null","","","null","72","","","","","","","","","","","","","","","",""
"","ISI","","html-keyboard-response","461","720147","0.0-1.0-651.0","0","0","39050","","null","","","null","72","NaN","","","","","","","","","","","","","","",""
"","S2","","html-keyboard-response","462","720401","0.0-1.0-652.0","0","0","39050","","null","","","null","72","","NaN","","","","","","","","","","","","","",""
"","response","","html-keyboard-response","463","721273","0.0-1.0-653.0","0","0","39050","","868","","","68","72","","","2","72","training","adjacent","EF","5","6","Q.jpg","M.jpg","1","1","1","",""
"","feedback","","html-keyboard-response","464","722278","0.0-1.0-654.0-0.0","0","0","39050","","null","","","null","72","","","","","","","","","","","","","","","",""
"","ITI","","html-keyboard-response","465","723283","0.0-1.0-657.0","0","0","39050","","null","","","null","72","","","","","","","","","","","","","","","NaN",""
"","S1","","html-keyboard-response","466","723537","0.0-1.0-659.0","0","0","39050","","null","","","null","73","","","","","","","","","","","","","","","",""
"","ISI","","html-keyboard-response","467","725542","0.0-1.0-660.0","0","0","39050","","null","","","null","73","NaN","","","","","","","","","","","","","","",""
"","S2","","html-keyboard-response","468","725798","0.0-1.0-661.0","0","0","39050","","null","","","null","73","","NaN","","","","","","","","","","","","","",""
"","response","","html-keyboard-response","469","726124","0.0-1.0-662.0","0","0","39050","","322","","","75","73","","","2","73","training","adjacent","BA","2","1","O.jpg","P.jpg","0","0","1","",""
"","feedback","","html-keyboard-response","470","727128","0.0-1.0-663.0-0.0","0","0","39050","","null","","","null","73","","","","","","","","","","","","","","","",""
"","ITI","","html-keyboard-response","471","728132","0.0-1.0-666.0","0","0","39050","","null","","","null","73","","","","","","","","","","","","","","","NaN",""
"","S1","","html-keyboard-response","472","728386","0.0-1.0-668.0","0","0","39050","","null","","","null","74","","","","","","","","","","","","","","","",""
"","ISI","","html-keyboard-response","473","730390","0.0-1.0-669.0","0","0","39050","","null","","","null","74","NaN","","","","","","","","","","","","","","",""
"","S2","","html-keyboard-response","474","730644","0.0-1.0-670.0","0","0","39050","","null","","","null","74","","NaN","","","","","","","","","","","","","",""
"","response","","html-keyboard-response","475","730813","0.0-1.0-671.0","0","0","39050","","164","","","75","74","","","2","74","training","adjacent","FE","6","5","M.jpg","Q.jpg","0","0","1","",""
"","feedback","","html-keyboard-response","476","731817","0.0-1.0-672.0-0.0","0","0","39050","","null","","","null","74","","","","","","","","","","","","","","","",""
"","ITI","","html-keyboard-response","477","732821","0.0-1.0-675.0","0","0","39050","","null","","","null","74","","","","","","","","","","","","","","","NaN",""
"","S1","","html-keyboard-response","478","733075","0.0-1.0-677.0","0","0","39050","","null","","","null","75","","","","","","","","","","","","","","","",""
"","ISI","","html-keyboard-response","479","735080","0.0-1.0-678.0","0","0","39050","","null","","","null","75","NaN","","","","","","","","","","","","","","",""
"","S2","","html-keyboard-response","480","735334","0.0-1.0-679.0","0","0","39050","","null","","","null","75","","NaN","","","","","","","","","","","","","",""
"","response","","html-keyboard-response","481","736076","0.0-1.0-680.0","0","0","39050","","738","","","68","75","","","2","75","training","adjacent","BC","2","3","O.jpg","R.jpg","1","1","1","",""
"","feedback","","html-keyboard-response","482","737081","0.0-1.0-681.0-0.0","0","0","39050","","null","","","null","75","","","","","","","","","","","","","","","",""
"","ITI","","html-keyboard-response","483","738084","0.0-1.0-684.0","0","0","39050","","null","","","null","75","","","","","","","","","","","","","","","NaN",""
"","S1","","html-keyboard-response","484","738339","0.0-1.0-686.0","0","0","39050","","null","","","null","76","","","","","","","","","","","","","","","",""
"","ISI","","html-keyboard-response","485","740343","0.0-1.0-687.0","0","0","39050","","null","","","null","76","NaN","","","","","","","","","","","","","","",""
"","S2","","html-keyboard-response","486","740597","0.0-1.0-688.0","0","0","39050","","null","","","null","76","","NaN","","","","","","","","","","","","","",""
"","response","","html-keyboard-response","487","740739","0.0-1.0-689.0","0","0","39050","","138","","","75","76","","","2","76","training","adjacent","CB","3","2","R.jpg","O.jpg","0","0","1","",""
"","feedback","","html-keyboard-response","488","741743","0.0-1.0-690.0-0.0","0","0","39050","","null","","","null","76","","","","","","","","","","","","","","","",""
"","ITI","","html-keyboard-response","489","742747","0.0-1.0-693.0","0","0","39050","","null","","","null","76","","","","","","","","","","","","","","","NaN",""
"","S1","","html-keyboard-response","490","743001","0.0-1.0-695.0","0","0","39050","","null","","","null","77","","","","","","","","","","","","","","","",""
"","ISI","","html-keyboard-response","491","745005","0.0-1.0-696.0","0","0","39050","","null","","","null","77","NaN","","","","","","","","","","","","","","",""
"","S2","","html-keyboard-response","492","745259","0.0-1.0-697.0","0","0","39050","","null","","","null","77","","NaN","","","","","","","","","","","","","",""
"","response","","html-keyboard-response","493","746003","0.0-1.0-698.0","0","0","39050","","739","","","75","77","","","2","77","training","adjacent","CB","3","2","R.jpg","O.jpg","0","0","1","",""
"","feedback","","html-keyboard-response","494","747007","0.0-1.0-699.0-0.0","0","0","39050","","null","","","null","77","","","","","","","","","","","","","","","",""
"","ITI","","html-keyboard-response","495","748012","0.0-1.0-702.0","0","0","39050","","null","","","null","77","","","","","","","","","","","","","","","NaN",""
"","S1","","html-keyboard-response","496","748266","0.0-1.0-704.0","0","0","39050","","null","","","null","78","","","","","","","","","","","","","","","",""
"","ISI","","html-keyboard-response","497","750270","0.0-1.0-705.0","0","0","39050","","null","","","null","78","NaN","","","","","","","","","","","","","","",""
"","S2","","html-keyboard-response","498","750524","0.0-1.0-706.0","0","0","39050","","null","","","null","78","","NaN","","","","","","","","","","","","","",""
"","response","","html-keyboard-response","499","751087","0.0-1.0-707.0","0","0","39050","","559","","","75","78","","","2","78","training","adjacent","DC","4","3","N.jpg","R.jpg","0","0","1","",""
"","feedback","","html-keyboard-response","500","752091","0.0-1.0-708.0-0.0","0","0","39050","","null","","","null","78","","","","","","","","","","","","","","","",""
"","ITI","","html-keyboard-response","501","753095","0.0-1.0-711.0","0","0","39050","","null","","","null","78","","","","","","","","","","","","","","","NaN",""
"","S1","","html-keyboard-response","502","753349","0.0-1.0-713.0","0","0","39050","","null","","","null","79","","","","","","","","","","","","","","","",""
"","ISI","","html-keyboard-response","503","755355","0.0-1.0-714.0","0","0","39050","","null","","","null","79","NaN","","","","","","","","","","","","","","",""
"","S2","","html-keyboard-response","504","755609","0.0-1.0-715.0","0","0","39050","","null","","","null","79","","NaN","","","","","","","","","","","","","",""
"","response","","html-keyboard-response","505","755677","0.0-1.0-716.0","0","0","39050","","65","","","75","79","","","2","79","training","adjacent","GF","7","6","L.jpg","M.jpg","0","0","1","",""
"","feedback","","html-keyboard-response","506","756682","0.0-1.0-717.0-0.0","0","0","39050","","null","","","null","79","","","","","","","","","","","","","","","",""
"","ITI","","html-keyboard-response","507","757686","0.0-1.0-720.0","0","0","39050","","null","","","null","79","","","","","","","","","","","","","","","NaN",""
"","S1","","html-keyboard-response","508","757940","0.0-1.0-722.0","0","0","39050","","null","","","null","80","","","","","","","","","","","","","","","",""
"","ISI","","html-keyboard-response","509","759944","0.0-1.0-723.0","0","0","39050","","null","","","null","80","NaN","","","","","","","","","","","","","","",""
"","S2","","html-keyboard-response","510","760198","0.0-1.0-724.0","0","0","39050","","null","","","null","80","","NaN","","","","","","","","","","","","","",""
"","response","","html-keyboard-response","511","760265","0.0-1.0-725.0","0","0","39050","","63","","","75","80","","","2","80","training","adjacent","GF","7","6","L.jpg","M.jpg","0","0","1","",""
"","feedback","","html-keyboard-response","512","761269","0.0-1.0-726.0-0.0","0","0","39050","","null","","","null","80","","","","","","","","","","","","","","","",""
"","ITI","","html-keyboard-response","513","762273","0.0-1.0-729.0","0","0","39050","","null","","","null","80","","","","","","","","","","","","","","","NaN",""
"","S1","","html-keyboard-response","514","762527","0.0-1.0-731.0","0","0","39050","","null","","","null","81","","","","","","","","","","","","","","","",""
"","ISI","","html-keyboard-response","515","764533","0.0-1.0-732.0","0","0","39050","","null","","","null","81","NaN","","","","","","","","","","","","","","",""
"","S2","","html-keyboard-response","516","764786","0.0-1.0-733.0","0","0","39050","","null","","","null","81","","NaN","","","","","","","","","","","","","",""
"","response","","html-keyboard-response","517","765342","0.0-1.0-734.0","0","0","39050","","551","","","75","81","","","2","81","training","adjacent","BA","2","1","O.jpg","P.jpg","0","0","1","",""
"","feedback","","html-keyboard-response","518","766345","0.0-1.0-735.0-0.0","0","0","39050","","null","","","null","81","","","","","","","","","","","","","","","",""
"","ITI","","html-keyboard-response","519","767349","0.0-1.0-738.0","0","0","39050","","null","","","null","81","","","","","","","","","","","","","","","NaN",""
"","S1","","html-keyboard-response","520","767604","0.0-1.0-740.0","0","0","39050","","null","","","null","82","","","","","","","","","","","","","","","",""
"","ISI","","html-keyboard-response","521","769608","0.0-1.0-741.0","0","0","39050","","null","","","null","82","NaN","","","","","","","","","","","","","","",""
"","S2","","html-keyboard-response","522","769862","0.0-1.0-742.0","0","0","39050","","null","","","null","82","","NaN","","","","","","","","","","","","","",""
"","response","","html-keyboard-response","523","770334","0.0-1.0-743.0","0","0","39050","","468","","","68","82","","","2","82","training","adjacent","DC","4","3","N.jpg","R.jpg","1","0","0","",""
"","feedback","","html-keyboard-response","524","771338","0.0-1.0-744.0-0.0","0","0","39050","","null","","","null","82","","","","","","","","","","","","","","","",""
"","time_out","","html-keyboard-response","525","773342","0.0-1.0-746.0-0.0","0","0","39050","","null","","","null","82","","","","","","","","","","","","","","","",""
"","ITI","","html-keyboard-response","526","774346","0.0-1.0-747.0","0","0","39050","","null","","","null","82","","","","","","","","","","","","","","","NaN",""
"","S1","","html-keyboard-response","527","774600","0.0-1.0-749.0","0","0","39050","","null","","","null","83","","","","","","","","","","","","","","","",""
"","ISI","","html-keyboard-response","528","776604","0.0-1.0-750.0","0","0","39050","","null","","","null","83","NaN","","","","","","","","","","","","","","",""
"","S2","","html-keyboard-response","529","776858","0.0-1.0-751.0","0","0","39050","","null","","","null","83","","NaN","","","","","","","","","","","","","",""
"","response","","html-keyboard-response","530","777175","0.0-1.0-752.0","0","0","39050","","313","","","68","83","","","2","83","training","adjacent","FG","6","7","M.jpg","L.jpg","1","1","1","",""
"","feedback","","html-keyboard-response","531","778179","0.0-1.0-753.0-0.0","0","0","39050","","null","","","null","83","","","","","","","","","","","","","","","",""
"","ITI","","html-keyboard-response","532","779184","0.0-1.0-756.0","0","0","39050","","null","","","null","83","","","","","","","","","","","","","","","NaN",""
"","S1","","html-keyboard-response","533","779438","0.0-1.0-758.0","0","0","39050","","null","","","null","84","","","","","","","","","","","","","","","",""
"","ISI","","html-keyboard-response","534","781442","0.0-1.0-759.0","0","0","39050","","null","","","null","84","NaN","","","","","","","","","","","","","","",""
"","S2","","html-keyboard-response","535","781696","0.0-1.0-760.0","0","0","39050","","null","","","null","84","","NaN","","","","","","","","","","","","","",""
"","response","","html-keyboard-response","536","782482","0.0-1.0-761.0","0","0","39050","","782","","","75","84","","","2","84","training","adjacent","BC","2","3","O.jpg","R.jpg","0","1","0","",""
"","feedback","","html-keyboard-response","537","783487","0.0-1.0-762.0-0.0","0","0","39050","","null","","","null","84","","","","","","","","","","","","","","","",""
"","time_out","","html-keyboard-response","538","785491","0.0-1.0-764.0-0.0","0","0","39050","","null","","","null","84","","","","","","","","","","","","","","","",""
"","ITI","","html-keyboard-response","539","786496","0.0-1.0-765.0","0","0","39050","","null","","","null","84","","","","","","","","","","","","","","","NaN",""
"","S1","","html-keyboard-response","540","786750","0.0-1.0-767.0","0","0","39050","","null","","","null","85","","","","","","","","","","","","","","","",""
"","ISI","","html-keyboard-response","541","788754","0.0-1.0-768.0","0","0","39050","","null","","","null","85","NaN","","","","","","","","","","","","","","",""
"","S2","","html-keyboard-response","542","789009","0.0-1.0-769.0","0","0","39050","","null","","","null","85","","NaN","","","","","","","","","","","","","",""
"","response","","html-keyboard-response","543","789364","0.0-1.0-770.0","0","0","39050","","352","","","68","85","","","2","85","training","adjacent","EF","5","6","Q.jpg","M.jpg","1","1","1","",""
"","feedback","","html-keyboard-response","544","790368","0.0-1.0-771.0-0.0","0","0","39050","","null","","","null","85","","","","","","","","","","","","","","","",""
"","ITI","","html-keyboard-response","545","791373","0.0-1.0-774.0","0","0","39050","","null","","","null","85","","","","","","","","","","","","","","","NaN",""
"","S1","","html-keyboard-response","546","791628","0.0-1.0-776.0","0","0","39050","","null","","","null","86","","","","","","","","","","","","","","","",""
"","ISI","","html-keyboard-response","547","793632","0.0-1.0-777.0","0","0","39050","","null","","","null","86","NaN","","","","","","","","","","","","","","",""
"","S2","","html-keyboard-response","548","793886","0.0-1.0-778.0","0","0","39050","","null","","","null","86","","NaN","","","","","","","","","","","","","",""
"","response","","html-keyboard-response","549","794692","0.0-1.0-779.0","0","0","39050","","801","","","75","86","","","2","86","training","adjacent","FE","6","5","M.jpg","Q.jpg","0","0","1","",""
"","feedback","","html-keyboard-response","550","795696","0.0-1.0-780.0-0.0","0","0","39050","","null","","","null","86","","","","","","","","","","","","","","","",""
"","ITI","","html-keyboard-response","551","796700","0.0-1.0-783.0","0","0","39050","","null","","","null","86","","","","","","","","","","","","","","","NaN",""
"","S1","","html-keyboard-response","552","796955","0.0-1.0-785.0","0","0","39050","","null","","","null","87","","","","","","","","","","","","","","","",""
"","ISI","","html-keyboard-response","553","798959","0.0-1.0-786.0","0","0","39050","","null","","","null","87","NaN","","","","","","","","","","","","","","",""
"","S2","","html-keyboard-response","554","799213","0.0-1.0-787.0","0","0","39050","","null","","","null","87","","NaN","","","","","","","","","","","","","",""
"","response","","html-keyboard-response","555","799870","0.0-1.0-788.0","0","0","39050","","653","","","75","87","","","2","87","training","adjacent","FE","6","5","M.jpg","Q.jpg","0","0","1","",""
"","feedback","","html-keyboard-response","556","800875","0.0-1.0-789.0-0.0","0","0","39050","","null","","","null","87","","","","","","","","","","","","","","","",""
"","ITI","","html-keyboard-response","557","801879","0.0-1.0-792.0","0","0","39050","","null","","","null","87","","","","","","","","","","","","","","","NaN",""
"","S1","","html-keyboard-response","558","802134","0.0-1.0-794.0","0","0","39050","","null","","","null","88","","","","","","","","","","","","","","","",""
"","ISI","","html-keyboard-response","559","804137","0.0-1.0-795.0","0","0","39050","","null","","","null","88","NaN","","","","","","","","","","","","","","",""
"","S2","","html-keyboard-response","560","804393","0.0-1.0-796.0","0","0","39050","","null","","","null","88","","NaN","","","","","","","","","","","","","",""
"","response","","html-keyboard-response","561","805205","0.0-1.0-797.0","0","0","39050","","808","","","75","88","","","2","88","training","adjacent","DE","4","5","N.jpg","Q.jpg","0","1","0","",""
"","feedback","","html-keyboard-response","562","806210","0.0-1.0-798.0-0.0","0","0","39050","","null","","","null","88","","","","","","","","","","","","","","","",""
"","time_out","","html-keyboard-response","563","808214","0.0-1.0-800.0-0.0","0","0","39050","","null","","","null","88","","","","","","","","","","","","","","","",""
"","ITI","","html-keyboard-response","564","809219","0.0-1.0-801.0","0","0","39050","","null","","","null","88","","","","","","","","","","","","","","","NaN",""
"","S1","","html-keyboard-response","565","809473","0.0-1.0-803.0","0","0","39050","","null","","","null","89","","","","","","","","","","","","","","","",""
"","ISI","","html-keyboard-response","566","811477","0.0-1.0-804.0","0","0","39050","","null","","","null","89","NaN","","","","","","","","","","","","","","",""
"","S2","","html-keyboard-response","567","811731","0.0-1.0-805.0","0","0","39050","","null","","","null","89","","NaN","","","","","","","","","","","","","",""
"","response","","html-keyboard-response","568","812260","0.0-1.0-806.0","0","0","39050","","525","","","75","89","","","2","89","training","adjacent","DE","4","5","N.jpg","Q.jpg","0","1","0","",""
"","feedback","","html-keyboard-response","569","813264","0.0-1.0-807.0-0.0","0","0","39050","","null","","","null","89","","","","","","","","","","","","","","","",""
"","time_out","","html-keyboard-response","570","815267","0.0-1.0-809.0-0.0","0","0","39050","","null","","","null","89","","","","","","","","","","","","","","","",""
"","ITI","","html-keyboard-response","571","816271","0.0-1.0-810.0","0","0","39050","","null","","","null","89","","","","","","","","","","","","","","","NaN",""
"","S1","","html-keyboard-response","572","816526","0.0-1.0-812.0","0","0","39050","","null","","","null","90","","","","","","","","","","","","","","","",""
"","ISI","","html-keyboard-response","573","818530","0.0-1.0-813.0","0","0","39050","","null","","","null","90","NaN","","","","","","","","","","","","","","",""
"","S2","","html-keyboard-response","574","818784","0.0-1.0-814.0","0","0","39050","","null","","","null","90","","NaN","","","","","","","","","","","","","",""
"","response","","html-keyboard-response","575","820331","0.0-1.0-815.0","0","0","39050","","1542","","","75","90","","","2","90","training","adjacent","AB","1","2","P.jpg","O.jpg","0","1","0","",""
"","feedback","","html-keyboard-response","576","821336","0.0-1.0-816.0-0.0","0","0","39050","","null","","","null","90","","","","","","","","","","","","","","","",""
"","time_out","","html-keyboard-response","577","823340","0.0-1.0-818.0-0.0","0","0","39050","","null","","","null","90","","","","","","","","","","","","","","","",""
"","ITI","","html-keyboard-response","578","824345","0.0-1.0-819.0","0","0","39050","","null","","","null","90","","","","","","","","","","","","","","","NaN",""
"","S1","","html-keyboard-response","579","824599","0.0-1.0-821.0","0","0","39050","","null","","","null","91","","","","","","","","","","","","","","","",""
"","ISI","","html-keyboard-response","580","826604","0.0-1.0-822.0","0","0","39050","","null","","","null","91","NaN","","","","","","","","","","","","","","",""
"","S2","","html-keyboard-response","581","826858","0.0-1.0-823.0","0","0","39050","","null","","","null","91","","NaN","","","","","","","","","","","","","",""
"","response","","html-keyboard-response","582","827362","0.0-1.0-824.0","0","0","39050","","501","","","68","91","","","2","91","training","adjacent","DC","4","3","N.jpg","R.jpg","1","0","0","",""
