"success","ttype","start_time","trial_type","trial_index","time_elapsed","internal_node_id","warning","missed_checkup","PID","view_history","rt","responses","repeat_instructions","key_press","index","keypress_isi","keypress_S2","block","trial_num","phase","group_type","pair_type","S1_stim","S2_stim","S1_img","S2_img","S1_chosen","S1_higher","accuracy","keypress_iti","total_bonus_tally"
"true","full_screen","d07302022hr0322","fullscreen","0","11677","0.0-0.0","0","0","22877","","","","","","","","","","","","","","","","","","","","","",""
"","instructions","","instructions","1","40963","0.0-1.0-0.0-0.0","0","0","22877","[{""page_index"":0,""viewing_time"":5125},{""page_index"":1,""viewing_time"":12136},{""page_index"":2,""viewing_time"":10671},{""page_index"":3,""viewing_time"":1352}]","29285","","","","","","","","","","","","","","","","","","","",""
"","comprehension_check","","survey-multi-choice","2","58291","0.0-1.0-0.0-1.0","0","0","22877","","17324","{""Q0"":""True"",""Q1"":""K"",""Q2"":""When you see the prompt 'MAKE A CHOICE' after the second image was presented"",""Q3"":""Green mark"",""Q4"":""either D or K""}","0","","","","","","","","","","","","","","","","","",""
"","start_exp","","html-keyboard-response","3","60689","0.0-1.0-1.0","0","0","22877","","2395","","","32","","","","","","","","","","","","","","","","",""
"","S1","","html-keyboard-response","4","60942","0.0-1.0-2.0","0","0","22877","","null","","","null","0","","","","","","","","","","","","","","","",""
"","ISI","","html-keyboard-response","5","62945","0.0-1.0-3.0","0","0","22877","","null","","","null","0","NaN","","","","","","","","","","","","","","",""
"","S2","","html-keyboard-response","6","63198","0.0-1.0-4.0","0","0","22877","","null","","","null","0","","NaN","","","","","","","","","","","","","",""
"","response","","html-keyboard-response","7","63993","0.0-1.0-5.0","0","0","22877","","794","","","75","0","","","1","0","training","adjacent","CD","3","4","R.jpg","O.jpg","1","1","1","",""
"","feedback","","html-keyboard-response","8","64995","0.0-1.0-6.0-0.0","0","0","22877","","null","","","null","0","","","","","","","","","","","","","","","",""
"","ITI","","html-keyboard-response","9","65997","0.0-1.0-9.0","0","0","22877","","null","","","null","0","","","","","","","","","","","","","","","NaN",""
"","S1","","html-keyboard-response","10","66250","0.0-1.0-11.0","0","0","22877","","null","","","null","1","","","","","","","","","","","","","","","",""
"","ISI","","html-keyboard-response","11","68251","0.0-1.0-12.0","0","0","22877","","null","","","null","1","NaN","","","","","","","","","","","","","","",""
"","S2","","html-keyboard-response","12","68504","0.0-1.0-13.0","0","0","22877","","null","","","null","1","","NaN","","","","","","","","","","","","","",""
"","response","","html-keyboard-response","13","69269","0.0-1.0-14.0","0","0","22877","","764","","","68","1","","","1","1","training","adjacent","AB","1","2","M.jpg","N.jpg","0","1","0","",""
"","feedback","","html-keyboard-response","14","70271","0.0-1.0-15.0-0.0","0","0","22877","","null","","","null","1","","","","","","","","","","","","","","","",""
"","time_out","","html-keyboard-response","15","72273","0.0-1.0-17.0-0.0","0","0","22877","","null","","","null","1","","","","","","","","","","","","","","","",""
"","ITI","","html-keyboard-response","16","73274","0.0-1.0-18.0","0","0","22877","","null","","","null","1","","","","","","","","","","","","","","","NaN",""
"","S1","","html-keyboard-response","17","73527","0.0-1.0-20.0","0","0","22877","","null","","","null","2","","","","","","","","","","","","","","","",""
"","ISI","","html-keyboard-response","18","75528","0.0-1.0-21.0","0","0","22877","","null","","","null","2","NaN","","","","","","","","","","","","","","",""
"","S2","","html-keyboard-response","19","75780","0.0-1.0-22.0","0","0","22877","","null","","","null","2","","NaN","","","","","","","","","","","","","",""
"","response","","html-keyboard-response","20","76673","0.0-1.0-23.0","0","0","22877","","891","","","68","2","","","1","2","training","adjacent","ED","5","4","P.jpg","O.jpg","0","0","1","",""
"","feedback","","html-keyboard-response","21","77675","0.0-1.0-24.0-0.0","0","0","22877","","null","","","null","2","","","","","","","","","","","","","","","",""
"","ITI","","html-keyboard-response","22","78678","0.0-1.0-27.0","0","0","22877","","null","","","null","2","","","","","","","","","","","","","","","NaN",""
"","S1","","html-keyboard-response","23","78943","0.0-1.0-29.0","0","0","22877","","null","","","null","3","","","","","","","","","","","","","","","",""
"","ISI","","html-keyboard-response","24","80945","0.0-1.0-30.0","0","0","22877","","null","","","null","3","NaN","","","","","","","","","","","","","","",""
"","S2","","html-keyboard-response","25","81198","0.0-1.0-31.0","0","0","22877","","null","","","null","3","","NaN","","","","","","","","","","","","","",""
"","response","","html-keyboard-response","26","81702","0.0-1.0-32.0","0","0","22877","","503","","","75","3","","","1","3","training","adjacent","AB","1","2","M.jpg","N.jpg","1","1","1","",""
"","feedback","","html-keyboard-response","27","82703","0.0-1.0-33.0-0.0","0","0","22877","","null","","","null","3","","","","","","","","","","","","","","","",""
"","ITI","","html-keyboard-response","28","83705","0.0-1.0-36.0","0","0","22877","","null","","","null","3","","","","","","","","","","","","","","","NaN",""
"","S1","","html-keyboard-response","29","83957","0.0-1.0-38.0","0","0","22877","","null","","","null","4","","","","","","","","","","","","","","","",""
"","ISI","","html-keyboard-response","30","85960","0.0-1.0-39.0","0","0","22877","","null","","","null","4","NaN","","","","","","","","","","","","","","",""
"","S2","","html-keyboard-response","31","86213","0.0-1.0-40.0","0","0","22877","","null","","","null","4","","NaN","","","","","","","","","","","","","",""
"","response","","html-keyboard-response","32","87003","0.0-1.0-41.0","0","0","22877","","789","","","75","4","","","1","4","training","adjacent","DE","4","5","O.jpg","P.jpg","1","1","1","",""
"","feedback","","html-keyboard-response","33","88005","0.0-1.0-42.0-0.0","0","0","22877","","null","","","null","4","","","","","","","","","","","","","","","",""
"","ITI","","html-keyboard-response","34","89008","0.0-1.0-45.0","0","0","22877","","null","","","null","4","","","","","","","","","","","","","","","NaN",""
"","S1","","html-keyboard-response","35","89261","0.0-1.0-47.0","0","0","22877","","null","","","null","5","","","","","","","","","","","","","","","",""
"","ISI","","html-keyboard-response","36","91263","0.0-1.0-48.0","0","0","22877","","null","","","null","5","NaN","","","","","","","","","","","","","","",""
"","S2","","html-keyboard-response","37","91516","0.0-1.0-49.0","0","0","22877","","null","","","null","5","","NaN","","","","","","","","","","","","","",""
"","response","","html-keyboard-response","38","91968","0.0-1.0-50.0","0","0","22877","","450","","","68","5","","","1","5","training","adjacent","ED","5","4","P.jpg","O.jpg","0","0","1","",""
"","feedback","","html-keyboard-response","39","92971","0.0-1.0-51.0-0.0","0","0","22877","","null","","","null","5","","","","","","","","","","","","","","","",""
"","ITI","","html-keyboard-response","40","93973","0.0-1.0-54.0","0","0","22877","","null","","","null","5","","","","","","","","","","","","","","","NaN",""
"","S1","","html-keyboard-response","41","94226","0.0-1.0-56.0","0","0","22877","","null","","","null","6","","","","","","","","","","","","","","","",""
"","ISI","","html-keyboard-response","42","96230","0.0-1.0-57.0","0","0","22877","","null","","","null","6","NaN","","","","","","","","","","","","","","",""
"","S2","","html-keyboard-response","43","96482","0.0-1.0-58.0","0","0","22877","","null","","","null","6","","NaN","","","","","","","","","","","","","",""
"","response","","html-keyboard-response","44","96972","0.0-1.0-59.0","0","0","22877","","489","","","68","6","","","1","6","training","adjacent","ED","5","4","P.jpg","O.jpg","0","0","1","",""
"","feedback","","html-keyboard-response","45","97974","0.0-1.0-60.0-0.0","0","0","22877","","null","","","null","6","","","","","","","","","","","","","","","",""
"","ITI","","html-keyboard-response","46","98977","0.0-1.0-63.0","0","0","22877","","null","","","null","6","","","","","","","","","","","","","","","NaN",""
"","S1","","html-keyboard-response","47","99230","0.0-1.0-65.0","0","0","22877","","null","","","null","7","","","","","","","","","","","","","","","",""
"","ISI","","html-keyboard-response","48","101232","0.0-1.0-66.0","0","0","22877","","null","","","null","7","NaN","","","","","","","","","","","","","","",""
"","S2","","html-keyboard-response","49","101484","0.0-1.0-67.0","0","0","22877","","null","","","null","7","","NaN","","","","","","","","","","","","","",""
"","response","","html-keyboard-response","50","101945","0.0-1.0-68.0","0","0","22877","","460","","","75","7","","","1","7","training","adjacent","AB","1","2","M.jpg","N.jpg","1","1","1","",""
"","feedback","","html-keyboard-response","51","102949","0.0-1.0-69.0-0.0","0","0","22877","","null","","","null","7","","","","","","","","","","","","","","","",""
"","ITI","","html-keyboard-response","52","103951","0.0-1.0-72.0","0","0","22877","","null","","","null","7","","","","","","","","","","","","","","","NaN",""
"","S1","","html-keyboard-response","53","104204","0.0-1.0-74.0","0","0","22877","","null","","","null","8","","","","","","","","","","","","","","","",""
"","ISI","","html-keyboard-response","54","106207","0.0-1.0-75.0","0","0","22877","","null","","","null","8","NaN","","","","","","","","","","","","","","",""
"","S2","","html-keyboard-response","55","106460","0.0-1.0-76.0","0","0","22877","","null","","","null","8","","NaN","","","","","","","","","","","","","",""
"","response","","html-keyboard-response","56","106836","0.0-1.0-77.0","0","0","22877","","374","","","68","8","","","1","8","training","adjacent","GF","7","6","Q.jpg","L.jpg","0","0","1","",""
"","feedback","","html-keyboard-response","57","107838","0.0-1.0-78.0-0.0","0","0","22877","","null","","","null","8","","","","","","","","","","","","","","","",""
"","ITI","","html-keyboard-response","58","108841","0.0-1.0-81.0","0","0","22877","","null","","","null","8","","","","","","","","","","","","","","","NaN",""
"","S1","","html-keyboard-response","59","109094","0.0-1.0-83.0","0","0","22877","","null","","","null","9","","","","","","","","","","","","","","","",""
"","ISI","","html-keyboard-response","60","111097","0.0-1.0-84.0","0","0","22877","","null","","","null","9","NaN","","","","","","","","","","","","","","",""
"","S2","","html-keyboard-response","61","111349","0.0-1.0-85.0","0","0","22877","","null","","","null","9","","NaN","","","","","","","","","","","","","",""
"","response","","html-keyboard-response","62","111734","0.0-1.0-86.0","0","0","22877","","383","","","75","9","","","1","9","training","adjacent","BC","2","3","N.jpg","R.jpg","1","1","1","",""
"","feedback","","html-keyboard-response","63","112736","0.0-1.0-87.0-0.0","0","0","22877","","null","","","null","9","","","","","","","","","","","","","","","",""
"","ITI","","html-keyboard-response","64","113738","0.0-1.0-90.0","0","0","22877","","null","","","null","9","","","","","","","","","","","","","","","NaN",""
"","S1","","html-keyboard-response","65","113990","0.0-1.0-92.0","0","0","22877","","null","","","null","10","","","","","","","","","","","","","","","",""
"","ISI","","html-keyboard-response","66","115992","0.0-1.0-93.0","0","0","22877","","null","","","null","10","NaN","","","","","","","","","","","","","","",""
"","S2","","html-keyboard-response","67","116244","0.0-1.0-94.0","0","0","22877","","null","","","null","10","","NaN","","","","","","","","","","","","","",""
"","response","","html-keyboard-response","68","116759","0.0-1.0-95.0","0","0","22877","","514","","","68","10","","","1","10","training","adjacent","CD","3","4","R.jpg","O.jpg","0","1","0","",""
"","feedback","","html-keyboard-response","69","117761","0.0-1.0-96.0-0.0","0","0","22877","","null","","","null","10","","","","","","","","","","","","","","","",""
"","time_out","","html-keyboard-response","70","119764","0.0-1.0-98.0-0.0","0","0","22877","","null","","","null","10","","","","","","","","","","","","","","","",""
"","ITI","","html-keyboard-response","71","120766","0.0-1.0-99.0","0","0","22877","","null","","","null","10","","","","","","","","","","","","","","","NaN",""
"","S1","","html-keyboard-response","72","121018","0.0-1.0-101.0","0","0","22877","","null","","","null","11","","","","","","","","","","","","","","","",""
"","ISI","","html-keyboard-response","73","123021","0.0-1.0-102.0","0","0","22877","","null","","","null","11","NaN","","","","","","","","","","","","","","",""
"","S2","","html-keyboard-response","74","123274","0.0-1.0-103.0","0","0","22877","","null","","","null","11","","NaN","","","","","","","","","","","","","",""
"","response","","html-keyboard-response","75","123847","0.0-1.0-104.0","0","0","22877","","572","","","68","11","","","1","11","training","adjacent","EF","5","6","P.jpg","L.jpg","0","1","0","",""
"","feedback","","html-keyboard-response","76","124850","0.0-1.0-105.0-0.0","0","0","22877","","null","","","null","11","","","","","","","","","","","","","","","",""
"","time_out","","html-keyboard-response","77","126852","0.0-1.0-107.0-0.0","0","0","22877","","null","","","null","11","","","","","","","","","","","","","","","",""
"","ITI","","html-keyboard-response","78","127854","0.0-1.0-108.0","0","0","22877","","null","","","null","11","","","","","","","","","","","","","","","NaN",""
"","S1","","html-keyboard-response","79","128106","0.0-1.0-110.0","0","0","22877","","null","","","null","12","","","","","","","","","","","","","","","",""
"","ISI","","html-keyboard-response","80","130109","0.0-1.0-111.0","0","0","22877","","null","","","null","12","NaN","","","","","","","","","","","","","","",""
"","S2","","html-keyboard-response","81","130361","0.0-1.0-112.0","0","0","22877","","null","","","null","12","","NaN","","","","","","","","","","","","","",""
"","response","","html-keyboard-response","82","130851","0.0-1.0-113.0","0","0","22877","","489","","","75","12","","","1","12","training","adjacent","CB","3","2","R.jpg","N.jpg","1","0","0","",""
"","feedback","","html-keyboard-response","83","131854","0.0-1.0-114.0-0.0","0","0","22877","","null","","","null","12","","","","","","","","","","","","","","","",""
"","time_out","","html-keyboard-response","84","133856","0.0-1.0-116.0-0.0","0","0","22877","","null","","","null","12","","","","","","","","","","","","","","","",""
"","ITI","","html-keyboard-response","85","134858","0.0-1.0-117.0","0","0","22877","","null","","","null","12","","","","","","","","","","","","","","","NaN",""
"","S1","","html-keyboard-response","86","135118","0.0-1.0-119.0","0","0","22877","","null","","","null","13","","","","","","","","","","","","","","","",""
"","ISI","","html-keyboard-response","87","137121","0.0-1.0-120.0","0","0","22877","","null","","","null","13","NaN","","","","","","","","","","","","","","",""
"","S2","","html-keyboard-response","88","137373","0.0-1.0-121.0","0","0","22877","","null","","","null","13","","NaN","","","","","","","","","","","","","",""
"","response","","html-keyboard-response","89","137780","0.0-1.0-122.0","0","0","22877","","406","","","75","13","","","1","13","training","adjacent","DC","4","3","O.jpg","R.jpg","1","0","0","",""
"","feedback","","html-keyboard-response","90","138782","0.0-1.0-123.0-0.0","0","0","22877","","null","","","null","13","","","","","","","","","","","","","","","",""
"","time_out","","html-keyboard-response","91","140783","0.0-1.0-125.0-0.0","0","0","22877","","null","","","null","13","","","","","","","","","","","","","","","",""
"","ITI","","html-keyboard-response","92","141785","0.0-1.0-126.0","0","0","22877","","null","","","null","13","","","","","","","","","","","","","","","NaN",""
"","S1","","html-keyboard-response","93","142038","0.0-1.0-128.0","0","0","22877","","null","","","null","14","","","","","","","","","","","","","","","",""
"","ISI","","html-keyboard-response","94","144041","0.0-1.0-129.0","0","0","22877","","null","","","null","14","NaN","","","","","","","","","","","","","","",""
"","S2","","html-keyboard-response","95","144293","0.0-1.0-130.0","0","0","22877","","null","","","null","14","","NaN","","","","","","","","","","","","","",""
"","response","","html-keyboard-response","96","144893","0.0-1.0-131.0","0","0","22877","","599","","","75","14","","","1","14","training","adjacent","FE","6","5","L.jpg","P.jpg","1","0","0","",""
"","feedback","","html-keyboard-response","97","145896","0.0-1.0-132.0-0.0","0","0","22877","","null","","","null","14","","","","","","","","","","","","","","","",""
"","time_out","","html-keyboard-response","98","147900","0.0-1.0-134.0-0.0","0","0","22877","","null","","","null","14","","","","","","","","","","","","","","","",""
"","ITI","","html-keyboard-response","99","148903","0.0-1.0-135.0","0","0","22877","","null","","","null","14","","","","","","","","","","","","","","","NaN",""
"","S1","","html-keyboard-response","100","149155","0.0-1.0-137.0","0","0","22877","","null","","","null","15","","","","","","","","","","","","","","","",""
"","ISI","","html-keyboard-response","101","151157","0.0-1.0-138.0","0","0","22877","","null","","","null","15","NaN","","","","","","","","","","","","","","",""
"","S2","","html-keyboard-response","102","151410","0.0-1.0-139.0","0","0","22877","","null","","","null","15","","NaN","","","","","","","","","","","","","",""
"","response","","html-keyboard-response","103","151939","0.0-1.0-140.0","0","0","22877","","529","","","68","15","","","1","15","training","adjacent","DE","4","5","O.jpg","P.jpg","0","1","0","",""
"","feedback","","html-keyboard-response","104","152942","0.0-1.0-141.0-0.0","0","0","22877","","null","","","null","15","","","","","","","","","","","","","","","",""
"","time_out","","html-keyboard-response","105","154943","0.0-1.0-143.0-0.0","0","0","22877","","null","","","null","15","","","","","","","","","","","","","","","",""
"","ITI","","html-keyboard-response","106","155946","0.0-1.0-144.0","0","0","22877","","null","","","null","15","","","","","","","","","","","","","","","NaN",""
"","S1","","html-keyboard-response","107","156199","0.0-1.0-146.0","0","0","22877","","null","","","null","16","","","","","","","","","","","","","","","",""
"","ISI","","html-keyboard-response","108","158201","0.0-1.0-147.0","0","0","22877","","null","","","null","16","NaN","","","","","","","","","","","","","","",""
"","S2","","html-keyboard-response","109","158453","0.0-1.0-148.0","0","0","22877","","null","","","null","16","","NaN","","","","","","","","","","","","","",""
"","response","","html-keyboard-response","110","158994","0.0-1.0-149.0","0","0","22877","","539","","","68","16","","","1","16","training","adjacent","BA","2","1","N.jpg","M.jpg","0","0","1","",""
"","feedback","","html-keyboard-response","111","159996","0.0-1.0-150.0-0.0","0","0","22877","","null","","","null","16","","","","","","","","","","","","","","","",""
"","ITI","","html-keyboard-response","112","160998","0.0-1.0-153.0","0","0","22877","","null","","","null","16","","","","","","","","","","","","","","","NaN",""
"","S1","","html-keyboard-response","113","161251","0.0-1.0-155.0","0","0","22877","","null","","","null","17","","","","","","","","","","","","","","","",""
"","ISI","","html-keyboard-response","114","163252","0.0-1.0-156.0","0","0","22877","","null","","","null","17","NaN","","","","","","","","","","","","","","",""
"","S2","","html-keyboard-response","115","163504","0.0-1.0-157.0","0","0","22877","","null","","","null","17","","NaN","","","","","","","","","","","","","",""
"","response","","html-keyboard-response","116","163867","0.0-1.0-158.0","0","0","22877","","363","","","75","17","","","1","17","training","adjacent","FG","6","7","L.jpg","Q.jpg","1","1","1","",""
"","feedback","","html-keyboard-response","117","164869","0.0-1.0-159.0-0.0","0","0","22877","","null","","","null","17","","","","","","","","","","","","","","","",""
"","ITI","","html-keyboard-response","118","165871","0.0-1.0-162.0","0","0","22877","","null","","","null","17","","","","","","","","","","","","","","","NaN",""
"","S1","","html-keyboard-response","119","166123","0.0-1.0-164.0","0","0","22877","","null","","","null","18","","","","","","","","","","","","","","","",""
"","ISI","","html-keyboard-response","120","168125","0.0-1.0-165.0","0","0","22877","","null","","","null","18","NaN","","","","","","","","","","","","","","",""
"","S2","","html-keyboard-response","121","168377","0.0-1.0-166.0","0","0","22877","","null","","","null","18","","NaN","","","","","","","","","","","","","",""
"","response","","html-keyboard-response","122","168724","0.0-1.0-167.0","0","0","22877","","346","","","75","18","","","1","18","training","adjacent","FG","6","7","L.jpg","Q.jpg","1","1","1","",""
"","feedback","","html-keyboard-response","123","169725","0.0-1.0-168.0-0.0","0","0","22877","","null","","","null","18","","","","","","","","","","","","","","","",""
"","ITI","","html-keyboard-response","124","170728","0.0-1.0-171.0","0","0","22877","","null","","","null","18","","","","","","","","","","","","","","","NaN",""
"","S1","","html-keyboard-response","125","170981","0.0-1.0-173.0","0","0","22877","","null","","","null","19","","","","","","","","","","","","","","","",""
"","ISI","","html-keyboard-response","126","172984","0.0-1.0-174.0","0","0","22877","","null","","","null","19","NaN","","","","","","","","","","","","","","",""
"","S2","","html-keyboard-response","127","173236","0.0-1.0-175.0","0","0","22877","","null","","","null","19","","NaN","","","","","","","","","","","","","",""
"","response","","html-keyboard-response","128","173644","0.0-1.0-176.0","0","0","22877","","407","","","68","19","","","1","19","training","adjacent","EF","5","6","P.jpg","L.jpg","0","1","0","",""
"","feedback","","html-keyboard-response","129","174646","0.0-1.0-177.0-0.0","0","0","22877","","null","","","null","19","","","","","","","","","","","","","","","",""
"","time_out","","html-keyboard-response","130","176648","0.0-1.0-179.0-0.0","0","0","22877","","null","","","null","19","","","","","","","","","","","","","","","",""
"","ITI","","html-keyboard-response","131","177651","0.0-1.0-180.0","0","0","22877","","null","","","null","19","","","","","","","","","","","","","","","NaN",""
"","S1","","html-keyboard-response","132","177904","0.0-1.0-182.0","0","0","22877","","null","","","null","20","","","","","","","","","","","","","","","",""
"","ISI","","html-keyboard-response","133","179906","0.0-1.0-183.0","0","0","22877","","null","","","null","20","NaN","","","","","","","","","","","","","","",""
"","S2","","html-keyboard-response","134","180159","0.0-1.0-184.0","0","0","22877","","null","","","null","20","","NaN","","","","","","","","","","","","","",""
"","response","","html-keyboard-response","135","180692","0.0-1.0-185.0","0","0","22877","","533","","","68","20","","","1","20","training","adjacent","FG","6","7","L.jpg","Q.jpg","0","1","0","",""
"","feedback","","html-keyboard-response","136","181694","0.0-1.0-186.0-0.0","0","0","22877","","null","","","null","20","","","","","","","","","","","","","","","",""
"","time_out","","html-keyboard-response","137","183697","0.0-1.0-188.0-0.0","0","0","22877","","null","","","null","20","","","","","","","","","","","","","","","",""
"","ITI","","html-keyboard-response","138","184699","0.0-1.0-189.0","0","0","22877","","null","","","null","20","","","","","","","","","","","","","","","NaN",""
"","S1","","html-keyboard-response","139","184952","0.0-1.0-191.0","0","0","22877","","null","","","null","21","","","","","","","","","","","","","","","",""
"","ISI","","html-keyboard-response","140","186955","0.0-1.0-192.0","0","0","22877","","null","","","null","21","NaN","","","","","","","","","","","","","","",""
"","S2","","html-keyboard-response","141","187207","0.0-1.0-193.0","0","0","22877","","null","","","null","21","","NaN","","","","","","","","","","","","","",""
"","response","","html-keyboard-response","142","187616","0.0-1.0-194.0","0","0","22877","","408","","","75","21","","","1","21","training","adjacent","DC","4","3","O.jpg","R.jpg","1","0","0","",""
"","feedback","","html-keyboard-response","143","188618","0.0-1.0-195.0-0.0","0","0","22877","","null","","","null","21","","","","","","","","","","","","","","","",""
"","time_out","","html-keyboard-response","144","190620","0.0-1.0-197.0-0.0","0","0","22877","","null","","","null","21","","","","","","","","","","","","","","","",""
"","ITI","","html-keyboard-response","145","191622","0.0-1.0-198.0","0","0","22877","","null","","","null","21","","","","","","","","","","","","","","","NaN",""
"","S1","","html-keyboard-response","146","191874","0.0-1.0-200.0","0","0","22877","","null","","","null","22","","","","","","","","","","","","","","","",""
"","ISI","","html-keyboard-response","147","193876","0.0-1.0-201.0","0","0","22877","","null","","","null","22","NaN","","","","","","","","","","","","","","",""
"","S2","","html-keyboard-response","148","194129","0.0-1.0-202.0","0","0","22877","","null","","","null","22","","NaN","","","","","","","","","","","","","",""
"","response","","html-keyboard-response","149","194637","0.0-1.0-203.0","0","0","22877","","508","","","68","22","","","1","22","training","adjacent","BC","2","3","N.jpg","R.jpg","0","1","0","",""
"","feedback","","html-keyboard-response","150","195640","0.0-1.0-204.0-0.0","0","0","22877","","null","","","null","22","","","","","","","","","","","","","","","",""
"","time_out","","html-keyboard-response","151","197641","0.0-1.0-206.0-0.0","0","0","22877","","null","","","null","22","","","","","","","","","","","","","","","",""
"","ITI","","html-keyboard-response","152","198644","0.0-1.0-207.0","0","0","22877","","null","","","null","22","","","","","","","","","","","","","","","NaN",""
"","S1","","html-keyboard-response","153","198896","0.0-1.0-209.0","0","0","22877","","null","","","null","23","","","","","","","","","","","","","","","",""
"","ISI","","html-keyboard-response","154","200899","0.0-1.0-210.0","0","0","22877","","null","","","null","23","NaN","","","","","","","","","","","","","","",""
"","S2","","html-keyboard-response","155","201151","0.0-1.0-211.0","0","0","22877","","null","","","null","23","","NaN","","","","","","","","","","","","","",""
"","response","","html-keyboard-response","156","201600","0.0-1.0-212.0","0","0","22877","","448","","","68","23","","","1","23","training","adjacent","GF","7","6","Q.jpg","L.jpg","0","0","1","",""
"","feedback","","html-keyboard-response","157","202602","0.0-1.0-213.0-0.0","0","0","22877","","null","","","null","23","","","","","","","","","","","","","","","",""
"","ITI","","html-keyboard-response","158","203604","0.0-1.0-216.0","0","0","22877","","null","","","null","23","","","","","","","","","","","","","","","NaN",""
"","S1","","html-keyboard-response","159","203856","0.0-1.0-218.0","0","0","22877","","null","","","null","24","","","","","","","","","","","","","","","",""
"","ISI","","html-keyboard-response","160","205858","0.0-1.0-219.0","0","0","22877","","null","","","null","24","NaN","","","","","","","","","","","","","","",""
"","S2","","html-keyboard-response","161","206110","0.0-1.0-220.0","0","0","22877","","null","","","null","24","","NaN","","","","","","","","","","","","","",""
"","response","","html-keyboard-response","162","206498","0.0-1.0-221.0","0","0","22877","","386","","","68","24","","","1","24","training","adjacent","EF","5","6","P.jpg","L.jpg","0","1","0","",""
"","feedback","","html-keyboard-response","163","207501","0.0-1.0-222.0-0.0","0","0","22877","","null","","","null","24","","","","","","","","","","","","","","","",""
"","time_out","","html-keyboard-response","164","209502","0.0-1.0-224.0-0.0","0","0","22877","","null","","","null","24","","","","","","","","","","","","","","","",""
"","ITI","","html-keyboard-response","165","210505","0.0-1.0-225.0","0","0","22877","","null","","","null","24","","","","","","","","","","","","","","","NaN",""
"","S1","","html-keyboard-response","166","210758","0.0-1.0-227.0","0","0","22877","","null","","","null","25","","","","","","","","","","","","","","","",""
"","ISI","","html-keyboard-response","167","212760","0.0-1.0-228.0","0","0","22877","","null","","","null","25","NaN","","","","","","","","","","","","","","",""
"","S2","","html-keyboard-response","168","213012","0.0-1.0-229.0","0","0","22877","","null","","","null","25","","NaN","","","","","","","","","","","","","",""
"","response","","html-keyboard-response","169","213521","0.0-1.0-230.0","0","0","22877","","508","","","68","25","","","1","25","training","adjacent","DC","4","3","O.jpg","R.jpg","0","0","1","",""
"","feedback","","html-keyboard-response","170","214522","0.0-1.0-231.0-0.0","0","0","22877","","null","","","null","25","","","","","","","","","","","","","","","",""
"","ITI","","html-keyboard-response","171","215524","0.0-1.0-234.0","0","0","22877","","null","","","null","25","","","","","","","","","","","","","","","NaN",""
"","S1","","html-keyboard-response","172","215775","0.0-1.0-236.0","0","0","22877","","null","","","null","26","","","","","","","","","","","","","","","",""
"","ISI","","html-keyboard-response","173","217778","0.0-1.0-237.0","0","0","22877","","null","","","null","26","NaN","","","","","","","","","","","","","","",""
"","S2","","html-keyboard-response","174","218030","0.0-1.0-238.0","0","0","22877","","null","","","null","26","","NaN","","","","","","","","","","","","","",""
"","response","","html-keyboard-response","175","218378","0.0-1.0-239.0","0","0","22877","","347","","","75","26","","","1","26","training","adjacent","BC","2","3","N.jpg","R.jpg","1","1","1","",""
"","feedback","","html-keyboard-response","176","219381","0.0-1.0-240.0-0.0","0","0","22877","","null","","","null","26","","","","","","","","","","","","","","","",""
"","ITI","","html-keyboard-response","177","220382","0.0-1.0-243.0","0","0","22877","","null","","","null","26","","","","","","","","","","","","","","","NaN",""
"","S1","","html-keyboard-response","178","220635","0.0-1.0-245.0","0","0","22877","","null","","","null","27","","","","","","","","","","","","","","","",""
"","ISI","","html-keyboard-response","179","222637","0.0-1.0-246.0","0","0","22877","","null","","","null","27","NaN","","","","","","","","","","","","","","",""
"","S2","","html-keyboard-response","180","222890","0.0-1.0-247.0","0","0","22877","","null","","","null","27","","NaN","","","","","","","","","","","","","",""
"","response","","html-keyboard-response","181","223399","0.0-1.0-248.0","0","0","22877","","508","","","75","27","","","1","27","training","adjacent","FE","6","5","L.jpg","P.jpg","1","0","0","",""
"","feedback","","html-keyboard-response","182","224402","0.0-1.0-249.0-0.0","0","0","22877","","null","","","null","27","","","","","","","","","","","","","","","",""
"","time_out","","html-keyboard-response","183","226404","0.0-1.0-251.0-0.0","0","0","22877","","null","","","null","27","","","","","","","","","","","","","","","",""
"","ITI","","html-keyboard-response","184","227405","0.0-1.0-252.0","0","0","22877","","null","","","null","27","","","","","","","","","","","","","","","NaN",""
"","S1","","html-keyboard-response","185","227657","0.0-1.0-254.0","0","0","22877","","null","","","null","28","","","","","","","","","","","","","","","",""
"","ISI","","html-keyboard-response","186","229659","0.0-1.0-255.0","0","0","22877","","null","","","null","28","NaN","","","","","","","","","","","","","","",""
"","S2","","html-keyboard-response","187","229912","0.0-1.0-256.0","0","0","22877","","null","","","null","28","","NaN","","","","","","","","","","","","","",""
"","response","","html-keyboard-response","188","230266","0.0-1.0-257.0","0","0","22877","","354","","","68","28","","","1","28","training","adjacent","CD","3","4","R.jpg","O.jpg","0","1","0","",""
"","feedback","","html-keyboard-response","189","231269","0.0-1.0-258.0-0.0","0","0","22877","","null","","","null","28","","","","","","","","","","","","","","","",""
"","time_out","","html-keyboard-response","190","233272","0.0-1.0-260.0-0.0","0","0","22877","","null","","","null","28","","","","","","","","","","","","","","","",""
"","ITI","","html-keyboard-response","191","234274","0.0-1.0-261.0","0","0","22877","","null","","","null","28","","","","","","","","","","","","","","","NaN",""
"","S1","","html-keyboard-response","192","234526","0.0-1.0-263.0","0","0","22877","","null","","","null","29","","","","","","","","","","","","","","","",""
"","ISI","","html-keyboard-response","193","236529","0.0-1.0-264.0","0","0","22877","","null","","","null","29","NaN","","","","","","","","","","","","","","",""
"","S2","","html-keyboard-response","194","236782","0.0-1.0-265.0","0","0","22877","","null","","","null","29","","NaN","","","","","","","","","","","","","",""
"","response","","html-keyboard-response","195","237215","0.0-1.0-266.0","0","0","22877","","432","","","75","29","","","1","29","training","adjacent","FE","6","5","L.jpg","P.jpg","1","0","0","",""
"","feedback","","html-keyboard-response","196","238217","0.0-1.0-267.0-0.0","0","0","22877","","null","","","null","29","","","","","","","","","","","","","","","",""
"","time_out","","html-keyboard-response","197","240220","0.0-1.0-269.0-0.0","0","0","22877","","null","","","null","29","","","","","","","","","","","","","","","",""
"","ITI","","html-keyboard-response","198","241222","0.0-1.0-270.0","0","0","22877","","null","","","null","29","","","","","","","","","","","","","","","NaN",""
"","S1","","html-keyboard-response","199","241474","0.0-1.0-272.0","0","0","22877","","null","","","null","30","","","","","","","","","","","","","","","",""
"","ISI","","html-keyboard-response","200","243476","0.0-1.0-273.0","0","0","22877","","null","","","null","30","NaN","","","","","","","","","","","","","","",""
"","S2","","html-keyboard-response","201","243728","0.0-1.0-274.0","0","0","22877","","null","","","null","30","","NaN","","","","","","","","","","","","","",""
"","response","","html-keyboard-response","202","244321","0.0-1.0-275.0","0","0","22877","","592","","","68","30","","","1","30","training","adjacent","FG","6","7","L.jpg","Q.jpg","0","1","0","",""
"","feedback","","html-keyboard-response","203","245323","0.0-1.0-276.0-0.0","0","0","22877","","null","","","null","30","","","","","","","","","","","","","","","",""
"","time_out","","html-keyboard-response","204","247325","0.0-1.0-278.0-0.0","0","0","22877","","null","","","null","30","","","","","","","","","","","","","","","",""
"","ITI","","html-keyboard-response","205","248327","0.0-1.0-279.0","0","0","22877","","null","","","null","30","","","","","","","","","","","","","","","NaN",""
"","S1","","html-keyboard-response","206","248591","0.0-1.0-281.0","0","0","22877","","null","","","null","31","","","","","","","","","","","","","","","",""
"","ISI","","html-keyboard-response","207","250593","0.0-1.0-282.0","0","0","22877","","null","","","null","31","NaN","","","","","","","","","","","","","","",""
"","S2","","html-keyboard-response","208","250846","0.0-1.0-283.0","0","0","22877","","null","","","null","31","","NaN","","","","","","","","","","","","","",""
"","response","","html-keyboard-response","209","251219","0.0-1.0-284.0","0","0","22877","","372","","","68","31","","","1","31","training","adjacent","BA","2","1","N.jpg","M.jpg","0","0","1","",""
"","feedback","","html-keyboard-response","210","252221","0.0-1.0-285.0-0.0","0","0","22877","","null","","","null","31","","","","","","","","","","","","","","","",""
"","ITI","","html-keyboard-response","211","253224","0.0-1.0-288.0","0","0","22877","","null","","","null","31","","","","","","","","","","","","","","","NaN",""
"","S1","","html-keyboard-response","212","253475","0.0-1.0-290.0","0","0","22877","","null","","","null","32","","","","","","","","","","","","","","","",""
"","ISI","","html-keyboard-response","213","255478","0.0-1.0-291.0","0","0","22877","","null","","","null","32","NaN","","","","","","","","","","","","","","",""
"","S2","","html-keyboard-response","214","255730","0.0-1.0-292.0","0","0","22877","","null","","","null","32","","NaN","","","","","","","","","","","","","",""
"","response","","html-keyboard-response","215","256131","0.0-1.0-293.0","0","0","22877","","399","","","68","32","","","1","32","training","adjacent","CB","3","2","R.jpg","N.jpg","0","0","1","",""
"","feedback","","html-keyboard-response","216","257134","0.0-1.0-294.0-0.0","0","0","22877","","null","","","null","32","","","","","","","","","","","","","","","",""
"","ITI","","html-keyboard-response","217","258137","0.0-1.0-297.0","0","0","22877","","null","","","null","32","","","","","","","","","","","","","","","NaN",""
"","S1","","html-keyboard-response","218","258389","0.0-1.0-299.0","0","0","22877","","null","","","null","33","","","","","","","","","","","","","","","",""
"","ISI","","html-keyboard-response","219","260391","0.0-1.0-300.0","0","0","22877","","null","","","null","33","NaN","","","","","","","","","","","","","","",""
"","S2","","html-keyboard-response","220","260644","0.0-1.0-301.0","0","0","22877","","null","","","null","33","","NaN","","","","","","","","","","","","","",""
"","response","","html-keyboard-response","221","261138","0.0-1.0-302.0","0","0","22877","","493","","","68","33","","","1","33","training","adjacent","GF","7","6","Q.jpg","L.jpg","0","0","1","",""
"","feedback","","html-keyboard-response","222","262140","0.0-1.0-303.0-0.0","0","0","22877","","null","","","null","33","","","","","","","","","","","","","","","",""
"","ITI","","html-keyboard-response","223","263142","0.0-1.0-306.0","0","0","22877","","null","","","null","33","","","","","","","","","","","","","","","NaN",""
"","S1","","html-keyboard-response","224","263395","0.0-1.0-308.0","0","0","22877","","null","","","null","34","","","","","","","","","","","","","","","",""
"","ISI","","html-keyboard-response","225","265397","0.0-1.0-309.0","0","0","22877","","null","","","null","34","NaN","","","","","","","","","","","","","","",""
"","S2","","html-keyboard-response","226","265654","0.0-1.0-310.0","0","0","22877","","null","","","null","34","","NaN","","","","","","","","","","","","","",""
"","response","","html-keyboard-response","227","266138","0.0-1.0-311.0","0","0","22877","","484","","","68","34","","","1","34","training","adjacent","DC","4","3","O.jpg","R.jpg","0","0","1","",""
"","feedback","","html-keyboard-response","228","267140","0.0-1.0-312.0-0.0","0","0","22877","","null","","","null","34","","","","","","","","","","","","","","","",""
"","ITI","","html-keyboard-response","229","268144","0.0-1.0-315.0","0","0","22877","","null","","","null","34","","","","","","","","","","","","","","","NaN",""
"","S1","","html-keyboard-response","230","268395","0.0-1.0-317.0","0","0","22877","","null","","","null","35","","","","","","","","","","","","","","","",""
"","ISI","","html-keyboard-response","231","270397","0.0-1.0-318.0","0","0","22877","","null","","","null","35","NaN","","","","","","","","","","","","","","",""
"","S2","","html-keyboard-response","232","270657","0.0-1.0-319.0","0","0","22877","","null","","","null","35","","NaN","","","","","","","","","","","","","",""
"","response","","html-keyboard-response","233","271079","0.0-1.0-320.0","0","0","22877","","421","","","68","35","","","1","35","training","adjacent","BC","2","3","N.jpg","R.jpg","0","1","0","",""
"","feedback","","html-keyboard-response","234","272082","0.0-1.0-321.0-0.0","0","0","22877","","null","","","null","35","","","","","","","","","","","","","","","",""
"","time_out","","html-keyboard-response","235","274084","0.0-1.0-323.0-0.0","0","0","22877","","null","","","null","35","","","","","","","","","","","","","","","",""
"","ITI","","html-keyboard-response","236","275087","0.0-1.0-324.0","0","0","22877","","null","","","null","35","","","","","","","","","","","","","","","NaN",""
"","S1","","html-keyboard-response","237","275339","0.0-1.0-326.0","0","0","22877","","null","","","null","36","","","","","","","","","","","","","","","",""
"","ISI","","html-keyboard-response","238","277342","0.0-1.0-327.0","0","0","22877","","null","","","null","36","NaN","","","","","","","","","","","","","","",""
"","S2","","html-keyboard-response","239","277594","0.0-1.0-328.0","0","0","22877","","null","","","null","36","","NaN","","","","","","","","","","","","","",""
"","response","","html-keyboard-response","240","278145","0.0-1.0-329.0","0","0","22877","","550","","","75","36","","","1","36","training","adjacent","GF","7","6","Q.jpg","L.jpg","1","0","0","",""
"","feedback","","html-keyboard-response","241","279147","0.0-1.0-330.0-0.0","0","0","22877","","null","","","null","36","","","","","","","","","","","","","","","",""
"","time_out","","html-keyboard-response","242","281149","0.0-1.0-332.0-0.0","0","0","22877","","null","","","null","36","","","","","","","","","","","","","","","",""
"","ITI","","html-keyboard-response","243","282152","0.0-1.0-333.0","0","0","22877","","null","","","null","36","","","","","","","","","","","","","","","NaN",""
"","S1","","html-keyboard-response","244","282404","0.0-1.0-335.0","0","0","22877","","null","","","null","37","","","","","","","","","","","","","","","",""
"","ISI","","html-keyboard-response","245","284407","0.0-1.0-336.0","0","0","22877","","null","","","null","37","NaN","","","","","","","","","","","","","","",""
"","S2","","html-keyboard-response","246","284659","0.0-1.0-337.0","0","0","22877","","null","","","null","37","","NaN","","","","","","","","","","","","","",""
"","response","","html-keyboard-response","247","285250","0.0-1.0-338.0","0","0","22877","","590","","","68","37","","","1","37","training","adjacent","ED","5","4","P.jpg","O.jpg","0","0","1","",""
"","feedback","","html-keyboard-response","248","286252","0.0-1.0-339.0-0.0","0","0","22877","","null","","","null","37","","","","","","","","","","","","","","","",""
"","ITI","","html-keyboard-response","249","287254","0.0-1.0-342.0","0","0","22877","","null","","","null","37","","","","","","","","","","","","","","","NaN",""
"","S1","","html-keyboard-response","250","287506","0.0-1.0-344.0","0","0","22877","","null","","","null","38","","","","","","","","","","","","","","","",""
"","ISI","","html-keyboard-response","251","289509","0.0-1.0-345.0","0","0","22877","","null","","","null","38","NaN","","","","","","","","","","","","","","",""
"","S2","","html-keyboard-response","252","289761","0.0-1.0-346.0","0","0","22877","","null","","","null","38","","NaN","","","","","","","","","","","","","",""
"","response","","html-keyboard-response","253","290177","0.0-1.0-347.0","0","0","22877","","414","","","68","38","","","1","38","training","adjacent","AB","1","2","M.jpg","N.jpg","0","1","0","",""
"","feedback","","html-keyboard-response","254","291180","0.0-1.0-348.0-0.0","0","0","22877","","null","","","null","38","","","","","","","","","","","","","","","",""
"","time_out","","html-keyboard-response","255","293182","0.0-1.0-350.0-0.0","0","0","22877","","null","","","null","38","","","","","","","","","","","","","","","",""
"","ITI","","html-keyboard-response","256","294184","0.0-1.0-351.0","0","0","22877","","null","","","null","38","","","","","","","","","","","","","","","NaN",""
"","S1","","html-keyboard-response","257","294436","0.0-1.0-353.0","0","0","22877","","null","","","null","39","","","","","","","","","","","","","","","",""
"","ISI","","html-keyboard-response","258","296439","0.0-1.0-354.0","0","0","22877","","null","","","null","39","NaN","","","","","","","","","","","","","","",""
"","S2","","html-keyboard-response","259","296692","0.0-1.0-355.0","0","0","22877","","null","","","null","39","","NaN","","","","","","","","","","","","","",""
"","response","","html-keyboard-response","260","297099","0.0-1.0-356.0","0","0","22877","","406","","","75","39","","","1","39","training","adjacent","DE","4","5","O.jpg","P.jpg","1","1","1","",""
"","feedback","","html-keyboard-response","261","298102","0.0-1.0-357.0-0.0","0","0","22877","","null","","","null","39","","","","","","","","","","","","","","","",""
"","ITI","","html-keyboard-response","262","299105","0.0-1.0-360.0","0","0","22877","","null","","","null","39","","","","","","","","","","","","","","","NaN",""
"","S1","","html-keyboard-response","263","299356","0.0-1.0-362.0","0","0","22877","","null","","","null","40","","","","","","","","","","","","","","","",""
"","ISI","","html-keyboard-response","264","301360","0.0-1.0-363.0","0","0","22877","","null","","","null","40","NaN","","","","","","","","","","","","","","",""
"","S2","","html-keyboard-response","265","301612","0.0-1.0-364.0","0","0","22877","","null","","","null","40","","NaN","","","","","","","","","","","","","",""
"","response","","html-keyboard-response","266","302028","0.0-1.0-365.0","0","0","22877","","415","","","75","40","","","1","40","training","adjacent","FE","6","5","L.jpg","P.jpg","1","0","0","",""
"","feedback","","html-keyboard-response","267","303043","0.0-1.0-366.0-0.0","0","0","22877","","null","","","null","40","","","","","","","","","","","","","","","",""
"","time_out","","html-keyboard-response","268","305044","0.0-1.0-368.0-0.0","0","0","22877","","null","","","null","40","","","","","","","","","","","","","","","",""
"","ITI","","html-keyboard-response","269","306046","0.0-1.0-369.0","0","0","22877","","null","","","null","40","","","","","","","","","","","","","","","NaN",""
"","S1","","html-keyboard-response","270","306299","0.0-1.0-371.0","0","0","22877","","null","","","null","41","","","","","","","","","","","","","","","",""
"","ISI","","html-keyboard-response","271","308300","0.0-1.0-372.0","0","0","22877","","null","","","null","41","NaN","","","","","","","","","","","","","","",""
"","S2","","html-keyboard-response","272","308553","0.0-1.0-373.0","0","0","22877","","null","","","null","41","","NaN","","","","","","","","","","","","","",""
"","response","","html-keyboard-response","273","308994","0.0-1.0-374.0","0","0","22877","","440","","","75","41","","","1","41","training","adjacent","CD","3","4","R.jpg","O.jpg","1","1","1","",""
"","feedback","","html-keyboard-response","274","309996","0.0-1.0-375.0-0.0","0","0","22877","","null","","","null","41","","","","","","","","","","","","","","","",""
"","ITI","","html-keyboard-response","275","310999","0.0-1.0-378.0","0","0","22877","","null","","","null","41","","","","","","","","","","","","","","","NaN",""
"","S1","","html-keyboard-response","276","311252","0.0-1.0-380.0","0","0","22877","","null","","","null","42","","","","","","","","","","","","","","","",""
"","ISI","","html-keyboard-response","277","313253","0.0-1.0-381.0","0","0","22877","","null","","","null","42","NaN","","","","","","","","","","","","","","",""
"","S2","","html-keyboard-response","278","313505","0.0-1.0-382.0","0","0","22877","","null","","","null","42","","NaN","","","","","","","","","","","","","",""
"","response","","html-keyboard-response","279","313966","0.0-1.0-383.0","0","0","22877","","460","","","75","42","","","1","42","training","adjacent","DE","4","5","O.jpg","P.jpg","1","1","1","",""
"","feedback","","html-keyboard-response","280","314969","0.0-1.0-384.0-0.0","0","0","22877","","null","","","null","42","","","","","","","","","","","","","","","",""
"","ITI","","html-keyboard-response","281","315971","0.0-1.0-387.0","0","0","22877","","null","","","null","42","","","","","","","","","","","","","","","NaN",""
"","S1","","html-keyboard-response","282","316223","0.0-1.0-389.0","0","0","22877","","null","","","null","43","","","","","","","","","","","","","","","",""
"","ISI","","html-keyboard-response","283","318225","0.0-1.0-390.0","0","0","22877","","null","","","null","43","NaN","","","","","","","","","","","","","","",""
"","S2","","html-keyboard-response","284","318478","0.0-1.0-391.0","0","0","22877","","null","","","null","43","","NaN","","","","","","","","","","","","","",""
"","response","","html-keyboard-response","285","318819","0.0-1.0-392.0","0","0","22877","","340","","","75","43","","","1","43","training","adjacent","CB","3","2","R.jpg","N.jpg","1","0","0","",""
"","feedback","","html-keyboard-response","286","319822","0.0-1.0-393.0-0.0","0","0","22877","","null","","","null","43","","","","","","","","","","","","","","","",""
"","time_out","","html-keyboard-response","287","321824","0.0-1.0-395.0-0.0","0","0","22877","","null","","","null","43","","","","","","","","","","","","","","","",""
"","ITI","","html-keyboard-response","288","322826","0.0-1.0-396.0","0","0","22877","","null","","","null","43","","","","","","","","","","","","","","","NaN",""
"","S1","","html-keyboard-response","289","323078","0.0-1.0-398.0","0","0","22877","","null","","","null","44","","","","","","","","","","","","","","","",""
"","ISI","","html-keyboard-response","290","325081","0.0-1.0-399.0","0","0","22877","","null","","","null","44","NaN","","","","","","","","","","","","","","",""
"","S2","","html-keyboard-response","291","325333","0.0-1.0-400.0","0","0","22877","","null","","","null","44","","NaN","","","","","","","","","","","","","",""
"","response","","html-keyboard-response","292","325823","0.0-1.0-401.0","0","0","22877","","490","","","68","44","","","1","44","training","adjacent","EF","5","6","P.jpg","L.jpg","0","1","0","",""
"","feedback","","html-keyboard-response","293","326825","0.0-1.0-402.0-0.0","0","0","22877","","null","","","null","44","","","","","","","","","","","","","","","",""
"","time_out","","html-keyboard-response","294","328828","0.0-1.0-404.0-0.0","0","0","22877","","null","","","null","44","","","","","","","","","","","","","","","",""
"","ITI","","html-keyboard-response","295","329830","0.0-1.0-405.0","0","0","22877","","null","","","null","44","","","","","","","","","","","","","","","NaN",""
"","S1","","html-keyboard-response","296","330082","0.0-1.0-407.0","0","0","22877","","null","","","null","45","","","","","","","","","","","","","","","",""
"","ISI","","html-keyboard-response","297","332084","0.0-1.0-408.0","0","0","22877","","null","","","null","45","NaN","","","","","","","","","","","","","","",""
"","S2","","html-keyboard-response","298","332337","0.0-1.0-409.0","0","0","22877","","null","","","null","45","","NaN","","","","","","","","","","","","","",""
"","response","","html-keyboard-response","299","332750","0.0-1.0-410.0","0","0","22877","","411","","","68","45","","","1","45","training","adjacent","BA","2","1","N.jpg","M.jpg","0","0","1","",""
"","feedback","","html-keyboard-response","300","333751","0.0-1.0-411.0-0.0","0","0","22877","","null","","","null","45","","","","","","","","","","","","","","","",""
"","ITI","","html-keyboard-response","301","334754","0.0-1.0-414.0","0","0","22877","","null","","","null","45","","","","","","","","","","","","","","","NaN",""
"","S1","","html-keyboard-response","302","335006","0.0-1.0-416.0","0","0","22877","","null","","","null","46","","","","","","","","","","","","","","","",""
"","ISI","","html-keyboard-response","303","337009","0.0-1.0-417.0","0","0","22877","","null","","","null","46","NaN","","","","","","","","","","","","","","",""
"","S2","","html-keyboard-response","304","337262","0.0-1.0-418.0","0","0","22877","","null","","","null","46","","NaN","","","","","","","","","","","","","",""
"","response","","html-keyboard-response","305","337797","0.0-1.0-419.0","0","0","22877","","535","","","68","46","","","1","46","training","adjacent","BA","2","1","N.jpg","M.jpg","0","0","1","",""
"","feedback","","html-keyboard-response","306","338799","0.0-1.0-420.0-0.0","0","0","22877","","null","","","null","46","","","","","","","","","","","","","","","",""
"","ITI","","html-keyboard-response","307","339802","0.0-1.0-423.0","0","0","22877","","null","","","null","46","","","","","","","","","","","","","","","NaN",""
"","S1","","html-keyboard-response","308","340054","0.0-1.0-425.0","0","0","22877","","null","","","null","47","","","","","","","","","","","","","","","",""
"","ISI","","html-keyboard-response","309","342056","0.0-1.0-426.0","0","0","22877","","null","","","null","47","NaN","","","","","","","","","","","","","","",""
"","S2","","html-keyboard-response","310","342310","0.0-1.0-427.0","0","0","22877","","null","","","null","47","","NaN","","","","","","","","","","","","","",""
"","response","","html-keyboard-response","311","342685","0.0-1.0-428.0","0","0","22877","","374","","","75","47","","","1","47","training","adjacent","CB","3","2","R.jpg","N.jpg","1","0","0","",""
"","feedback","","html-keyboard-response","312","343686","0.0-1.0-429.0-0.0","0","0","22877","","null","","","null","47","","","","","","","","","","","","","","","",""
"","time_out","","html-keyboard-response","313","345688","0.0-1.0-431.0-0.0","0","0","22877","","null","","","null","47","","","","","","","","","","","","","","","",""
"","ITI","","html-keyboard-response","314","346690","0.0-1.0-432.0","0","0","22877","","null","","","null","47","","","","","","","","","","","","","","","NaN",""
"","block_over","","html-keyboard-response","315","351029","0.0-1.0-433.0-0.0","0","0","22877","","4337","","","32","47","","","","","","","","","","","","","","","",""
"","S1","","html-keyboard-response","316","351280","0.0-1.0-434.0","0","0","22877","","null","","","null","48","","","","","","","","","","","","","","","",""
"","ISI","","html-keyboard-response","317","353283","0.0-1.0-435.0","0","0","22877","","null","","","null","48","NaN","","","","","","","","","","","","","","",""
"","S2","","html-keyboard-response","318","353534","0.0-1.0-436.0","0","0","22877","","null","","","null","48","","NaN","","","","","","","","","","","","","",""
"","response","","html-keyboard-response","319","353891","0.0-1.0-437.0","0","0","22877","","356","","","75","48","","","2","48","training","adjacent","DE","4","5","O.jpg","P.jpg","1","1","1","",""
"","feedback","","html-keyboard-response","320","354894","0.0-1.0-438.0-0.0","0","0","22877","","null","","","null","48","","","","","","","","","","","","","","","",""
"","ITI","","html-keyboard-response","321","355896","0.0-1.0-441.0","0","0","22877","","null","","","null","48","","","","","","","","","","","","","","","NaN",""
"","S1","","html-keyboard-response","322","356148","0.0-1.0-443.0","0","0","22877","","null","","","null","49","","","","","","","","","","","","","","","",""
"","ISI","","html-keyboard-response","323","358150","0.0-1.0-444.0","0","0","22877","","null","","","null","49","NaN","","","","","","","","","","","","","","",""
"","S2","","html-keyboard-response","324","358403","0.0-1.0-445.0","0","0","22877","","null","","","null","49","","NaN","","","","","","","","","","","","","",""
"","response","","html-keyboard-response","325","358939","0.0-1.0-446.0","0","0","22877","","535","","","68","49","","","2","49","training","adjacent","DC","4","3","O.jpg","R.jpg","0","0","1","",""
"","feedback","","html-keyboard-response","326","359941","0.0-1.0-447.0-0.0","0","0","22877","","null","","","null","49","","","","","","","","","","","","","","","",""
"","ITI","","html-keyboard-response","327","360943","0.0-1.0-450.0","0","0","22877","","null","","","null","49","","","","","","","","","","","","","","","NaN",""
"","S1","","html-keyboard-response","328","361195","0.0-1.0-452.0","0","0","22877","","null","","","null","50","","","","","","","","","","","","","","","",""
"","ISI","","html-keyboard-response","329","363198","0.0-1.0-453.0","0","0","22877","","null","","","null","50","NaN","","","","","","","","","","","","","","",""
"","S2","","html-keyboard-response","330","363449","0.0-1.0-454.0","0","0","22877","","null","","","null","50","","NaN","","","","","","","","","","","","","",""
"","response","","html-keyboard-response","331","363791","0.0-1.0-455.0","0","0","22877","","340","","","68","50","","","2","50","training","adjacent","DC","4","3","O.jpg","R.jpg","0","0","1","",""
"","feedback","","html-keyboard-response","332","364793","0.0-1.0-456.0-0.0","0","0","22877","","null","","","null","50","","","","","","","","","","","","","","","",""
"","ITI","","html-keyboard-response","333","365795","0.0-1.0-459.0","0","0","22877","","null","","","null","50","","","","","","","","","","","","","","","NaN",""
"","S1","","html-keyboard-response","334","366048","0.0-1.0-461.0","0","0","22877","","null","","","null","51","","","","","","","","","","","","","","","",""
"","ISI","","html-keyboard-response","335","368050","0.0-1.0-462.0","0","0","22877","","null","","","null","51","NaN","","","","","","","","","","","","","","",""
"","S2","","html-keyboard-response","336","368302","0.0-1.0-463.0","0","0","22877","","null","","","null","51","","NaN","","","","","","","","","","","","","",""
"","response","","html-keyboard-response","337","368654","0.0-1.0-464.0","0","0","22877","","352","","","75","51","","","2","51","training","adjacent","FG","6","7","L.jpg","Q.jpg","1","1","1","",""
"","feedback","","html-keyboard-response","338","369657","0.0-1.0-465.0-0.0","0","0","22877","","null","","","null","51","","","","","","","","","","","","","","","",""
"","ITI","","html-keyboard-response","339","370660","0.0-1.0-468.0","0","0","22877","","null","","","null","51","","","","","","","","","","","","","","","NaN",""
"","S1","","html-keyboard-response","340","370913","0.0-1.0-470.0","0","0","22877","","null","","","null","52","","","","","","","","","","","","","","","",""
"","ISI","","html-keyboard-response","341","372915","0.0-1.0-471.0","0","0","22877","","null","","","null","52","NaN","","","","","","","","","","","","","","",""
"","S2","","html-keyboard-response","342","373168","0.0-1.0-472.0","0","0","22877","","null","","","null","52","","NaN","","","","","","","","","","","","","",""
"","response","","html-keyboard-response","343","373457","0.0-1.0-473.0","0","0","22877","","288","","","68","52","","","2","52","training","adjacent","ED","5","4","P.jpg","O.jpg","0","0","1","",""
"","feedback","","html-keyboard-response","344","374458","0.0-1.0-474.0-0.0","0","0","22877","","null","","","null","52","","","","","","","","","","","","","","","",""
"","ITI","","html-keyboard-response","345","375460","0.0-1.0-477.0","0","0","22877","","null","","","null","52","","","","","","","","","","","","","","","NaN",""
"","S1","","html-keyboard-response","346","375712","0.0-1.0-479.0","0","0","22877","","null","","","null","53","","","","","","","","","","","","","","","",""
"","ISI","","html-keyboard-response","347","377721","0.0-1.0-480.0","0","0","22877","","null","","","null","53","NaN","","","","","","","","","","","","","","",""
"","S2","","html-keyboard-response","348","377973","0.0-1.0-481.0","0","0","22877","","null","","","null","53","","NaN","","","","","","","","","","","","","",""
"","response","","html-keyboard-response","349","378274","0.0-1.0-482.0","0","0","22877","","300","","","75","53","","","2","53","training","adjacent","FE","6","5","L.jpg","P.jpg","1","0","0","",""
"","feedback","","html-keyboard-response","350","379276","0.0-1.0-483.0-0.0","0","0","22877","","null","","","null","53","","","","","","","","","","","","","","","",""
"","time_out","","html-keyboard-response","351","381279","0.0-1.0-485.0-0.0","0","0","22877","","null","","","null","53","","","","","","","","","","","","","","","",""
"","ITI","","html-keyboard-response","352","382281","0.0-1.0-486.0","0","0","22877","","null","","","null","53","","","","","","","","","","","","","","","NaN",""
"","S1","","html-keyboard-response","353","382534","0.0-1.0-488.0","0","0","22877","","null","","","null","54","","","","","","","","","","","","","","","",""
"","ISI","","html-keyboard-response","354","384536","0.0-1.0-489.0","0","0","22877","","null","","","null","54","NaN","","","","","","","","","","","","","","",""
"","S2","","html-keyboard-response","355","384788","0.0-1.0-490.0","0","0","22877","","null","","","null","54","","NaN","","","","","","","","","","","","","",""
"","response","","html-keyboard-response","356","385090","0.0-1.0-491.0","0","0","22877","","302","","","68","54","","","2","54","training","adjacent","BC","2","3","N.jpg","R.jpg","0","1","0","",""
"","feedback","","html-keyboard-response","357","386092","0.0-1.0-492.0-0.0","0","0","22877","","null","","","null","54","","","","","","","","","","","","","","","",""
"","time_out","","html-keyboard-response","358","388095","0.0-1.0-494.0-0.0","0","0","22877","","null","","","null","54","","","","","","","","","","","","","","","",""
"","ITI","","html-keyboard-response","359","389097","0.0-1.0-495.0","0","0","22877","","null","","","null","54","","","","","","","","","","","","","","","NaN",""
"","S1","","html-keyboard-response","360","389349","0.0-1.0-497.0","0","0","22877","","null","","","null","55","","","","","","","","","","","","","","","",""
"","ISI","","html-keyboard-response","361","391351","0.0-1.0-498.0","0","0","22877","","null","","","null","55","NaN","","","","","","","","","","","","","","",""
"","S2","","html-keyboard-response","362","391604","0.0-1.0-499.0","0","0","22877","","null","","","null","55","","NaN","","","","","","","","","","","","","",""
"","response","","html-keyboard-response","363","391872","0.0-1.0-500.0","0","0","22877","","268","","","75","55","","","2","55","training","adjacent","BC","2","3","N.jpg","R.jpg","1","1","1","",""
"","feedback","","html-keyboard-response","364","392874","0.0-1.0-501.0-0.0","0","0","22877","","null","","","null","55","","","","","","","","","","","","","","","",""
"","ITI","","html-keyboard-response","365","393875","0.0-1.0-504.0","0","0","22877","","null","","","null","55","","","","","","","","","","","","","","","NaN",""
"","S1","","html-keyboard-response","366","394127","0.0-1.0-506.0","0","0","22877","","null","","","null","56","","","","","","","","","","","","","","","",""
"","ISI","","html-keyboard-response","367","396129","0.0-1.0-507.0","0","0","22877","","null","","","null","56","NaN","","","","","","","","","","","","","","",""
"","S2","","html-keyboard-response","368","396381","0.0-1.0-508.0","0","0","22877","","null","","","null","56","","NaN","","","","","","","","","","","","","",""
"","response","","html-keyboard-response","369","396742","0.0-1.0-509.0","0","0","22877","","360","","","68","56","","","2","56","training","adjacent","GF","7","6","Q.jpg","L.jpg","0","0","1","",""
"","feedback","","html-keyboard-response","370","397744","0.0-1.0-510.0-0.0","0","0","22877","","null","","","null","56","","","","","","","","","","","","","","","",""
"","ITI","","html-keyboard-response","371","398746","0.0-1.0-513.0","0","0","22877","","null","","","null","56","","","","","","","","","","","","","","","NaN",""
"","S1","","html-keyboard-response","372","398999","0.0-1.0-515.0","0","0","22877","","null","","","null","57","","","","","","","","","","","","","","","",""
"","ISI","","html-keyboard-response","373","401001","0.0-1.0-516.0","0","0","22877","","null","","","null","57","NaN","","","","","","","","","","","","","","",""
"","S2","","html-keyboard-response","374","401253","0.0-1.0-517.0","0","0","22877","","null","","","null","57","","NaN","","","","","","","","","","","","","",""
"","response","","html-keyboard-response","375","401460","0.0-1.0-518.0","0","0","22877","","207","","","68","57","","","2","57","training","adjacent","ED","5","4","P.jpg","O.jpg","0","0","1","",""
"","feedback","","html-keyboard-response","376","402462","0.0-1.0-519.0-0.0","0","0","22877","","null","","","null","57","","","","","","","","","","","","","","","",""
"","ITI","","html-keyboard-response","377","403464","0.0-1.0-522.0","0","0","22877","","null","","","null","57","","","","","","","","","","","","","","","NaN",""
"","S1","","html-keyboard-response","378","403716","0.0-1.0-524.0","0","0","22877","","null","","","null","58","","","","","","","","","","","","","","","",""
"","ISI","","html-keyboard-response","379","405727","0.0-1.0-525.0","0","0","22877","","null","","","null","58","NaN","","","","","","","","","","","","","","",""
"","S2","","html-keyboard-response","380","405979","0.0-1.0-526.0","0","0","22877","","null","","","null","58","","NaN","","","","","","","","","","","","","",""
"","response","","html-keyboard-response","381","406291","0.0-1.0-527.0","0","0","22877","","310","","","75","58","","","2","58","training","adjacent","AB","1","2","M.jpg","N.jpg","1","1","1","",""
"","feedback","","html-keyboard-response","382","407294","0.0-1.0-528.0-0.0","0","0","22877","","null","","","null","58","","","","","","","","","","","","","","","",""
"","ITI","","html-keyboard-response","383","408296","0.0-1.0-531.0","0","0","22877","","null","","","null","58","","","","","","","","","","","","","","","NaN",""
"","S1","","html-keyboard-response","384","408549","0.0-1.0-533.0","0","0","22877","","null","","","null","59","","","","","","","","","","","","","","","",""
"","ISI","","html-keyboard-response","385","410551","0.0-1.0-534.0","0","0","22877","","null","","","null","59","NaN","","","","","","","","","","","","","","",""
"","S2","","html-keyboard-response","386","410803","0.0-1.0-535.0","0","0","22877","","null","","","null","59","","NaN","","","","","","","","","","","","","",""
"","response","","html-keyboard-response","387","411096","0.0-1.0-536.0","0","0","22877","","291","","","75","59","","","2","59","training","adjacent","DE","4","5","O.jpg","P.jpg","1","1","1","",""
"","feedback","","html-keyboard-response","388","412098","0.0-1.0-537.0-0.0","0","0","22877","","null","","","null","59","","","","","","","","","","","","","","","",""
"","ITI","","html-keyboard-response","389","413100","0.0-1.0-540.0","0","0","22877","","null","","","null","59","","","","","","","","","","","","","","","NaN",""
"","S1","","html-keyboard-response","390","413352","0.0-1.0-542.0","0","0","22877","","null","","","null","60","","","","","","","","","","","","","","","",""
"","ISI","","html-keyboard-response","391","415354","0.0-1.0-543.0","0","0","22877","","null","","","null","60","NaN","","","","","","","","","","","","","","",""
"","S2","","html-keyboard-response","392","415607","0.0-1.0-544.0","0","0","22877","","null","","","null","60","","NaN","","","","","","","","","","","","","",""
"","response","","html-keyboard-response","393","415881","0.0-1.0-545.0","0","0","22877","","273","","","68","60","","","2","60","training","adjacent","EF","5","6","P.jpg","L.jpg","0","1","0","",""
"","feedback","","html-keyboard-response","394","416885","0.0-1.0-546.0-0.0","0","0","22877","","null","","","null","60","","","","","","","","","","","","","","","",""
"","time_out","","html-keyboard-response","395","418886","0.0-1.0-548.0-0.0","0","0","22877","","null","","","null","60","","","","","","","","","","","","","","","",""
"","ITI","","html-keyboard-response","396","419888","0.0-1.0-549.0","0","0","22877","","null","","","null","60","","","","","","","","","","","","","","","NaN",""
"","S1","","html-keyboard-response","397","420142","0.0-1.0-551.0","0","0","22877","","null","","","null","61","","","","","","","","","","","","","","","",""
"","ISI","","html-keyboard-response","398","422144","0.0-1.0-552.0","0","0","22877","","null","","","null","61","NaN","","","","","","","","","","","","","","",""
"","S2","","html-keyboard-response","399","422395","0.0-1.0-553.0","0","0","22877","","null","","","null","61","","NaN","","","","","","","","","","","","","",""
"","response","","html-keyboard-response","400","422690","0.0-1.0-554.0","0","0","22877","","293","","","75","61","","","2","61","training","adjacent","CB","3","2","R.jpg","N.jpg","1","0","0","",""
"","feedback","","html-keyboard-response","401","423691","0.0-1.0-555.0-0.0","0","0","22877","","null","","","null","61","","","","","","","","","","","","","","","",""
"","time_out","","html-keyboard-response","402","425693","0.0-1.0-557.0-0.0","0","0","22877","","null","","","null","61","","","","","","","","","","","","","","","",""
"","ITI","","html-keyboard-response","403","426695","0.0-1.0-558.0","0","0","22877","","null","","","null","61","","","","","","","","","","","","","","","NaN",""
"","S1","","html-keyboard-response","404","426947","0.0-1.0-560.0","0","0","22877","","null","","","null","62","","","","","","","","","","","","","","","",""
"","ISI","","html-keyboard-response","405","428950","0.0-1.0-561.0","0","0","22877","","null","","","null","62","NaN","","","","","","","","","","","","","","",""
"","S2","","html-keyboard-response","406","429203","0.0-1.0-562.0","0","0","22877","","null","","","null","62","","NaN","","","","","","","","","","","","","",""
"","response","","html-keyboard-response","407","429725","0.0-1.0-563.0","0","0","22877","","521","","","68","62","","","2","62","training","adjacent","ED","5","4","P.jpg","O.jpg","0","0","1","",""
"","feedback","","html-keyboard-response","408","430727","0.0-1.0-564.0-0.0","0","0","22877","","null","","","null","62","","","","","","","","","","","","","","","",""
"","ITI","","html-keyboard-response","409","431729","0.0-1.0-567.0","0","0","22877","","null","","","null","62","","","","","","","","","","","","","","","NaN",""
"","S1","","html-keyboard-response","410","431981","0.0-1.0-569.0","0","0","22877","","null","","","null","63","","","","","","","","","","","","","","","",""
"","ISI","","html-keyboard-response","411","433983","0.0-1.0-570.0","0","0","22877","","null","","","null","63","NaN","","","","","","","","","","","","","","",""
"","S2","","html-keyboard-response","412","434236","0.0-1.0-571.0","0","0","22877","","null","","","null","63","","NaN","","","","","","","","","","","","","",""
"","response","","html-keyboard-response","413","434941","0.0-1.0-572.0","0","0","22877","","704","","","75","63","","","2","63","training","adjacent","CD","3","4","R.jpg","O.jpg","1","1","1","",""
"","feedback","","html-keyboard-response","414","435943","0.0-1.0-573.0-0.0","0","0","22877","","null","","","null","63","","","","","","","","","","","","","","","",""
"","ITI","","html-keyboard-response","415","436945","0.0-1.0-576.0","0","0","22877","","null","","","null","63","","","","","","","","","","","","","","","NaN",""
"","S1","","html-keyboard-response","416","437198","0.0-1.0-578.0","0","0","22877","","null","","","null","64","","","","","","","","","","","","","","","",""
"","ISI","","html-keyboard-response","417","439200","0.0-1.0-579.0","0","0","22877","","null","","","null","64","NaN","","","","","","","","","","","","","","",""
"","S2","","html-keyboard-response","418","439453","0.0-1.0-580.0","0","0","22877","","null","","","null","64","","NaN","","","","","","","","","","","","","",""
"","response","","html-keyboard-response","419","440219","0.0-1.0-581.0","0","0","22877","","765","","","68","64","","","2","64","training","adjacent","GF","7","6","Q.jpg","L.jpg","0","0","1","",""
"","feedback","","html-keyboard-response","420","441221","0.0-1.0-582.0-0.0","0","0","22877","","null","","","null","64","","","","","","","","","","","","","","","",""
"","ITI","","html-keyboard-response","421","442222","0.0-1.0-585.0","0","0","22877","","null","","","null","64","","","","","","","","","","","","","","","NaN",""
"","S1","","html-keyboard-response","422","442474","0.0-1.0-587.0","0","0","22877","","null","","","null","65","","","","","","","","","","","","","","","",""
"","ISI","","html-keyboard-response","423","444477","0.0-1.0-588.0","0","0","22877","","null","","","null","65","NaN","","","","","","","","","","","","","","",""
"","S2","","html-keyboard-response","424","444729","0.0-1.0-589.0","0","0","22877","","null","","","null","65","","NaN","","","","","","","","","","","","","",""
"","response","","html-keyboard-response","425","445235","0.0-1.0-590.0","0","0","22877","","505","","","75","65","","","2","65","training","adjacent","CD","3","4","R.jpg","O.jpg","1","1","1","",""
"","feedback","","html-keyboard-response","426","446238","0.0-1.0-591.0-0.0","0","0","22877","","null","","","null","65","","","","","","","","","","","","","","","",""
"","ITI","","html-keyboard-response","427","447240","0.0-1.0-594.0","0","0","22877","","null","","","null","65","","","","","","","","","","","","","","","NaN",""
"","S1","","html-keyboard-response","428","447493","0.0-1.0-596.0","0","0","22877","","null","","","null","66","","","","","","","","","","","","","","","",""
"","ISI","","html-keyboard-response","429","449497","0.0-1.0-597.0","0","0","22877","","null","","","null","66","NaN","","","","","","","","","","","","","","",""
"","S2","","html-keyboard-response","430","449749","0.0-1.0-598.0","0","0","22877","","null","","","null","66","","NaN","","","","","","","","","","","","","",""
"","response","","html-keyboard-response","431","450168","0.0-1.0-599.0","0","0","22877","","418","","","68","66","","","2","66","training","adjacent","BC","2","3","N.jpg","R.jpg","0","1","0","",""
"","feedback","","html-keyboard-response","432","451170","0.0-1.0-600.0-0.0","0","0","22877","","null","","","null","66","","","","","","","","","","","","","","","",""
"","time_out","","html-keyboard-response","433","453172","0.0-1.0-602.0-0.0","0","0","22877","","null","","","null","66","","","","","","","","","","","","","","","",""
"","ITI","","html-keyboard-response","434","454174","0.0-1.0-603.0","0","0","22877","","null","","","null","66","","","","","","","","","","","","","","","NaN",""
"","S1","","html-keyboard-response","435","454426","0.0-1.0-605.0","0","0","22877","","null","","","null","67","","","","","","","","","","","","","","","",""
"","ISI","","html-keyboard-response","436","456429","0.0-1.0-606.0","0","0","22877","","null","","","null","67","NaN","","","","","","","","","","","","","","",""
"","S2","","html-keyboard-response","437","456682","0.0-1.0-607.0","0","0","22877","","null","","","null","67","","NaN","","","","","","","","","","","","","",""
"","response","","html-keyboard-response","438","457079","0.0-1.0-608.0","0","0","22877","","396","","","68","67","","","2","67","training","adjacent","DC","4","3","O.jpg","R.jpg","0","0","1","",""
"","feedback","","html-keyboard-response","439","458082","0.0-1.0-609.0-0.0","0","0","22877","","null","","","null","67","","","","","","","","","","","","","","","",""
"","ITI","","html-keyboard-response","440","459084","0.0-1.0-612.0","0","0","22877","","null","","","null","67","","","","","","","","","","","","","","","NaN",""
"","S1","","html-keyboard-response","441","459337","0.0-1.0-614.0","0","0","22877","","null","","","null","68","","","","","","","","","","","","","","","",""
"","ISI","","html-keyboard-response","442","461339","0.0-1.0-615.0","0","0","22877","","null","","","null","68","NaN","","","","","","","","","","","","","","",""
"","S2","","html-keyboard-response","443","461591","0.0-1.0-616.0","0","0","22877","","null","","","null","68","","NaN","","","","","","","","","","","","","",""
"","response","","html-keyboard-response","444","462017","0.0-1.0-617.0","0","0","22877","","426","","","68","68","","","2","68","training","adjacent","EF","5","6","P.jpg","L.jpg","0","1","0","",""
"","feedback","","html-keyboard-response","445","463020","0.0-1.0-618.0-0.0","0","0","22877","","null","","","null","68","","","","","","","","","","","","","","","",""
"","time_out","","html-keyboard-response","446","465021","0.0-1.0-620.0-0.0","0","0","22877","","null","","","null","68","","","","","","","","","","","","","","","",""
"","ITI","","html-keyboard-response","447","466023","0.0-1.0-621.0","0","0","22877","","null","","","null","68","","","","","","","","","","","","","","","NaN",""
"","S1","","html-keyboard-response","448","466275","0.0-1.0-623.0","0","0","22877","","null","","","null","69","","","","","","","","","","","","","","","",""
"","ISI","","html-keyboard-response","449","468278","0.0-1.0-624.0","0","0","22877","","null","","","null","69","NaN","","","","","","","","","","","","","","",""
"","S2","","html-keyboard-response","450","468530","0.0-1.0-625.0","0","0","22877","","null","","","null","69","","NaN","","","","","","","","","","","","","",""
"","response","","html-keyboard-response","451","468772","0.0-1.0-626.0","0","0","22877","","240","","","75","69","","","2","69","training","adjacent","DE","4","5","O.jpg","P.jpg","1","1","1","",""
"","feedback","","html-keyboard-response","452","469773","0.0-1.0-627.0-0.0","0","0","22877","","null","","","null","69","","","","","","","","","","","","","","","",""
"","ITI","","html-keyboard-response","453","470775","0.0-1.0-630.0","0","0","22877","","null","","","null","69","","","","","","","","","","","","","","","NaN",""
"","S1","","html-keyboard-response","454","471028","0.0-1.0-632.0","0","0","22877","","null","","","null","70","","","","","","","","","","","","","","","",""
"","ISI","","html-keyboard-response","455","473032","0.0-1.0-633.0","0","0","22877","","null","","","null","70","NaN","","","","","","","","","","","","","","",""
"","S2","","html-keyboard-response","456","473284","0.0-1.0-634.0","0","0","22877","","null","","","null","70","","NaN","","","","","","","","","","","","","",""
"","response","","html-keyboard-response","457","473658","0.0-1.0-635.0","0","0","22877","","372","","","75","70","","","2","70","training","adjacent","FE","6","5","L.jpg","P.jpg","1","0","0","",""
"","feedback","","html-keyboard-response","458","474659","0.0-1.0-636.0-0.0","0","0","22877","","null","","","null","70","","","","","","","","","","","","","","","",""
"","time_out","","html-keyboard-response","459","476660","0.0-1.0-638.0-0.0","0","0","22877","","null","","","null","70","","","","","","","","","","","","","","","",""
"","ITI","","html-keyboard-response","460","477663","0.0-1.0-639.0","0","0","22877","","null","","","null","70","","","","","","","","","","","","","","","NaN",""
"","S1","","html-keyboard-response","461","477916","0.0-1.0-641.0","0","0","22877","","null","","","null","71","","","","","","","","","","","","","","","",""
"","ISI","","html-keyboard-response","462","479918","0.0-1.0-642.0","0","0","22877","","null","","","null","71","NaN","","","","","","","","","","","","","","",""
"","S2","","html-keyboard-response","463","480170","0.0-1.0-643.0","0","0","22877","","null","","","null","71","","NaN","","","","","","","","","","","","","",""
"","response","","html-keyboard-response","464","480597","0.0-1.0-644.0","0","0","22877","","426","","","68","71","","","2","71","training","adjacent","FG","6","7","L.jpg","Q.jpg","0","1","0","",""
"","feedback","","html-keyboard-response","465","481604","0.0-1.0-645.0-0.0","0","0","22877","","null","","","null","71","","","","","","","","","","","","","","","",""
"","time_out","","html-keyboard-response","466","483605","0.0-1.0-647.0-0.0","0","0","22877","","null","","","null","71","","","","","","","","","","","","","","","",""
"","ITI","","html-keyboard-response","467","484608","0.0-1.0-648.0","0","0","22877","","null","","","null","71","","","","","","","","","","","","","","","NaN",""
"","S1","","html-keyboard-response","468","484860","0.0-1.0-650.0","0","0","22877","","null","","","null","72","","","","","","","","","","","","","","","",""
"","ISI","","html-keyboard-response","469","486863","0.0-1.0-651.0","0","0","22877","","null","","","null","72","NaN","","","","","","","","","","","","","","",""
"","S2","","html-keyboard-response","470","487115","0.0-1.0-652.0","0","0","22877","","null","","","null","72","","NaN","","","","","","","","","","","","","",""
"","response","","html-keyboard-response","471","487870","0.0-1.0-653.0","0","0","22877","","753","","","75","72","","","2","72","training","adjacent","EF","5","6","P.jpg","L.jpg","1","1","1","",""
"","feedback","","html-keyboard-response","472","488872","0.0-1.0-654.0-0.0","0","0","22877","","null","","","null","72","","","","","","","","","","","","","","","",""
"","ITI","","html-keyboard-response","473","489874","0.0-1.0-657.0","0","0","22877","","null","","","null","72","","","","","","","","","","","","","","","NaN",""
"","S1","","html-keyboard-response","474","490125","0.0-1.0-659.0","0","0","22877","","null","","","null","73","","","","","","","","","","","","","","","",""
"","ISI","","html-keyboard-response","475","492127","0.0-1.0-660.0","0","0","22877","","null","","","null","73","NaN","","","","","","","","","","","","","","",""
"","S2","","html-keyboard-response","476","492378","0.0-1.0-661.0","0","0","22877","","null","","","null","73","","NaN","","","","","","","","","","","","","",""
"","response","","html-keyboard-response","477","492622","0.0-1.0-662.0","0","0","22877","","244","","","68","73","","","2","73","training","adjacent","BC","2","3","N.jpg","R.jpg","0","1","0","",""
"","feedback","","html-keyboard-response","478","493625","0.0-1.0-663.0-0.0","0","0","22877","","null","","","null","73","","","","","","","","","","","","","","","",""
"","time_out","","html-keyboard-response","479","495628","0.0-1.0-665.0-0.0","0","0","22877","","null","","","null","73","","","","","","","","","","","","","","","",""
"","ITI","","html-keyboard-response","480","496630","0.0-1.0-666.0","0","0","22877","","null","","","null","73","","","","","","","","","","","","","","","NaN",""
"","S1","","html-keyboard-response","481","496881","0.0-1.0-668.0","0","0","22877","","null","","","null","74","","","","","","","","","","","","","","","",""
"","ISI","","html-keyboard-response","482","498883","0.0-1.0-669.0","0","0","22877","","null","","","null","74","NaN","","","","","","","","","","","","","","",""
"","S2","","html-keyboard-response","483","499135","0.0-1.0-670.0","0","0","22877","","null","","","null","74","","NaN","","","","","","","","","","","","","",""
"","response","","html-keyboard-response","484","499623","0.0-1.0-671.0","0","0","22877","","487","","","75","74","","","2","74","training","adjacent","FG","6","7","L.jpg","Q.jpg","1","1","1","",""
"","feedback","","html-keyboard-response","485","500627","0.0-1.0-672.0-0.0","0","0","22877","","null","","","null","74","","","","","","","","","","","","","","","",""
"","ITI","","html-keyboard-response","486","501630","0.0-1.0-675.0","0","0","22877","","null","","","null","74","","","","","","","","","","","","","","","NaN",""
"","S1","","html-keyboard-response","487","501882","0.0-1.0-677.0","0","0","22877","","null","","","null","75","","","","","","","","","","","","","","","",""
"","ISI","","html-keyboard-response","488","503884","0.0-1.0-678.0","0","0","22877","","null","","","null","75","NaN","","","","","","","","","","","","","","",""
"","S2","","html-keyboard-response","489","504137","0.0-1.0-679.0","0","0","22877","","null","","","null","75","","NaN","","","","","","","","","","","","","",""
"","response","","html-keyboard-response","490","504530","0.0-1.0-680.0","0","0","22877","","393","","","68","75","","","2","75","training","adjacent","BA","2","1","N.jpg","M.jpg","0","0","1","",""
"","feedback","","html-keyboard-response","491","505533","0.0-1.0-681.0-0.0","0","0","22877","","null","","","null","75","","","","","","","","","","","","","","","",""
"","ITI","","html-keyboard-response","492","506535","0.0-1.0-684.0","0","0","22877","","null","","","null","75","","","","","","","","","","","","","","","NaN",""
"","S1","","html-keyboard-response","493","506789","0.0-1.0-686.0","0","0","22877","","null","","","null","76","","","","","","","","","","","","","","","",""
"","ISI","","html-keyboard-response","494","508790","0.0-1.0-687.0","0","0","22877","","null","","","null","76","NaN","","","","","","","","","","","","","","",""
"","S2","","html-keyboard-response","495","509043","0.0-1.0-688.0","0","0","22877","","null","","","null","76","","NaN","","","","","","","","","","","","","",""
"","response","","html-keyboard-response","496","509438","0.0-1.0-689.0","0","0","22877","","394","","","75","76","","","2","76","training","adjacent","FG","6","7","L.jpg","Q.jpg","1","1","1","",""
"","feedback","","html-keyboard-response","497","510440","0.0-1.0-690.0-0.0","0","0","22877","","null","","","null","76","","","","","","","","","","","","","","","",""
"","ITI","","html-keyboard-response","498","511443","0.0-1.0-693.0","0","0","22877","","null","","","null","76","","","","","","","","","","","","","","","NaN",""
"","S1","","html-keyboard-response","499","511696","0.0-1.0-695.0","0","0","22877","","null","","","null","77","","","","","","","","","","","","","","","",""
"","ISI","","html-keyboard-response","500","513697","0.0-1.0-696.0","0","0","22877","","null","","","null","77","NaN","","","","","","","","","","","","","","",""
"","S2","","html-keyboard-response","501","513959","0.0-1.0-697.0","0","0","22877","","null","","","null","77","","NaN","","","","","","","","","","","","","",""
"","response","","html-keyboard-response","502","514392","0.0-1.0-698.0","0","0","22877","","433","","","75","77","","","2","77","training","adjacent","CB","3","2","R.jpg","N.jpg","1","0","0","",""
"","feedback","","html-keyboard-response","503","515394","0.0-1.0-699.0-0.0","0","0","22877","","null","","","null","77","","","","","","","","","","","","","","","",""
"","time_out","","html-keyboard-response","504","517396","0.0-1.0-701.0-0.0","0","0","22877","","null","","","null","77","","","","","","","","","","","","","","","",""
"","ITI","","html-keyboard-response","505","518398","0.0-1.0-702.0","0","0","22877","","null","","","null","77","","","","","","","","","","","","","","","NaN",""
"","S1","","html-keyboard-response","506","518650","0.0-1.0-704.0","0","0","22877","","null","","","null","78","","","","","","","","","","","","","","","",""
"","ISI","","html-keyboard-response","507","520653","0.0-1.0-705.0","0","0","22877","","null","","","null","78","NaN","","","","","","","","","","","","","","",""
"","S2","","html-keyboard-response","508","520905","0.0-1.0-706.0","0","0","22877","","null","","","null","78","","NaN","","","","","","","","","","","","","",""
"","response","","html-keyboard-response","509","521196","0.0-1.0-707.0","0","0","22877","","290","","","75","78","","","2","78","training","adjacent","DE","4","5","O.jpg","P.jpg","1","1","1","",""
"","feedback","","html-keyboard-response","510","522199","0.0-1.0-708.0-0.0","0","0","22877","","null","","","null","78","","","","","","","","","","","","","","","",""
"","ITI","","html-keyboard-response","511","523201","0.0-1.0-711.0","0","0","22877","","null","","","null","78","","","","","","","","","","","","","","","NaN",""
"","S1","","html-keyboard-response","512","523454","0.0-1.0-713.0","0","0","22877","","null","","","null","79","","","","","","","","","","","","","","","",""
"","ISI","","html-keyboard-response","513","525455","0.0-1.0-714.0","0","0","22877","","null","","","null","79","NaN","","","","","","","","","","","","","","",""
"","S2","","html-keyboard-response","514","525708","0.0-1.0-715.0","0","0","22877","","null","","","null","79","","NaN","","","","","","","","","","","","","",""
"","response","","html-keyboard-response","515","525989","0.0-1.0-716.0","0","0","22877","","280","","","75","79","","","2","79","training","adjacent","AB","1","2","M.jpg","N.jpg","1","1","1","",""
"","feedback","","html-keyboard-response","516","526993","0.0-1.0-717.0-0.0","0","0","22877","","null","","","null","79","","","","","","","","","","","","","","","",""
"","ITI","","html-keyboard-response","517","527995","0.0-1.0-720.0","0","0","22877","","null","","","null","79","","","","","","","","","","","","","","","NaN",""
"","S1","","html-keyboard-response","518","528247","0.0-1.0-722.0","0","0","22877","","null","","","null","80","","","","","","","","","","","","","","","",""
"","ISI","","html-keyboard-response","519","530250","0.0-1.0-723.0","0","0","22877","","null","","","null","80","NaN","","","","","","","","","","","","","","",""
"","S2","","html-keyboard-response","520","530503","0.0-1.0-724.0","0","0","22877","","null","","","null","80","","NaN","","","","","","","","","","","","","",""
"","response","","html-keyboard-response","521","530900","0.0-1.0-725.0","0","0","22877","","396","","","75","80","","","2","80","training","adjacent","CD","3","4","R.jpg","O.jpg","1","1","1","",""
"","feedback","","html-keyboard-response","522","531903","0.0-1.0-726.0-0.0","0","0","22877","","null","","","null","80","","","","","","","","","","","","","","","",""
"","ITI","","html-keyboard-response","523","532906","0.0-1.0-729.0","0","0","22877","","null","","","null","80","","","","","","","","","","","","","","","NaN",""
"","S1","","html-keyboard-response","524","533158","0.0-1.0-731.0","0","0","22877","","null","","","null","81","","","","","","","","","","","","","","","",""
"","ISI","","html-keyboard-response","525","535160","0.0-1.0-732.0","0","0","22877","","null","","","null","81","NaN","","","","","","","","","","","","","","",""
"","S2","","html-keyboard-response","526","535413","0.0-1.0-733.0","0","0","22877","","null","","","null","81","","NaN","","","","","","","","","","","","","",""
"","response","","html-keyboard-response","527","535808","0.0-1.0-734.0","0","0","22877","","395","","","68","81","","","2","81","training","adjacent","CB","3","2","R.jpg","N.jpg","0","0","1","",""
"","feedback","","html-keyboard-response","528","536811","0.0-1.0-735.0-0.0","0","0","22877","","null","","","null","81","","","","","","","","","","","","","","","",""
"","ITI","","html-keyboard-response","529","537814","0.0-1.0-738.0","0","0","22877","","null","","","null","81","","","","","","","","","","","","","","","NaN",""
"","S1","","html-keyboard-response","530","538066","0.0-1.0-740.0","0","0","22877","","null","","","null","82","","","","","","","","","","","","","","","",""
"","ISI","","html-keyboard-response","531","540068","0.0-1.0-741.0","0","0","22877","","null","","","null","82","NaN","","","","","","","","","","","","","","",""
"","S2","","html-keyboard-response","532","540321","0.0-1.0-742.0","0","0","22877","","null","","","null","82","","NaN","","","","","","","","","","","","","",""
"","response","","html-keyboard-response","533","540757","0.0-1.0-743.0","0","0","22877","","434","","","68","82","","","2","82","training","adjacent","DC","4","3","O.jpg","R.jpg","0","0","1","",""
"","feedback","","html-keyboard-response","534","541759","0.0-1.0-744.0-0.0","0","0","22877","","null","","","null","82","","","","","","","","","","","","","","","",""
"","ITI","","html-keyboard-response","535","542760","0.0-1.0-747.0","0","0","22877","","null","","","null","82","","","","","","","","","","","","","","","NaN",""
"","S1","","html-keyboard-response","536","543013","0.0-1.0-749.0","0","0","22877","","null","","","null","83","","","","","","","","","","","","","","","",""
"","ISI","","html-keyboard-response","537","545015","0.0-1.0-750.0","0","0","22877","","null","","","null","83","NaN","","","","","","","","","","","","","","",""
"","S2","","html-keyboard-response","538","545267","0.0-1.0-751.0","0","0","22877","","null","","","null","83","","NaN","","","","","","","","","","","","","",""
"","response","","html-keyboard-response","539","545702","0.0-1.0-752.0","0","0","22877","","434","","","75","83","","","2","83","training","adjacent","EF","5","6","P.jpg","L.jpg","1","1","1","",""
"","feedback","","html-keyboard-response","540","546705","0.0-1.0-753.0-0.0","0","0","22877","","null","","","null","83","","","","","","","","","","","","","","","",""
"","ITI","","html-keyboard-response","541","547707","0.0-1.0-756.0","0","0","22877","","null","","","null","83","","","","","","","","","","","","","","","NaN",""
"","S1","","html-keyboard-response","542","547960","0.0-1.0-758.0","0","0","22877","","null","","","null","84","","","","","","","","","","","","","","","",""
"","ISI","","html-keyboard-response","543","549962","0.0-1.0-759.0","0","0","22877","","null","","","null","84","NaN","","","","","","","","","","","","","","",""
"","S2","","html-keyboard-response","544","550214","0.0-1.0-760.0","0","0","22877","","null","","","null","84","","NaN","","","","","","","","","","","","","",""
"","response","","html-keyboard-response","545","550569","0.0-1.0-761.0","0","0","22877","","353","","","75","84","","","2","84","training","adjacent","CD","3","4","R.jpg","O.jpg","1","1","1","",""
"","feedback","","html-keyboard-response","546","551571","0.0-1.0-762.0-0.0","0","0","22877","","null","","","null","84","","","","","","","","","","","","","","","",""
"","ITI","","html-keyboard-response","547","552573","0.0-1.0-765.0","0","0","22877","","null","","","null","84","","","","","","","","","","","","","","","NaN",""
"","S1","","html-keyboard-response","548","552825","0.0-1.0-767.0","0","0","22877","","null","","","null","85","","","","","","","","","","","","","","","",""
"","ISI","","html-keyboard-response","549","554827","0.0-1.0-768.0","0","0","22877","","null","","","null","85","NaN","","","","","","","","","","","","","","",""
"","S2","","html-keyboard-response","550","555082","0.0-1.0-769.0","0","0","22877","","null","","","null","85","","NaN","","","","","","","","","","","","","",""
"","response","","html-keyboard-response","551","555499","0.0-1.0-770.0","0","0","22877","","416","","","68","85","","","2","85","training","adjacent","BA","2","1","N.jpg","M.jpg","0","0","1","",""
"","feedback","","html-keyboard-response","552","556502","0.0-1.0-771.0-0.0","0","0","22877","","null","","","null","85","","","","","","","","","","","","","","","",""
"","ITI","","html-keyboard-response","553","557506","0.0-1.0-774.0","0","0","22877","","null","","","null","85","","","","","","","","","","","","","","","NaN",""
"","S1","","html-keyboard-response","554","557758","0.0-1.0-776.0","0","0","22877","","null","","","null","86","","","","","","","","","","","","","","","",""
"","ISI","","html-keyboard-response","555","559760","0.0-1.0-777.0","0","0","22877","","null","","","null","86","NaN","","","","","","","","","","","","","","",""
"","S2","","html-keyboard-response","556","560013","0.0-1.0-778.0","0","0","22877","","null","","","null","86","","NaN","","","","","","","","","","","","","",""
"","response","","html-keyboard-response","557","560478","0.0-1.0-779.0","0","0","22877","","464","","","75","86","","","2","86","training","adjacent","FE","6","5","L.jpg","P.jpg","1","0","0","",""
"","feedback","","html-keyboard-response","558","561480","0.0-1.0-780.0-0.0","0","0","22877","","null","","","null","86","","","","","","","","","","","","","","","",""
"","time_out","","html-keyboard-response","559","563482","0.0-1.0-782.0-0.0","0","0","22877","","null","","","null","86","","","","","","","","","","","","","","","",""
"","ITI","","html-keyboard-response","560","564484","0.0-1.0-783.0","0","0","22877","","null","","","null","86","","","","","","","","","","","","","","","NaN",""
"","S1","","html-keyboard-response","561","564736","0.0-1.0-785.0","0","0","22877","","null","","","null","87","","","","","","","","","","","","","","","",""
"","ISI","","html-keyboard-response","562","566738","0.0-1.0-786.0","0","0","22877","","null","","","null","87","NaN","","","","","","","","","","","","","","",""
"","S2","","html-keyboard-response","563","566991","0.0-1.0-787.0","0","0","22877","","null","","","null","87","","NaN","","","","","","","","","","","","","",""
"","response","","html-keyboard-response","564","567411","0.0-1.0-788.0","0","0","22877","","418","","","68","87","","","2","87","training","adjacent","GF","7","6","Q.jpg","L.jpg","0","0","1","",""
"","feedback","","html-keyboard-response","565","568413","0.0-1.0-789.0-0.0","0","0","22877","","null","","","null","87","","","","","","","","","","","","","","","",""
"","ITI","","html-keyboard-response","566","569415","0.0-1.0-792.0","0","0","22877","","null","","","null","87","","","","","","","","","","","","","","","NaN",""
"","S1","","html-keyboard-response","567","569667","0.0-1.0-794.0","0","0","22877","","null","","","null","88","","","","","","","","","","","","","","","",""
"","ISI","","html-keyboard-response","568","571669","0.0-1.0-795.0","0","0","22877","","null","","","null","88","NaN","","","","","","","","","","","","","","",""
"","S2","","html-keyboard-response","569","571922","0.0-1.0-796.0","0","0","22877","","null","","","null","88","","NaN","","","","","","","","","","","","","",""
"","response","","html-keyboard-response","570","572435","0.0-1.0-797.0","0","0","22877","","512","","","75","88","","","2","88","training","adjacent","AB","1","2","M.jpg","N.jpg","1","1","1","",""
"","feedback","","html-keyboard-response","571","573437","0.0-1.0-798.0-0.0","0","0","22877","","null","","","null","88","","","","","","","","","","","","","","","",""
"","ITI","","html-keyboard-response","572","574440","0.0-1.0-801.0","0","0","22877","","null","","","null","88","","","","","","","","","","","","","","","NaN",""
"","S1","","html-keyboard-response","573","574692","0.0-1.0-803.0","0","0","22877","","null","","","null","89","","","","","","","","","","","","","","","",""
"","ISI","","html-keyboard-response","574","576695","0.0-1.0-804.0","0","0","22877","","null","","","null","89","NaN","","","","","","","","","","","","","","",""
"","S2","","html-keyboard-response","575","576947","0.0-1.0-805.0","0","0","22877","","null","","","null","89","","NaN","","","","","","","","","","","","","",""
"","response","","html-keyboard-response","576","577431","0.0-1.0-806.0","0","0","22877","","482","","","75","89","","","2","89","training","adjacent","FE","6","5","L.jpg","P.jpg","1","0","0","",""
"","feedback","","html-keyboard-response","577","578433","0.0-1.0-807.0-0.0","0","0","22877","","null","","","null","89","","","","","","","","","","","","","","","",""
"","time_out","","html-keyboard-response","578","580436","0.0-1.0-809.0-0.0","0","0","22877","","null","","","null","89","","","","","","","","","","","","","","","",""
"","ITI","","html-keyboard-response","579","581438","0.0-1.0-810.0","0","0","22877","","null","","","null","89","","","","","","","","","","","","","","","NaN",""
"","S1","","html-keyboard-response","580","581691","0.0-1.0-812.0","0","0","22877","","null","","","null","90","","","","","","","","","","","","","","","",""
"","ISI","","html-keyboard-response","581","583694","0.0-1.0-813.0","0","0","22877","","null","","","null","90","NaN","","","","","","","","","","","","","","",""
"","S2","","html-keyboard-response","582","583946","0.0-1.0-814.0","0","0","22877","","null","","","null","90","","NaN","","","","","","","","","","","","","",""
"","response","","html-keyboard-response","583","584392","0.0-1.0-815.0","0","0","22877","","444","","","68","90","","","2","90","training","adjacent","AB","1","2","M.jpg","N.jpg","0","1","0","",""
"","feedback","","html-keyboard-response","584","585393","0.0-1.0-816.0-0.0","0","0","22877","","null","","","null","90","","","","","","","","","","","","","","","",""
