"success","ttype","start_time","trial_type","trial_index","time_elapsed","internal_node_id","warning","missed_checkup","PID","view_history","rt","responses","repeat_instructions","key_press","index","keypress_isi","keypress_S2","block","trial_num","phase","group_type","pair_type","S1_stim","S2_stim","S1_img","S2_img","S1_chosen","S1_higher","accuracy","keypress_iti","total_bonus_tally"
"true","full_screen","d03082023hr1618","fullscreen","0","4184","0.0-0.0","0","0","72801","","","","","","","","","","","","","","","","","","","","","",""
"","instructions","","instructions","1","50565","0.0-1.0-0.0-0.0","0","0","72801","[{""page_index"":0,""viewing_time"":4706},{""page_index"":1,""viewing_time"":18908},{""page_index"":2,""viewing_time"":18596},{""page_index"":3,""viewing_time"":4167}]","46378","","","","","","","","","","","","","","","","","","","",""
"","comprehension_check","","survey-multi-choice","2","100499","0.0-1.0-0.0-1.0","0","0","72801","","49927","{""Q0"":""True"",""Q1"":""K"",""Q2"":""Once the second image appears and while the screen 'MAKE A CHOICE' is shown"",""Q3"":""Green mark"",""Q4"":""either D or K""}","0","","","","","","","","","","","","","","","","","",""
"","start_exp","","html-keyboard-response","3","132839","0.0-1.0-1.0","0","0","72801","","32334","","","32","","","","","","","","","","","","","","","","",""
"","S1","","html-keyboard-response","4","133097","0.0-1.0-2.0","0","0","72801","","null","","","null","0","","","","","","","","","","","","","","","",""
"","ISI","","html-keyboard-response","5","133253","0.0-1.0-3.0","0","0","72801","","null","","","null","0","NaN","","","","","","","","","","","","","","",""
"","S2","","html-keyboard-response","6","133510","0.0-1.0-4.0","0","0","72801","","null","","","null","0","","NaN","","","","","","","","","","","","","",""
"","response","","html-keyboard-response","7","134157","0.0-1.0-5.0-0.0","0","0","72801","","645","","","75","0","","","1","0","training","adjacent","EF","5","6","M.jpg","N.jpg","1","1","1","",""
"","feedback","","html-keyboard-response","8","135163","0.0-1.0-6.0-0.0","0","0","72801","","null","","","null","0","","","","","","","","","","","","","","","",""
"","ITI","","html-keyboard-response","9","136168","0.0-1.0-9.0","0","0","72801","","null","","","null","0","","","","","","","","","","","","","","","NaN",""
"","S1","","html-keyboard-response","10","136423","0.0-1.0-11.0","0","0","72801","","null","","","null","1","","","","","","","","","","","","","","","",""
"","ISI","","html-keyboard-response","11","136579","0.0-1.0-12.0","0","0","72801","","null","","","null","1","NaN","","","","","","","","","","","","","","",""
"","S2","","html-keyboard-response","12","136835","0.0-1.0-13.0","0","0","72801","","null","","","null","1","","NaN","","","","","","","","","","","","","",""
"","response","","html-keyboard-response","13","137357","0.0-1.0-14.0-0.0","0","0","72801","","520","","","68","1","","","1","1","training","adjacent","DE","4","5","R.jpg","M.jpg","0","1","0","",""
"","feedback","","html-keyboard-response","14","138362","0.0-1.0-15.0-0.0","0","0","72801","","null","","","null","1","","","","","","","","","","","","","","","",""
"","time_out","","html-keyboard-response","15","140366","0.0-1.0-17.0-0.0","0","0","72801","","null","","","null","1","","","","","","","","","","","","","","","",""
"","ITI","","html-keyboard-response","16","141369","0.0-1.0-18.0","0","0","72801","","null","","","null","1","","","","","","","","","","","","","","","NaN",""
"","S1","","html-keyboard-response","17","141624","0.0-1.0-20.0","0","0","72801","","null","","","null","2","","","","","","","","","","","","","","","",""
"","ISI","","html-keyboard-response","18","141781","0.0-1.0-21.0","0","0","72801","","null","","","null","2","NaN","","","","","","","","","","","","","","",""
"","S2","","html-keyboard-response","19","142036","0.0-1.0-22.0","0","0","72801","","null","","","null","2","","NaN","","","","","","","","","","","","","",""
"","response","","html-keyboard-response","20","142365","0.0-1.0-23.0-0.0","0","0","72801","","327","","","75","2","","","1","2","training","adjacent","FE","6","5","N.jpg","M.jpg","1","0","0","",""
"","feedback","","html-keyboard-response","21","143371","0.0-1.0-24.0-0.0","0","0","72801","","null","","","null","2","","","","","","","","","","","","","","","",""
"","time_out","","html-keyboard-response","22","145374","0.0-1.0-26.0-0.0","0","0","72801","","null","","","null","2","","","","","","","","","","","","","","","",""
"","ITI","","html-keyboard-response","23","146378","0.0-1.0-27.0","0","0","72801","","null","","","null","2","","","","","","","","","","","","","","","NaN",""
"","S1","","html-keyboard-response","24","146634","0.0-1.0-29.0","0","0","72801","","null","","","null","3","","","","","","","","","","","","","","","",""
"","ISI","","html-keyboard-response","25","146790","0.0-1.0-30.0","0","0","72801","","null","","","null","3","NaN","","","","","","","","","","","","","","",""
"","S2","","html-keyboard-response","26","147046","0.0-1.0-31.0","0","0","72801","","null","","","null","3","","NaN","","","","","","","","","","","","","",""
"","response","","html-keyboard-response","27","147232","0.0-1.0-32.0-0.0","0","0","72801","","184","","","75","3","","","1","3","training","adjacent","DC","4","3","R.jpg","O.jpg","1","0","0","",""
"","feedback","","html-keyboard-response","28","148235","0.0-1.0-33.0-0.0","0","0","72801","","null","","","null","3","","","","","","","","","","","","","","","",""
"","time_out","","html-keyboard-response","29","150238","0.0-1.0-35.0-0.0","0","0","72801","","null","","","null","3","","","","","","","","","","","","","","","",""
"","ITI","","html-keyboard-response","30","151242","0.0-1.0-36.0","0","0","72801","","null","","","null","3","","","","","","","","","","","","","","","NaN",""
"","S1","","html-keyboard-response","31","151497","0.0-1.0-38.0","0","0","72801","","null","","","null","4","","","","","","","","","","","","","","","",""
"","ISI","","html-keyboard-response","32","151649","0.0-1.0-39.0","0","0","72801","","null","","","null","4","NaN","","","","","","","","","","","","","","",""
"","S2","","html-keyboard-response","33","151853","0.0-1.0-40.0","0","0","72801","","201","","","68","4","","d","1","4","training","adjacent","CB","3","2","O.jpg","L.jpg","0","0","1","",""
"","feedback","","html-keyboard-response","34","152856","0.0-1.0-42.0-0.0","0","0","72801","","null","","","null","4","","","","","","","","","","","","","","","",""
"","ITI","","html-keyboard-response","35","153860","0.0-1.0-45.0","0","0","72801","","null","","","null","4","","","","","","","","","","","","","","","NaN",""
"","S1","","html-keyboard-response","36","154116","0.0-1.0-47.0","0","0","72801","","null","","","null","5","","","","","","","","","","","","","","","",""
"","ISI","","html-keyboard-response","37","154271","0.0-1.0-48.0","0","0","72801","","null","","","null","5","NaN","","","","","","","","","","","","","","",""
"","S2","","html-keyboard-response","38","154527","0.0-1.0-49.0","0","0","72801","","null","","","null","5","","NaN","","","","","","","","","","","","","",""
"","response","","html-keyboard-response","39","154742","0.0-1.0-50.0-0.0","0","0","72801","","213","","","68","5","","","1","5","training","adjacent","EF","5","6","M.jpg","N.jpg","0","1","0","",""
"","feedback","","html-keyboard-response","40","155747","0.0-1.0-51.0-0.0","0","0","72801","","null","","","null","5","","","","","","","","","","","","","","","",""
"","time_out","","html-keyboard-response","41","157753","0.0-1.0-53.0-0.0","0","0","72801","","null","","","null","5","","","","","","","","","","","","","","","",""
"","ITI","","html-keyboard-response","42","158759","0.0-1.0-54.0","0","0","72801","","null","","","null","5","","","","","","","","","","","","","","","NaN",""
"","S1","","html-keyboard-response","43","159015","0.0-1.0-56.0","0","0","72801","","null","","","null","6","","","","","","","","","","","","","","","",""
"","ISI","","html-keyboard-response","44","159172","0.0-1.0-57.0","0","0","72801","","null","","","null","6","NaN","","","","","","","","","","","","","","",""
"","S2","","html-keyboard-response","45","159427","0.0-1.0-58.0","0","0","72801","","null","","","null","6","","NaN","","","","","","","","","","","","","",""
"","response","","html-keyboard-response","46","159780","0.0-1.0-59.0-0.0","0","0","72801","","351","","","75","6","","","1","6","training","adjacent","ED","5","4","M.jpg","R.jpg","1","0","0","",""
"","feedback","","html-keyboard-response","47","160785","0.0-1.0-60.0-0.0","0","0","72801","","null","","","null","6","","","","","","","","","","","","","","","",""
"","time_out","","html-keyboard-response","48","162788","0.0-1.0-62.0-0.0","0","0","72801","","null","","","null","6","","","","","","","","","","","","","","","",""
"","ITI","","html-keyboard-response","49","163792","0.0-1.0-63.0","0","0","72801","","null","","","null","6","","","","","","","","","","","","","","","NaN",""
"","S1","","html-keyboard-response","50","164047","0.0-1.0-65.0","0","0","72801","","null","","","null","7","","","","","","","","","","","","","","","",""
"","ISI","","html-keyboard-response","51","164204","0.0-1.0-66.0","0","0","72801","","null","","","null","7","NaN","","","","","","","","","","","","","","",""
"","S2","","html-keyboard-response","52","164460","0.0-1.0-67.0","0","0","72801","","null","","","null","7","","NaN","","","","","","","","","","","","","",""
"","response","","html-keyboard-response","53","165027","0.0-1.0-68.0-0.0","0","0","72801","","566","","","68","7","","","1","7","training","adjacent","EF","5","6","M.jpg","N.jpg","0","1","0","",""
"","feedback","","html-keyboard-response","54","166032","0.0-1.0-69.0-0.0","0","0","72801","","null","","","null","7","","","","","","","","","","","","","","","",""
"","time_out","","html-keyboard-response","55","168035","0.0-1.0-71.0-0.0","0","0","72801","","null","","","null","7","","","","","","","","","","","","","","","",""
"","ITI","","html-keyboard-response","56","169040","0.0-1.0-72.0","0","0","72801","","null","","","null","7","","","","","","","","","","","","","","","NaN",""
"","S1","","html-keyboard-response","57","169295","0.0-1.0-74.0","0","0","72801","","null","","","null","8","","","","","","","","","","","","","","","",""
"","ISI","","html-keyboard-response","58","169452","0.0-1.0-75.0","0","0","72801","","null","","","null","8","NaN","","","","","","","","","","","","","","",""
"","S2","","html-keyboard-response","59","169707","0.0-1.0-76.0","0","0","72801","","null","","","null","8","","NaN","","","","","","","","","","","","","",""
"","response","","html-keyboard-response","60","169932","0.0-1.0-77.0-0.0","0","0","72801","","223","","","75","8","","","1","8","training","adjacent","DC","4","3","R.jpg","O.jpg","1","0","0","",""
"","feedback","","html-keyboard-response","61","170938","0.0-1.0-78.0-0.0","0","0","72801","","null","","","null","8","","","","","","","","","","","","","","","",""
"","time_out","","html-keyboard-response","62","172940","0.0-1.0-80.0-0.0","0","0","72801","","null","","","null","8","","","","","","","","","","","","","","","",""
"","ITI","","html-keyboard-response","63","173945","0.0-1.0-81.0","0","0","72801","","null","","","null","8","","","","","","","","","","","","","","","NaN",""
"","S1","","html-keyboard-response","64","174200","0.0-1.0-83.0","0","0","72801","","null","","","null","9","","","","","","","","","","","","","","","",""
"","ISI","","html-keyboard-response","65","174357","0.0-1.0-84.0","0","0","72801","","null","","","null","9","NaN","","","","","","","","","","","","","","",""
"","S2","","html-keyboard-response","66","174612","0.0-1.0-85.0","0","0","72801","","null","","","null","9","","NaN","","","","","","","","","","","","","",""
"","response","","html-keyboard-response","67","174988","0.0-1.0-86.0-0.0","0","0","72801","","373","","","68","9","","","1","9","training","adjacent","BA","2","1","L.jpg","Q.jpg","0","0","1","",""
"","feedback","","html-keyboard-response","68","175993","0.0-1.0-87.0-0.0","0","0","72801","","null","","","null","9","","","","","","","","","","","","","","","",""
"","ITI","","html-keyboard-response","69","176998","0.0-1.0-90.0","0","0","72801","","null","","","null","9","","","","","","","","","","","","","","","NaN",""
"","S1","","html-keyboard-response","70","177253","0.0-1.0-92.0","0","0","72801","","null","","","null","10","","","","","","","","","","","","","","","",""
"","ISI","","html-keyboard-response","71","177410","0.0-1.0-93.0","0","0","72801","","null","","","null","10","NaN","","","","","","","","","","","","","","",""
"","S2","","html-keyboard-response","72","177666","0.0-1.0-94.0","0","0","72801","","null","","","null","10","","NaN","","","","","","","","","","","","","",""
"","response","","html-keyboard-response","73","178255","0.0-1.0-95.0-0.0","0","0","72801","","587","","","68","10","","","1","10","training","adjacent","CD","3","4","O.jpg","R.jpg","0","1","0","",""
"","feedback","","html-keyboard-response","74","179261","0.0-1.0-96.0-0.0","0","0","72801","","null","","","null","10","","","","","","","","","","","","","","","",""
"","time_out","","html-keyboard-response","75","181264","0.0-1.0-98.0-0.0","0","0","72801","","null","","","null","10","","","","","","","","","","","","","","","",""
"","ITI","","html-keyboard-response","76","182269","0.0-1.0-99.0","0","0","72801","","null","","","null","10","","","","","","","","","","","","","","","NaN",""
"","S1","","html-keyboard-response","77","182524","0.0-1.0-101.0","0","0","72801","","null","","","null","11","","","","","","","","","","","","","","","",""
"","ISI","","html-keyboard-response","78","182681","0.0-1.0-102.0","0","0","72801","","null","","","null","11","NaN","","","","","","","","","","","","","","",""
"","S2","","html-keyboard-response","79","182936","0.0-1.0-103.0","0","0","72801","","null","","","null","11","","NaN","","","","","","","","","","","","","",""
"","response","","html-keyboard-response","80","183603","0.0-1.0-104.0-0.0","0","0","72801","","663","","","75","11","","","1","11","training","adjacent","GF","7","6","P.jpg","N.jpg","1","0","0","",""
"","feedback","","html-keyboard-response","81","184608","0.0-1.0-105.0-0.0","0","0","72801","","null","","","null","11","","","","","","","","","","","","","","","",""
"","time_out","","html-keyboard-response","82","186611","0.0-1.0-107.0-0.0","0","0","72801","","null","","","null","11","","","","","","","","","","","","","","","",""
"","ITI","","html-keyboard-response","83","187615","0.0-1.0-108.0","0","0","72801","","null","","","null","11","","","","","","","","","","","","","","","NaN",""
"","S1","","html-keyboard-response","84","187870","0.0-1.0-110.0","0","0","72801","","null","","","null","12","","","","","","","","","","","","","","","",""
"","ISI","","html-keyboard-response","85","188027","0.0-1.0-111.0","0","0","72801","","null","","","null","12","NaN","","","","","","","","","","","","","","",""
"","S2","","html-keyboard-response","86","188282","0.0-1.0-112.0","0","0","72801","","null","","","null","12","","NaN","","","","","","","","","","","","","",""
"","response","","html-keyboard-response","87","188699","0.0-1.0-113.0-0.0","0","0","72801","","415","","","68","12","","","1","12","training","adjacent","GF","7","6","P.jpg","N.jpg","0","0","1","",""
"","feedback","","html-keyboard-response","88","189704","0.0-1.0-114.0-0.0","0","0","72801","","null","","","null","12","","","","","","","","","","","","","","","",""
"","ITI","","html-keyboard-response","89","190709","0.0-1.0-117.0","0","0","72801","","null","","","null","12","","","","","","","","","","","","","","","NaN",""
"","S1","","html-keyboard-response","90","190964","0.0-1.0-119.0","0","0","72801","","null","","","null","13","","","","","","","","","","","","","","","",""
"","ISI","","html-keyboard-response","91","191121","0.0-1.0-120.0","0","0","72801","","null","","","null","13","NaN","","","","","","","","","","","","","","",""
"","S2","","html-keyboard-response","92","191376","0.0-1.0-121.0","0","0","72801","","null","","","null","13","","NaN","","","","","","","","","","","","","",""
"","response","","html-keyboard-response","93","191957","0.0-1.0-122.0-0.0","0","0","72801","","579","","","68","13","","","1","13","training","adjacent","DC","4","3","R.jpg","O.jpg","0","0","1","",""
"","feedback","","html-keyboard-response","94","192961","0.0-1.0-123.0-0.0","0","0","72801","","null","","","null","13","","","","","","","","","","","","","","","",""
"","ITI","","html-keyboard-response","95","193967","0.0-1.0-126.0","0","0","72801","","null","","","null","13","","","","","","","","","","","","","","","NaN",""
"","S1","","html-keyboard-response","96","194221","0.0-1.0-128.0","0","0","72801","","null","","","null","14","","","","","","","","","","","","","","","",""
"","ISI","","html-keyboard-response","97","194378","0.0-1.0-129.0","0","0","72801","","null","","","null","14","NaN","","","","","","","","","","","","","","",""
"","S2","","html-keyboard-response","98","194632","0.0-1.0-130.0","0","0","72801","","null","","","null","14","","NaN","","","","","","","","","","","","","",""
"","response","","html-keyboard-response","99","194971","0.0-1.0-131.0-0.0","0","0","72801","","336","","","75","14","","","1","14","training","adjacent","CD","3","4","O.jpg","R.jpg","1","1","1","",""
"","feedback","","html-keyboard-response","100","195974","0.0-1.0-132.0-0.0","0","0","72801","","null","","","null","14","","","","","","","","","","","","","","","",""
"","ITI","","html-keyboard-response","101","196978","0.0-1.0-135.0","0","0","72801","","null","","","null","14","","","","","","","","","","","","","","","NaN",""
"","S1","","html-keyboard-response","102","197234","0.0-1.0-137.0","0","0","72801","","null","","","null","15","","","","","","","","","","","","","","","",""
"","ISI","","html-keyboard-response","103","197390","0.0-1.0-138.0","0","0","72801","","null","","","null","15","NaN","","","","","","","","","","","","","","",""
"","S2","","html-keyboard-response","104","197646","0.0-1.0-139.0","0","0","72801","","null","","","null","15","","NaN","","","","","","","","","","","","","",""
"","response","","html-keyboard-response","105","198147","0.0-1.0-140.0-0.0","0","0","72801","","500","","","68","15","","","1","15","training","adjacent","FE","6","5","N.jpg","M.jpg","0","0","1","",""
"","feedback","","html-keyboard-response","106","199158","0.0-1.0-141.0-0.0","0","0","72801","","null","","","null","15","","","","","","","","","","","","","","","",""
"","ITI","","html-keyboard-response","107","200165","0.0-1.0-144.0","0","0","72801","","null","","","null","15","","","","","","","","","","","","","","","NaN",""
"","S1","","html-keyboard-response","108","200420","0.0-1.0-146.0","0","0","72801","","null","","","null","16","","","","","","","","","","","","","","","",""
"","ISI","","html-keyboard-response","109","200577","0.0-1.0-147.0","0","0","72801","","null","","","null","16","NaN","","","","","","","","","","","","","","",""
"","S2","","html-keyboard-response","110","200832","0.0-1.0-148.0","0","0","72801","","null","","","null","16","","NaN","","","","","","","","","","","","","",""
"","response","","html-keyboard-response","111","201334","0.0-1.0-149.0-0.0","0","0","72801","","500","","","68","16","","","1","16","training","adjacent","DE","4","5","R.jpg","M.jpg","0","1","0","",""
"","feedback","","html-keyboard-response","112","202337","0.0-1.0-150.0-0.0","0","0","72801","","null","","","null","16","","","","","","","","","","","","","","","",""
"","time_out","","html-keyboard-response","113","204344","0.0-1.0-152.0-0.0","0","0","72801","","null","","","null","16","","","","","","","","","","","","","","","",""
"","ITI","","html-keyboard-response","114","205348","0.0-1.0-153.0","0","0","72801","","null","","","null","16","","","","","","","","","","","","","","","NaN",""
"","S1","","html-keyboard-response","115","205604","0.0-1.0-155.0","0","0","72801","","null","","","null","17","","","","","","","","","","","","","","","",""
"","ISI","","html-keyboard-response","116","205761","0.0-1.0-156.0","0","0","72801","","null","","","null","17","NaN","","","","","","","","","","","","","","",""
"","S2","","html-keyboard-response","117","206016","0.0-1.0-157.0","0","0","72801","","null","","","null","17","","NaN","","","","","","","","","","","","","",""
"","response","","html-keyboard-response","118","206386","0.0-1.0-158.0-0.0","0","0","72801","","367","","","68","17","","","1","17","training","adjacent","CD","3","4","O.jpg","R.jpg","0","1","0","",""
"","feedback","","html-keyboard-response","119","207391","0.0-1.0-159.0-0.0","0","0","72801","","null","","","null","17","","","","","","","","","","","","","","","",""
"","time_out","","html-keyboard-response","120","209394","0.0-1.0-161.0-0.0","0","0","72801","","null","","","null","17","","","","","","","","","","","","","","","",""
"","ITI","","html-keyboard-response","121","210400","0.0-1.0-162.0","0","0","72801","","null","","","null","17","","","","","","","","","","","","","","","NaN",""
"","S1","","html-keyboard-response","122","210654","0.0-1.0-164.0","0","0","72801","","null","","","null","18","","","","","","","","","","","","","","","",""
"","ISI","","html-keyboard-response","123","210811","0.0-1.0-165.0","0","0","72801","","null","","","null","18","NaN","","","","","","","","","","","","","","",""
"","S2","","html-keyboard-response","124","211066","0.0-1.0-166.0","0","0","72801","","null","","","null","18","","NaN","","","","","","","","","","","","","",""
"","response","","html-keyboard-response","125","211330","0.0-1.0-167.0-0.0","0","0","72801","","261","","","75","18","","","1","18","training","adjacent","AB","1","2","Q.jpg","L.jpg","1","1","1","",""
"","feedback","","html-keyboard-response","126","212337","0.0-1.0-168.0-0.0","0","0","72801","","null","","","null","18","","","","","","","","","","","","","","","",""
"","ITI","","html-keyboard-response","127","213341","0.0-1.0-171.0","0","0","72801","","null","","","null","18","","","","","","","","","","","","","","","NaN",""
"","S1","","html-keyboard-response","128","213597","0.0-1.0-173.0","0","0","72801","","null","","","null","19","","","","","","","","","","","","","","","",""
"","ISI","","html-keyboard-response","129","213754","0.0-1.0-174.0","0","0","72801","","null","","","null","19","NaN","","","","","","","","","","","","","","",""
"","S2","","html-keyboard-response","130","214009","0.0-1.0-175.0","0","0","72801","","null","","","null","19","","NaN","","","","","","","","","","","","","",""
"","response","","html-keyboard-response","131","214338","0.0-1.0-176.0-0.0","0","0","72801","","327","","","68","19","","","1","19","training","adjacent","BC","2","3","L.jpg","O.jpg","0","1","0","",""
"","feedback","","html-keyboard-response","132","215344","0.0-1.0-177.0-0.0","0","0","72801","","null","","","null","19","","","","","","","","","","","","","","","",""
"","time_out","","html-keyboard-response","133","217347","0.0-1.0-179.0-0.0","0","0","72801","","null","","","null","19","","","","","","","","","","","","","","","",""
"","ITI","","html-keyboard-response","134","218351","0.0-1.0-180.0","0","0","72801","","null","","","null","19","","","","","","","","","","","","","","","NaN",""
"","S1","","html-keyboard-response","135","218607","0.0-1.0-182.0","0","0","72801","","null","","","null","20","","","","","","","","","","","","","","","",""
"","ISI","","html-keyboard-response","136","218763","0.0-1.0-183.0","0","0","72801","","null","","","null","20","NaN","","","","","","","","","","","","","","",""
"","S2","","html-keyboard-response","137","219019","0.0-1.0-184.0","0","0","72801","","null","","","null","20","","NaN","","","","","","","","","","","","","",""
"","response","","html-keyboard-response","138","219378","0.0-1.0-185.0-0.0","0","0","72801","","357","","","75","20","","","1","20","training","adjacent","DE","4","5","R.jpg","M.jpg","1","1","1","",""
"","feedback","","html-keyboard-response","139","220383","0.0-1.0-186.0-0.0","0","0","72801","","null","","","null","20","","","","","","","","","","","","","","","",""
"","ITI","","html-keyboard-response","140","221387","0.0-1.0-189.0","0","0","72801","","null","","","null","20","","","","","","","","","","","","","","","NaN",""
"","S1","","html-keyboard-response","141","221642","0.0-1.0-191.0","0","0","72801","","null","","","null","21","","","","","","","","","","","","","","","",""
"","ISI","","html-keyboard-response","142","221799","0.0-1.0-192.0","0","0","72801","","null","","","null","21","NaN","","","","","","","","","","","","","","",""
"","S2","","html-keyboard-response","143","222055","0.0-1.0-193.0","0","0","72801","","null","","","null","21","","NaN","","","","","","","","","","","","","",""
"","response","","html-keyboard-response","144","222436","0.0-1.0-194.0-0.0","0","0","72801","","380","","","75","21","","","1","21","training","adjacent","GF","7","6","P.jpg","N.jpg","1","0","0","",""
"","feedback","","html-keyboard-response","145","223442","0.0-1.0-195.0-0.0","0","0","72801","","null","","","null","21","","","","","","","","","","","","","","","",""
"","time_out","","html-keyboard-response","146","225444","0.0-1.0-197.0-0.0","0","0","72801","","null","","","null","21","","","","","","","","","","","","","","","",""
"","ITI","","html-keyboard-response","147","226449","0.0-1.0-198.0","0","0","72801","","null","","","null","21","","","","","","","","","","","","","","","NaN",""
"","S1","","html-keyboard-response","148","226704","0.0-1.0-200.0","0","0","72801","","null","","","null","22","","","","","","","","","","","","","","","",""
"","ISI","","html-keyboard-response","149","226861","0.0-1.0-201.0","0","0","72801","","null","","","null","22","NaN","","","","","","","","","","","","","","",""
"","S2","","html-keyboard-response","150","227116","0.0-1.0-202.0","0","0","72801","","null","","","null","22","","NaN","","","","","","","","","","","","","",""
"","response","","html-keyboard-response","151","227457","0.0-1.0-203.0-0.0","0","0","72801","","337","","","75","22","","","1","22","training","adjacent","FE","6","5","N.jpg","M.jpg","1","0","0","",""
"","feedback","","html-keyboard-response","152","228459","0.0-1.0-204.0-0.0","0","0","72801","","null","","","null","22","","","","","","","","","","","","","","","",""
"","time_out","","html-keyboard-response","153","230466","0.0-1.0-206.0-0.0","0","0","72801","","null","","","null","22","","","","","","","","","","","","","","","",""
"","ITI","","html-keyboard-response","154","231470","0.0-1.0-207.0","0","0","72801","","null","","","null","22","","","","","","","","","","","","","","","NaN",""
"","S1","","html-keyboard-response","155","231725","0.0-1.0-209.0","0","0","72801","","null","","","null","23","","","","","","","","","","","","","","","",""
"","ISI","","html-keyboard-response","156","231882","0.0-1.0-210.0","0","0","72801","","null","","","null","23","NaN","","","","","","","","","","","","","","",""
"","S2","","html-keyboard-response","157","232137","0.0-1.0-211.0","0","0","72801","","null","","","null","23","","NaN","","","","","","","","","","","","","",""
"","response","","html-keyboard-response","158","232553","0.0-1.0-212.0-0.0","0","0","72801","","414","","","68","23","","","1","23","training","adjacent","DC","4","3","R.jpg","O.jpg","0","0","1","",""
"","feedback","","html-keyboard-response","159","233559","0.0-1.0-213.0-0.0","0","0","72801","","null","","","null","23","","","","","","","","","","","","","","","",""
"","ITI","","html-keyboard-response","160","234564","0.0-1.0-216.0","0","0","72801","","null","","","null","23","","","","","","","","","","","","","","","NaN",""
"","S1","","html-keyboard-response","161","234819","0.0-1.0-218.0","0","0","72801","","null","","","null","24","","","","","","","","","","","","","","","",""
"","ISI","","html-keyboard-response","162","234971","0.0-1.0-219.0","0","0","72801","","null","","","null","24","NaN","","","","","","","","","","","","","","",""
"","S2","","html-keyboard-response","163","235225","0.0-1.0-220.0","0","0","72801","","null","","","null","24","","NaN","","","","","","","","","","","","","",""
"","response","","html-keyboard-response","164","235675","0.0-1.0-221.0-0.0","0","0","72801","","448","","","68","24","","","1","24","training","adjacent","CB","3","2","O.jpg","L.jpg","0","0","1","",""
"","feedback","","html-keyboard-response","165","236680","0.0-1.0-222.0-0.0","0","0","72801","","null","","","null","24","","","","","","","","","","","","","","","",""
"","ITI","","html-keyboard-response","166","237692","0.0-1.0-225.0","0","0","72801","","null","","","null","24","","","","","","","","","","","","","","","NaN",""
"","S1","","html-keyboard-response","167","237948","0.0-1.0-227.0","0","0","72801","","null","","","null","25","","","","","","","","","","","","","","","",""
"","ISI","","html-keyboard-response","168","238105","0.0-1.0-228.0","0","0","72801","","null","","","null","25","NaN","","","","","","","","","","","","","","",""
"","S2","","html-keyboard-response","169","238360","0.0-1.0-229.0","0","0","72801","","null","","","null","25","","NaN","","","","","","","","","","","","","",""
"","response","","html-keyboard-response","170","238809","0.0-1.0-230.0-0.0","0","0","72801","","446","","","68","25","","","1","25","training","adjacent","FG","6","7","N.jpg","P.jpg","0","1","0","",""
"","feedback","","html-keyboard-response","171","239814","0.0-1.0-231.0-0.0","0","0","72801","","null","","","null","25","","","","","","","","","","","","","","","",""
"","time_out","","html-keyboard-response","172","241820","0.0-1.0-233.0-0.0","0","0","72801","","null","","","null","25","","","","","","","","","","","","","","","",""
"","ITI","","html-keyboard-response","173","242824","0.0-1.0-234.0","0","0","72801","","null","","","null","25","","","","","","","","","","","","","","","NaN",""
"","S1","","html-keyboard-response","174","243079","0.0-1.0-236.0","0","0","72801","","null","","","null","26","","","","","","","","","","","","","","","",""
"","ISI","","html-keyboard-response","175","243236","0.0-1.0-237.0","0","0","72801","","null","","","null","26","NaN","","","","","","","","","","","","","","",""
"","S2","","html-keyboard-response","176","243492","0.0-1.0-238.0","0","0","72801","","null","","","null","26","","NaN","","","","","","","","","","","","","",""
"","response","","html-keyboard-response","177","243936","0.0-1.0-239.0-0.0","0","0","72801","","443","","","75","26","","","1","26","training","adjacent","ED","5","4","M.jpg","R.jpg","1","0","0","",""
"","feedback","","html-keyboard-response","178","244943","0.0-1.0-240.0-0.0","0","0","72801","","null","","","null","26","","","","","","","","","","","","","","","",""
"","time_out","","html-keyboard-response","179","246945","0.0-1.0-242.0-0.0","0","0","72801","","null","","","null","26","","","","","","","","","","","","","","","",""
"","ITI","","html-keyboard-response","180","247950","0.0-1.0-243.0","0","0","72801","","null","","","null","26","","","","","","","","","","","","","","","NaN",""
"","S1","","html-keyboard-response","181","248205","0.0-1.0-245.0","0","0","72801","","null","","","null","27","","","","","","","","","","","","","","","",""
"","ISI","","html-keyboard-response","182","248362","0.0-1.0-246.0","0","0","72801","","null","","","null","27","NaN","","","","","","","","","","","","","","",""
"","S2","","html-keyboard-response","183","248617","0.0-1.0-247.0","0","0","72801","","null","","","null","27","","NaN","","","","","","","","","","","","","",""
"","response","","html-keyboard-response","184","249024","0.0-1.0-248.0-0.0","0","0","72801","","405","","","68","27","","","1","27","training","adjacent","BC","2","3","L.jpg","O.jpg","0","1","0","",""
"","feedback","","html-keyboard-response","185","250028","0.0-1.0-249.0-0.0","0","0","72801","","null","","","null","27","","","","","","","","","","","","","","","",""
"","time_out","","html-keyboard-response","186","252030","0.0-1.0-251.0-0.0","0","0","72801","","null","","","null","27","","","","","","","","","","","","","","","",""
"","ITI","","html-keyboard-response","187","253035","0.0-1.0-252.0","0","0","72801","","null","","","null","27","","","","","","","","","","","","","","","NaN",""
"","S1","","html-keyboard-response","188","253290","0.0-1.0-254.0","0","0","72801","","null","","","null","28","","","","","","","","","","","","","","","",""
"","ISI","","html-keyboard-response","189","253447","0.0-1.0-255.0","0","0","72801","","null","","","null","28","NaN","","","","","","","","","","","","","","",""
"","S2","","html-keyboard-response","190","253702","0.0-1.0-256.0","0","0","72801","","null","","","null","28","","NaN","","","","","","","","","","","","","",""
"","response","","html-keyboard-response","191","254040","0.0-1.0-257.0-0.0","0","0","72801","","336","","","75","28","","","1","28","training","adjacent","EF","5","6","M.jpg","N.jpg","1","1","1","",""
"","feedback","","html-keyboard-response","192","255043","0.0-1.0-258.0-0.0","0","0","72801","","null","","","null","28","","","","","","","","","","","","","","","",""
"","ITI","","html-keyboard-response","193","256047","0.0-1.0-261.0","0","0","72801","","null","","","null","28","","","","","","","","","","","","","","","NaN",""
"","S1","","html-keyboard-response","194","256303","0.0-1.0-263.0","0","0","72801","","null","","","null","29","","","","","","","","","","","","","","","",""
"","ISI","","html-keyboard-response","195","256459","0.0-1.0-264.0","0","0","72801","","null","","","null","29","NaN","","","","","","","","","","","","","","",""
"","S2","","html-keyboard-response","196","256715","0.0-1.0-265.0","0","0","72801","","null","","","null","29","","NaN","","","","","","","","","","","","","",""
"","response","","html-keyboard-response","197","257073","0.0-1.0-266.0-0.0","0","0","72801","","356","","","68","29","","","1","29","training","adjacent","ED","5","4","M.jpg","R.jpg","0","0","1","",""
"","feedback","","html-keyboard-response","198","258079","0.0-1.0-267.0-0.0","0","0","72801","","null","","","null","29","","","","","","","","","","","","","","","",""
"","ITI","","html-keyboard-response","199","259083","0.0-1.0-270.0","0","0","72801","","null","","","null","29","","","","","","","","","","","","","","","NaN",""
"","S1","","html-keyboard-response","200","259338","0.0-1.0-272.0","0","0","72801","","null","","","null","30","","","","","","","","","","","","","","","",""
"","ISI","","html-keyboard-response","201","259492","0.0-1.0-273.0","0","0","72801","","null","","","null","30","NaN","","","","","","","","","","","","","","",""
"","S2","","html-keyboard-response","202","259745","0.0-1.0-274.0","0","0","72801","","null","","","null","30","","NaN","","","","","","","","","","","","","",""
"","response","","html-keyboard-response","203","260200","0.0-1.0-275.0-0.0","0","0","72801","","454","","","75","30","","","1","30","training","adjacent","BA","2","1","L.jpg","Q.jpg","1","0","0","",""
"","feedback","","html-keyboard-response","204","261206","0.0-1.0-276.0-0.0","0","0","72801","","null","","","null","30","","","","","","","","","","","","","","","",""
"","time_out","","html-keyboard-response","205","263210","0.0-1.0-278.0-0.0","0","0","72801","","null","","","null","30","","","","","","","","","","","","","","","",""
"","ITI","","html-keyboard-response","206","264214","0.0-1.0-279.0","0","0","72801","","null","","","null","30","","","","","","","","","","","","","","","NaN",""
"","S1","","html-keyboard-response","207","264470","0.0-1.0-281.0","0","0","72801","","null","","","null","31","","","","","","","","","","","","","","","",""
"","ISI","","html-keyboard-response","208","264627","0.0-1.0-282.0","0","0","72801","","null","","","null","31","NaN","","","","","","","","","","","","","","",""
"","S2","","html-keyboard-response","209","264882","0.0-1.0-283.0","0","0","72801","","null","","","null","31","","NaN","","","","","","","","","","","","","",""
"","response","","html-keyboard-response","210","265281","0.0-1.0-284.0-0.0","0","0","72801","","397","","","68","31","","","1","31","training","adjacent","BC","2","3","L.jpg","O.jpg","0","1","0","",""
"","feedback","","html-keyboard-response","211","266287","0.0-1.0-285.0-0.0","0","0","72801","","null","","","null","31","","","","","","","","","","","","","","","",""
"","time_out","","html-keyboard-response","212","268289","0.0-1.0-287.0-0.0","0","0","72801","","null","","","null","31","","","","","","","","","","","","","","","",""
"","ITI","","html-keyboard-response","213","269294","0.0-1.0-288.0","0","0","72801","","null","","","null","31","","","","","","","","","","","","","","","NaN",""
"","S1","","html-keyboard-response","214","269549","0.0-1.0-290.0","0","0","72801","","null","","","null","32","","","","","","","","","","","","","","","",""
"","ISI","","html-keyboard-response","215","269706","0.0-1.0-291.0","0","0","72801","","null","","","null","32","NaN","","","","","","","","","","","","","","",""
"","S2","","html-keyboard-response","216","269961","0.0-1.0-292.0","0","0","72801","","null","","","null","32","","NaN","","","","","","","","","","","","","",""
"","response","","html-keyboard-response","217","270472","0.0-1.0-293.0-0.0","0","0","72801","","509","","","75","32","","","1","32","training","adjacent","DE","4","5","R.jpg","M.jpg","1","1","1","",""
"","feedback","","html-keyboard-response","218","271475","0.0-1.0-294.0-0.0","0","0","72801","","null","","","null","32","","","","","","","","","","","","","","","",""
"","ITI","","html-keyboard-response","219","272478","0.0-1.0-297.0","0","0","72801","","null","","","null","32","","","","","","","","","","","","","","","NaN",""
"","S1","","html-keyboard-response","220","272730","0.0-1.0-299.0","0","0","72801","","null","","","null","33","","","","","","","","","","","","","","","",""
"","ISI","","html-keyboard-response","221","272887","0.0-1.0-300.0","0","0","72801","","null","","","null","33","NaN","","","","","","","","","","","","","","",""
"","S2","","html-keyboard-response","222","273142","0.0-1.0-301.0","0","0","72801","","null","","","null","33","","NaN","","","","","","","","","","","","","",""
"","response","","html-keyboard-response","223","273626","0.0-1.0-302.0-0.0","0","0","72801","","482","","","75","33","","","1","33","training","adjacent","AB","1","2","Q.jpg","L.jpg","1","1","1","",""
"","feedback","","html-keyboard-response","224","274628","0.0-1.0-303.0-0.0","0","0","72801","","null","","","null","33","","","","","","","","","","","","","","","",""
"","ITI","","html-keyboard-response","225","275632","0.0-1.0-306.0","0","0","72801","","null","","","null","33","","","","","","","","","","","","","","","NaN",""
"","S1","","html-keyboard-response","226","275887","0.0-1.0-308.0","0","0","72801","","null","","","null","34","","","","","","","","","","","","","","","",""
"","ISI","","html-keyboard-response","227","276040","0.0-1.0-309.0","0","0","72801","","null","","","null","34","NaN","","","","","","","","","","","","","","",""
"","S2","","html-keyboard-response","228","276294","0.0-1.0-310.0","0","0","72801","","null","","","null","34","","NaN","","","","","","","","","","","","","",""
"","response","","html-keyboard-response","229","276777","0.0-1.0-311.0-0.0","0","0","72801","","480","","","68","34","","","1","34","training","adjacent","FG","6","7","N.jpg","P.jpg","0","1","0","",""
"","feedback","","html-keyboard-response","230","277780","0.0-1.0-312.0-0.0","0","0","72801","","null","","","null","34","","","","","","","","","","","","","","","",""
"","time_out","","html-keyboard-response","231","279783","0.0-1.0-314.0-0.0","0","0","72801","","null","","","null","34","","","","","","","","","","","","","","","",""
"","ITI","","html-keyboard-response","232","280787","0.0-1.0-315.0","0","0","72801","","null","","","null","34","","","","","","","","","","","","","","","NaN",""
"","S1","","html-keyboard-response","233","281041","0.0-1.0-317.0","0","0","72801","","null","","","null","35","","","","","","","","","","","","","","","",""
"","ISI","","html-keyboard-response","234","281199","0.0-1.0-318.0","0","0","72801","","null","","","null","35","NaN","","","","","","","","","","","","","","",""
"","S2","","html-keyboard-response","235","281455","0.0-1.0-319.0","0","0","72801","","null","","","null","35","","NaN","","","","","","","","","","","","","",""
"","response","","html-keyboard-response","236","281857","0.0-1.0-320.0-0.0","0","0","72801","","401","","","68","35","","","1","35","training","adjacent","BA","2","1","L.jpg","Q.jpg","0","0","1","",""
"","feedback","","html-keyboard-response","237","282865","0.0-1.0-321.0-0.0","0","0","72801","","null","","","null","35","","","","","","","","","","","","","","","",""
"","ITI","","html-keyboard-response","238","283869","0.0-1.0-324.0","0","0","72801","","null","","","null","35","","","","","","","","","","","","","","","NaN",""
"","S1","","html-keyboard-response","239","284125","0.0-1.0-326.0","0","0","72801","","null","","","null","36","","","","","","","","","","","","","","","",""
"","ISI","","html-keyboard-response","240","284281","0.0-1.0-327.0","0","0","72801","","null","","","null","36","NaN","","","","","","","","","","","","","","",""
"","S2","","html-keyboard-response","241","284537","0.0-1.0-328.0","0","0","72801","","null","","","null","36","","NaN","","","","","","","","","","","","","",""
"","response","","html-keyboard-response","242","285191","0.0-1.0-329.0-0.0","0","0","72801","","652","","","68","36","","","1","36","training","adjacent","CB","3","2","O.jpg","L.jpg","0","0","1","",""
"","feedback","","html-keyboard-response","243","286198","0.0-1.0-330.0-0.0","0","0","72801","","null","","","null","36","","","","","","","","","","","","","","","",""
"","ITI","","html-keyboard-response","244","287201","0.0-1.0-333.0","0","0","72801","","null","","","null","36","","","","","","","","","","","","","","","NaN",""
"","S1","","html-keyboard-response","245","287457","0.0-1.0-335.0","0","0","72801","","null","","","null","37","","","","","","","","","","","","","","","",""
"","ISI","","html-keyboard-response","246","287613","0.0-1.0-336.0","0","0","72801","","null","","","null","37","NaN","","","","","","","","","","","","","","",""
"","S2","","html-keyboard-response","247","287870","0.0-1.0-337.0","0","0","72801","","null","","","null","37","","NaN","","","","","","","","","","","","","",""
"","response","","html-keyboard-response","248","288394","0.0-1.0-338.0-0.0","0","0","72801","","521","","","68","37","","","1","37","training","adjacent","FG","6","7","N.jpg","P.jpg","0","1","0","",""
"","feedback","","html-keyboard-response","249","289400","0.0-1.0-339.0-0.0","0","0","72801","","null","","","null","37","","","","","","","","","","","","","","","",""
"","time_out","","html-keyboard-response","250","291404","0.0-1.0-341.0-0.0","0","0","72801","","null","","","null","37","","","","","","","","","","","","","","","",""
"","ITI","","html-keyboard-response","251","292411","0.0-1.0-342.0","0","0","72801","","null","","","null","37","","","","","","","","","","","","","","","NaN",""
"","S1","","html-keyboard-response","252","292664","0.0-1.0-344.0","0","0","72801","","null","","","null","38","","","","","","","","","","","","","","","",""
"","ISI","","html-keyboard-response","253","292820","0.0-1.0-345.0","0","0","72801","","null","","","null","38","NaN","","","","","","","","","","","","","","",""
"","S2","","html-keyboard-response","254","293076","0.0-1.0-346.0","0","0","72801","","null","","","null","38","","NaN","","","","","","","","","","","","","",""
"","response","","html-keyboard-response","255","293518","0.0-1.0-347.0-0.0","0","0","72801","","440","","","75","38","","","1","38","training","adjacent","CB","3","2","O.jpg","L.jpg","1","0","0","",""
"","feedback","","html-keyboard-response","256","294521","0.0-1.0-348.0-0.0","0","0","72801","","null","","","null","38","","","","","","","","","","","","","","","",""
"","time_out","","html-keyboard-response","257","296524","0.0-1.0-350.0-0.0","0","0","72801","","null","","","null","38","","","","","","","","","","","","","","","",""
"","ITI","","html-keyboard-response","258","297528","0.0-1.0-351.0","0","0","72801","","null","","","null","38","","","","","","","","","","","","","","","NaN",""
"","S1","","html-keyboard-response","259","297783","0.0-1.0-353.0","0","0","72801","","null","","","null","39","","","","","","","","","","","","","","","",""
"","ISI","","html-keyboard-response","260","297940","0.0-1.0-354.0","0","0","72801","","null","","","null","39","NaN","","","","","","","","","","","","","","",""
"","S2","","html-keyboard-response","261","298196","0.0-1.0-355.0","0","0","72801","","null","","","null","39","","NaN","","","","","","","","","","","","","",""
"","response","","html-keyboard-response","262","298561","0.0-1.0-356.0-0.0","0","0","72801","","364","","","75","39","","","1","39","training","adjacent","ED","5","4","M.jpg","R.jpg","1","0","0","",""
"","feedback","","html-keyboard-response","263","299566","0.0-1.0-357.0-0.0","0","0","72801","","null","","","null","39","","","","","","","","","","","","","","","",""
"","time_out","","html-keyboard-response","264","301568","0.0-1.0-359.0-0.0","0","0","72801","","null","","","null","39","","","","","","","","","","","","","","","",""
"","ITI","","html-keyboard-response","265","302572","0.0-1.0-360.0","0","0","72801","","null","","","null","39","","","","","","","","","","","","","","","NaN",""
"","S1","","html-keyboard-response","266","302828","0.0-1.0-362.0","0","0","72801","","null","","","null","40","","","","","","","","","","","","","","","",""
"","ISI","","html-keyboard-response","267","302984","0.0-1.0-363.0","0","0","72801","","null","","","null","40","NaN","","","","","","","","","","","","","","",""
"","S2","","html-keyboard-response","268","303240","0.0-1.0-364.0","0","0","72801","","null","","","null","40","","NaN","","","","","","","","","","","","","",""
"","response","","html-keyboard-response","269","303469","0.0-1.0-365.0-0.0","0","0","72801","","228","","","68","40","","","1","40","training","adjacent","BA","2","1","L.jpg","Q.jpg","0","0","1","",""
"","feedback","","html-keyboard-response","270","304472","0.0-1.0-366.0-0.0","0","0","72801","","null","","","null","40","","","","","","","","","","","","","","","",""
"","ITI","","html-keyboard-response","271","305475","0.0-1.0-369.0","0","0","72801","","null","","","null","40","","","","","","","","","","","","","","","NaN",""
"","S1","","html-keyboard-response","272","305730","0.0-1.0-371.0","0","0","72801","","null","","","null","41","","","","","","","","","","","","","","","",""
"","ISI","","html-keyboard-response","273","305887","0.0-1.0-372.0","0","0","72801","","null","","","null","41","NaN","","","","","","","","","","","","","","",""
"","S2","","html-keyboard-response","274","306142","0.0-1.0-373.0","0","0","72801","","null","","","null","41","","NaN","","","","","","","","","","","","","",""
"","response","","html-keyboard-response","275","306488","0.0-1.0-374.0-0.0","0","0","72801","","344","","","68","41","","","1","41","training","adjacent","CD","3","4","O.jpg","R.jpg","0","1","0","",""
"","feedback","","html-keyboard-response","276","307495","0.0-1.0-375.0-0.0","0","0","72801","","null","","","null","41","","","","","","","","","","","","","","","",""
"","time_out","","html-keyboard-response","277","309497","0.0-1.0-377.0-0.0","0","0","72801","","null","","","null","41","","","","","","","","","","","","","","","",""
"","ITI","","html-keyboard-response","278","310501","0.0-1.0-378.0","0","0","72801","","null","","","null","41","","","","","","","","","","","","","","","NaN",""
"","S1","","html-keyboard-response","279","310757","0.0-1.0-380.0","0","0","72801","","null","","","null","42","","","","","","","","","","","","","","","",""
"","ISI","","html-keyboard-response","280","310914","0.0-1.0-381.0","0","0","72801","","null","","","null","42","NaN","","","","","","","","","","","","","","",""
"","S2","","html-keyboard-response","281","311169","0.0-1.0-382.0","0","0","72801","","null","","","null","42","","NaN","","","","","","","","","","","","","",""
"","response","","html-keyboard-response","282","311534","0.0-1.0-383.0-0.0","0","0","72801","","363","","","75","42","","","1","42","training","adjacent","AB","1","2","Q.jpg","L.jpg","1","1","1","",""
"","feedback","","html-keyboard-response","283","312539","0.0-1.0-384.0-0.0","0","0","72801","","null","","","null","42","","","","","","","","","","","","","","","",""
"","ITI","","html-keyboard-response","284","313543","0.0-1.0-387.0","0","0","72801","","null","","","null","42","","","","","","","","","","","","","","","NaN",""
"","S1","","html-keyboard-response","285","313799","0.0-1.0-389.0","0","0","72801","","null","","","null","43","","","","","","","","","","","","","","","",""
"","ISI","","html-keyboard-response","286","313955","0.0-1.0-390.0","0","0","72801","","null","","","null","43","NaN","","","","","","","","","","","","","","",""
"","S2","","html-keyboard-response","287","314211","0.0-1.0-391.0","0","0","72801","","null","","","null","43","","NaN","","","","","","","","","","","","","",""
"","response","","html-keyboard-response","288","314704","0.0-1.0-392.0-0.0","0","0","72801","","491","","","75","43","","","1","43","training","adjacent","BC","2","3","L.jpg","O.jpg","1","1","1","",""
"","feedback","","html-keyboard-response","289","315708","0.0-1.0-393.0-0.0","0","0","72801","","null","","","null","43","","","","","","","","","","","","","","","",""
"","ITI","","html-keyboard-response","290","316713","0.0-1.0-396.0","0","0","72801","","null","","","null","43","","","","","","","","","","","","","","","NaN",""
"","S1","","html-keyboard-response","291","316968","0.0-1.0-398.0","0","0","72801","","null","","","null","44","","","","","","","","","","","","","","","",""
"","ISI","","html-keyboard-response","292","317125","0.0-1.0-399.0","0","0","72801","","null","","","null","44","NaN","","","","","","","","","","","","","","",""
"","S2","","html-keyboard-response","293","317380","0.0-1.0-400.0","0","0","72801","","null","","","null","44","","NaN","","","","","","","","","","","","","",""
"","response","","html-keyboard-response","294","317814","0.0-1.0-401.0-0.0","0","0","72801","","431","","","75","44","","","1","44","training","adjacent","FG","6","7","N.jpg","P.jpg","1","1","1","",""
"","feedback","","html-keyboard-response","295","318820","0.0-1.0-402.0-0.0","0","0","72801","","null","","","null","44","","","","","","","","","","","","","","","",""
"","ITI","","html-keyboard-response","296","319824","0.0-1.0-405.0","0","0","72801","","null","","","null","44","","","","","","","","","","","","","","","NaN",""
"","S1","","html-keyboard-response","297","320079","0.0-1.0-407.0","0","0","72801","","null","","","null","45","","","","","","","","","","","","","","","",""
"","ISI","","html-keyboard-response","298","320236","0.0-1.0-408.0","0","0","72801","","null","","","null","45","NaN","","","","","","","","","","","","","","",""
"","S2","","html-keyboard-response","299","320492","0.0-1.0-409.0","0","0","72801","","null","","","null","45","","NaN","","","","","","","","","","","","","",""
"","response","","html-keyboard-response","300","321136","0.0-1.0-410.0-0.0","0","0","72801","","643","","","75","45","","","1","45","training","adjacent","GF","7","6","P.jpg","N.jpg","1","0","0","",""
"","feedback","","html-keyboard-response","301","322140","0.0-1.0-411.0-0.0","0","0","72801","","null","","","null","45","","","","","","","","","","","","","","","",""
"","time_out","","html-keyboard-response","302","324143","0.0-1.0-413.0-0.0","0","0","72801","","null","","","null","45","","","","","","","","","","","","","","","",""
"","ITI","","html-keyboard-response","303","325147","0.0-1.0-414.0","0","0","72801","","null","","","null","45","","","","","","","","","","","","","","","NaN",""
"","S1","","html-keyboard-response","304","325402","0.0-1.0-416.0","0","0","72801","","null","","","null","46","","","","","","","","","","","","","","","",""
"","ISI","","html-keyboard-response","305","325559","0.0-1.0-417.0","0","0","72801","","null","","","null","46","NaN","","","","","","","","","","","","","","",""
"","S2","","html-keyboard-response","306","325815","0.0-1.0-418.0","0","0","72801","","null","","","null","46","","NaN","","","","","","","","","","","","","",""
"","response","","html-keyboard-response","307","326286","0.0-1.0-419.0-0.0","0","0","72801","","470","","","75","46","","","1","46","training","adjacent","FE","6","5","N.jpg","M.jpg","1","0","0","",""
"","feedback","","html-keyboard-response","308","327289","0.0-1.0-420.0-0.0","0","0","72801","","null","","","null","46","","","","","","","","","","","","","","","",""
"","time_out","","html-keyboard-response","309","329291","0.0-1.0-422.0-0.0","0","0","72801","","null","","","null","46","","","","","","","","","","","","","","","",""
"","ITI","","html-keyboard-response","310","330296","0.0-1.0-423.0","0","0","72801","","null","","","null","46","","","","","","","","","","","","","","","NaN",""
"","S1","","html-keyboard-response","311","330551","0.0-1.0-425.0","0","0","72801","","null","","","null","47","","","","","","","","","","","","","","","",""
"","ISI","","html-keyboard-response","312","330708","0.0-1.0-426.0","0","0","72801","","null","","","null","47","NaN","","","","","","","","","","","","","","",""
"","S2","","html-keyboard-response","313","330963","0.0-1.0-427.0","0","0","72801","","null","","","null","47","","NaN","","","","","","","","","","","","","",""
"","response","","html-keyboard-response","314","331533","0.0-1.0-428.0-0.0","0","0","72801","","568","","","68","47","","","1","47","training","adjacent","AB","1","2","Q.jpg","L.jpg","0","1","0","",""
"","feedback","","html-keyboard-response","315","332536","0.0-1.0-429.0-0.0","0","0","72801","","null","","","null","47","","","","","","","","","","","","","","","",""
"","time_out","","html-keyboard-response","316","334540","0.0-1.0-431.0-0.0","0","0","72801","","null","","","null","47","","","","","","","","","","","","","","","",""
"","ITI","","html-keyboard-response","317","335543","0.0-1.0-432.0","0","0","72801","","null","","","null","47","","","","","","","","","","","","","","","NaN",""
"","block_over","","html-keyboard-response","318","339741","0.0-1.0-433.0-0.0","0","0","72801","","4195","","","32","47","","","","","","","","","","","","","","","",""
"","S1","","html-keyboard-response","319","339996","0.0-1.0-434.0","0","0","72801","","null","","","null","48","","","","","","","","","","","","","","","",""
"","ISI","","html-keyboard-response","320","340152","0.0-1.0-435.0","0","0","72801","","null","","","null","48","NaN","","","","","","","","","","","","","","",""
"","S2","","html-keyboard-response","321","340408","0.0-1.0-436.0","0","0","72801","","null","","","null","48","","NaN","","","","","","","","","","","","","",""
"","response","","html-keyboard-response","322","340861","0.0-1.0-437.0-0.0","0","0","72801","","451","","","75","48","","","2","48","training","adjacent","ED","5","4","M.jpg","R.jpg","1","0","0","",""
"","feedback","","html-keyboard-response","323","341865","0.0-1.0-438.0-0.0","0","0","72801","","null","","","null","48","","","","","","","","","","","","","","","",""
"","time_out","","html-keyboard-response","324","343867","0.0-1.0-440.0-0.0","0","0","72801","","null","","","null","48","","","","","","","","","","","","","","","",""
"","ITI","","html-keyboard-response","325","344872","0.0-1.0-441.0","0","0","72801","","null","","","null","48","","","","","","","","","","","","","","","NaN",""
"","S1","","html-keyboard-response","326","345126","0.0-1.0-443.0","0","0","72801","","null","","","null","49","","","","","","","","","","","","","","","",""
"","ISI","","html-keyboard-response","327","345278","0.0-1.0-444.0","0","0","72801","","null","","","null","49","NaN","","","","","","","","","","","","","","",""
"","S2","","html-keyboard-response","328","345533","0.0-1.0-445.0","0","0","72801","","null","","","null","49","","NaN","","","","","","","","","","","","","",""
"","response","","html-keyboard-response","329","345864","0.0-1.0-446.0-0.0","0","0","72801","","325","","","68","49","","","2","49","training","adjacent","BC","2","3","L.jpg","O.jpg","0","1","0","",""
"","feedback","","html-keyboard-response","330","346869","0.0-1.0-447.0-0.0","0","0","72801","","null","","","null","49","","","","","","","","","","","","","","","",""
"","time_out","","html-keyboard-response","331","348874","0.0-1.0-449.0-0.0","0","0","72801","","null","","","null","49","","","","","","","","","","","","","","","",""
"","ITI","","html-keyboard-response","332","349880","0.0-1.0-450.0","0","0","72801","","null","","","null","49","","","","","","","","","","","","","","","NaN",""
"","S1","","html-keyboard-response","333","350137","0.0-1.0-452.0","0","0","72801","","null","","","null","50","","","","","","","","","","","","","","","",""
"","ISI","","html-keyboard-response","334","350293","0.0-1.0-453.0","0","0","72801","","null","","","null","50","NaN","","","","","","","","","","","","","","",""
"","S2","","html-keyboard-response","335","350549","0.0-1.0-454.0","0","0","72801","","null","","","null","50","","NaN","","","","","","","","","","","","","",""
"","response","","html-keyboard-response","336","350901","0.0-1.0-455.0-0.0","0","0","72801","","350","","","75","50","","","2","50","training","adjacent","AB","1","2","Q.jpg","L.jpg","1","1","1","",""
"","feedback","","html-keyboard-response","337","351906","0.0-1.0-456.0-0.0","0","0","72801","","null","","","null","50","","","","","","","","","","","","","","","",""
"","ITI","","html-keyboard-response","338","352911","0.0-1.0-459.0","0","0","72801","","null","","","null","50","","","","","","","","","","","","","","","NaN",""
"","S1","","html-keyboard-response","339","353167","0.0-1.0-461.0","0","0","72801","","null","","","null","51","","","","","","","","","","","","","","","",""
"","ISI","","html-keyboard-response","340","353323","0.0-1.0-462.0","0","0","72801","","null","","","null","51","NaN","","","","","","","","","","","","","","",""
"","S2","","html-keyboard-response","341","353579","0.0-1.0-463.0","0","0","72801","","null","","","null","51","","NaN","","","","","","","","","","","","","",""
"","response","","html-keyboard-response","342","353943","0.0-1.0-464.0-0.0","0","0","72801","","363","","","75","51","","","2","51","training","adjacent","BA","2","1","L.jpg","Q.jpg","1","0","0","",""
"","feedback","","html-keyboard-response","343","354949","0.0-1.0-465.0-0.0","0","0","72801","","null","","","null","51","","","","","","","","","","","","","","","",""
"","time_out","","html-keyboard-response","344","356951","0.0-1.0-467.0-0.0","0","0","72801","","null","","","null","51","","","","","","","","","","","","","","","",""
"","ITI","","html-keyboard-response","345","357956","0.0-1.0-468.0","0","0","72801","","null","","","null","51","","","","","","","","","","","","","","","NaN",""
"","S1","","html-keyboard-response","346","358211","0.0-1.0-470.0","0","0","72801","","null","","","null","52","","","","","","","","","","","","","","","",""
"","ISI","","html-keyboard-response","347","358368","0.0-1.0-471.0","0","0","72801","","null","","","null","52","NaN","","","","","","","","","","","","","","",""
"","S2","","html-keyboard-response","348","358623","0.0-1.0-472.0","0","0","72801","","null","","","null","52","","NaN","","","","","","","","","","","","","",""
"","response","","html-keyboard-response","349","358908","0.0-1.0-473.0-0.0","0","0","72801","","283","","","75","52","","","2","52","training","adjacent","BA","2","1","L.jpg","Q.jpg","1","0","0","",""
"","feedback","","html-keyboard-response","350","359912","0.0-1.0-474.0-0.0","0","0","72801","","null","","","null","52","","","","","","","","","","","","","","","",""
"","time_out","","html-keyboard-response","351","361914","0.0-1.0-476.0-0.0","0","0","72801","","null","","","null","52","","","","","","","","","","","","","","","",""
"","ITI","","html-keyboard-response","352","362919","0.0-1.0-477.0","0","0","72801","","null","","","null","52","","","","","","","","","","","","","","","NaN",""
"","S1","","html-keyboard-response","353","363174","0.0-1.0-479.0","0","0","72801","","null","","","null","53","","","","","","","","","","","","","","","",""
"","ISI","","html-keyboard-response","354","363331","0.0-1.0-480.0","0","0","72801","","null","","","null","53","NaN","","","","","","","","","","","","","","",""
"","S2","","html-keyboard-response","355","363586","0.0-1.0-481.0","0","0","72801","","null","","","null","53","","NaN","","","","","","","","","","","","","",""
"","response","","html-keyboard-response","356","363934","0.0-1.0-482.0-0.0","0","0","72801","","346","","","75","53","","","2","53","training","adjacent","CD","3","4","O.jpg","R.jpg","1","1","1","",""
"","feedback","","html-keyboard-response","357","364939","0.0-1.0-483.0-0.0","0","0","72801","","null","","","null","53","","","","","","","","","","","","","","","",""
"","ITI","","html-keyboard-response","358","365943","0.0-1.0-486.0","0","0","72801","","null","","","null","53","","","","","","","","","","","","","","","NaN",""
"","S1","","html-keyboard-response","359","366198","0.0-1.0-488.0","0","0","72801","","null","","","null","54","","","","","","","","","","","","","","","",""
"","ISI","","html-keyboard-response","360","366355","0.0-1.0-489.0","0","0","72801","","null","","","null","54","NaN","","","","","","","","","","","","","","",""
"","S2","","html-keyboard-response","361","366610","0.0-1.0-490.0","0","0","72801","","null","","","null","54","","NaN","","","","","","","","","","","","","",""
"","response","","html-keyboard-response","362","367126","0.0-1.0-491.0-0.0","0","0","72801","","513","","","75","54","","","2","54","training","adjacent","BA","2","1","L.jpg","Q.jpg","1","0","0","",""
"","feedback","","html-keyboard-response","363","368131","0.0-1.0-492.0-0.0","0","0","72801","","null","","","null","54","","","","","","","","","","","","","","","",""
"","time_out","","html-keyboard-response","364","370134","0.0-1.0-494.0-0.0","0","0","72801","","null","","","null","54","","","","","","","","","","","","","","","",""
"","ITI","","html-keyboard-response","365","371138","0.0-1.0-495.0","0","0","72801","","null","","","null","54","","","","","","","","","","","","","","","NaN",""
"","S1","","html-keyboard-response","366","371394","0.0-1.0-497.0","0","0","72801","","null","","","null","55","","","","","","","","","","","","","","","",""
"","ISI","","html-keyboard-response","367","371550","0.0-1.0-498.0","0","0","72801","","null","","","null","55","NaN","","","","","","","","","","","","","","",""
"","S2","","html-keyboard-response","368","371806","0.0-1.0-499.0","0","0","72801","","null","","","null","55","","NaN","","","","","","","","","","","","","",""
"","response","","html-keyboard-response","369","372246","0.0-1.0-500.0-0.0","0","0","72801","","439","","","75","55","","","2","55","training","adjacent","CB","3","2","O.jpg","L.jpg","1","0","0","",""
"","feedback","","html-keyboard-response","370","373251","0.0-1.0-501.0-0.0","0","0","72801","","null","","","null","55","","","","","","","","","","","","","","","",""
"","time_out","","html-keyboard-response","371","375253","0.0-1.0-503.0-0.0","0","0","72801","","null","","","null","55","","","","","","","","","","","","","","","",""
"","ITI","","html-keyboard-response","372","376258","0.0-1.0-504.0","0","0","72801","","null","","","null","55","","","","","","","","","","","","","","","NaN",""
"","S1","","html-keyboard-response","373","376513","0.0-1.0-506.0","0","0","72801","","null","","","null","56","","","","","","","","","","","","","","","",""
"","ISI","","html-keyboard-response","374","376670","0.0-1.0-507.0","0","0","72801","","null","","","null","56","NaN","","","","","","","","","","","","","","",""
"","S2","","html-keyboard-response","375","376925","0.0-1.0-508.0","0","0","72801","","null","","","null","56","","NaN","","","","","","","","","","","","","",""
"","response","","html-keyboard-response","376","377284","0.0-1.0-509.0-0.0","0","0","72801","","357","","","75","56","","","2","56","training","adjacent","EF","5","6","M.jpg","N.jpg","1","1","1","",""
"","feedback","","html-keyboard-response","377","378290","0.0-1.0-510.0-0.0","0","0","72801","","null","","","null","56","","","","","","","","","","","","","","","",""
"","ITI","","html-keyboard-response","378","379294","0.0-1.0-513.0","0","0","72801","","null","","","null","56","","","","","","","","","","","","","","","NaN",""
"","S1","","html-keyboard-response","379","379549","0.0-1.0-515.0","0","0","72801","","null","","","null","57","","","","","","","","","","","","","","","",""
"","ISI","","html-keyboard-response","380","379706","0.0-1.0-516.0","0","0","72801","","null","","","null","57","NaN","","","","","","","","","","","","","","",""
"","S2","","html-keyboard-response","381","379961","0.0-1.0-517.0","0","0","72801","","null","","","null","57","","NaN","","","","","","","","","","","","","",""
"","response","","html-keyboard-response","382","380478","0.0-1.0-518.0-0.0","0","0","72801","","515","","","75","57","","","2","57","training","adjacent","CD","3","4","O.jpg","R.jpg","1","1","1","",""
"","feedback","","html-keyboard-response","383","381482","0.0-1.0-519.0-0.0","0","0","72801","","null","","","null","57","","","","","","","","","","","","","","","",""
"","ITI","","html-keyboard-response","384","382487","0.0-1.0-522.0","0","0","72801","","null","","","null","57","","","","","","","","","","","","","","","NaN",""
"","S1","","html-keyboard-response","385","382742","0.0-1.0-524.0","0","0","72801","","null","","","null","58","","","","","","","","","","","","","","","",""
"","ISI","","html-keyboard-response","386","382899","0.0-1.0-525.0","0","0","72801","","null","","","null","58","NaN","","","","","","","","","","","","","","",""
"","S2","","html-keyboard-response","387","383154","0.0-1.0-526.0","0","0","72801","","null","","","null","58","","NaN","","","","","","","","","","","","","",""
"","response","","html-keyboard-response","388","383579","0.0-1.0-527.0-0.0","0","0","72801","","423","","","75","58","","","2","58","training","adjacent","DC","4","3","R.jpg","O.jpg","1","0","0","",""
"","feedback","","html-keyboard-response","389","384586","0.0-1.0-528.0-0.0","0","0","72801","","null","","","null","58","","","","","","","","","","","","","","","",""
"","time_out","","html-keyboard-response","390","386590","0.0-1.0-530.0-0.0","0","0","72801","","null","","","null","58","","","","","","","","","","","","","","","",""
"","ITI","","html-keyboard-response","391","387595","0.0-1.0-531.0","0","0","72801","","null","","","null","58","","","","","","","","","","","","","","","NaN",""
"","S1","","html-keyboard-response","392","387850","0.0-1.0-533.0","0","0","72801","","null","","","null","59","","","","","","","","","","","","","","","",""
"","ISI","","html-keyboard-response","393","388007","0.0-1.0-534.0","0","0","72801","","null","","","null","59","NaN","","","","","","","","","","","","","","",""
"","S2","","html-keyboard-response","394","388262","0.0-1.0-535.0","0","0","72801","","null","","","null","59","","NaN","","","","","","","","","","","","","",""
"","response","","html-keyboard-response","395","388710","0.0-1.0-536.0-0.0","0","0","72801","","446","","","75","59","","","2","59","training","adjacent","ED","5","4","M.jpg","R.jpg","1","0","0","",""
"","feedback","","html-keyboard-response","396","389713","0.0-1.0-537.0-0.0","0","0","72801","","null","","","null","59","","","","","","","","","","","","","","","",""
"","time_out","","html-keyboard-response","397","391720","0.0-1.0-539.0-0.0","0","0","72801","","null","","","null","59","","","","","","","","","","","","","","","",""
"","ITI","","html-keyboard-response","398","392726","0.0-1.0-540.0","0","0","72801","","null","","","null","59","","","","","","","","","","","","","","","NaN",""
"","S1","","html-keyboard-response","399","392981","0.0-1.0-542.0","0","0","72801","","null","","","null","60","","","","","","","","","","","","","","","",""
"","ISI","","html-keyboard-response","400","393138","0.0-1.0-543.0","0","0","72801","","null","","","null","60","NaN","","","","","","","","","","","","","","",""
"","S2","","html-keyboard-response","401","393394","0.0-1.0-544.0","0","0","72801","","null","","","null","60","","NaN","","","","","","","","","","","","","",""
"","response","","html-keyboard-response","402","393867","0.0-1.0-545.0-0.0","0","0","72801","","471","","","75","60","","","2","60","training","adjacent","ED","5","4","M.jpg","R.jpg","1","0","0","",""
"","feedback","","html-keyboard-response","403","394874","0.0-1.0-546.0-0.0","0","0","72801","","null","","","null","60","","","","","","","","","","","","","","","",""
"","time_out","","html-keyboard-response","404","396877","0.0-1.0-548.0-0.0","0","0","72801","","null","","","null","60","","","","","","","","","","","","","","","",""
"","ITI","","html-keyboard-response","405","397881","0.0-1.0-549.0","0","0","72801","","null","","","null","60","","","","","","","","","","","","","","","NaN",""
"","S1","","html-keyboard-response","406","398136","0.0-1.0-551.0","0","0","72801","","null","","","null","61","","","","","","","","","","","","","","","",""
"","ISI","","html-keyboard-response","407","398293","0.0-1.0-552.0","0","0","72801","","null","","","null","61","NaN","","","","","","","","","","","","","","",""
"","S2","","html-keyboard-response","408","398548","0.0-1.0-553.0","0","0","72801","","null","","","null","61","","NaN","","","","","","","","","","","","","",""
"","response","","html-keyboard-response","409","398917","0.0-1.0-554.0-0.0","0","0","72801","","367","","","75","61","","","2","61","training","adjacent","FE","6","5","N.jpg","M.jpg","1","0","0","",""
"","feedback","","html-keyboard-response","410","399924","0.0-1.0-555.0-0.0","0","0","72801","","null","","","null","61","","","","","","","","","","","","","","","",""
"","time_out","","html-keyboard-response","411","401927","0.0-1.0-557.0-0.0","0","0","72801","","null","","","null","61","","","","","","","","","","","","","","","",""
"","ITI","","html-keyboard-response","412","402931","0.0-1.0-558.0","0","0","72801","","null","","","null","61","","","","","","","","","","","","","","","NaN",""
"","S1","","html-keyboard-response","413","403186","0.0-1.0-560.0","0","0","72801","","null","","","null","62","","","","","","","","","","","","","","","",""
"","ISI","","html-keyboard-response","414","403343","0.0-1.0-561.0","0","0","72801","","null","","","null","62","NaN","","","","","","","","","","","","","","",""
"","S2","","html-keyboard-response","415","403598","0.0-1.0-562.0","0","0","72801","","null","","","null","62","","NaN","","","","","","","","","","","","","",""
"","response","","html-keyboard-response","416","403978","0.0-1.0-563.0-0.0","0","0","72801","","378","","","68","62","","","2","62","training","adjacent","BA","2","1","L.jpg","Q.jpg","0","0","1","",""
"","feedback","","html-keyboard-response","417","404983","0.0-1.0-564.0-0.0","0","0","72801","","null","","","null","62","","","","","","","","","","","","","","","",""
"","ITI","","html-keyboard-response","418","405989","0.0-1.0-567.0","0","0","72801","","null","","","null","62","","","","","","","","","","","","","","","NaN",""
"","S1","","html-keyboard-response","419","406245","0.0-1.0-569.0","0","0","72801","","null","","","null","63","","","","","","","","","","","","","","","",""
"","ISI","","html-keyboard-response","420","406402","0.0-1.0-570.0","0","0","72801","","null","","","null","63","NaN","","","","","","","","","","","","","","",""
"","S2","","html-keyboard-response","421","406657","0.0-1.0-571.0","0","0","72801","","null","","","null","63","","NaN","","","","","","","","","","","","","",""
"","response","","html-keyboard-response","422","407150","0.0-1.0-572.0-0.0","0","0","72801","","490","","","68","63","","","2","63","training","adjacent","DE","4","5","R.jpg","M.jpg","0","1","0","",""
"","feedback","","html-keyboard-response","423","408155","0.0-1.0-573.0-0.0","0","0","72801","","null","","","null","63","","","","","","","","","","","","","","","",""
"","time_out","","html-keyboard-response","424","410158","0.0-1.0-575.0-0.0","0","0","72801","","null","","","null","63","","","","","","","","","","","","","","","",""
"","ITI","","html-keyboard-response","425","411162","0.0-1.0-576.0","0","0","72801","","null","","","null","63","","","","","","","","","","","","","","","NaN",""
"","S1","","html-keyboard-response","426","411417","0.0-1.0-578.0","0","0","72801","","null","","","null","64","","","","","","","","","","","","","","","",""
"","ISI","","html-keyboard-response","427","411574","0.0-1.0-579.0","0","0","72801","","null","","","null","64","NaN","","","","","","","","","","","","","","",""
"","S2","","html-keyboard-response","428","411829","0.0-1.0-580.0","0","0","72801","","null","","","null","64","","NaN","","","","","","","","","","","","","",""
"","response","","html-keyboard-response","429","412058","0.0-1.0-581.0-0.0","0","0","72801","","226","","","68","64","","","2","64","training","adjacent","AB","1","2","Q.jpg","L.jpg","0","1","0","",""
"","feedback","","html-keyboard-response","430","413061","0.0-1.0-582.0-0.0","0","0","72801","","null","","","null","64","","","","","","","","","","","","","","","",""
"","time_out","","html-keyboard-response","431","415069","0.0-1.0-584.0-0.0","0","0","72801","","null","","","null","64","","","","","","","","","","","","","","","",""
"","ITI","","html-keyboard-response","432","416073","0.0-1.0-585.0","0","0","72801","","null","","","null","64","","","","","","","","","","","","","","","NaN",""
"","S1","","html-keyboard-response","433","416328","0.0-1.0-587.0","0","0","72801","","null","","","null","65","","","","","","","","","","","","","","","",""
"","ISI","","html-keyboard-response","434","416483","0.0-1.0-588.0","0","0","72801","","null","","","null","65","NaN","","","","","","","","","","","","","","",""
"","S2","","html-keyboard-response","435","416740","0.0-1.0-589.0","0","0","72801","","null","","","null","65","","NaN","","","","","","","","","","","","","",""
"","response","","html-keyboard-response","436","417074","0.0-1.0-590.0-0.0","0","0","72801","","331","","","75","65","","","2","65","training","adjacent","FE","6","5","N.jpg","M.jpg","1","0","0","",""
"","feedback","","html-keyboard-response","437","418079","0.0-1.0-591.0-0.0","0","0","72801","","null","","","null","65","","","","","","","","","","","","","","","",""
"","time_out","","html-keyboard-response","438","420084","0.0-1.0-593.0-0.0","0","0","72801","","null","","","null","65","","","","","","","","","","","","","","","",""
"","ITI","","html-keyboard-response","439","421088","0.0-1.0-594.0","0","0","72801","","null","","","null","65","","","","","","","","","","","","","","","NaN",""
"","S1","","html-keyboard-response","440","421344","0.0-1.0-596.0","0","0","72801","","null","","","null","66","","","","","","","","","","","","","","","",""
"","ISI","","html-keyboard-response","441","421497","0.0-1.0-597.0","0","0","72801","","144","","","68","66","d","","","","","","","","","","","","","","",""
"","S2","","html-keyboard-response","442","421750","0.0-1.0-598.0","0","0","72801","","null","","","null","66","","NaN","","","","","","","","","","","","","",""
"","response","","html-keyboard-response","443","422268","0.0-1.0-599.0-0.0","0","0","72801","","516","","","68","66","","","2","66","training","adjacent","FG","6","7","N.jpg","P.jpg","0","1","0","",""
"","feedback","","html-keyboard-response","444","423271","0.0-1.0-600.0-0.0","0","0","72801","","null","","","null","66","","","","","","","","","","","","","","","",""
"","time_out","","html-keyboard-response","445","425273","0.0-1.0-602.0-0.0","0","0","72801","","null","","","null","66","","","","","","","","","","","","","","","",""
"","ITI","","html-keyboard-response","446","426278","0.0-1.0-603.0","0","0","72801","","null","","","null","66","","","","","","","","","","","","","","","NaN",""
"","S1","","html-keyboard-response","447","426533","0.0-1.0-605.0","0","0","72801","","null","","","null","67","","","","","","","","","","","","","","","",""
"","ISI","","html-keyboard-response","448","426690","0.0-1.0-606.0","0","0","72801","","null","","","null","67","NaN","","","","","","","","","","","","","","",""
"","S2","","html-keyboard-response","449","426945","0.0-1.0-607.0","0","0","72801","","null","","","null","67","","NaN","","","","","","","","","","","","","",""
"","response","","html-keyboard-response","450","427305","0.0-1.0-608.0-0.0","0","0","72801","","358","","","75","67","","","2","67","training","adjacent","FE","6","5","N.jpg","M.jpg","1","0","0","",""
"","feedback","","html-keyboard-response","451","428309","0.0-1.0-609.0-0.0","0","0","72801","","null","","","null","67","","","","","","","","","","","","","","","",""
"","time_out","","html-keyboard-response","452","430312","0.0-1.0-611.0-0.0","0","0","72801","","null","","","null","67","","","","","","","","","","","","","","","",""
"","ITI","","html-keyboard-response","453","431319","0.0-1.0-612.0","0","0","72801","","null","","","null","67","","","","","","","","","","","","","","","NaN",""
"","S1","","html-keyboard-response","454","431571","0.0-1.0-614.0","0","0","72801","","null","","","null","68","","","","","","","","","","","","","","","",""
"","ISI","","html-keyboard-response","455","431728","0.0-1.0-615.0","0","0","72801","","null","","","null","68","NaN","","","","","","","","","","","","","","",""
"","S2","","html-keyboard-response","456","431984","0.0-1.0-616.0","0","0","72801","","null","","","null","68","","NaN","","","","","","","","","","","","","",""
"","response","","html-keyboard-response","457","432411","0.0-1.0-617.0-0.0","0","0","72801","","426","","","75","68","","","2","68","training","adjacent","DC","4","3","R.jpg","O.jpg","1","0","0","",""
"","feedback","","html-keyboard-response","458","433417","0.0-1.0-618.0-0.0","0","0","72801","","null","","","null","68","","","","","","","","","","","","","","","",""
"","time_out","","html-keyboard-response","459","435420","0.0-1.0-620.0-0.0","0","0","72801","","null","","","null","68","","","","","","","","","","","","","","","",""
"","ITI","","html-keyboard-response","460","436424","0.0-1.0-621.0","0","0","72801","","null","","","null","68","","","","","","","","","","","","","","","NaN",""
"","S1","","html-keyboard-response","461","436680","0.0-1.0-623.0","0","0","72801","","null","","","null","69","","","","","","","","","","","","","","","",""
"","ISI","","html-keyboard-response","462","436836","0.0-1.0-624.0","0","0","72801","","null","","","null","69","NaN","","","","","","","","","","","","","","",""
"","S2","","html-keyboard-response","463","437092","0.0-1.0-625.0","0","0","72801","","null","","","null","69","","NaN","","","","","","","","","","","","","",""
"","response","","html-keyboard-response","464","437505","0.0-1.0-626.0-0.0","0","0","72801","","410","","","75","69","","","2","69","training","adjacent","GF","7","6","P.jpg","N.jpg","1","0","0","",""
"","feedback","","html-keyboard-response","465","438508","0.0-1.0-627.0-0.0","0","0","72801","","null","","","null","69","","","","","","","","","","","","","","","",""
"","time_out","","html-keyboard-response","466","440511","0.0-1.0-629.0-0.0","0","0","72801","","null","","","null","69","","","","","","","","","","","","","","","",""
"","ITI","","html-keyboard-response","467","441517","0.0-1.0-630.0","0","0","72801","","null","","","null","69","","","","","","","","","","","","","","","NaN",""
"","S1","","html-keyboard-response","468","441770","0.0-1.0-632.0","0","0","72801","","null","","","null","70","","","","","","","","","","","","","","","",""
"","ISI","","html-keyboard-response","469","441927","0.0-1.0-633.0","0","0","72801","","null","","","null","70","NaN","","","","","","","","","","","","","","",""
"","S2","","html-keyboard-response","470","442182","0.0-1.0-634.0","0","0","72801","","null","","","null","70","","NaN","","","","","","","","","","","","","",""
"","response","","html-keyboard-response","471","442546","0.0-1.0-635.0-0.0","0","0","72801","","362","","","75","70","","","2","70","training","adjacent","DE","4","5","R.jpg","M.jpg","1","1","1","",""
"","feedback","","html-keyboard-response","472","443553","0.0-1.0-636.0-0.0","0","0","72801","","null","","","null","70","","","","","","","","","","","","","","","",""
"","ITI","","html-keyboard-response","473","444557","0.0-1.0-639.0","0","0","72801","","null","","","null","70","","","","","","","","","","","","","","","NaN",""
"","S1","","html-keyboard-response","474","444812","0.0-1.0-641.0","0","0","72801","","null","","","null","71","","","","","","","","","","","","","","","",""
"","ISI","","html-keyboard-response","475","444969","0.0-1.0-642.0","0","0","72801","","null","","","null","71","NaN","","","","","","","","","","","","","","",""
"","S2","","html-keyboard-response","476","445224","0.0-1.0-643.0","0","0","72801","","null","","","null","71","","NaN","","","","","","","","","","","","","",""
"","response","","html-keyboard-response","477","445632","0.0-1.0-644.0-0.0","0","0","72801","","406","","","75","71","","","2","71","training","adjacent","BC","2","3","L.jpg","O.jpg","1","1","1","",""
"","feedback","","html-keyboard-response","478","446638","0.0-1.0-645.0-0.0","0","0","72801","","null","","","null","71","","","","","","","","","","","","","","","",""
"","ITI","","html-keyboard-response","479","447645","0.0-1.0-648.0","0","0","72801","","null","","","null","71","","","","","","","","","","","","","","","NaN",""
"","S1","","html-keyboard-response","480","447900","0.0-1.0-650.0","0","0","72801","","null","","","null","72","","","","","","","","","","","","","","","",""
"","ISI","","html-keyboard-response","481","448057","0.0-1.0-651.0","0","0","72801","","null","","","null","72","NaN","","","","","","","","","","","","","","",""
"","S2","","html-keyboard-response","482","448312","0.0-1.0-652.0","0","0","72801","","null","","","null","72","","NaN","","","","","","","","","","","","","",""
"","response","","html-keyboard-response","483","448723","0.0-1.0-653.0-0.0","0","0","72801","","409","","","75","72","","","2","72","training","adjacent","FG","6","7","N.jpg","P.jpg","1","1","1","",""
"","feedback","","html-keyboard-response","484","449729","0.0-1.0-654.0-0.0","0","0","72801","","null","","","null","72","","","","","","","","","","","","","","","",""
"","ITI","","html-keyboard-response","485","450733","0.0-1.0-657.0","0","0","72801","","null","","","null","72","","","","","","","","","","","","","","","NaN",""
"","S1","","html-keyboard-response","486","450988","0.0-1.0-659.0","0","0","72801","","null","","","null","73","","","","","","","","","","","","","","","",""
"","ISI","","html-keyboard-response","487","451145","0.0-1.0-660.0","0","0","72801","","null","","","null","73","NaN","","","","","","","","","","","","","","",""
"","S2","","html-keyboard-response","488","451400","0.0-1.0-661.0","0","0","72801","","null","","","null","73","","NaN","","","","","","","","","","","","","",""
"","response","","html-keyboard-response","489","451752","0.0-1.0-662.0-0.0","0","0","72801","","350","","","75","73","","","2","73","training","adjacent","GF","7","6","P.jpg","N.jpg","1","0","0","",""
"","feedback","","html-keyboard-response","490","452759","0.0-1.0-663.0-0.0","0","0","72801","","null","","","null","73","","","","","","","","","","","","","","","",""
"","time_out","","html-keyboard-response","491","454764","0.0-1.0-665.0-0.0","0","0","72801","","null","","","null","73","","","","","","","","","","","","","","","",""
"","ITI","","html-keyboard-response","492","455769","0.0-1.0-666.0","0","0","72801","","null","","","null","73","","","","","","","","","","","","","","","NaN",""
"","S1","","html-keyboard-response","493","456033","0.0-1.0-668.0","0","0","72801","","null","","","null","74","","","","","","","","","","","","","","","",""
"","ISI","","html-keyboard-response","494","456189","0.0-1.0-669.0","0","0","72801","","null","","","null","74","NaN","","","","","","","","","","","","","","",""
"","S2","","html-keyboard-response","495","456445","0.0-1.0-670.0","0","0","72801","","null","","","null","74","","NaN","","","","","","","","","","","","","",""
"","response","","html-keyboard-response","496","456882","0.0-1.0-671.0-0.0","0","0","72801","","435","","","75","74","","","2","74","training","adjacent","DE","4","5","R.jpg","M.jpg","1","1","1","",""
"","feedback","","html-keyboard-response","497","457888","0.0-1.0-672.0-0.0","0","0","72801","","null","","","null","74","","","","","","","","","","","","","","","",""
"","ITI","","html-keyboard-response","498","458894","0.0-1.0-675.0","0","0","72801","","null","","","null","74","","","","","","","","","","","","","","","NaN",""
"","S1","","html-keyboard-response","499","459150","0.0-1.0-677.0","0","0","72801","","null","","","null","75","","","","","","","","","","","","","","","",""
"","ISI","","html-keyboard-response","500","459306","0.0-1.0-678.0","0","0","72801","","null","","","null","75","NaN","","","","","","","","","","","","","","",""
"","S2","","html-keyboard-response","501","459562","0.0-1.0-679.0","0","0","72801","","null","","","null","75","","NaN","","","","","","","","","","","","","",""
"","response","","html-keyboard-response","502","460464","0.0-1.0-680.0-0.0","0","0","72801","","900","","","75","75","","","2","75","training","adjacent","CB","3","2","O.jpg","L.jpg","1","0","0","",""
"","feedback","","html-keyboard-response","503","461467","0.0-1.0-681.0-0.0","0","0","72801","","null","","","null","75","","","","","","","","","","","","","","","",""
"","time_out","","html-keyboard-response","504","463470","0.0-1.0-683.0-0.0","0","0","72801","","null","","","null","75","","","","","","","","","","","","","","","",""
"","ITI","","html-keyboard-response","505","464473","0.0-1.0-684.0","0","0","72801","","null","","","null","75","","","","","","","","","","","","","","","NaN",""
"","S1","","html-keyboard-response","506","464728","0.0-1.0-686.0","0","0","72801","","null","","","null","76","","","","","","","","","","","","","","","",""
"","ISI","","html-keyboard-response","507","464885","0.0-1.0-687.0","0","0","72801","","null","","","null","76","NaN","","","","","","","","","","","","","","",""
"","S2","","html-keyboard-response","508","465141","0.0-1.0-688.0","0","0","72801","","null","","","null","76","","NaN","","","","","","","","","","","","","",""
"","response","","html-keyboard-response","509","465626","0.0-1.0-689.0-0.0","0","0","72801","","484","","","75","76","","","2","76","training","adjacent","DE","4","5","R.jpg","M.jpg","1","1","1","",""
"","feedback","","html-keyboard-response","510","466632","0.0-1.0-690.0-0.0","0","0","72801","","null","","","null","76","","","","","","","","","","","","","","","",""
"","ITI","","html-keyboard-response","511","467636","0.0-1.0-693.0","0","0","72801","","null","","","null","76","","","","","","","","","","","","","","","NaN",""
"","S1","","html-keyboard-response","512","467892","0.0-1.0-695.0","0","0","72801","","null","","","null","77","","","","","","","","","","","","","","","",""
"","ISI","","html-keyboard-response","513","468048","0.0-1.0-696.0","0","0","72801","","null","","","null","77","NaN","","","","","","","","","","","","","","",""
"","S2","","html-keyboard-response","514","468304","0.0-1.0-697.0","0","0","72801","","null","","","null","77","","NaN","","","","","","","","","","","","","",""
"","response","","html-keyboard-response","515","468776","0.0-1.0-698.0-0.0","0","0","72801","","470","","","75","77","","","2","77","training","adjacent","GF","7","6","P.jpg","N.jpg","1","0","0","",""
"","feedback","","html-keyboard-response","516","469783","0.0-1.0-699.0-0.0","0","0","72801","","null","","","null","77","","","","","","","","","","","","","","","",""
"","time_out","","html-keyboard-response","517","471787","0.0-1.0-701.0-0.0","0","0","72801","","null","","","null","77","","","","","","","","","","","","","","","",""
"","ITI","","html-keyboard-response","518","472791","0.0-1.0-702.0","0","0","72801","","null","","","null","77","","","","","","","","","","","","","","","NaN",""
"","S1","","html-keyboard-response","519","473047","0.0-1.0-704.0","0","0","72801","","null","","","null","78","","","","","","","","","","","","","","","",""
"","ISI","","html-keyboard-response","520","473203","0.0-1.0-705.0","0","0","72801","","null","","","null","78","NaN","","","","","","","","","","","","","","",""
"","S2","","html-keyboard-response","521","473458","0.0-1.0-706.0","0","0","72801","","null","","","null","78","","NaN","","","","","","","","","","","","","",""
"","response","","html-keyboard-response","522","473882","0.0-1.0-707.0-0.0","0","0","72801","","422","","","75","78","","","2","78","training","adjacent","CD","3","4","O.jpg","R.jpg","1","1","1","",""
"","feedback","","html-keyboard-response","523","474887","0.0-1.0-708.0-0.0","0","0","72801","","null","","","null","78","","","","","","","","","","","","","","","",""
"","ITI","","html-keyboard-response","524","475892","0.0-1.0-711.0","0","0","72801","","null","","","null","78","","","","","","","","","","","","","","","NaN",""
"","S1","","html-keyboard-response","525","476146","0.0-1.0-713.0","0","0","72801","","null","","","null","79","","","","","","","","","","","","","","","",""
"","ISI","","html-keyboard-response","526","476303","0.0-1.0-714.0","0","0","72801","","null","","","null","79","NaN","","","","","","","","","","","","","","",""
"","S2","","html-keyboard-response","527","476558","0.0-1.0-715.0","0","0","72801","","null","","","null","79","","NaN","","","","","","","","","","","","","",""
"","response","","html-keyboard-response","528","477631","0.0-1.0-716.0-0.0","0","0","72801","","1071","","","75","79","","","2","79","training","adjacent","AB","1","2","Q.jpg","L.jpg","1","1","1","",""
"","feedback","","html-keyboard-response","529","478636","0.0-1.0-717.0-0.0","0","0","72801","","null","","","null","79","","","","","","","","","","","","","","","",""
"","ITI","","html-keyboard-response","530","479641","0.0-1.0-720.0","0","0","72801","","null","","","null","79","","","","","","","","","","","","","","","NaN",""
"","S1","","html-keyboard-response","531","479896","0.0-1.0-722.0","0","0","72801","","null","","","null","80","","","","","","","","","","","","","","","",""
"","ISI","","html-keyboard-response","532","480053","0.0-1.0-723.0","0","0","72801","","null","","","null","80","NaN","","","","","","","","","","","","","","",""
"","S2","","html-keyboard-response","533","480308","0.0-1.0-724.0","0","0","72801","","null","","","null","80","","NaN","","","","","","","","","","","","","",""
"","response","","html-keyboard-response","534","480769","0.0-1.0-725.0-0.0","0","0","72801","","459","","","75","80","","","2","80","training","adjacent","GF","7","6","P.jpg","N.jpg","1","0","0","",""
"","feedback","","html-keyboard-response","535","481777","0.0-1.0-726.0-0.0","0","0","72801","","null","","","null","80","","","","","","","","","","","","","","","",""
"","time_out","","html-keyboard-response","536","483780","0.0-1.0-728.0-0.0","0","0","72801","","null","","","null","80","","","","","","","","","","","","","","","",""
"","ITI","","html-keyboard-response","537","484784","0.0-1.0-729.0","0","0","72801","","null","","","null","80","","","","","","","","","","","","","","","NaN",""
"","S1","","html-keyboard-response","538","485039","0.0-1.0-731.0","0","0","72801","","null","","","null","81","","","","","","","","","","","","","","","",""
"","ISI","","html-keyboard-response","539","485196","0.0-1.0-732.0","0","0","72801","","null","","","null","81","NaN","","","","","","","","","","","","","","",""
"","S2","","html-keyboard-response","540","485451","0.0-1.0-733.0","0","0","72801","","null","","","null","81","","NaN","","","","","","","","","","","","","",""
"","response","","html-keyboard-response","541","485935","0.0-1.0-734.0-0.0","0","0","72801","","481","","","75","81","","","2","81","training","adjacent","BC","2","3","L.jpg","O.jpg","1","1","1","",""
"","feedback","","html-keyboard-response","542","486942","0.0-1.0-735.0-0.0","0","0","72801","","null","","","null","81","","","","","","","","","","","","","","","",""
"","ITI","","html-keyboard-response","543","487947","0.0-1.0-738.0","0","0","72801","","null","","","null","81","","","","","","","","","","","","","","","NaN",""
"","S1","","html-keyboard-response","544","488203","0.0-1.0-740.0","0","0","72801","","null","","","null","82","","","","","","","","","","","","","","","",""
"","ISI","","html-keyboard-response","545","488359","0.0-1.0-741.0","0","0","72801","","null","","","null","82","NaN","","","","","","","","","","","","","","",""
"","S2","","html-keyboard-response","546","488615","0.0-1.0-742.0","0","0","72801","","null","","","null","82","","NaN","","","","","","","","","","","","","",""
"","response","","html-keyboard-response","547","488953","0.0-1.0-743.0-0.0","0","0","72801","","336","","","75","82","","","2","82","training","adjacent","EF","5","6","M.jpg","N.jpg","1","1","1","",""
"","feedback","","html-keyboard-response","548","489958","0.0-1.0-744.0-0.0","0","0","72801","","null","","","null","82","","","","","","","","","","","","","","","",""
"","ITI","","html-keyboard-response","549","490965","0.0-1.0-747.0","0","0","72801","","null","","","null","82","","","","","","","","","","","","","","","NaN",""
"","S1","","html-keyboard-response","550","491221","0.0-1.0-749.0","0","0","72801","","null","","","null","83","","","","","","","","","","","","","","","",""
"","ISI","","html-keyboard-response","551","491378","0.0-1.0-750.0","0","0","72801","","null","","","null","83","NaN","","","","","","","","","","","","","","",""
"","S2","","html-keyboard-response","552","491633","0.0-1.0-751.0","0","0","72801","","null","","","null","83","","NaN","","","","","","","","","","","","","",""
"","response","","html-keyboard-response","553","492167","0.0-1.0-752.0-0.0","0","0","72801","","532","","","75","83","","","2","83","training","adjacent","FG","6","7","N.jpg","P.jpg","1","1","1","",""
"","feedback","","html-keyboard-response","554","493171","0.0-1.0-753.0-0.0","0","0","72801","","null","","","null","83","","","","","","","","","","","","","","","",""
"","ITI","","html-keyboard-response","555","494176","0.0-1.0-756.0","0","0","72801","","null","","","null","83","","","","","","","","","","","","","","","NaN",""
"","S1","","html-keyboard-response","556","494430","0.0-1.0-758.0","0","0","72801","","null","","","null","84","","","","","","","","","","","","","","","",""
"","ISI","","html-keyboard-response","557","494587","0.0-1.0-759.0","0","0","72801","","2","","","75","84","k","","","","","","","","","","","","","","",""
"","S2","","html-keyboard-response","558","494843","0.0-1.0-760.0","0","0","72801","","null","","","null","84","","NaN","","","","","","","","","","","","","",""
"","response","","html-keyboard-response","559","495278","0.0-1.0-761.0-0.0","0","0","72801","","433","","","75","84","","","2","84","training","adjacent","EF","5","6","M.jpg","N.jpg","1","1","1","",""
"","feedback","","html-keyboard-response","560","496283","0.0-1.0-762.0-0.0","0","0","72801","","null","","","null","84","","","","","","","","","","","","","","","",""
"","ITI","","html-keyboard-response","561","497287","0.0-1.0-765.0","0","0","72801","","null","","","null","84","","","","","","","","","","","","","","","NaN",""
"","S1","","html-keyboard-response","562","497542","0.0-1.0-767.0","0","0","72801","","null","","","null","85","","","","","","","","","","","","","","","",""
"","ISI","","html-keyboard-response","563","497699","0.0-1.0-768.0","0","0","72801","","null","","","null","85","NaN","","","","","","","","","","","","","","",""
"","S2","","html-keyboard-response","564","497955","0.0-1.0-769.0","0","0","72801","","null","","","null","85","","NaN","","","","","","","","","","","","","",""
"","response","","html-keyboard-response","565","498257","0.0-1.0-770.0-0.0","0","0","72801","","301","","","75","85","","","2","85","training","adjacent","ED","5","4","M.jpg","R.jpg","1","0","0","",""
"","feedback","","html-keyboard-response","566","499261","0.0-1.0-771.0-0.0","0","0","72801","","null","","","null","85","","","","","","","","","","","","","","","",""
"","time_out","","html-keyboard-response","567","501263","0.0-1.0-773.0-0.0","0","0","72801","","null","","","null","85","","","","","","","","","","","","","","","",""
"","ITI","","html-keyboard-response","568","502268","0.0-1.0-774.0","0","0","72801","","null","","","null","85","","","","","","","","","","","","","","","NaN",""
"","S1","","html-keyboard-response","569","502523","0.0-1.0-776.0","0","0","72801","","null","","","null","86","","","","","","","","","","","","","","","",""
"","ISI","","html-keyboard-response","570","502680","0.0-1.0-777.0","0","0","72801","","null","","","null","86","NaN","","","","","","","","","","","","","","",""
"","S2","","html-keyboard-response","571","502935","0.0-1.0-778.0","0","0","72801","","null","","","null","86","","NaN","","","","","","","","","","","","","",""
"","response","","html-keyboard-response","572","503327","0.0-1.0-779.0-0.0","0","0","72801","","389","","","75","86","","","2","86","training","adjacent","CB","3","2","O.jpg","L.jpg","1","0","0","",""
"","feedback","","html-keyboard-response","573","504334","0.0-1.0-780.0-0.0","0","0","72801","","null","","","null","86","","","","","","","","","","","","","","","",""
"","time_out","","html-keyboard-response","574","506337","0.0-1.0-782.0-0.0","0","0","72801","","null","","","null","86","","","","","","","","","","","","","","","",""
"","ITI","","html-keyboard-response","575","507341","0.0-1.0-783.0","0","0","72801","","null","","","null","86","","","","","","","","","","","","","","","NaN",""
"","S1","","html-keyboard-response","576","507596","0.0-1.0-785.0","0","0","72801","","null","","","null","87","","","","","","","","","","","","","","","",""
"","ISI","","html-keyboard-response","577","507753","0.0-1.0-786.0","0","0","72801","","null","","","null","87","NaN","","","","","","","","","","","","","","",""
"","S2","","html-keyboard-response","578","508008","0.0-1.0-787.0","0","0","72801","","null","","","null","87","","NaN","","","","","","","","","","","","","",""
"","response","","html-keyboard-response","579","508544","0.0-1.0-788.0-0.0","0","0","72801","","534","","","75","87","","","2","87","training","adjacent","CB","3","2","O.jpg","L.jpg","1","0","0","",""
"","feedback","","html-keyboard-response","580","509548","0.0-1.0-789.0-0.0","0","0","72801","","null","","","null","87","","","","","","","","","","","","","","","",""
"","time_out","","html-keyboard-response","581","511555","0.0-1.0-791.0-0.0","0","0","72801","","null","","","null","87","","","","","","","","","","","","","","","",""
"","ITI","","html-keyboard-response","582","512559","0.0-1.0-792.0","0","0","72801","","null","","","null","87","","","","","","","","","","","","","","","NaN",""
