"success","ttype","start_time","trial_type","trial_index","time_elapsed","internal_node_id","warning","missed_checkup","PID","view_history","rt","responses","repeat_instructions","key_press","index","keypress_isi","keypress_S2","block","trial_num","phase","group_type","pair_type","S1_stim","S2_stim","S1_img","S2_img","S1_chosen","S1_higher","accuracy","keypress_iti","total_bonus_tally"
"true","full_screen","d04062023hr1721","fullscreen","0","6479","0.0-0.0","0","0","82080","","","","","","","","","","","","","","","","","","","","","",""
"","instructions","","instructions","1","32177","0.0-1.0-0.0-0.0","0","0","82080","[{""page_index"":0,""viewing_time"":3444},{""page_index"":1,""viewing_time"":11193},{""page_index"":2,""viewing_time"":7328},{""page_index"":3,""viewing_time"":3732}]","25697","","","","","","","","","","","","","","","","","","","",""
"","comprehension_check","","survey-multi-choice","2","52369","0.0-1.0-0.0-1.0","0","0","82080","","20188","{""Q0"":""True"",""Q1"":""D"",""Q2"":""Once the second image appears and while the screen 'MAKE A CHOICE' is shown"",""Q3"":""Green mark"",""Q4"":""either D or K""}","0","","","","","","","","","","","","","","","","","",""
"","start_exp","","html-keyboard-response","3","54735","0.0-1.0-1.0","0","0","82080","","2364","","","32","","","","","","","","","","","","","","","","",""
"","S1","","html-keyboard-response","4","54890","0.0-1.0-2.0","0","0","82080","","null","","","null","0","","","","","","","","","","","","","","","",""
"","ISI","","html-keyboard-response","5","56893","0.0-1.0-3.0","0","0","82080","","null","","","null","0","NaN","","","","","","","","","","","","","","",""
"","S2","","html-keyboard-response","6","57046","0.0-1.0-4.0","0","0","82080","","null","","","null","0","","NaN","","","","","","","","","","","","","",""
"","response","","html-keyboard-response","7","58060","0.0-1.0-5.0-0.0","0","0","82080","","1013","","","75","0","","","1","0","training","adjacent","BA","2","1","P.jpg","O.jpg","0","0","1","",""
"","feedback","","html-keyboard-response","8","59064","0.0-1.0-6.0-0.0","0","0","82080","","null","","","null","0","","","","","","","","","","","","","","","",""
"","ITI","","html-keyboard-response","9","60067","0.0-1.0-9.0","0","0","82080","","null","","","null","0","","","","","","","","","","","","","","","NaN",""
"","S1","","html-keyboard-response","10","60220","0.0-1.0-11.0","0","0","82080","","null","","","null","1","","","","","","","","","","","","","","","",""
"","ISI","","html-keyboard-response","11","62224","0.0-1.0-12.0","0","0","82080","","null","","","null","1","NaN","","","","","","","","","","","","","","",""
"","S2","","html-keyboard-response","12","62377","0.0-1.0-13.0","0","0","82080","","null","","","null","1","","NaN","","","","","","","","","","","","","",""
"","response","","html-keyboard-response","13","63167","0.0-1.0-14.0-0.0","0","0","82080","","789","","","75","1","","","1","1","training","adjacent","CB","3","2","Q.jpg","P.jpg","0","0","1","",""
"","feedback","","html-keyboard-response","14","64169","0.0-1.0-15.0-0.0","0","0","82080","","null","","","null","1","","","","","","","","","","","","","","","",""
"","ITI","","html-keyboard-response","15","65173","0.0-1.0-18.0","0","0","82080","","null","","","null","1","","","","","","","","","","","","","","","NaN",""
"","S1","","html-keyboard-response","16","65325","0.0-1.0-20.0","0","0","82080","","null","","","null","2","","","","","","","","","","","","","","","",""
"","ISI","","html-keyboard-response","17","67327","0.0-1.0-21.0","0","0","82080","","null","","","null","2","NaN","","","","","","","","","","","","","","",""
"","S2","","html-keyboard-response","18","67481","0.0-1.0-22.0","0","0","82080","","null","","","null","2","","NaN","","","","","","","","","","","","","",""
"","response","","html-keyboard-response","19","68194","0.0-1.0-23.0-0.0","0","0","82080","","711","","","68","2","","","1","2","training","adjacent","BA","2","1","P.jpg","O.jpg","1","0","0","",""
"","feedback","","html-keyboard-response","20","69196","0.0-1.0-24.0-0.0","0","0","82080","","null","","","null","2","","","","","","","","","","","","","","","",""
"","time_out","","html-keyboard-response","21","71199","0.0-1.0-26.0-0.0","0","0","82080","","null","","","null","2","","","","","","","","","","","","","","","",""
"","ITI","","html-keyboard-response","22","72202","0.0-1.0-27.0","0","0","82080","","null","","","null","2","","","","","","","","","","","","","","","NaN",""
"","S1","","html-keyboard-response","23","72355","0.0-1.0-29.0","0","0","82080","","null","","","null","3","","","","","","","","","","","","","","","",""
"","ISI","","html-keyboard-response","24","74358","0.0-1.0-30.0","0","0","82080","","null","","","null","3","NaN","","","","","","","","","","","","","","",""
"","S2","","html-keyboard-response","25","74511","0.0-1.0-31.0","0","0","82080","","null","","","null","3","","NaN","","","","","","","","","","","","","",""
"","response","","html-keyboard-response","26","75633","0.0-1.0-32.0-0.0","0","0","82080","","1120","","","75","3","","","1","3","training","adjacent","DC","4","3","R.jpg","Q.jpg","0","0","1","",""
"","feedback","","html-keyboard-response","27","76636","0.0-1.0-33.0-0.0","0","0","82080","","null","","","null","3","","","","","","","","","","","","","","","",""
"","ITI","","html-keyboard-response","28","77639","0.0-1.0-36.0","0","0","82080","","null","","","null","3","","","","","","","","","","","","","","","NaN",""
"","S1","","html-keyboard-response","29","77792","0.0-1.0-38.0","0","0","82080","","null","","","null","4","","","","","","","","","","","","","","","",""
"","ISI","","html-keyboard-response","30","79796","0.0-1.0-39.0","0","0","82080","","null","","","null","4","NaN","","","","","","","","","","","","","","",""
"","S2","","html-keyboard-response","31","79949","0.0-1.0-40.0","0","0","82080","","null","","","null","4","","NaN","","","","","","","","","","","","","",""
"","response","","html-keyboard-response","32","80686","0.0-1.0-41.0-0.0","0","0","82080","","735","","","68","4","","","1","4","training","adjacent","CB","3","2","Q.jpg","P.jpg","1","0","0","",""
"","feedback","","html-keyboard-response","33","81690","0.0-1.0-42.0-0.0","0","0","82080","","null","","","null","4","","","","","","","","","","","","","","","",""
"","time_out","","html-keyboard-response","34","83692","0.0-1.0-44.0-0.0","0","0","82080","","null","","","null","4","","","","","","","","","","","","","","","",""
"","ITI","","html-keyboard-response","35","84694","0.0-1.0-45.0","0","0","82080","","null","","","null","4","","","","","","","","","","","","","","","NaN",""
"","S1","","html-keyboard-response","36","84846","0.0-1.0-47.0","0","0","82080","","null","","","null","5","","","","","","","","","","","","","","","",""
"","ISI","","html-keyboard-response","37","86850","0.0-1.0-48.0","0","0","82080","","null","","","null","5","NaN","","","","","","","","","","","","","","",""
"","S2","","html-keyboard-response","38","87004","0.0-1.0-49.0","0","0","82080","","null","","","null","5","","NaN","","","","","","","","","","","","","",""
"","response","","html-keyboard-response","39","87655","0.0-1.0-50.0-0.0","0","0","82080","","650","","","75","5","","","1","5","training","adjacent","EF","5","6","M.jpg","L.jpg","0","1","0","",""
"","feedback","","html-keyboard-response","40","88660","0.0-1.0-51.0-0.0","0","0","82080","","null","","","null","5","","","","","","","","","","","","","","","",""
"","time_out","","html-keyboard-response","41","90662","0.0-1.0-53.0-0.0","0","0","82080","","null","","","null","5","","","","","","","","","","","","","","","",""
"","ITI","","html-keyboard-response","42","91665","0.0-1.0-54.0","0","0","82080","","null","","","null","5","","","","","","","","","","","","","","","NaN",""
"","S1","","html-keyboard-response","43","91817","0.0-1.0-56.0","0","0","82080","","null","","","null","6","","","","","","","","","","","","","","","",""
"","ISI","","html-keyboard-response","44","93819","0.0-1.0-57.0","0","0","82080","","null","","","null","6","NaN","","","","","","","","","","","","","","",""
"","S2","","html-keyboard-response","45","93972","0.0-1.0-58.0","0","0","82080","","null","","","null","6","","NaN","","","","","","","","","","","","","",""
"","response","","html-keyboard-response","46","94321","0.0-1.0-59.0-0.0","0","0","82080","","347","","","68","6","","","1","6","training","adjacent","CD","3","4","Q.jpg","R.jpg","1","1","1","",""
"","feedback","","html-keyboard-response","47","95324","0.0-1.0-60.0-0.0","0","0","82080","","null","","","null","6","","","","","","","","","","","","","","","",""
"","ITI","","html-keyboard-response","48","96326","0.0-1.0-63.0","0","0","82080","","null","","","null","6","","","","","","","","","","","","","","","NaN",""
"","S1","","html-keyboard-response","49","96479","0.0-1.0-65.0","0","0","82080","","null","","","null","7","","","","","","","","","","","","","","","",""
"","ISI","","html-keyboard-response","50","98482","0.0-1.0-66.0","0","0","82080","","null","","","null","7","NaN","","","","","","","","","","","","","","",""
"","S2","","html-keyboard-response","51","98635","0.0-1.0-67.0","0","0","82080","","null","","","null","7","","NaN","","","","","","","","","","","","","",""
"","response","","html-keyboard-response","52","99418","0.0-1.0-68.0-0.0","0","0","82080","","781","","","75","7","","","1","7","training","adjacent","FE","6","5","L.jpg","M.jpg","0","0","1","",""
"","feedback","","html-keyboard-response","53","100421","0.0-1.0-69.0-0.0","0","0","82080","","null","","","null","7","","","","","","","","","","","","","","","",""
"","ITI","","html-keyboard-response","54","101422","0.0-1.0-72.0","0","0","82080","","null","","","null","7","","","","","","","","","","","","","","","NaN",""
"","S1","","html-keyboard-response","55","101576","0.0-1.0-74.0","0","0","82080","","null","","","null","8","","","","","","","","","","","","","","","",""
"","ISI","","html-keyboard-response","56","103578","0.0-1.0-75.0","0","0","82080","","null","","","null","8","NaN","","","","","","","","","","","","","","",""
"","S2","","html-keyboard-response","57","103732","0.0-1.0-76.0","0","0","82080","","null","","","null","8","","NaN","","","","","","","","","","","","","",""
"","response","","html-keyboard-response","58","104167","0.0-1.0-77.0-0.0","0","0","82080","","433","","","75","8","","","1","8","training","adjacent","AB","1","2","O.jpg","P.jpg","0","1","0","",""
"","feedback","","html-keyboard-response","59","105170","0.0-1.0-78.0-0.0","0","0","82080","","null","","","null","8","","","","","","","","","","","","","","","",""
"","time_out","","html-keyboard-response","60","107172","0.0-1.0-80.0-0.0","0","0","82080","","null","","","null","8","","","","","","","","","","","","","","","",""
"","ITI","","html-keyboard-response","61","108176","0.0-1.0-81.0","0","0","82080","","null","","","null","8","","","","","","","","","","","","","","","NaN",""
"","S1","","html-keyboard-response","62","108329","0.0-1.0-83.0","0","0","82080","","null","","","null","9","","","","","","","","","","","","","","","",""
"","ISI","","html-keyboard-response","63","110331","0.0-1.0-84.0","0","0","82080","","null","","","null","9","NaN","","","","","","","","","","","","","","",""
"","S2","","html-keyboard-response","64","110484","0.0-1.0-85.0","0","0","82080","","null","","","null","9","","NaN","","","","","","","","","","","","","",""
"","response","","html-keyboard-response","65","111219","0.0-1.0-86.0-0.0","0","0","82080","","733","","","68","9","","","1","9","training","adjacent","FG","6","7","L.jpg","N.jpg","1","1","1","",""
"","feedback","","html-keyboard-response","66","112223","0.0-1.0-87.0-0.0","0","0","82080","","null","","","null","9","","","","","","","","","","","","","","","",""
"","ITI","","html-keyboard-response","67","113226","0.0-1.0-90.0","0","0","82080","","null","","","null","9","","","","","","","","","","","","","","","NaN",""
"","S1","","html-keyboard-response","68","113379","0.0-1.0-92.0","0","0","82080","","null","","","null","10","","","","","","","","","","","","","","","",""
"","ISI","","html-keyboard-response","69","115382","0.0-1.0-93.0","0","0","82080","","null","","","null","10","NaN","","","","","","","","","","","","","","",""
"","S2","","html-keyboard-response","70","115535","0.0-1.0-94.0","0","0","82080","","null","","","null","10","","NaN","","","","","","","","","","","","","",""
"","response","","html-keyboard-response","71","116111","0.0-1.0-95.0-0.0","0","0","82080","","573","","","68","10","","","1","10","training","adjacent","EF","5","6","M.jpg","L.jpg","1","1","1","",""
"","feedback","","html-keyboard-response","72","117114","0.0-1.0-96.0-0.0","0","0","82080","","null","","","null","10","","","","","","","","","","","","","","","",""
"","ITI","","html-keyboard-response","73","118116","0.0-1.0-99.0","0","0","82080","","null","","","null","10","","","","","","","","","","","","","","","NaN",""
"","S1","","html-keyboard-response","74","118269","0.0-1.0-101.0","0","0","82080","","null","","","null","11","","","","","","","","","","","","","","","",""
"","ISI","","html-keyboard-response","75","120271","0.0-1.0-102.0","0","0","82080","","null","","","null","11","NaN","","","","","","","","","","","","","","",""
"","S2","","html-keyboard-response","76","120424","0.0-1.0-103.0","0","0","82080","","null","","","null","11","","NaN","","","","","","","","","","","","","",""
"","response","","html-keyboard-response","77","121438","0.0-1.0-104.0-0.0","0","0","82080","","1013","","","75","11","","","1","11","training","adjacent","FE","6","5","L.jpg","M.jpg","0","0","1","",""
"","feedback","","html-keyboard-response","78","122441","0.0-1.0-105.0-0.0","0","0","82080","","null","","","null","11","","","","","","","","","","","","","","","",""
"","ITI","","html-keyboard-response","79","123443","0.0-1.0-108.0","0","0","82080","","null","","","null","11","","","","","","","","","","","","","","","NaN",""
"","S1","","html-keyboard-response","80","123596","0.0-1.0-110.0","0","0","82080","","null","","","null","12","","","","","","","","","","","","","","","",""
"","ISI","","html-keyboard-response","81","125599","0.0-1.0-111.0","0","0","82080","","null","","","null","12","NaN","","","","","","","","","","","","","","",""
"","S2","","html-keyboard-response","82","125752","0.0-1.0-112.0","0","0","82080","","null","","","null","12","","NaN","","","","","","","","","","","","","",""
"","response","","html-keyboard-response","83","126127","0.0-1.0-113.0-0.0","0","0","82080","","374","","","68","12","","","1","12","training","adjacent","CD","3","4","Q.jpg","R.jpg","1","1","1","",""
"","feedback","","html-keyboard-response","84","127130","0.0-1.0-114.0-0.0","0","0","82080","","null","","","null","12","","","","","","","","","","","","","","","",""
"","ITI","","html-keyboard-response","85","128133","0.0-1.0-117.0","0","0","82080","","null","","","null","12","","","","","","","","","","","","","","","NaN",""
"","S1","","html-keyboard-response","86","128287","0.0-1.0-119.0","0","0","82080","","null","","","null","13","","","","","","","","","","","","","","","",""
"","ISI","","html-keyboard-response","87","130289","0.0-1.0-120.0","0","0","82080","","null","","","null","13","NaN","","","","","","","","","","","","","","",""
"","S2","","html-keyboard-response","88","130441","0.0-1.0-121.0","0","0","82080","","null","","","null","13","","NaN","","","","","","","","","","","","","",""
"","response","","html-keyboard-response","89","130947","0.0-1.0-122.0-0.0","0","0","82080","","505","","","75","13","","","1","13","training","adjacent","AB","1","2","O.jpg","P.jpg","0","1","0","",""
"","feedback","","html-keyboard-response","90","131950","0.0-1.0-123.0-0.0","0","0","82080","","null","","","null","13","","","","","","","","","","","","","","","",""
"","time_out","","html-keyboard-response","91","133953","0.0-1.0-125.0-0.0","0","0","82080","","null","","","null","13","","","","","","","","","","","","","","","",""
"","ITI","","html-keyboard-response","92","134955","0.0-1.0-126.0","0","0","82080","","null","","","null","13","","","","","","","","","","","","","","","NaN",""
"","S1","","html-keyboard-response","93","135108","0.0-1.0-128.0","0","0","82080","","null","","","null","14","","","","","","","","","","","","","","","",""
"","ISI","","html-keyboard-response","94","137111","0.0-1.0-129.0","0","0","82080","","null","","","null","14","NaN","","","","","","","","","","","","","","",""
"","S2","","html-keyboard-response","95","137263","0.0-1.0-130.0","0","0","82080","","null","","","null","14","","NaN","","","","","","","","","","","","","",""
"","response","","html-keyboard-response","96","137781","0.0-1.0-131.0-0.0","0","0","82080","","515","","","75","14","","","1","14","training","adjacent","FE","6","5","L.jpg","M.jpg","0","0","1","",""
"","feedback","","html-keyboard-response","97","138784","0.0-1.0-132.0-0.0","0","0","82080","","null","","","null","14","","","","","","","","","","","","","","","",""
"","ITI","","html-keyboard-response","98","139787","0.0-1.0-135.0","0","0","82080","","null","","","null","14","","","","","","","","","","","","","","","NaN",""
"","S1","","html-keyboard-response","99","139940","0.0-1.0-137.0","0","0","82080","","null","","","null","15","","","","","","","","","","","","","","","",""
"","ISI","","html-keyboard-response","100","141943","0.0-1.0-138.0","0","0","82080","","null","","","null","15","NaN","","","","","","","","","","","","","","",""
"","S2","","html-keyboard-response","101","142095","0.0-1.0-139.0","0","0","82080","","null","","","null","15","","NaN","","","","","","","","","","","","","",""
"","response","","html-keyboard-response","102","142713","0.0-1.0-140.0-0.0","0","0","82080","","616","","","68","15","","","1","15","training","adjacent","FG","6","7","L.jpg","N.jpg","1","1","1","",""
"","feedback","","html-keyboard-response","103","143715","0.0-1.0-141.0-0.0","0","0","82080","","null","","","null","15","","","","","","","","","","","","","","","",""
"","ITI","","html-keyboard-response","104","144719","0.0-1.0-144.0","0","0","82080","","null","","","null","15","","","","","","","","","","","","","","","NaN",""
"","S1","","html-keyboard-response","105","144872","0.0-1.0-146.0","0","0","82080","","null","","","null","16","","","","","","","","","","","","","","","",""
"","ISI","","html-keyboard-response","106","146874","0.0-1.0-147.0","0","0","82080","","null","","","null","16","NaN","","","","","","","","","","","","","","",""
"","S2","","html-keyboard-response","107","147027","0.0-1.0-148.0","0","0","82080","","null","","","null","16","","NaN","","","","","","","","","","","","","",""
"","response","","html-keyboard-response","108","147535","0.0-1.0-149.0-0.0","0","0","82080","","505","","","68","16","","","1","16","training","adjacent","ED","5","4","M.jpg","R.jpg","1","0","0","",""
"","feedback","","html-keyboard-response","109","148537","0.0-1.0-150.0-0.0","0","0","82080","","null","","","null","16","","","","","","","","","","","","","","","",""
"","time_out","","html-keyboard-response","110","150539","0.0-1.0-152.0-0.0","0","0","82080","","null","","","null","16","","","","","","","","","","","","","","","",""
"","ITI","","html-keyboard-response","111","151542","0.0-1.0-153.0","0","0","82080","","null","","","null","16","","","","","","","","","","","","","","","NaN",""
"","S1","","html-keyboard-response","112","151694","0.0-1.0-155.0","0","0","82080","","null","","","null","17","","","","","","","","","","","","","","","",""
"","ISI","","html-keyboard-response","113","153696","0.0-1.0-156.0","0","0","82080","","null","","","null","17","NaN","","","","","","","","","","","","","","",""
"","S2","","html-keyboard-response","114","153855","0.0-1.0-157.0","0","0","82080","","null","","","null","17","","NaN","","","","","","","","","","","","","",""
"","response","","html-keyboard-response","115","154355","0.0-1.0-158.0-0.0","0","0","82080","","499","","","75","17","","","1","17","training","adjacent","FE","6","5","L.jpg","M.jpg","0","0","1","",""
"","feedback","","html-keyboard-response","116","155357","0.0-1.0-159.0-0.0","0","0","82080","","null","","","null","17","","","","","","","","","","","","","","","",""
"","ITI","","html-keyboard-response","117","156359","0.0-1.0-162.0","0","0","82080","","null","","","null","17","","","","","","","","","","","","","","","NaN",""
"","S1","","html-keyboard-response","118","156512","0.0-1.0-164.0","0","0","82080","","null","","","null","18","","","","","","","","","","","","","","","",""
"","ISI","","html-keyboard-response","119","158515","0.0-1.0-165.0","0","0","82080","","null","","","null","18","NaN","","","","","","","","","","","","","","",""
"","S2","","html-keyboard-response","120","158668","0.0-1.0-166.0","0","0","82080","","null","","","null","18","","NaN","","","","","","","","","","","","","",""
"","response","","html-keyboard-response","121","159254","0.0-1.0-167.0-0.0","0","0","82080","","583","","","75","18","","","1","18","training","adjacent","DE","4","5","R.jpg","M.jpg","0","1","0","",""
"","feedback","","html-keyboard-response","122","160257","0.0-1.0-168.0-0.0","0","0","82080","","null","","","null","18","","","","","","","","","","","","","","","",""
"","time_out","","html-keyboard-response","123","162260","0.0-1.0-170.0-0.0","0","0","82080","","null","","","null","18","","","","","","","","","","","","","","","",""
"","ITI","","html-keyboard-response","124","163263","0.0-1.0-171.0","0","0","82080","","null","","","null","18","","","","","","","","","","","","","","","NaN",""
"","S1","","html-keyboard-response","125","163416","0.0-1.0-173.0","0","0","82080","","null","","","null","19","","","","","","","","","","","","","","","",""
"","ISI","","html-keyboard-response","126","165418","0.0-1.0-174.0","0","0","82080","","null","","","null","19","NaN","","","","","","","","","","","","","","",""
"","S2","","html-keyboard-response","127","165571","0.0-1.0-175.0","0","0","82080","","null","","","null","19","","NaN","","","","","","","","","","","","","",""
"","response","","html-keyboard-response","128","166103","0.0-1.0-176.0-0.0","0","0","82080","","530","","","75","19","","","1","19","training","adjacent","BC","2","3","P.jpg","Q.jpg","0","1","0","",""
"","feedback","","html-keyboard-response","129","167106","0.0-1.0-177.0-0.0","0","0","82080","","null","","","null","19","","","","","","","","","","","","","","","",""
"","time_out","","html-keyboard-response","130","169109","0.0-1.0-179.0-0.0","0","0","82080","","null","","","null","19","","","","","","","","","","","","","","","",""
"","ITI","","html-keyboard-response","131","170112","0.0-1.0-180.0","0","0","82080","","null","","","null","19","","","","","","","","","","","","","","","NaN",""
"","S1","","html-keyboard-response","132","170265","0.0-1.0-182.0","0","0","82080","","null","","","null","20","","","","","","","","","","","","","","","",""
"","ISI","","html-keyboard-response","133","172268","0.0-1.0-183.0","0","0","82080","","null","","","null","20","NaN","","","","","","","","","","","","","","",""
"","S2","","html-keyboard-response","134","172421","0.0-1.0-184.0","0","0","82080","","null","","","null","20","","NaN","","","","","","","","","","","","","",""
"","response","","html-keyboard-response","135","173022","0.0-1.0-185.0-0.0","0","0","82080","","599","","","75","20","","","1","20","training","adjacent","ED","5","4","M.jpg","R.jpg","0","0","1","",""
"","feedback","","html-keyboard-response","136","174026","0.0-1.0-186.0-0.0","0","0","82080","","null","","","null","20","","","","","","","","","","","","","","","",""
"","ITI","","html-keyboard-response","137","175029","0.0-1.0-189.0","0","0","82080","","null","","","null","20","","","","","","","","","","","","","","","NaN",""
"","S1","","html-keyboard-response","138","175182","0.0-1.0-191.0","0","0","82080","","null","","","null","21","","","","","","","","","","","","","","","",""
"","ISI","","html-keyboard-response","139","177184","0.0-1.0-192.0","0","0","82080","","null","","","null","21","NaN","","","","","","","","","","","","","","",""
"","S2","","html-keyboard-response","140","177337","0.0-1.0-193.0","0","0","82080","","null","","","null","21","","NaN","","","","","","","","","","","","","",""
"","response","","html-keyboard-response","141","178236","0.0-1.0-194.0-0.0","0","0","82080","","898","","","68","21","","","1","21","training","adjacent","AB","1","2","O.jpg","P.jpg","1","1","1","",""
"","feedback","","html-keyboard-response","142","179239","0.0-1.0-195.0-0.0","0","0","82080","","null","","","null","21","","","","","","","","","","","","","","","",""
"","ITI","","html-keyboard-response","143","180243","0.0-1.0-198.0","0","0","82080","","null","","","null","21","","","","","","","","","","","","","","","NaN",""
"","S1","","html-keyboard-response","144","180396","0.0-1.0-200.0","0","0","82080","","null","","","null","22","","","","","","","","","","","","","","","",""
"","ISI","","html-keyboard-response","145","182398","0.0-1.0-201.0","0","0","82080","","null","","","null","22","NaN","","","","","","","","","","","","","","",""
"","S2","","html-keyboard-response","146","182554","0.0-1.0-202.0","0","0","82080","","null","","","null","22","","NaN","","","","","","","","","","","","","",""
"","response","","html-keyboard-response","147","183344","0.0-1.0-203.0-0.0","0","0","82080","","788","","","75","22","","","1","22","training","adjacent","CB","3","2","Q.jpg","P.jpg","0","0","1","",""
"","feedback","","html-keyboard-response","148","184346","0.0-1.0-204.0-0.0","0","0","82080","","null","","","null","22","","","","","","","","","","","","","","","",""
"","ITI","","html-keyboard-response","149","185349","0.0-1.0-207.0","0","0","82080","","null","","","null","22","","","","","","","","","","","","","","","NaN",""
"","S1","","html-keyboard-response","150","185502","0.0-1.0-209.0","0","0","82080","","null","","","null","23","","","","","","","","","","","","","","","",""
"","ISI","","html-keyboard-response","151","187504","0.0-1.0-210.0","0","0","82080","","null","","","null","23","NaN","","","","","","","","","","","","","","",""
"","S2","","html-keyboard-response","152","187658","0.0-1.0-211.0","0","0","82080","","null","","","null","23","","NaN","","","","","","","","","","","","","",""
"","response","","html-keyboard-response","153","188239","0.0-1.0-212.0-0.0","0","0","82080","","580","","","68","23","","","1","23","training","adjacent","EF","5","6","M.jpg","L.jpg","1","1","1","",""
"","feedback","","html-keyboard-response","154","189243","0.0-1.0-213.0-0.0","0","0","82080","","null","","","null","23","","","","","","","","","","","","","","","",""
"","ITI","","html-keyboard-response","155","190245","0.0-1.0-216.0","0","0","82080","","null","","","null","23","","","","","","","","","","","","","","","NaN",""
"","S1","","html-keyboard-response","156","190397","0.0-1.0-218.0","0","0","82080","","null","","","null","24","","","","","","","","","","","","","","","",""
"","ISI","","html-keyboard-response","157","192399","0.0-1.0-219.0","0","0","82080","","null","","","null","24","NaN","","","","","","","","","","","","","","",""
"","S2","","html-keyboard-response","158","192553","0.0-1.0-220.0","0","0","82080","","null","","","null","24","","NaN","","","","","","","","","","","","","",""
"","response","","html-keyboard-response","159","193419","0.0-1.0-221.0-0.0","0","0","82080","","865","","","68","24","","","1","24","training","adjacent","DC","4","3","R.jpg","Q.jpg","1","0","0","",""
"","feedback","","html-keyboard-response","160","194422","0.0-1.0-222.0-0.0","0","0","82080","","null","","","null","24","","","","","","","","","","","","","","","",""
"","time_out","","html-keyboard-response","161","196424","0.0-1.0-224.0-0.0","0","0","82080","","null","","","null","24","","","","","","","","","","","","","","","",""
"","ITI","","html-keyboard-response","162","197426","0.0-1.0-225.0","0","0","82080","","null","","","null","24","","","","","","","","","","","","","","","NaN",""
"","S1","","html-keyboard-response","163","197580","0.0-1.0-227.0","0","0","82080","","null","","","null","25","","","","","","","","","","","","","","","",""
"","ISI","","html-keyboard-response","164","199583","0.0-1.0-228.0","0","0","82080","","null","","","null","25","NaN","","","","","","","","","","","","","","",""
"","S2","","html-keyboard-response","165","199736","0.0-1.0-229.0","0","0","82080","","null","","","null","25","","NaN","","","","","","","","","","","","","",""
"","response","","html-keyboard-response","166","201104","0.0-1.0-230.0-0.0","0","0","82080","","1367","","","68","25","","","1","25","training","adjacent","GF","7","6","N.jpg","L.jpg","1","0","0","",""
"","feedback","","html-keyboard-response","167","202106","0.0-1.0-231.0-0.0","0","0","82080","","null","","","null","25","","","","","","","","","","","","","","","",""
"","time_out","","html-keyboard-response","168","204109","0.0-1.0-233.0-0.0","0","0","82080","","null","","","null","25","","","","","","","","","","","","","","","",""
"","ITI","","html-keyboard-response","169","205111","0.0-1.0-234.0","0","0","82080","","null","","","null","25","","","","","","","","","","","","","","","NaN",""
"","S1","","html-keyboard-response","170","205264","0.0-1.0-236.0","0","0","82080","","null","","","null","26","","","","","","","","","","","","","","","",""
"","ISI","","html-keyboard-response","171","207267","0.0-1.0-237.0","0","0","82080","","null","","","null","26","NaN","","","","","","","","","","","","","","",""
"","S2","","html-keyboard-response","172","207429","0.0-1.0-238.0","0","0","82080","","null","","","null","26","","NaN","","","","","","","","","","","","","",""
"","response","","html-keyboard-response","173","208047","0.0-1.0-239.0-0.0","0","0","82080","","617","","","75","26","","","1","26","training","adjacent","DE","4","5","R.jpg","M.jpg","0","1","0","",""
"","feedback","","html-keyboard-response","174","209050","0.0-1.0-240.0-0.0","0","0","82080","","null","","","null","26","","","","","","","","","","","","","","","",""
"","time_out","","html-keyboard-response","175","211053","0.0-1.0-242.0-0.0","0","0","82080","","null","","","null","26","","","","","","","","","","","","","","","",""
"","ITI","","html-keyboard-response","176","212055","0.0-1.0-243.0","0","0","82080","","null","","","null","26","","","","","","","","","","","","","","","NaN",""
"","S1","","html-keyboard-response","177","212210","0.0-1.0-245.0","0","0","82080","","null","","","null","27","","","","","","","","","","","","","","","",""
"","ISI","","html-keyboard-response","178","214212","0.0-1.0-246.0","0","0","82080","","null","","","null","27","NaN","","","","","","","","","","","","","","",""
"","S2","","html-keyboard-response","179","214365","0.0-1.0-247.0","0","0","82080","","null","","","null","27","","NaN","","","","","","","","","","","","","",""
"","response","","html-keyboard-response","180","214680","0.0-1.0-248.0-0.0","0","0","82080","","312","","","75","27","","","1","27","training","adjacent","DC","4","3","R.jpg","Q.jpg","0","0","1","",""
"","feedback","","html-keyboard-response","181","215683","0.0-1.0-249.0-0.0","0","0","82080","","null","","","null","27","","","","","","","","","","","","","","","",""
"","ITI","","html-keyboard-response","182","216686","0.0-1.0-252.0","0","0","82080","","null","","","null","27","","","","","","","","","","","","","","","NaN",""
"","S1","","html-keyboard-response","183","216839","0.0-1.0-254.0","0","0","82080","","null","","","null","28","","","","","","","","","","","","","","","",""
"","ISI","","html-keyboard-response","184","218841","0.0-1.0-255.0","0","0","82080","","null","","","null","28","NaN","","","","","","","","","","","","","","",""
"","S2","","html-keyboard-response","185","218994","0.0-1.0-256.0","0","0","82080","","null","","","null","28","","NaN","","","","","","","","","","","","","",""
"","response","","html-keyboard-response","186","219999","0.0-1.0-257.0-0.0","0","0","82080","","1003","","","68","28","","","1","28","training","adjacent","DE","4","5","R.jpg","M.jpg","1","1","1","",""
"","feedback","","html-keyboard-response","187","221001","0.0-1.0-258.0-0.0","0","0","82080","","null","","","null","28","","","","","","","","","","","","","","","",""
"","ITI","","html-keyboard-response","188","222005","0.0-1.0-261.0","0","0","82080","","null","","","null","28","","","","","","","","","","","","","","","NaN",""
"","S1","","html-keyboard-response","189","222159","0.0-1.0-263.0","0","0","82080","","null","","","null","29","","","","","","","","","","","","","","","",""
"","ISI","","html-keyboard-response","190","224161","0.0-1.0-264.0","0","0","82080","","null","","","null","29","NaN","","","","","","","","","","","","","","",""
"","S2","","html-keyboard-response","191","224314","0.0-1.0-265.0","0","0","82080","","null","","","null","29","","NaN","","","","","","","","","","","","","",""
"","response","","html-keyboard-response","192","224977","0.0-1.0-266.0-0.0","0","0","82080","","662","","","68","29","","","1","29","training","adjacent","DE","4","5","R.jpg","M.jpg","1","1","1","",""
"","feedback","","html-keyboard-response","193","225980","0.0-1.0-267.0-0.0","0","0","82080","","null","","","null","29","","","","","","","","","","","","","","","",""
"","ITI","","html-keyboard-response","194","226982","0.0-1.0-270.0","0","0","82080","","null","","","null","29","","","","","","","","","","","","","","","NaN",""
"","S1","","html-keyboard-response","195","227136","0.0-1.0-272.0","0","0","82080","","null","","","null","30","","","","","","","","","","","","","","","",""
"","ISI","","html-keyboard-response","196","229139","0.0-1.0-273.0","0","0","82080","","null","","","null","30","NaN","","","","","","","","","","","","","","",""
"","S2","","html-keyboard-response","197","229292","0.0-1.0-274.0","0","0","82080","","null","","","null","30","","NaN","","","","","","","","","","","","","",""
"","response","","html-keyboard-response","198","229701","0.0-1.0-275.0-0.0","0","0","82080","","407","","","68","30","","","1","30","training","adjacent","FG","6","7","L.jpg","N.jpg","1","1","1","",""
"","feedback","","html-keyboard-response","199","230704","0.0-1.0-276.0-0.0","0","0","82080","","null","","","null","30","","","","","","","","","","","","","","","",""
"","ITI","","html-keyboard-response","200","231712","0.0-1.0-279.0","0","0","82080","","null","","","null","30","","","","","","","","","","","","","","","NaN",""
"","S1","","html-keyboard-response","201","231866","0.0-1.0-281.0","0","0","82080","","null","","","null","31","","","","","","","","","","","","","","","",""
"","ISI","","html-keyboard-response","202","233868","0.0-1.0-282.0","0","0","82080","","null","","","null","31","NaN","","","","","","","","","","","","","","",""
"","S2","","html-keyboard-response","203","234023","0.0-1.0-283.0","0","0","82080","","null","","","null","31","","NaN","","","","","","","","","","","","","",""
"","response","","html-keyboard-response","204","234654","0.0-1.0-284.0-0.0","0","0","82080","","630","","","75","31","","","1","31","training","adjacent","BC","2","3","P.jpg","Q.jpg","0","1","0","",""
"","feedback","","html-keyboard-response","205","235656","0.0-1.0-285.0-0.0","0","0","82080","","null","","","null","31","","","","","","","","","","","","","","","",""
"","time_out","","html-keyboard-response","206","237659","0.0-1.0-287.0-0.0","0","0","82080","","null","","","null","31","","","","","","","","","","","","","","","",""
"","ITI","","html-keyboard-response","207","238663","0.0-1.0-288.0","0","0","82080","","null","","","null","31","","","","","","","","","","","","","","","NaN",""
"","S1","","html-keyboard-response","208","238816","0.0-1.0-290.0","0","0","82080","","null","","","null","32","","","","","","","","","","","","","","","",""
"","ISI","","html-keyboard-response","209","240818","0.0-1.0-291.0","0","0","82080","","null","","","null","32","NaN","","","","","","","","","","","","","","",""
"","S2","","html-keyboard-response","210","240979","0.0-1.0-292.0","0","0","82080","","null","","","null","32","","NaN","","","","","","","","","","","","","",""
"","response","","html-keyboard-response","211","242179","0.0-1.0-293.0-0.0","0","0","82080","","1198","","","68","32","","","1","32","training","adjacent","AB","1","2","O.jpg","P.jpg","1","1","1","",""
"","feedback","","html-keyboard-response","212","243182","0.0-1.0-294.0-0.0","0","0","82080","","null","","","null","32","","","","","","","","","","","","","","","",""
"","ITI","","html-keyboard-response","213","244185","0.0-1.0-297.0","0","0","82080","","null","","","null","32","","","","","","","","","","","","","","","NaN",""
"","S1","","html-keyboard-response","214","244337","0.0-1.0-299.0","0","0","82080","","null","","","null","33","","","","","","","","","","","","","","","",""
"","ISI","","html-keyboard-response","215","246340","0.0-1.0-300.0","0","0","82080","","null","","","null","33","NaN","","","","","","","","","","","","","","",""
"","S2","","html-keyboard-response","216","246494","0.0-1.0-301.0","0","0","82080","","null","","","null","33","","NaN","","","","","","","","","","","","","",""
"","response","","html-keyboard-response","217","247407","0.0-1.0-302.0-0.0","0","0","82080","","911","","","75","33","","","1","33","training","adjacent","ED","5","4","M.jpg","R.jpg","0","0","1","",""
"","feedback","","html-keyboard-response","218","248410","0.0-1.0-303.0-0.0","0","0","82080","","null","","","null","33","","","","","","","","","","","","","","","",""
"","ITI","","html-keyboard-response","219","249413","0.0-1.0-306.0","0","0","82080","","null","","","null","33","","","","","","","","","","","","","","","NaN",""
"","S1","","html-keyboard-response","220","249566","0.0-1.0-308.0","0","0","82080","","null","","","null","34","","","","","","","","","","","","","","","",""
"","ISI","","html-keyboard-response","221","251568","0.0-1.0-309.0","0","0","82080","","null","","","null","34","NaN","","","","","","","","","","","","","","",""
"","S2","","html-keyboard-response","222","251720","0.0-1.0-310.0","0","0","82080","","null","","","null","34","","NaN","","","","","","","","","","","","","",""
"","response","","html-keyboard-response","223","252386","0.0-1.0-311.0-0.0","0","0","82080","","664","","","68","34","","","1","34","training","adjacent","FG","6","7","L.jpg","N.jpg","1","1","1","",""
"","feedback","","html-keyboard-response","224","253388","0.0-1.0-312.0-0.0","0","0","82080","","null","","","null","34","","","","","","","","","","","","","","","",""
"","ITI","","html-keyboard-response","225","254391","0.0-1.0-315.0","0","0","82080","","null","","","null","34","","","","","","","","","","","","","","","NaN",""
"","S1","","html-keyboard-response","226","254544","0.0-1.0-317.0","0","0","82080","","null","","","null","35","","","","","","","","","","","","","","","",""
"","ISI","","html-keyboard-response","227","256547","0.0-1.0-318.0","0","0","82080","","null","","","null","35","NaN","","","","","","","","","","","","","","",""
"","S2","","html-keyboard-response","228","256700","0.0-1.0-319.0","0","0","82080","","null","","","null","35","","NaN","","","","","","","","","","","","","",""
"","response","","html-keyboard-response","229","257184","0.0-1.0-320.0-0.0","0","0","82080","","483","","","68","35","","","1","35","training","adjacent","BA","2","1","P.jpg","O.jpg","1","0","0","",""
"","feedback","","html-keyboard-response","230","258187","0.0-1.0-321.0-0.0","0","0","82080","","null","","","null","35","","","","","","","","","","","","","","","",""
"","time_out","","html-keyboard-response","231","260190","0.0-1.0-323.0-0.0","0","0","82080","","null","","","null","35","","","","","","","","","","","","","","","",""
"","ITI","","html-keyboard-response","232","261193","0.0-1.0-324.0","0","0","82080","","null","","","null","35","","","","","","","","","","","","","","","NaN",""
"","S1","","html-keyboard-response","233","261346","0.0-1.0-326.0","0","0","82080","","null","","","null","36","","","","","","","","","","","","","","","",""
"","ISI","","html-keyboard-response","234","263348","0.0-1.0-327.0","0","0","82080","","null","","","null","36","NaN","","","","","","","","","","","","","","",""
"","S2","","html-keyboard-response","235","263502","0.0-1.0-328.0","0","0","82080","","null","","","null","36","","NaN","","","","","","","","","","","","","",""
"","response","","html-keyboard-response","236","263950","0.0-1.0-329.0-0.0","0","0","82080","","447","","","75","36","","","1","36","training","adjacent","GF","7","6","N.jpg","L.jpg","0","0","1","",""
"","feedback","","html-keyboard-response","237","264952","0.0-1.0-330.0-0.0","0","0","82080","","null","","","null","36","","","","","","","","","","","","","","","",""
"","ITI","","html-keyboard-response","238","265954","0.0-1.0-333.0","0","0","82080","","null","","","null","36","","","","","","","","","","","","","","","NaN",""
"","S1","","html-keyboard-response","239","266107","0.0-1.0-335.0","0","0","82080","","null","","","null","37","","","","","","","","","","","","","","","",""
"","ISI","","html-keyboard-response","240","268109","0.0-1.0-336.0","0","0","82080","","null","","","null","37","NaN","","","","","","","","","","","","","","",""
"","S2","","html-keyboard-response","241","268264","0.0-1.0-337.0","0","0","82080","","null","","","null","37","","NaN","","","","","","","","","","","","","",""
"","response","","html-keyboard-response","242","268822","0.0-1.0-338.0-0.0","0","0","82080","","555","","","75","37","","","1","37","training","adjacent","DC","4","3","R.jpg","Q.jpg","0","0","1","",""
"","feedback","","html-keyboard-response","243","269825","0.0-1.0-339.0-0.0","0","0","82080","","null","","","null","37","","","","","","","","","","","","","","","",""
"","ITI","","html-keyboard-response","244","270828","0.0-1.0-342.0","0","0","82080","","null","","","null","37","","","","","","","","","","","","","","","NaN",""
"","S1","","html-keyboard-response","245","270981","0.0-1.0-344.0","0","0","82080","","null","","","null","38","","","","","","","","","","","","","","","",""
"","ISI","","html-keyboard-response","246","272984","0.0-1.0-345.0","0","0","82080","","null","","","null","38","NaN","","","","","","","","","","","","","","",""
"","S2","","html-keyboard-response","247","273137","0.0-1.0-346.0","0","0","82080","","null","","","null","38","","NaN","","","","","","","","","","","","","",""
"","response","","html-keyboard-response","248","273888","0.0-1.0-347.0-0.0","0","0","82080","","749","","","68","38","","","1","38","training","adjacent","CB","3","2","Q.jpg","P.jpg","1","0","0","",""
"","feedback","","html-keyboard-response","249","274891","0.0-1.0-348.0-0.0","0","0","82080","","null","","","null","38","","","","","","","","","","","","","","","",""
"","time_out","","html-keyboard-response","250","276894","0.0-1.0-350.0-0.0","0","0","82080","","null","","","null","38","","","","","","","","","","","","","","","",""
"","ITI","","html-keyboard-response","251","277896","0.0-1.0-351.0","0","0","82080","","null","","","null","38","","","","","","","","","","","","","","","NaN",""
"","S1","","html-keyboard-response","252","278059","0.0-1.0-353.0","0","0","82080","","null","","","null","39","","","","","","","","","","","","","","","",""
"","ISI","","html-keyboard-response","253","280062","0.0-1.0-354.0","0","0","82080","","null","","","null","39","NaN","","","","","","","","","","","","","","",""
"","S2","","html-keyboard-response","254","280214","0.0-1.0-355.0","0","0","82080","","null","","","null","39","","NaN","","","","","","","","","","","","","",""
"","response","","html-keyboard-response","255","280774","0.0-1.0-356.0-0.0","0","0","82080","","558","","","68","39","","","1","39","training","adjacent","BC","2","3","P.jpg","Q.jpg","1","1","1","",""
"","feedback","","html-keyboard-response","256","281777","0.0-1.0-357.0-0.0","0","0","82080","","null","","","null","39","","","","","","","","","","","","","","","",""
"","ITI","","html-keyboard-response","257","282780","0.0-1.0-360.0","0","0","82080","","null","","","null","39","","","","","","","","","","","","","","","NaN",""
"","S1","","html-keyboard-response","258","282932","0.0-1.0-362.0","0","0","82080","","null","","","null","40","","","","","","","","","","","","","","","",""
"","ISI","","html-keyboard-response","259","284935","0.0-1.0-363.0","0","0","82080","","null","","","null","40","NaN","","","","","","","","","","","","","","",""
"","S2","","html-keyboard-response","260","285088","0.0-1.0-364.0","0","0","82080","","null","","","null","40","","NaN","","","","","","","","","","","","","",""
"","response","","html-keyboard-response","261","286045","0.0-1.0-365.0-0.0","0","0","82080","","956","","","68","40","","","1","40","training","adjacent","CD","3","4","Q.jpg","R.jpg","1","1","1","",""
"","feedback","","html-keyboard-response","262","287047","0.0-1.0-366.0-0.0","0","0","82080","","null","","","null","40","","","","","","","","","","","","","","","",""
"","ITI","","html-keyboard-response","263","288049","0.0-1.0-369.0","0","0","82080","","null","","","null","40","","","","","","","","","","","","","","","NaN",""
"","S1","","html-keyboard-response","264","288203","0.0-1.0-371.0","0","0","82080","","null","","","null","41","","","","","","","","","","","","","","","",""
"","ISI","","html-keyboard-response","265","290206","0.0-1.0-372.0","0","0","82080","","null","","","null","41","NaN","","","","","","","","","","","","","","",""
"","S2","","html-keyboard-response","266","290358","0.0-1.0-373.0","0","0","82080","","null","","","null","41","","NaN","","","","","","","","","","","","","",""
"","response","","html-keyboard-response","267","290924","0.0-1.0-374.0-0.0","0","0","82080","","565","","","68","41","","","1","41","training","adjacent","BA","2","1","P.jpg","O.jpg","1","0","0","",""
"","feedback","","html-keyboard-response","268","291927","0.0-1.0-375.0-0.0","0","0","82080","","null","","","null","41","","","","","","","","","","","","","","","",""
"","time_out","","html-keyboard-response","269","293929","0.0-1.0-377.0-0.0","0","0","82080","","null","","","null","41","","","","","","","","","","","","","","","",""
"","ITI","","html-keyboard-response","270","294931","0.0-1.0-378.0","0","0","82080","","null","","","null","41","","","","","","","","","","","","","","","NaN",""
"","S1","","html-keyboard-response","271","295084","0.0-1.0-380.0","0","0","82080","","null","","","null","42","","","","","","","","","","","","","","","",""
"","ISI","","html-keyboard-response","272","297088","0.0-1.0-381.0","0","0","82080","","null","","","null","42","NaN","","","","","","","","","","","","","","",""
"","S2","","html-keyboard-response","273","297241","0.0-1.0-382.0","0","0","82080","","null","","","null","42","","NaN","","","","","","","","","","","","","",""
"","response","","html-keyboard-response","274","297913","0.0-1.0-383.0-0.0","0","0","82080","","671","","","75","42","","","1","42","training","adjacent","GF","7","6","N.jpg","L.jpg","0","0","1","",""
"","feedback","","html-keyboard-response","275","298916","0.0-1.0-384.0-0.0","0","0","82080","","null","","","null","42","","","","","","","","","","","","","","","",""
"","ITI","","html-keyboard-response","276","299919","0.0-1.0-387.0","0","0","82080","","null","","","null","42","","","","","","","","","","","","","","","NaN",""
"","S1","","html-keyboard-response","277","300072","0.0-1.0-389.0","0","0","82080","","null","","","null","43","","","","","","","","","","","","","","","",""
"","ISI","","html-keyboard-response","278","302075","0.0-1.0-390.0","0","0","82080","","null","","","null","43","NaN","","","","","","","","","","","","","","",""
"","S2","","html-keyboard-response","279","302228","0.0-1.0-391.0","0","0","82080","","null","","","null","43","","NaN","","","","","","","","","","","","","",""
"","response","","html-keyboard-response","280","302723","0.0-1.0-392.0-0.0","0","0","82080","","493","","","75","43","","","1","43","training","adjacent","ED","5","4","M.jpg","R.jpg","0","0","1","",""
"","feedback","","html-keyboard-response","281","303726","0.0-1.0-393.0-0.0","0","0","82080","","null","","","null","43","","","","","","","","","","","","","","","",""
"","ITI","","html-keyboard-response","282","304729","0.0-1.0-396.0","0","0","82080","","null","","","null","43","","","","","","","","","","","","","","","NaN",""
"","S1","","html-keyboard-response","283","304882","0.0-1.0-398.0","0","0","82080","","null","","","null","44","","","","","","","","","","","","","","","",""
"","ISI","","html-keyboard-response","284","306886","0.0-1.0-399.0","0","0","82080","","null","","","null","44","NaN","","","","","","","","","","","","","","",""
"","S2","","html-keyboard-response","285","307039","0.0-1.0-400.0","0","0","82080","","null","","","null","44","","NaN","","","","","","","","","","","","","",""
"","response","","html-keyboard-response","286","307548","0.0-1.0-401.0-0.0","0","0","82080","","507","","","75","44","","","1","44","training","adjacent","BC","2","3","P.jpg","Q.jpg","0","1","0","",""
"","feedback","","html-keyboard-response","287","308551","0.0-1.0-402.0-0.0","0","0","82080","","null","","","null","44","","","","","","","","","","","","","","","",""
"","time_out","","html-keyboard-response","288","310554","0.0-1.0-404.0-0.0","0","0","82080","","null","","","null","44","","","","","","","","","","","","","","","",""
"","ITI","","html-keyboard-response","289","311556","0.0-1.0-405.0","0","0","82080","","null","","","null","44","","","","","","","","","","","","","","","NaN",""
"","S1","","html-keyboard-response","290","311709","0.0-1.0-407.0","0","0","82080","","null","","","null","45","","","","","","","","","","","","","","","",""
"","ISI","","html-keyboard-response","291","313711","0.0-1.0-408.0","0","0","82080","","null","","","null","45","NaN","","","","","","","","","","","","","","",""
"","S2","","html-keyboard-response","292","313864","0.0-1.0-409.0","0","0","82080","","null","","","null","45","","NaN","","","","","","","","","","","","","",""
"","response","","html-keyboard-response","293","314813","0.0-1.0-410.0-0.0","0","0","82080","","946","","","68","45","","","1","45","training","adjacent","CD","3","4","Q.jpg","R.jpg","1","1","1","",""
"","feedback","","html-keyboard-response","294","315817","0.0-1.0-411.0-0.0","0","0","82080","","null","","","null","45","","","","","","","","","","","","","","","",""
"","ITI","","html-keyboard-response","295","316821","0.0-1.0-414.0","0","0","82080","","null","","","null","45","","","","","","","","","","","","","","","NaN",""
"","S1","","html-keyboard-response","296","316975","0.0-1.0-416.0","0","0","82080","","null","","","null","46","","","","","","","","","","","","","","","",""
"","ISI","","html-keyboard-response","297","318978","0.0-1.0-417.0","0","0","82080","","null","","","null","46","NaN","","","","","","","","","","","","","","",""
"","S2","","html-keyboard-response","298","319131","0.0-1.0-418.0","0","0","82080","","null","","","null","46","","NaN","","","","","","","","","","","","","",""
"","response","","html-keyboard-response","299","319818","0.0-1.0-419.0-0.0","0","0","82080","","685","","","75","46","","","1","46","training","adjacent","EF","5","6","M.jpg","L.jpg","0","1","0","",""
"","feedback","","html-keyboard-response","300","320821","0.0-1.0-420.0-0.0","0","0","82080","","null","","","null","46","","","","","","","","","","","","","","","",""
"","time_out","","html-keyboard-response","301","322824","0.0-1.0-422.0-0.0","0","0","82080","","null","","","null","46","","","","","","","","","","","","","","","",""
"","ITI","","html-keyboard-response","302","323828","0.0-1.0-423.0","0","0","82080","","null","","","null","46","","","","","","","","","","","","","","","NaN",""
"","S1","","html-keyboard-response","303","323982","0.0-1.0-425.0","0","0","82080","","null","","","null","47","","","","","","","","","","","","","","","",""
"","ISI","","html-keyboard-response","304","325984","0.0-1.0-426.0","0","0","82080","","null","","","null","47","NaN","","","","","","","","","","","","","","",""
"","S2","","html-keyboard-response","305","326137","0.0-1.0-427.0","0","0","82080","","null","","","null","47","","NaN","","","","","","","","","","","","","",""
"","response","","html-keyboard-response","306","326460","0.0-1.0-428.0-0.0","0","0","82080","","322","","","75","47","","","1","47","training","adjacent","GF","7","6","N.jpg","L.jpg","0","0","1","",""
"","feedback","","html-keyboard-response","307","327462","0.0-1.0-429.0-0.0","0","0","82080","","null","","","null","47","","","","","","","","","","","","","","","",""
"","ITI","","html-keyboard-response","308","328464","0.0-1.0-432.0","0","0","82080","","null","","","null","47","","","","","","","","","","","","","","","NaN",""
"","block_over","","html-keyboard-response","309","332154","0.0-1.0-433.0-0.0","0","0","82080","","3688","","","32","47","","","","","","","","","","","","","","","",""
"","S1","","html-keyboard-response","310","332306","0.0-1.0-434.0","0","0","82080","","null","","","null","48","","","","","","","","","","","","","","","",""
"","ISI","","html-keyboard-response","311","334308","0.0-1.0-435.0","0","0","82080","","null","","","null","48","NaN","","","","","","","","","","","","","","",""
"","S2","","html-keyboard-response","312","334461","0.0-1.0-436.0","0","0","82080","","null","","","null","48","","NaN","","","","","","","","","","","","","",""
"","response","","html-keyboard-response","313","335403","0.0-1.0-437.0-0.0","0","0","82080","","941","","","68","48","","","2","48","training","adjacent","CD","3","4","Q.jpg","R.jpg","1","1","1","",""
"","feedback","","html-keyboard-response","314","336407","0.0-1.0-438.0-0.0","0","0","82080","","null","","","null","48","","","","","","","","","","","","","","","",""
"","ITI","","html-keyboard-response","315","337409","0.0-1.0-441.0","0","0","82080","","null","","","null","48","","","","","","","","","","","","","","","NaN",""
"","S1","","html-keyboard-response","316","337561","0.0-1.0-443.0","0","0","82080","","null","","","null","49","","","","","","","","","","","","","","","",""
"","ISI","","html-keyboard-response","317","339564","0.0-1.0-444.0","0","0","82080","","null","","","null","49","NaN","","","","","","","","","","","","","","",""
"","S2","","html-keyboard-response","318","339716","0.0-1.0-445.0","0","0","82080","","null","","","null","49","","NaN","","","","","","","","","","","","","",""
"","response","","html-keyboard-response","319","340477","0.0-1.0-446.0-0.0","0","0","82080","","759","","","75","49","","","2","49","training","adjacent","GF","7","6","N.jpg","L.jpg","0","0","1","",""
"","feedback","","html-keyboard-response","320","341479","0.0-1.0-447.0-0.0","0","0","82080","","null","","","null","49","","","","","","","","","","","","","","","",""
"","ITI","","html-keyboard-response","321","342481","0.0-1.0-450.0","0","0","82080","","null","","","null","49","","","","","","","","","","","","","","","NaN",""
"","S1","","html-keyboard-response","322","342635","0.0-1.0-452.0","0","0","82080","","null","","","null","50","","","","","","","","","","","","","","","",""
"","ISI","","html-keyboard-response","323","344638","0.0-1.0-453.0","0","0","82080","","null","","","null","50","NaN","","","","","","","","","","","","","","",""
"","S2","","html-keyboard-response","324","344791","0.0-1.0-454.0","0","0","82080","","null","","","null","50","","NaN","","","","","","","","","","","","","",""
"","response","","html-keyboard-response","325","345396","0.0-1.0-455.0-0.0","0","0","82080","","604","","","75","50","","","2","50","training","adjacent","CB","3","2","Q.jpg","P.jpg","0","0","1","",""
"","feedback","","html-keyboard-response","326","346399","0.0-1.0-456.0-0.0","0","0","82080","","null","","","null","50","","","","","","","","","","","","","","","",""
"","ITI","","html-keyboard-response","327","347402","0.0-1.0-459.0","0","0","82080","","null","","","null","50","","","","","","","","","","","","","","","NaN",""
"","S1","","html-keyboard-response","328","347556","0.0-1.0-461.0","0","0","82080","","null","","","null","51","","","","","","","","","","","","","","","",""
"","ISI","","html-keyboard-response","329","349559","0.0-1.0-462.0","0","0","82080","","null","","","null","51","NaN","","","","","","","","","","","","","","",""
"","S2","","html-keyboard-response","330","349712","0.0-1.0-463.0","0","0","82080","","null","","","null","51","","NaN","","","","","","","","","","","","","",""
"","response","","html-keyboard-response","331","350358","0.0-1.0-464.0-0.0","0","0","82080","","644","","","68","51","","","2","51","training","adjacent","BC","2","3","P.jpg","Q.jpg","1","1","1","",""
"","feedback","","html-keyboard-response","332","351360","0.0-1.0-465.0-0.0","0","0","82080","","null","","","null","51","","","","","","","","","","","","","","","",""
"","ITI","","html-keyboard-response","333","352363","0.0-1.0-468.0","0","0","82080","","null","","","null","51","","","","","","","","","","","","","","","NaN",""
"","S1","","html-keyboard-response","334","352516","0.0-1.0-470.0","0","0","82080","","null","","","null","52","","","","","","","","","","","","","","","",""
"","ISI","","html-keyboard-response","335","354518","0.0-1.0-471.0","0","0","82080","","null","","","null","52","NaN","","","","","","","","","","","","","","",""
"","S2","","html-keyboard-response","336","354671","0.0-1.0-472.0","0","0","82080","","null","","","null","52","","NaN","","","","","","","","","","","","","",""
"","response","","html-keyboard-response","337","355660","0.0-1.0-473.0-0.0","0","0","82080","","988","","","68","52","","","2","52","training","adjacent","DE","4","5","R.jpg","M.jpg","1","1","1","",""
"","feedback","","html-keyboard-response","338","356664","0.0-1.0-474.0-0.0","0","0","82080","","null","","","null","52","","","","","","","","","","","","","","","",""
"","ITI","","html-keyboard-response","339","357667","0.0-1.0-477.0","0","0","82080","","null","","","null","52","","","","","","","","","","","","","","","NaN",""
"","S1","","html-keyboard-response","340","357819","0.0-1.0-479.0","0","0","82080","","null","","","null","53","","","","","","","","","","","","","","","",""
"","ISI","","html-keyboard-response","341","359822","0.0-1.0-480.0","0","0","82080","","null","","","null","53","NaN","","","","","","","","","","","","","","",""
"","S2","","html-keyboard-response","342","359974","0.0-1.0-481.0","0","0","82080","","null","","","null","53","","NaN","","","","","","","","","","","","","",""
"","response","","html-keyboard-response","343","360475","0.0-1.0-482.0-0.0","0","0","82080","","499","","","75","53","","","2","53","training","adjacent","BA","2","1","P.jpg","O.jpg","0","0","1","",""
"","feedback","","html-keyboard-response","344","361478","0.0-1.0-483.0-0.0","0","0","82080","","null","","","null","53","","","","","","","","","","","","","","","",""
"","ITI","","html-keyboard-response","345","362481","0.0-1.0-486.0","0","0","82080","","null","","","null","53","","","","","","","","","","","","","","","NaN",""
"","S1","","html-keyboard-response","346","362633","0.0-1.0-488.0","0","0","82080","","null","","","null","54","","","","","","","","","","","","","","","",""
"","ISI","","html-keyboard-response","347","364636","0.0-1.0-489.0","0","0","82080","","null","","","null","54","NaN","","","","","","","","","","","","","","",""
"","S2","","html-keyboard-response","348","364789","0.0-1.0-490.0","0","0","82080","","null","","","null","54","","NaN","","","","","","","","","","","","","",""
"","response","","html-keyboard-response","349","365752","0.0-1.0-491.0-0.0","0","0","82080","","962","","","68","54","","","2","54","training","adjacent","FG","6","7","L.jpg","N.jpg","1","1","1","",""
"","feedback","","html-keyboard-response","350","366756","0.0-1.0-492.0-0.0","0","0","82080","","null","","","null","54","","","","","","","","","","","","","","","",""
"","ITI","","html-keyboard-response","351","367759","0.0-1.0-495.0","0","0","82080","","null","","","null","54","","","","","","","","","","","","","","","NaN",""
"","S1","","html-keyboard-response","352","367912","0.0-1.0-497.0","0","0","82080","","null","","","null","55","","","","","","","","","","","","","","","",""
"","ISI","","html-keyboard-response","353","369916","0.0-1.0-498.0","0","0","82080","","null","","","null","55","NaN","","","","","","","","","","","","","","",""
"","S2","","html-keyboard-response","354","370074","0.0-1.0-499.0","0","0","82080","","null","","","null","55","","NaN","","","","","","","","","","","","","",""
"","response","","html-keyboard-response","355","371687","0.0-1.0-500.0-0.0","0","0","82080","","1609","","","75","55","","","2","55","training","adjacent","DC","4","3","R.jpg","Q.jpg","0","0","1","",""
"","feedback","","html-keyboard-response","356","372690","0.0-1.0-501.0-0.0","0","0","82080","","null","","","null","55","","","","","","","","","","","","","","","",""
"","ITI","","html-keyboard-response","357","373692","0.0-1.0-504.0","0","0","82080","","null","","","null","55","","","","","","","","","","","","","","","NaN",""
"","S1","","html-keyboard-response","358","373846","0.0-1.0-506.0","0","0","82080","","null","","","null","56","","","","","","","","","","","","","","","",""
"","ISI","","html-keyboard-response","359","375849","0.0-1.0-507.0","0","0","82080","","null","","","null","56","NaN","","","","","","","","","","","","","","",""
"","S2","","html-keyboard-response","360","376002","0.0-1.0-508.0","0","0","82080","","null","","","null","56","","NaN","","","","","","","","","","","","","",""
"","response","","html-keyboard-response","361","376862","0.0-1.0-509.0-0.0","0","0","82080","","858","","","68","56","","","2","56","training","adjacent","CD","3","4","Q.jpg","R.jpg","1","1","1","",""
"","feedback","","html-keyboard-response","362","377865","0.0-1.0-510.0-0.0","0","0","82080","","null","","","null","56","","","","","","","","","","","","","","","",""
"","ITI","","html-keyboard-response","363","378868","0.0-1.0-513.0","0","0","82080","","null","","","null","56","","","","","","","","","","","","","","","NaN",""
"","S1","","html-keyboard-response","364","379021","0.0-1.0-515.0","0","0","82080","","null","","","null","57","","","","","","","","","","","","","","","",""
"","ISI","","html-keyboard-response","365","381025","0.0-1.0-516.0","0","0","82080","","null","","","null","57","NaN","","","","","","","","","","","","","","",""
"","S2","","html-keyboard-response","366","381179","0.0-1.0-517.0","0","0","82080","","null","","","null","57","","NaN","","","","","","","","","","","","","",""
"","response","","html-keyboard-response","367","382009","0.0-1.0-518.0-0.0","0","0","82080","","828","","","68","57","","","2","57","training","adjacent","EF","5","6","M.jpg","L.jpg","1","1","1","",""
"","feedback","","html-keyboard-response","368","383012","0.0-1.0-519.0-0.0","0","0","82080","","null","","","null","57","","","","","","","","","","","","","","","",""
"","ITI","","html-keyboard-response","369","384016","0.0-1.0-522.0","0","0","82080","","null","","","null","57","","","","","","","","","","","","","","","NaN",""
"","S1","","html-keyboard-response","370","384169","0.0-1.0-524.0","0","0","82080","","null","","","null","58","","","","","","","","","","","","","","","",""
"","ISI","","html-keyboard-response","371","386172","0.0-1.0-525.0","0","0","82080","","null","","","null","58","NaN","","","","","","","","","","","","","","",""
"","S2","","html-keyboard-response","372","386325","0.0-1.0-526.0","0","0","82080","","null","","","null","58","","NaN","","","","","","","","","","","","","",""
"","response","","html-keyboard-response","373","387271","0.0-1.0-527.0-0.0","0","0","82080","","946","","","68","58","","","2","58","training","adjacent","DC","4","3","R.jpg","Q.jpg","1","0","0","",""
"","feedback","","html-keyboard-response","374","388275","0.0-1.0-528.0-0.0","0","0","82080","","null","","","null","58","","","","","","","","","","","","","","","",""
"","time_out","","html-keyboard-response","375","390279","0.0-1.0-530.0-0.0","0","0","82080","","null","","","null","58","","","","","","","","","","","","","","","",""
"","ITI","","html-keyboard-response","376","391283","0.0-1.0-531.0","0","0","82080","","null","","","null","58","","","","","","","","","","","","","","","NaN",""
"","S1","","html-keyboard-response","377","391435","0.0-1.0-533.0","0","0","82080","","null","","","null","59","","","","","","","","","","","","","","","",""
"","ISI","","html-keyboard-response","378","393437","0.0-1.0-534.0","0","0","82080","","null","","","null","59","NaN","","","","","","","","","","","","","","",""
"","S2","","html-keyboard-response","379","393604","0.0-1.0-535.0","0","0","82080","","null","","","null","59","","NaN","","","","","","","","","","","","","",""
"","response","","html-keyboard-response","380","394445","0.0-1.0-536.0-0.0","0","0","82080","","840","","","68","59","","","2","59","training","adjacent","FE","6","5","L.jpg","M.jpg","1","0","0","",""
"","feedback","","html-keyboard-response","381","395449","0.0-1.0-537.0-0.0","0","0","82080","","null","","","null","59","","","","","","","","","","","","","","","",""
"","time_out","","html-keyboard-response","382","397453","0.0-1.0-539.0-0.0","0","0","82080","","null","","","null","59","","","","","","","","","","","","","","","",""
"","ITI","","html-keyboard-response","383","398455","0.0-1.0-540.0","0","0","82080","","null","","","null","59","","","","","","","","","","","","","","","NaN",""
"","S1","","html-keyboard-response","384","398609","0.0-1.0-542.0","0","0","82080","","null","","","null","60","","","","","","","","","","","","","","","",""
"","ISI","","html-keyboard-response","385","400613","0.0-1.0-543.0","0","0","82080","","null","","","null","60","NaN","","","","","","","","","","","","","","",""
"","S2","","html-keyboard-response","386","400777","0.0-1.0-544.0","0","0","82080","","null","","","null","60","","NaN","","","","","","","","","","","","","",""
"","response","","html-keyboard-response","387","401579","0.0-1.0-545.0-0.0","0","0","82080","","800","","","75","60","","","2","60","training","adjacent","FE","6","5","L.jpg","M.jpg","0","0","1","",""
"","feedback","","html-keyboard-response","388","402581","0.0-1.0-546.0-0.0","0","0","82080","","null","","","null","60","","","","","","","","","","","","","","","",""
"","ITI","","html-keyboard-response","389","403584","0.0-1.0-549.0","0","0","82080","","null","","","null","60","","","","","","","","","","","","","","","NaN",""
"","S1","","html-keyboard-response","390","403737","0.0-1.0-551.0","0","0","82080","","null","","","null","61","","","","","","","","","","","","","","","",""
"","ISI","","html-keyboard-response","391","405740","0.0-1.0-552.0","0","0","82080","","null","","","null","61","NaN","","","","","","","","","","","","","","",""
"","S2","","html-keyboard-response","392","405893","0.0-1.0-553.0","0","0","82080","","null","","","null","61","","NaN","","","","","","","","","","","","","",""
"","response","","html-keyboard-response","393","406588","0.0-1.0-554.0-0.0","0","0","82080","","694","","","68","61","","","2","61","training","adjacent","FG","6","7","L.jpg","N.jpg","1","1","1","",""
"","feedback","","html-keyboard-response","394","407592","0.0-1.0-555.0-0.0","0","0","82080","","null","","","null","61","","","","","","","","","","","","","","","",""
"","ITI","","html-keyboard-response","395","408595","0.0-1.0-558.0","0","0","82080","","null","","","null","61","","","","","","","","","","","","","","","NaN",""
"","S1","","html-keyboard-response","396","408748","0.0-1.0-560.0","0","0","82080","","null","","","null","62","","","","","","","","","","","","","","","",""
"","ISI","","html-keyboard-response","397","410750","0.0-1.0-561.0","0","0","82080","","null","","","null","62","NaN","","","","","","","","","","","","","","",""
"","S2","","html-keyboard-response","398","410904","0.0-1.0-562.0","0","0","82080","","null","","","null","62","","NaN","","","","","","","","","","","","","",""
"","response","","html-keyboard-response","399","411688","0.0-1.0-563.0-0.0","0","0","82080","","782","","","75","62","","","2","62","training","adjacent","EF","5","6","M.jpg","L.jpg","0","1","0","",""
"","feedback","","html-keyboard-response","400","412691","0.0-1.0-564.0-0.0","0","0","82080","","null","","","null","62","","","","","","","","","","","","","","","",""
"","time_out","","html-keyboard-response","401","414694","0.0-1.0-566.0-0.0","0","0","82080","","null","","","null","62","","","","","","","","","","","","","","","",""
"","ITI","","html-keyboard-response","402","415697","0.0-1.0-567.0","0","0","82080","","null","","","null","62","","","","","","","","","","","","","","","NaN",""
"","S1","","html-keyboard-response","403","415855","0.0-1.0-569.0","0","0","82080","","null","","","null","63","","","","","","","","","","","","","","","",""
"","ISI","","html-keyboard-response","404","417859","0.0-1.0-570.0","0","0","82080","","null","","","null","63","NaN","","","","","","","","","","","","","","",""
"","S2","","html-keyboard-response","405","418013","0.0-1.0-571.0","0","0","82080","","null","","","null","63","","NaN","","","","","","","","","","","","","",""
"","response","","html-keyboard-response","406","418393","0.0-1.0-572.0-0.0","0","0","82080","","378","","","75","63","","","2","63","training","adjacent","DC","4","3","R.jpg","Q.jpg","0","0","1","",""
"","feedback","","html-keyboard-response","407","419395","0.0-1.0-573.0-0.0","0","0","82080","","null","","","null","63","","","","","","","","","","","","","","","",""
"","ITI","","html-keyboard-response","408","420398","0.0-1.0-576.0","0","0","82080","","null","","","null","63","","","","","","","","","","","","","","","NaN",""
"","S1","","html-keyboard-response","409","420550","0.0-1.0-578.0","0","0","82080","","null","","","null","64","","","","","","","","","","","","","","","",""
"","ISI","","html-keyboard-response","410","422552","0.0-1.0-579.0","0","0","82080","","null","","","null","64","NaN","","","","","","","","","","","","","","",""
"","S2","","html-keyboard-response","411","422706","0.0-1.0-580.0","0","0","82080","","null","","","null","64","","NaN","","","","","","","","","","","","","",""
"","response","","html-keyboard-response","412","423721","0.0-1.0-581.0-0.0","0","0","82080","","1014","","","68","64","","","2","64","training","adjacent","FG","6","7","L.jpg","N.jpg","1","1","1","",""
"","feedback","","html-keyboard-response","413","424724","0.0-1.0-582.0-0.0","0","0","82080","","null","","","null","64","","","","","","","","","","","","","","","",""
"","ITI","","html-keyboard-response","414","425727","0.0-1.0-585.0","0","0","82080","","null","","","null","64","","","","","","","","","","","","","","","NaN",""
"","S1","","html-keyboard-response","415","425880","0.0-1.0-587.0","0","0","82080","","null","","","null","65","","","","","","","","","","","","","","","",""
"","ISI","","html-keyboard-response","416","427883","0.0-1.0-588.0","0","0","82080","","null","","","null","65","NaN","","","","","","","","","","","","","","",""
"","S2","","html-keyboard-response","417","428036","0.0-1.0-589.0","0","0","82080","","null","","","null","65","","NaN","","","","","","","","","","","","","",""
"","response","","html-keyboard-response","418","429254","0.0-1.0-590.0-0.0","0","0","82080","","1216","","","68","65","","","2","65","training","adjacent","DE","4","5","R.jpg","M.jpg","1","1","1","",""
"","feedback","","html-keyboard-response","419","430258","0.0-1.0-591.0-0.0","0","0","82080","","null","","","null","65","","","","","","","","","","","","","","","",""
"","ITI","","html-keyboard-response","420","431261","0.0-1.0-594.0","0","0","82080","","null","","","null","65","","","","","","","","","","","","","","","NaN",""
"","S1","","html-keyboard-response","421","431414","0.0-1.0-596.0","0","0","82080","","null","","","null","66","","","","","","","","","","","","","","","",""
"","ISI","","html-keyboard-response","422","433416","0.0-1.0-597.0","0","0","82080","","null","","","null","66","NaN","","","","","","","","","","","","","","",""
"","S2","","html-keyboard-response","423","433569","0.0-1.0-598.0","0","0","82080","","null","","","null","66","","NaN","","","","","","","","","","","","","",""
"","response","","html-keyboard-response","424","434204","0.0-1.0-599.0-0.0","0","0","82080","","633","","","75","66","","","2","66","training","adjacent","BA","2","1","P.jpg","O.jpg","0","0","1","",""
"","feedback","","html-keyboard-response","425","435208","0.0-1.0-600.0-0.0","0","0","82080","","null","","","null","66","","","","","","","","","","","","","","","",""
"","ITI","","html-keyboard-response","426","436211","0.0-1.0-603.0","0","0","82080","","null","","","null","66","","","","","","","","","","","","","","","NaN",""
"","S1","","html-keyboard-response","427","436366","0.0-1.0-605.0","0","0","82080","","null","","","null","67","","","","","","","","","","","","","","","",""
"","ISI","","html-keyboard-response","428","438369","0.0-1.0-606.0","0","0","82080","","null","","","null","67","NaN","","","","","","","","","","","","","","",""
"","S2","","html-keyboard-response","429","438522","0.0-1.0-607.0","0","0","82080","","null","","","null","67","","NaN","","","","","","","","","","","","","",""
"","response","","html-keyboard-response","430","439154","0.0-1.0-608.0-0.0","0","0","82080","","631","","","68","67","","","2","67","training","adjacent","CD","3","4","Q.jpg","R.jpg","1","1","1","",""
"","feedback","","html-keyboard-response","431","440156","0.0-1.0-609.0-0.0","0","0","82080","","null","","","null","67","","","","","","","","","","","","","","","",""
"","ITI","","html-keyboard-response","432","441159","0.0-1.0-612.0","0","0","82080","","null","","","null","67","","","","","","","","","","","","","","","NaN",""
"","S1","","html-keyboard-response","433","441311","0.0-1.0-614.0","0","0","82080","","null","","","null","68","","","","","","","","","","","","","","","",""
"","ISI","","html-keyboard-response","434","443313","0.0-1.0-615.0","0","0","82080","","null","","","null","68","NaN","","","","","","","","","","","","","","",""
"","S2","","html-keyboard-response","435","443466","0.0-1.0-616.0","0","0","82080","","null","","","null","68","","NaN","","","","","","","","","","","","","",""
"","response","","html-keyboard-response","436","444163","0.0-1.0-617.0-0.0","0","0","82080","","695","","","68","68","","","2","68","training","adjacent","FG","6","7","L.jpg","N.jpg","1","1","1","",""
"","feedback","","html-keyboard-response","437","445167","0.0-1.0-618.0-0.0","0","0","82080","","null","","","null","68","","","","","","","","","","","","","","","",""
"","ITI","","html-keyboard-response","438","446170","0.0-1.0-621.0","0","0","82080","","null","","","null","68","","","","","","","","","","","","","","","NaN",""
"","S1","","html-keyboard-response","439","446323","0.0-1.0-623.0","0","0","82080","","null","","","null","69","","","","","","","","","","","","","","","",""
"","ISI","","html-keyboard-response","440","448325","0.0-1.0-624.0","0","0","82080","","null","","","null","69","NaN","","","","","","","","","","","","","","",""
"","S2","","html-keyboard-response","441","448478","0.0-1.0-625.0","0","0","82080","","null","","","null","69","","NaN","","","","","","","","","","","","","",""
"","response","","html-keyboard-response","442","448983","0.0-1.0-626.0-0.0","0","0","82080","","504","","","75","69","","","2","69","training","adjacent","BA","2","1","P.jpg","O.jpg","0","0","1","",""
"","feedback","","html-keyboard-response","443","449986","0.0-1.0-627.0-0.0","0","0","82080","","null","","","null","69","","","","","","","","","","","","","","","",""
"","ITI","","html-keyboard-response","444","450988","0.0-1.0-630.0","0","0","82080","","null","","","null","69","","","","","","","","","","","","","","","NaN",""
"","S1","","html-keyboard-response","445","451141","0.0-1.0-632.0","0","0","82080","","null","","","null","70","","","","","","","","","","","","","","","",""
"","ISI","","html-keyboard-response","446","453143","0.0-1.0-633.0","0","0","82080","","null","","","null","70","NaN","","","","","","","","","","","","","","",""
"","S2","","html-keyboard-response","447","453295","0.0-1.0-634.0","0","0","82080","","null","","","null","70","","NaN","","","","","","","","","","","","","",""
"","response","","html-keyboard-response","448","454462","0.0-1.0-635.0-0.0","0","0","82080","","1165","","","68","70","","","2","70","training","adjacent","BC","2","3","P.jpg","Q.jpg","1","1","1","",""
"","feedback","","html-keyboard-response","449","455464","0.0-1.0-636.0-0.0","0","0","82080","","null","","","null","70","","","","","","","","","","","","","","","",""
"","ITI","","html-keyboard-response","450","456467","0.0-1.0-639.0","0","0","82080","","null","","","null","70","","","","","","","","","","","","","","","NaN",""
"","S1","","html-keyboard-response","451","456620","0.0-1.0-641.0","0","0","82080","","null","","","null","71","","","","","","","","","","","","","","","",""
"","ISI","","html-keyboard-response","452","458623","0.0-1.0-642.0","0","0","82080","","null","","","null","71","NaN","","","","","","","","","","","","","","",""
"","S2","","html-keyboard-response","453","458776","0.0-1.0-643.0","0","0","82080","","null","","","null","71","","NaN","","","","","","","","","","","","","",""
"","response","","html-keyboard-response","454","459458","0.0-1.0-644.0-0.0","0","0","82080","","681","","","75","71","","","2","71","training","adjacent","ED","5","4","M.jpg","R.jpg","0","0","1","",""
"","feedback","","html-keyboard-response","455","460460","0.0-1.0-645.0-0.0","0","0","82080","","null","","","null","71","","","","","","","","","","","","","","","",""
"","ITI","","html-keyboard-response","456","461463","0.0-1.0-648.0","0","0","82080","","null","","","null","71","","","","","","","","","","","","","","","NaN",""
"","S1","","html-keyboard-response","457","461616","0.0-1.0-650.0","0","0","82080","","null","","","null","72","","","","","","","","","","","","","","","",""
"","ISI","","html-keyboard-response","458","463618","0.0-1.0-651.0","0","0","82080","","null","","","null","72","NaN","","","","","","","","","","","","","","",""
"","S2","","html-keyboard-response","459","463770","0.0-1.0-652.0","0","0","82080","","null","","","null","72","","NaN","","","","","","","","","","","","","",""
"","response","","html-keyboard-response","460","464511","0.0-1.0-653.0-0.0","0","0","82080","","739","","","75","72","","","2","72","training","adjacent","CB","3","2","Q.jpg","P.jpg","0","0","1","",""
"","feedback","","html-keyboard-response","461","465515","0.0-1.0-654.0-0.0","0","0","82080","","null","","","null","72","","","","","","","","","","","","","","","",""
"","ITI","","html-keyboard-response","462","466518","0.0-1.0-657.0","0","0","82080","","null","","","null","72","","","","","","","","","","","","","","","NaN",""
"","S1","","html-keyboard-response","463","466671","0.0-1.0-659.0","0","0","82080","","null","","","null","73","","","","","","","","","","","","","","","",""
"","ISI","","html-keyboard-response","464","468674","0.0-1.0-660.0","0","0","82080","","null","","","null","73","NaN","","","","","","","","","","","","","","",""
"","S2","","html-keyboard-response","465","468831","0.0-1.0-661.0","0","0","82080","","null","","","null","73","","NaN","","","","","","","","","","","","","",""
"","response","","html-keyboard-response","466","469369","0.0-1.0-662.0-0.0","0","0","82080","","536","","","68","73","","","2","73","training","adjacent","AB","1","2","O.jpg","P.jpg","1","1","1","",""
"","feedback","","html-keyboard-response","467","470372","0.0-1.0-663.0-0.0","0","0","82080","","null","","","null","73","","","","","","","","","","","","","","","",""
"","ITI","","html-keyboard-response","468","471375","0.0-1.0-666.0","0","0","82080","","null","","","null","73","","","","","","","","","","","","","","","NaN",""
"","S1","","html-keyboard-response","469","471528","0.0-1.0-668.0","0","0","82080","","null","","","null","74","","","","","","","","","","","","","","","",""
"","ISI","","html-keyboard-response","470","473530","0.0-1.0-669.0","0","0","82080","","null","","","null","74","NaN","","","","","","","","","","","","","","",""
"","S2","","html-keyboard-response","471","473682","0.0-1.0-670.0","0","0","82080","","null","","","null","74","","NaN","","","","","","","","","","","","","",""
"","response","","html-keyboard-response","472","474397","0.0-1.0-671.0-0.0","0","0","82080","","713","","","75","74","","","2","74","training","adjacent","DC","4","3","R.jpg","Q.jpg","0","0","1","",""
"","feedback","","html-keyboard-response","473","475400","0.0-1.0-672.0-0.0","0","0","82080","","null","","","null","74","","","","","","","","","","","","","","","",""
"","ITI","","html-keyboard-response","474","476404","0.0-1.0-675.0","0","0","82080","","null","","","null","74","","","","","","","","","","","","","","","NaN",""
"","S1","","html-keyboard-response","475","476558","0.0-1.0-677.0","0","0","82080","","null","","","null","75","","","","","","","","","","","","","","","",""
"","ISI","","html-keyboard-response","476","478561","0.0-1.0-678.0","0","0","82080","","null","","","null","75","NaN","","","","","","","","","","","","","","",""
"","S2","","html-keyboard-response","477","478713","0.0-1.0-679.0","0","0","82080","","null","","","null","75","","NaN","","","","","","","","","","","","","",""
"","response","","html-keyboard-response","478","479340","0.0-1.0-680.0-0.0","0","0","82080","","626","","","68","75","","","2","75","training","adjacent","CD","3","4","Q.jpg","R.jpg","1","1","1","",""
"","feedback","","html-keyboard-response","479","480342","0.0-1.0-681.0-0.0","0","0","82080","","null","","","null","75","","","","","","","","","","","","","","","",""
"","ITI","","html-keyboard-response","480","481345","0.0-1.0-684.0","0","0","82080","","null","","","null","75","","","","","","","","","","","","","","","NaN",""
"","S1","","html-keyboard-response","481","481499","0.0-1.0-686.0","0","0","82080","","null","","","null","76","","","","","","","","","","","","","","","",""
"","ISI","","html-keyboard-response","482","483501","0.0-1.0-687.0","0","0","82080","","null","","","null","76","NaN","","","","","","","","","","","","","","",""
"","S2","","html-keyboard-response","483","483654","0.0-1.0-688.0","0","0","82080","","null","","","null","76","","NaN","","","","","","","","","","","","","",""
"","response","","html-keyboard-response","484","484314","0.0-1.0-689.0-0.0","0","0","82080","","658","","","75","76","","","2","76","training","adjacent","EF","5","6","M.jpg","L.jpg","0","1","0","",""
"","feedback","","html-keyboard-response","485","485316","0.0-1.0-690.0-0.0","0","0","82080","","null","","","null","76","","","","","","","","","","","","","","","",""
"","time_out","","html-keyboard-response","486","487319","0.0-1.0-692.0-0.0","0","0","82080","","null","","","null","76","","","","","","","","","","","","","","","",""
"","ITI","","html-keyboard-response","487","488322","0.0-1.0-693.0","0","0","82080","","null","","","null","76","","","","","","","","","","","","","","","NaN",""
"","S1","","html-keyboard-response","488","488475","0.0-1.0-695.0","0","0","82080","","null","","","null","77","","","","","","","","","","","","","","","",""
"","ISI","","html-keyboard-response","489","490477","0.0-1.0-696.0","0","0","82080","","null","","","null","77","NaN","","","","","","","","","","","","","","",""
"","S2","","html-keyboard-response","490","490632","0.0-1.0-697.0","0","0","82080","","null","","","null","77","","NaN","","","","","","","","","","","","","",""
"","response","","html-keyboard-response","491","491560","0.0-1.0-698.0-0.0","0","0","82080","","926","","","75","77","","","2","77","training","adjacent","ED","5","4","M.jpg","R.jpg","0","0","1","",""
"","feedback","","html-keyboard-response","492","492562","0.0-1.0-699.0-0.0","0","0","82080","","null","","","null","77","","","","","","","","","","","","","","","",""
"","ITI","","html-keyboard-response","493","493566","0.0-1.0-702.0","0","0","82080","","null","","","null","77","","","","","","","","","","","","","","","NaN",""
"","S1","","html-keyboard-response","494","493720","0.0-1.0-704.0","0","0","82080","","null","","","null","78","","","","","","","","","","","","","","","",""
"","ISI","","html-keyboard-response","495","495723","0.0-1.0-705.0","0","0","82080","","null","","","null","78","NaN","","","","","","","","","","","","","","",""
"","S2","","html-keyboard-response","496","495877","0.0-1.0-706.0","0","0","82080","","null","","","null","78","","NaN","","","","","","","","","","","","","",""
"","response","","html-keyboard-response","497","496583","0.0-1.0-707.0-0.0","0","0","82080","","704","","","75","78","","","2","78","training","adjacent","FE","6","5","L.jpg","M.jpg","0","0","1","",""
"","feedback","","html-keyboard-response","498","497587","0.0-1.0-708.0-0.0","0","0","82080","","null","","","null","78","","","","","","","","","","","","","","","",""
"","ITI","","html-keyboard-response","499","498590","0.0-1.0-711.0","0","0","82080","","null","","","null","78","","","","","","","","","","","","","","","NaN",""
"","S1","","html-keyboard-response","500","498742","0.0-1.0-713.0","0","0","82080","","null","","","null","79","","","","","","","","","","","","","","","",""
"","ISI","","html-keyboard-response","501","500745","0.0-1.0-714.0","0","0","82080","","null","","","null","79","NaN","","","","","","","","","","","","","","",""
"","S2","","html-keyboard-response","502","500897","0.0-1.0-715.0","0","0","82080","","null","","","null","79","","NaN","","","","","","","","","","","","","",""
"","response","","html-keyboard-response","503","501174","0.0-1.0-716.0-0.0","0","0","82080","","275","","","75","79","","","2","79","training","adjacent","GF","7","6","N.jpg","L.jpg","0","0","1","",""
"","feedback","","html-keyboard-response","504","502182","0.0-1.0-717.0-0.0","0","0","82080","","null","","","null","79","","","","","","","","","","","","","","","",""
"","ITI","","html-keyboard-response","505","503185","0.0-1.0-720.0","0","0","82080","","null","","","null","79","","","","","","","","","","","","","","","NaN",""
"","S1","","html-keyboard-response","506","503338","0.0-1.0-722.0","0","0","82080","","null","","","null","80","","","","","","","","","","","","","","","",""
"","ISI","","html-keyboard-response","507","505341","0.0-1.0-723.0","0","0","82080","","null","","","null","80","NaN","","","","","","","","","","","","","","",""
"","S2","","html-keyboard-response","508","505494","0.0-1.0-724.0","0","0","82080","","null","","","null","80","","NaN","","","","","","","","","","","","","",""
"","response","","html-keyboard-response","509","505893","0.0-1.0-725.0-0.0","0","0","82080","","397","","","75","80","","","2","80","training","adjacent","GF","7","6","N.jpg","L.jpg","0","0","1","",""
"","feedback","","html-keyboard-response","510","506897","0.0-1.0-726.0-0.0","0","0","82080","","null","","","null","80","","","","","","","","","","","","","","","",""
"","ITI","","html-keyboard-response","511","507900","0.0-1.0-729.0","0","0","82080","","null","","","null","80","","","","","","","","","","","","","","","NaN",""
"","S1","","html-keyboard-response","512","508053","0.0-1.0-731.0","0","0","82080","","null","","","null","81","","","","","","","","","","","","","","","",""
"","ISI","","html-keyboard-response","513","510055","0.0-1.0-732.0","0","0","82080","","null","","","null","81","NaN","","","","","","","","","","","","","","",""
"","S2","","html-keyboard-response","514","510208","0.0-1.0-733.0","0","0","82080","","null","","","null","81","","NaN","","","","","","","","","","","","","",""
"","response","","html-keyboard-response","515","510774","0.0-1.0-734.0-0.0","0","0","82080","","565","","","75","81","","","2","81","training","adjacent","ED","5","4","M.jpg","R.jpg","0","0","1","",""
"","feedback","","html-keyboard-response","516","511777","0.0-1.0-735.0-0.0","0","0","82080","","null","","","null","81","","","","","","","","","","","","","","","",""
"","ITI","","html-keyboard-response","517","512779","0.0-1.0-738.0","0","0","82080","","null","","","null","81","","","","","","","","","","","","","","","NaN",""
"","S1","","html-keyboard-response","518","512932","0.0-1.0-740.0","0","0","82080","","null","","","null","82","","","","","","","","","","","","","","","",""
"","ISI","","html-keyboard-response","519","514935","0.0-1.0-741.0","0","0","82080","","null","","","null","82","NaN","","","","","","","","","","","","","","",""
"","S2","","html-keyboard-response","520","515089","0.0-1.0-742.0","0","0","82080","","null","","","null","82","","NaN","","","","","","","","","","","","","",""
"","response","","html-keyboard-response","521","515595","0.0-1.0-743.0-0.0","0","0","82080","","505","","","68","82","","","2","82","training","adjacent","DE","4","5","R.jpg","M.jpg","1","1","1","",""
"","feedback","","html-keyboard-response","522","516599","0.0-1.0-744.0-0.0","0","0","82080","","null","","","null","82","","","","","","","","","","","","","","","",""
"","ITI","","html-keyboard-response","523","517601","0.0-1.0-747.0","0","0","82080","","null","","","null","82","","","","","","","","","","","","","","","NaN",""
"","S1","","html-keyboard-response","524","517756","0.0-1.0-749.0","0","0","82080","","null","","","null","83","","","","","","","","","","","","","","","",""
"","ISI","","html-keyboard-response","525","519758","0.0-1.0-750.0","0","0","82080","","null","","","null","83","NaN","","","","","","","","","","","","","","",""
"","S2","","html-keyboard-response","526","519911","0.0-1.0-751.0","0","0","82080","","null","","","null","83","","NaN","","","","","","","","","","","","","",""
"","response","","html-keyboard-response","527","520363","0.0-1.0-752.0-0.0","0","0","82080","","451","","","75","83","","","2","83","training","adjacent","BA","2","1","P.jpg","O.jpg","0","0","1","",""
"","feedback","","html-keyboard-response","528","521366","0.0-1.0-753.0-0.0","0","0","82080","","null","","","null","83","","","","","","","","","","","","","","","",""
"","ITI","","html-keyboard-response","529","522369","0.0-1.0-756.0","0","0","82080","","null","","","null","83","","","","","","","","","","","","","","","NaN",""
"","S1","","html-keyboard-response","530","522522","0.0-1.0-758.0","0","0","82080","","null","","","null","84","","","","","","","","","","","","","","","",""
"","ISI","","html-keyboard-response","531","524525","0.0-1.0-759.0","0","0","82080","","null","","","null","84","NaN","","","","","","","","","","","","","","",""
"","S2","","html-keyboard-response","532","524678","0.0-1.0-760.0","0","0","82080","","null","","","null","84","","NaN","","","","","","","","","","","","","",""
"","response","","html-keyboard-response","533","525332","0.0-1.0-761.0-0.0","0","0","82080","","653","","","75","84","","","2","84","training","adjacent","CB","3","2","Q.jpg","P.jpg","0","0","1","",""
"","feedback","","html-keyboard-response","534","526335","0.0-1.0-762.0-0.0","0","0","82080","","null","","","null","84","","","","","","","","","","","","","","","",""
"","ITI","","html-keyboard-response","535","527338","0.0-1.0-765.0","0","0","82080","","null","","","null","84","","","","","","","","","","","","","","","NaN",""
"","S1","","html-keyboard-response","536","527490","0.0-1.0-767.0","0","0","82080","","null","","","null","85","","","","","","","","","","","","","","","",""
"","ISI","","html-keyboard-response","537","529493","0.0-1.0-768.0","0","0","82080","","null","","","null","85","NaN","","","","","","","","","","","","","","",""
"","S2","","html-keyboard-response","538","529647","0.0-1.0-769.0","0","0","82080","","null","","","null","85","","NaN","","","","","","","","","","","","","",""
"","response","","html-keyboard-response","539","530095","0.0-1.0-770.0-0.0","0","0","82080","","447","","","75","85","","","2","85","training","adjacent","CB","3","2","Q.jpg","P.jpg","0","0","1","",""
"","feedback","","html-keyboard-response","540","531097","0.0-1.0-771.0-0.0","0","0","82080","","null","","","null","85","","","","","","","","","","","","","","","",""
"","ITI","","html-keyboard-response","541","532100","0.0-1.0-774.0","0","0","82080","","null","","","null","85","","","","","","","","","","","","","","","NaN",""
"","S1","","html-keyboard-response","542","532254","0.0-1.0-776.0","0","0","82080","","null","","","null","86","","","","","","","","","","","","","","","",""
"","ISI","","html-keyboard-response","543","534257","0.0-1.0-777.0","0","0","82080","","null","","","null","86","NaN","","","","","","","","","","","","","","",""
"","S2","","html-keyboard-response","544","534412","0.0-1.0-778.0","0","0","82080","","null","","","null","86","","NaN","","","","","","","","","","","","","",""
"","response","","html-keyboard-response","545","535304","0.0-1.0-779.0-0.0","0","0","82080","","889","","","68","86","","","2","86","training","adjacent","BC","2","3","P.jpg","Q.jpg","1","1","1","",""
"","feedback","","html-keyboard-response","546","536307","0.0-1.0-780.0-0.0","0","0","82080","","null","","","null","86","","","","","","","","","","","","","","","",""
"","ITI","","html-keyboard-response","547","537309","0.0-1.0-783.0","0","0","82080","","null","","","null","86","","","","","","","","","","","","","","","NaN",""
"","S1","","html-keyboard-response","548","537462","0.0-1.0-785.0","0","0","82080","","null","","","null","87","","","","","","","","","","","","","","","",""
"","ISI","","html-keyboard-response","549","539465","0.0-1.0-786.0","0","0","82080","","null","","","null","87","NaN","","","","","","","","","","","","","","",""
"","S2","","html-keyboard-response","550","539618","0.0-1.0-787.0","0","0","82080","","null","","","null","87","","NaN","","","","","","","","","","","","","",""
"","response","","html-keyboard-response","551","540448","0.0-1.0-788.0-0.0","0","0","82080","","828","","","68","87","","","2","87","training","adjacent","AB","1","2","O.jpg","P.jpg","1","1","1","",""
"","feedback","","html-keyboard-response","552","541451","0.0-1.0-789.0-0.0","0","0","82080","","null","","","null","87","","","","","","","","","","","","","","","",""
"","ITI","","html-keyboard-response","553","542453","0.0-1.0-792.0","0","0","82080","","null","","","null","87","","","","","","","","","","","","","","","NaN",""
"","S1","","html-keyboard-response","554","542606","0.0-1.0-794.0","0","0","82080","","null","","","null","88","","","","","","","","","","","","","","","",""
"","ISI","","html-keyboard-response","555","544609","0.0-1.0-795.0","0","0","82080","","null","","","null","88","NaN","","","","","","","","","","","","","","",""
"","S2","","html-keyboard-response","556","544763","0.0-1.0-796.0","0","0","82080","","null","","","null","88","","NaN","","","","","","","","","","","","","",""
"","response","","html-keyboard-response","557","545540","0.0-1.0-797.0-0.0","0","0","82080","","775","","","68","88","","","2","88","training","adjacent","ED","5","4","M.jpg","R.jpg","1","0","0","",""
"","feedback","","html-keyboard-response","558","546543","0.0-1.0-798.0-0.0","0","0","82080","","null","","","null","88","","","","","","","","","","","","","","","",""
"","time_out","","html-keyboard-response","559","548546","0.0-1.0-800.0-0.0","0","0","82080","","null","","","null","88","","","","","","","","","","","","","","","",""
"","ITI","","html-keyboard-response","560","549548","0.0-1.0-801.0","0","0","82080","","null","","","null","88","","","","","","","","","","","","","","","NaN",""
"","S1","","html-keyboard-response","561","549701","0.0-1.0-803.0","0","0","82080","","null","","","null","89","","","","","","","","","","","","","","","",""
"","ISI","","html-keyboard-response","562","551703","0.0-1.0-804.0","0","0","82080","","null","","","null","89","NaN","","","","","","","","","","","","","","",""
"","S2","","html-keyboard-response","563","551856","0.0-1.0-805.0","0","0","82080","","null","","","null","89","","NaN","","","","","","","","","","","","","",""
"","response","","html-keyboard-response","564","552026","0.0-1.0-806.0-0.0","0","0","82080","","168","","","75","89","","","2","89","training","adjacent","GF","7","6","N.jpg","L.jpg","0","0","1","",""
"","feedback","","html-keyboard-response","565","553028","0.0-1.0-807.0-0.0","0","0","82080","","null","","","null","89","","","","","","","","","","","","","","","",""
"","ITI","","html-keyboard-response","566","554031","0.0-1.0-810.0","0","0","82080","","null","","","null","89","","","","","","","","","","","","","","","NaN",""
"","S1","","html-keyboard-response","567","554185","0.0-1.0-812.0","0","0","82080","","null","","","null","90","","","","","","","","","","","","","","","",""
"","ISI","","html-keyboard-response","568","556188","0.0-1.0-813.0","0","0","82080","","null","","","null","90","NaN","","","","","","","","","","","","","","",""
"","S2","","html-keyboard-response","569","556341","0.0-1.0-814.0","0","0","82080","","null","","","null","90","","NaN","","","","","","","","","","","","","",""
"","response","","html-keyboard-response","570","556692","0.0-1.0-815.0-0.0","0","0","82080","","350","","","68","90","","","2","90","training","adjacent","AB","1","2","O.jpg","P.jpg","1","1","1","",""
"","feedback","","html-keyboard-response","571","557694","0.0-1.0-816.0-0.0","0","0","82080","","null","","","null","90","","","","","","","","","","","","","","","",""
"","ITI","","html-keyboard-response","572","558696","0.0-1.0-819.0","0","0","82080","","null","","","null","90","","","","","","","","","","","","","","","NaN",""
"","S1","","html-keyboard-response","573","558849","0.0-1.0-821.0","0","0","82080","","null","","","null","91","","","","","","","","","","","","","","","",""
"","ISI","","html-keyboard-response","574","560852","0.0-1.0-822.0","0","0","82080","","null","","","null","91","NaN","","","","","","","","","","","","","","",""
"","S2","","html-keyboard-response","575","561006","0.0-1.0-823.0","0","0","82080","","null","","","null","91","","NaN","","","","","","","","","","","","","",""
"","response","","html-keyboard-response","576","561468","0.0-1.0-824.0-0.0","0","0","82080","","459","","","75","91","","","2","91","training","adjacent","DE","4","5","R.jpg","M.jpg","0","1","0","",""
"","feedback","","html-keyboard-response","577","562472","0.0-1.0-825.0-0.0","0","0","82080","","null","","","null","91","","","","","","","","","","","","","","","",""
"","time_out","","html-keyboard-response","578","564474","0.0-1.0-827.0-0.0","0","0","82080","","null","","","null","91","","","","","","","","","","","","","","","",""
"","ITI","","html-keyboard-response","579","565477","0.0-1.0-828.0","0","0","82080","","null","","","null","91","","","","","","","","","","","","","","","NaN",""
"","S1","","html-keyboard-response","580","565630","0.0-1.0-830.0","0","0","82080","","null","","","null","92","","","","","","","","","","","","","","","",""
"","ISI","","html-keyboard-response","581","567632","0.0-1.0-831.0","0","0","82080","","null","","","null","92","NaN","","","","","","","","","","","","","","",""
"","S2","","html-keyboard-response","582","567785","0.0-1.0-832.0","0","0","82080","","null","","","null","92","","NaN","","","","","","","","","","","","","",""
