"success","ttype","start_time","trial_type","trial_index","time_elapsed","internal_node_id","warning","missed_checkup","PID","view_history","rt","responses","repeat_instructions","key_press","index","keypress_isi","keypress_S2","block","trial_num","phase","group_type","pair_type","S1_stim","S2_stim","S1_img","S2_img","S1_chosen","S1_higher","accuracy","keypress_iti","total_bonus_tally"
"true","full_screen","d07292022hr2002","fullscreen","0","30055","0.0-0.0","0","0","85918","","","","","","","","","","","","","","","","","","","","","",""
"","instructions","","instructions","1","71614","0.0-1.0-0.0-0.0","0","0","85918","[{""page_index"":0,""viewing_time"":7915},{""page_index"":1,""viewing_time"":9029},{""page_index"":2,""viewing_time"":10109},{""page_index"":3,""viewing_time"":14497}]","41552","","","","","","","","","","","","","","","","","","","",""
"","comprehension_check","","survey-multi-choice","2","87677","0.0-1.0-0.0-1.0","0","0","85918","","16051","{""Q0"":""True"",""Q1"":""D"",""Q2"":""When you see the prompt 'MAKE A CHOICE' after the second image was presented"",""Q3"":""Green mark"",""Q4"":""either D or K""}","0","","","","","","","","","","","","","","","","","",""
"","start_exp","","html-keyboard-response","3","89212","0.0-1.0-1.0","0","0","85918","","1523","","","32","","","","","","","","","","","","","","","","",""
"","S1","","html-keyboard-response","4","89480","0.0-1.0-2.0","0","0","85918","","null","","","null","0","","","","","","","","","","","","","","","",""
"","ISI","","html-keyboard-response","5","91492","0.0-1.0-3.0","0","0","85918","","1260","","","68","0","d","","","","","","","","","","","","","","",""
"","S2","","html-keyboard-response","6","91753","0.0-1.0-4.0","0","0","85918","","null","","","null","0","","NaN","","","","","","","","","","","","","",""
"","response","","html-keyboard-response","7","92544","0.0-1.0-5.0","0","0","85918","","783","","","68","0","","","1","0","training","adjacent","ED","5","4","N.jpg","L.jpg","1","0","0","",""
"","feedback","","html-keyboard-response","8","93551","0.0-1.0-6.0-0.0","0","0","85918","","null","","","null","0","","","","","","","","","","","","","","","",""
"","time_out","","html-keyboard-response","9","95558","0.0-1.0-8.0-0.0","0","0","85918","","null","","","null","0","","","","","","","","","","","","","","","",""
"","ITI","","html-keyboard-response","10","96565","0.0-1.0-9.0","0","0","85918","","null","","","null","0","","","","","","","","","","","","","","","NaN",""
"","S1","","html-keyboard-response","11","96821","0.0-1.0-11.0","0","0","85918","","null","","","null","1","","","","","","","","","","","","","","","",""
"","ISI","","html-keyboard-response","12","98828","0.0-1.0-12.0","0","0","85918","","null","","","null","1","NaN","","","","","","","","","","","","","","",""
"","S2","","html-keyboard-response","13","99087","0.0-1.0-13.0","0","0","85918","","null","","","null","1","","NaN","","","","","","","","","","","","","",""
"","response","","html-keyboard-response","14","99717","0.0-1.0-14.0","0","0","85918","","622","","","75","1","","","1","1","training","adjacent","EF","5","6","N.jpg","R.jpg","0","1","0","",""
"","feedback","","html-keyboard-response","15","100725","0.0-1.0-15.0-0.0","0","0","85918","","null","","","null","1","","","","","","","","","","","","","","","",""
"","time_out","","html-keyboard-response","16","102736","0.0-1.0-17.0-0.0","0","0","85918","","null","","","null","1","","","","","","","","","","","","","","","",""
"","ITI","","html-keyboard-response","17","103743","0.0-1.0-18.0","0","0","85918","","null","","","null","1","","","","","","","","","","","","","","","NaN",""
"","S1","","html-keyboard-response","18","104002","0.0-1.0-20.0","0","0","85918","","null","","","null","2","","","","","","","","","","","","","","","",""
"","ISI","","html-keyboard-response","19","106008","0.0-1.0-21.0","0","0","85918","","null","","","null","2","NaN","","","","","","","","","","","","","","",""
"","S2","","html-keyboard-response","20","106265","0.0-1.0-22.0","0","0","85918","","null","","","null","2","","NaN","","","","","","","","","","","","","",""
"","response","","html-keyboard-response","21","107139","0.0-1.0-23.0","0","0","85918","","867","","","75","2","","","1","2","training","adjacent","CD","3","4","P.jpg","L.jpg","0","1","0","",""
"","feedback","","html-keyboard-response","22","108147","0.0-1.0-24.0-0.0","0","0","85918","","null","","","null","2","","","","","","","","","","","","","","","",""
"","time_out","","html-keyboard-response","23","110154","0.0-1.0-26.0-0.0","0","0","85918","","null","","","null","2","","","","","","","","","","","","","","","",""
"","ITI","","html-keyboard-response","24","111160","0.0-1.0-27.0","0","0","85918","","null","","","null","2","","","","","","","","","","","","","","","NaN",""
"","S1","","html-keyboard-response","25","111416","0.0-1.0-29.0","0","0","85918","","null","","","null","3","","","","","","","","","","","","","","","",""
"","ISI","","html-keyboard-response","26","113423","0.0-1.0-30.0","0","0","85918","","null","","","null","3","NaN","","","","","","","","","","","","","","",""
"","S2","","html-keyboard-response","27","113682","0.0-1.0-31.0","0","0","85918","","null","","","null","3","","NaN","","","","","","","","","","","","","",""
"","response","","html-keyboard-response","28","115345","0.0-1.0-32.0","0","0","85918","","1658","","","75","3","","","1","3","training","adjacent","FG","6","7","R.jpg","M.jpg","0","1","0","",""
"","feedback","","html-keyboard-response","29","116351","0.0-1.0-33.0-0.0","0","0","85918","","null","","","null","3","","","","","","","","","","","","","","","",""
"","time_out","","html-keyboard-response","30","118365","0.0-1.0-35.0-0.0","0","0","85918","","null","","","null","3","","","","","","","","","","","","","","","",""
"","ITI","","html-keyboard-response","31","119373","0.0-1.0-36.0","0","0","85918","","null","","","null","3","","","","","","","","","","","","","","","NaN",""
"","S1","","html-keyboard-response","32","119631","0.0-1.0-38.0","0","0","85918","","null","","","null","4","","","","","","","","","","","","","","","",""
"","ISI","","html-keyboard-response","33","121640","0.0-1.0-39.0","0","0","85918","","null","","","null","4","NaN","","","","","","","","","","","","","","",""
"","S2","","html-keyboard-response","34","121896","0.0-1.0-40.0","0","0","85918","","null","","","null","4","","NaN","","","","","","","","","","","","","",""
"","response","","html-keyboard-response","35","122242","0.0-1.0-41.0","0","0","85918","","342","","","68","4","","","1","4","training","adjacent","ED","5","4","N.jpg","L.jpg","1","0","0","",""
"","feedback","","html-keyboard-response","36","123252","0.0-1.0-42.0-0.0","0","0","85918","","null","","","null","4","","","","","","","","","","","","","","","",""
"","time_out","","html-keyboard-response","37","125263","0.0-1.0-44.0-0.0","0","0","85918","","null","","","null","4","","","","","","","","","","","","","","","",""
"","ITI","","html-keyboard-response","38","126271","0.0-1.0-45.0","0","0","85918","","null","","","null","4","","","","","","","","","","","","","","","NaN",""
"","S1","","html-keyboard-response","39","126528","0.0-1.0-47.0","0","0","85918","","null","","","null","5","","","","","","","","","","","","","","","",""
"","ISI","","html-keyboard-response","40","128534","0.0-1.0-48.0","0","0","85918","","null","","","null","5","NaN","","","","","","","","","","","","","","",""
"","S2","","html-keyboard-response","41","128790","0.0-1.0-49.0","0","0","85918","","null","","","null","5","","NaN","","","","","","","","","","","","","",""
"","response","","html-keyboard-response","42","129385","0.0-1.0-50.0","0","0","85918","","588","","","68","5","","","1","5","training","adjacent","FG","6","7","R.jpg","M.jpg","1","1","1","",""
"","feedback","","html-keyboard-response","43","130396","0.0-1.0-51.0-0.0","0","0","85918","","null","","","null","5","","","","","","","","","","","","","","","",""
"","ITI","","html-keyboard-response","44","131406","0.0-1.0-54.0","0","0","85918","","null","","","null","5","","","","","","","","","","","","","","","NaN",""
"","S1","","html-keyboard-response","45","131668","0.0-1.0-56.0","0","0","85918","","null","","","null","6","","","","","","","","","","","","","","","",""
"","ISI","","html-keyboard-response","46","133673","0.0-1.0-57.0","0","0","85918","","null","","","null","6","NaN","","","","","","","","","","","","","","",""
"","S2","","html-keyboard-response","47","133932","0.0-1.0-58.0","0","0","85918","","null","","","null","6","","NaN","","","","","","","","","","","","","",""
"","response","","html-keyboard-response","48","134676","0.0-1.0-59.0","0","0","85918","","738","","","68","6","","","1","6","training","adjacent","GF","7","6","M.jpg","R.jpg","1","0","0","",""
"","feedback","","html-keyboard-response","49","135684","0.0-1.0-60.0-0.0","0","0","85918","","null","","","null","6","","","","","","","","","","","","","","","",""
"","time_out","","html-keyboard-response","50","137692","0.0-1.0-62.0-0.0","0","0","85918","","null","","","null","6","","","","","","","","","","","","","","","",""
"","ITI","","html-keyboard-response","51","138700","0.0-1.0-63.0","0","0","85918","","null","","","null","6","","","","","","","","","","","","","","","NaN",""
"","S1","","html-keyboard-response","52","138960","0.0-1.0-65.0","0","0","85918","","null","","","null","7","","","","","","","","","","","","","","","",""
"","ISI","","html-keyboard-response","53","140967","0.0-1.0-66.0","0","0","85918","","null","","","null","7","NaN","","","","","","","","","","","","","","",""
"","S2","","html-keyboard-response","54","141225","0.0-1.0-67.0","0","0","85918","","null","","","null","7","","NaN","","","","","","","","","","","","","",""
"","response","","html-keyboard-response","55","141687","0.0-1.0-68.0","0","0","85918","","455","","","68","7","","","1","7","training","adjacent","CB","3","2","P.jpg","O.jpg","1","0","0","",""
"","feedback","","html-keyboard-response","56","142694","0.0-1.0-69.0-0.0","0","0","85918","","null","","","null","7","","","","","","","","","","","","","","","",""
"","time_out","","html-keyboard-response","57","144725","0.0-1.0-71.0-0.0","0","0","85918","","null","","","null","7","","","","","","","","","","","","","","","",""
"","ITI","","html-keyboard-response","58","145732","0.0-1.0-72.0","0","0","85918","","null","","","null","7","","","","","","","","","","","","","","","NaN",""
"","S1","","html-keyboard-response","59","146041","0.0-1.0-74.0","0","0","85918","","null","","","null","8","","","","","","","","","","","","","","","",""
"","ISI","","html-keyboard-response","60","148047","0.0-1.0-75.0","0","0","85918","","null","","","null","8","NaN","","","","","","","","","","","","","","",""
"","S2","","html-keyboard-response","61","148304","0.0-1.0-76.0","0","0","85918","","null","","","null","8","","NaN","","","","","","","","","","","","","",""
"","response","","html-keyboard-response","62","148837","0.0-1.0-77.0","0","0","85918","","527","","","68","8","","","1","8","training","adjacent","CD","3","4","P.jpg","L.jpg","1","1","1","",""
"","feedback","","html-keyboard-response","63","149843","0.0-1.0-78.0-0.0","0","0","85918","","null","","","null","8","","","","","","","","","","","","","","","",""
"","ITI","","html-keyboard-response","64","150850","0.0-1.0-81.0","0","0","85918","","null","","","null","8","","","","","","","","","","","","","","","NaN",""
"","S1","","html-keyboard-response","65","151106","0.0-1.0-83.0","0","0","85918","","null","","","null","9","","","","","","","","","","","","","","","",""
"","ISI","","html-keyboard-response","66","153112","0.0-1.0-84.0","0","0","85918","","null","","","null","9","NaN","","","","","","","","","","","","","","",""
"","S2","","html-keyboard-response","67","153371","0.0-1.0-85.0","0","0","85918","","null","","","null","9","","NaN","","","","","","","","","","","","","",""
"","response","","html-keyboard-response","68","153766","0.0-1.0-86.0","0","0","85918","","388","","","68","9","","","1","9","training","adjacent","CB","3","2","P.jpg","O.jpg","1","0","0","",""
"","feedback","","html-keyboard-response","69","154775","0.0-1.0-87.0-0.0","0","0","85918","","null","","","null","9","","","","","","","","","","","","","","","",""
"","time_out","","html-keyboard-response","70","156783","0.0-1.0-89.0-0.0","0","0","85918","","null","","","null","9","","","","","","","","","","","","","","","",""
"","ITI","","html-keyboard-response","71","157791","0.0-1.0-90.0","0","0","85918","","null","","","null","9","","","","","","","","","","","","","","","NaN",""
"","S1","","html-keyboard-response","72","158050","0.0-1.0-92.0","0","0","85918","","null","","","null","10","","","","","","","","","","","","","","","",""
"","ISI","","html-keyboard-response","73","160057","0.0-1.0-93.0","0","0","85918","","null","","","null","10","NaN","","","","","","","","","","","","","","",""
"","S2","","html-keyboard-response","74","160313","0.0-1.0-94.0","0","0","85918","","null","","","null","10","","NaN","","","","","","","","","","","","","",""
"","response","","html-keyboard-response","75","161060","0.0-1.0-95.0","0","0","85918","","742","","","68","10","","","1","10","training","adjacent","CD","3","4","P.jpg","L.jpg","1","1","1","",""
"","feedback","","html-keyboard-response","76","162068","0.0-1.0-96.0-0.0","0","0","85918","","null","","","null","10","","","","","","","","","","","","","","","",""
"","ITI","","html-keyboard-response","77","163077","0.0-1.0-99.0","0","0","85918","","null","","","null","10","","","","","","","","","","","","","","","NaN",""
"","S1","","html-keyboard-response","78","163336","0.0-1.0-101.0","0","0","85918","","null","","","null","11","","","","","","","","","","","","","","","",""
"","ISI","","html-keyboard-response","79","165344","0.0-1.0-102.0","0","0","85918","","null","","","null","11","NaN","","","","","","","","","","","","","","",""
"","S2","","html-keyboard-response","80","165601","0.0-1.0-103.0","0","0","85918","","null","","","null","11","","NaN","","","","","","","","","","","","","",""
"","response","","html-keyboard-response","81","165785","0.0-1.0-104.0","0","0","85918","","177","","","75","11","","","1","11","training","adjacent","ED","5","4","N.jpg","L.jpg","0","0","1","",""
"","feedback","","html-keyboard-response","82","166793","0.0-1.0-105.0-0.0","0","0","85918","","null","","","null","11","","","","","","","","","","","","","","","",""
"","ITI","","html-keyboard-response","83","167801","0.0-1.0-108.0","0","0","85918","","null","","","null","11","","","","","","","","","","","","","","","NaN",""
"","S1","","html-keyboard-response","84","168060","0.0-1.0-110.0","0","0","85918","","null","","","null","12","","","","","","","","","","","","","","","",""
"","ISI","","html-keyboard-response","85","170069","0.0-1.0-111.0","0","0","85918","","null","","","null","12","NaN","","","","","","","","","","","","","","",""
"","S2","","html-keyboard-response","86","170329","0.0-1.0-112.0","0","0","85918","","null","","","null","12","","NaN","","","","","","","","","","","","","",""
"","response","","html-keyboard-response","87","170770","0.0-1.0-113.0","0","0","85918","","437","","","68","12","","","1","12","training","adjacent","BC","2","3","O.jpg","P.jpg","1","1","1","",""
"","feedback","","html-keyboard-response","88","171779","0.0-1.0-114.0-0.0","0","0","85918","","null","","","null","12","","","","","","","","","","","","","","","",""
"","ITI","","html-keyboard-response","89","172785","0.0-1.0-117.0","0","0","85918","","null","","","null","12","","","","","","","","","","","","","","","NaN",""
"","S1","","html-keyboard-response","90","173043","0.0-1.0-119.0","0","0","85918","","null","","","null","13","","","","","","","","","","","","","","","",""
"","ISI","","html-keyboard-response","91","175051","0.0-1.0-120.0","0","0","85918","","null","","","null","13","NaN","","","","","","","","","","","","","","",""
"","S2","","html-keyboard-response","92","175311","0.0-1.0-121.0","0","0","85918","","null","","","null","13","","NaN","","","","","","","","","","","","","",""
"","response","","html-keyboard-response","93","175939","0.0-1.0-122.0","0","0","85918","","621","","","75","13","","","1","13","training","adjacent","CB","3","2","P.jpg","O.jpg","0","0","1","",""
"","feedback","","html-keyboard-response","94","176944","0.0-1.0-123.0-0.0","0","0","85918","","null","","","null","13","","","","","","","","","","","","","","","",""
"","ITI","","html-keyboard-response","95","177952","0.0-1.0-126.0","0","0","85918","","null","","","null","13","","","","","","","","","","","","","","","NaN",""
"","S1","","html-keyboard-response","96","178209","0.0-1.0-128.0","0","0","85918","","null","","","null","14","","","","","","","","","","","","","","","",""
"","ISI","","html-keyboard-response","97","180219","0.0-1.0-129.0","0","0","85918","","null","","","null","14","NaN","","","","","","","","","","","","","","",""
"","S2","","html-keyboard-response","98","180477","0.0-1.0-130.0","0","0","85918","","null","","","null","14","","NaN","","","","","","","","","","","","","",""
"","response","","html-keyboard-response","99","180785","0.0-1.0-131.0","0","0","85918","","302","","","68","14","","","1","14","training","adjacent","BA","2","1","O.jpg","Q.jpg","1","0","0","",""
"","feedback","","html-keyboard-response","100","181793","0.0-1.0-132.0-0.0","0","0","85918","","null","","","null","14","","","","","","","","","","","","","","","",""
"","time_out","","html-keyboard-response","101","183802","0.0-1.0-134.0-0.0","0","0","85918","","null","","","null","14","","","","","","","","","","","","","","","",""
"","ITI","","html-keyboard-response","102","184810","0.0-1.0-135.0","0","0","85918","","null","","","null","14","","","","","","","","","","","","","","","NaN",""
"","S1","","html-keyboard-response","103","185068","0.0-1.0-137.0","0","0","85918","","null","","","null","15","","","","","","","","","","","","","","","",""
"","ISI","","html-keyboard-response","104","187075","0.0-1.0-138.0","0","0","85918","","null","","","null","15","NaN","","","","","","","","","","","","","","",""
"","S2","","html-keyboard-response","105","187334","0.0-1.0-139.0","0","0","85918","","null","","","null","15","","NaN","","","","","","","","","","","","","",""
"","response","","html-keyboard-response","106","188034","0.0-1.0-140.0","0","0","85918","","693","","","75","15","","","1","15","training","adjacent","GF","7","6","M.jpg","R.jpg","0","0","1","",""
"","feedback","","html-keyboard-response","107","189047","0.0-1.0-141.0-0.0","0","0","85918","","null","","","null","15","","","","","","","","","","","","","","","",""
"","ITI","","html-keyboard-response","108","190058","0.0-1.0-144.0","0","0","85918","","null","","","null","15","","","","","","","","","","","","","","","NaN",""
"","S1","","html-keyboard-response","109","190315","0.0-1.0-146.0","0","0","85918","","null","","","null","16","","","","","","","","","","","","","","","",""
"","ISI","","html-keyboard-response","110","192323","0.0-1.0-147.0","0","0","85918","","null","","","null","16","NaN","","","","","","","","","","","","","","",""
"","S2","","html-keyboard-response","111","192581","0.0-1.0-148.0","0","0","85918","","null","","","null","16","","NaN","","","","","","","","","","","","","",""
"","response","","html-keyboard-response","112","193046","0.0-1.0-149.0","0","0","85918","","458","","","75","16","","","1","16","training","adjacent","ED","5","4","N.jpg","L.jpg","0","0","1","",""
"","feedback","","html-keyboard-response","113","194059","0.0-1.0-150.0-0.0","0","0","85918","","null","","","null","16","","","","","","","","","","","","","","","",""
"","ITI","","html-keyboard-response","114","195065","0.0-1.0-153.0","0","0","85918","","null","","","null","16","","","","","","","","","","","","","","","NaN",""
"","S1","","html-keyboard-response","115","195322","0.0-1.0-155.0","0","0","85918","","null","","","null","17","","","","","","","","","","","","","","","",""
"","ISI","","html-keyboard-response","116","197328","0.0-1.0-156.0","0","0","85918","","null","","","null","17","NaN","","","","","","","","","","","","","","",""
"","S2","","html-keyboard-response","117","197585","0.0-1.0-157.0","0","0","85918","","null","","","null","17","","NaN","","","","","","","","","","","","","",""
"","response","","html-keyboard-response","118","197809","0.0-1.0-158.0","0","0","85918","","218","","","75","17","","","1","17","training","adjacent","BA","2","1","O.jpg","Q.jpg","0","0","1","",""
"","feedback","","html-keyboard-response","119","198816","0.0-1.0-159.0-0.0","0","0","85918","","null","","","null","17","","","","","","","","","","","","","","","",""
"","ITI","","html-keyboard-response","120","199824","0.0-1.0-162.0","0","0","85918","","null","","","null","17","","","","","","","","","","","","","","","NaN",""
"","S1","","html-keyboard-response","121","200083","0.0-1.0-164.0","0","0","85918","","null","","","null","18","","","","","","","","","","","","","","","",""
"","ISI","","html-keyboard-response","122","202090","0.0-1.0-165.0","0","0","85918","","null","","","null","18","NaN","","","","","","","","","","","","","","",""
"","S2","","html-keyboard-response","123","202350","0.0-1.0-166.0","0","0","85918","","null","","","null","18","","NaN","","","","","","","","","","","","","",""
"","response","","html-keyboard-response","124","202741","0.0-1.0-167.0","0","0","85918","","385","","","75","18","","","1","18","training","adjacent","CD","3","4","P.jpg","L.jpg","0","1","0","",""
"","feedback","","html-keyboard-response","125","203747","0.0-1.0-168.0-0.0","0","0","85918","","null","","","null","18","","","","","","","","","","","","","","","",""
"","time_out","","html-keyboard-response","126","205754","0.0-1.0-170.0-0.0","0","0","85918","","null","","","null","18","","","","","","","","","","","","","","","",""
"","ITI","","html-keyboard-response","127","206762","0.0-1.0-171.0","0","0","85918","","null","","","null","18","","","","","","","","","","","","","","","NaN",""
"","S1","","html-keyboard-response","128","207024","0.0-1.0-173.0","0","0","85918","","null","","","null","19","","","","","","","","","","","","","","","",""
"","ISI","","html-keyboard-response","129","209033","0.0-1.0-174.0","0","0","85918","","null","","","null","19","NaN","","","","","","","","","","","","","","",""
"","S2","","html-keyboard-response","130","209292","0.0-1.0-175.0","0","0","85918","","null","","","null","19","","NaN","","","","","","","","","","","","","",""
"","response","","html-keyboard-response","131","209620","0.0-1.0-176.0","0","0","85918","","321","","","75","19","","","1","19","training","adjacent","FE","6","5","R.jpg","N.jpg","0","0","1","",""
"","feedback","","html-keyboard-response","132","210631","0.0-1.0-177.0-0.0","0","0","85918","","null","","","null","19","","","","","","","","","","","","","","","",""
"","ITI","","html-keyboard-response","133","211640","0.0-1.0-180.0","0","0","85918","","null","","","null","19","","","","","","","","","","","","","","","NaN",""
"","S1","","html-keyboard-response","134","211906","0.0-1.0-182.0","0","0","85918","","null","","","null","20","","","","","","","","","","","","","","","",""
"","ISI","","html-keyboard-response","135","213913","0.0-1.0-183.0","0","0","85918","","null","","","null","20","NaN","","","","","","","","","","","","","","",""
"","S2","","html-keyboard-response","136","214169","0.0-1.0-184.0","0","0","85918","","null","","","null","20","","NaN","","","","","","","","","","","","","",""
"","response","","html-keyboard-response","137","214475","0.0-1.0-185.0","0","0","85918","","299","","","75","20","","","1","20","training","adjacent","FE","6","5","R.jpg","N.jpg","0","0","1","",""
"","feedback","","html-keyboard-response","138","215482","0.0-1.0-186.0-0.0","0","0","85918","","null","","","null","20","","","","","","","","","","","","","","","",""
"","ITI","","html-keyboard-response","139","216490","0.0-1.0-189.0","0","0","85918","","null","","","null","20","","","","","","","","","","","","","","","NaN",""
"","S1","","html-keyboard-response","140","216748","0.0-1.0-191.0","0","0","85918","","null","","","null","21","","","","","","","","","","","","","","","",""
"","ISI","","html-keyboard-response","141","218754","0.0-1.0-192.0","0","0","85918","","null","","","null","21","NaN","","","","","","","","","","","","","","",""
"","S2","","html-keyboard-response","142","219010","0.0-1.0-193.0","0","0","85918","","null","","","null","21","","NaN","","","","","","","","","","","","","",""
"","response","","html-keyboard-response","143","219628","0.0-1.0-194.0","0","0","85918","","611","","","68","21","","","1","21","training","adjacent","BA","2","1","O.jpg","Q.jpg","1","0","0","",""
"","feedback","","html-keyboard-response","144","220638","0.0-1.0-195.0-0.0","0","0","85918","","null","","","null","21","","","","","","","","","","","","","","","",""
"","time_out","","html-keyboard-response","145","222644","0.0-1.0-197.0-0.0","0","0","85918","","null","","","null","21","","","","","","","","","","","","","","","",""
"","ITI","","html-keyboard-response","146","223650","0.0-1.0-198.0","0","0","85918","","null","","","null","21","","","","","","","","","","","","","","","NaN",""
"","S1","","html-keyboard-response","147","223907","0.0-1.0-200.0","0","0","85918","","null","","","null","22","","","","","","","","","","","","","","","",""
"","ISI","","html-keyboard-response","148","225914","0.0-1.0-201.0","0","0","85918","","null","","","null","22","NaN","","","","","","","","","","","","","","",""
"","S2","","html-keyboard-response","149","226173","0.0-1.0-202.0","0","0","85918","","null","","","null","22","","NaN","","","","","","","","","","","","","",""
"","response","","html-keyboard-response","150","226366","0.0-1.0-203.0","0","0","85918","","186","","","68","22","","","1","22","training","adjacent","DE","4","5","L.jpg","N.jpg","1","1","1","",""
"","feedback","","html-keyboard-response","151","227375","0.0-1.0-204.0-0.0","0","0","85918","","null","","","null","22","","","","","","","","","","","","","","","",""
"","ITI","","html-keyboard-response","152","228383","0.0-1.0-207.0","0","0","85918","","null","","","null","22","","","","","","","","","","","","","","","NaN",""
"","S1","","html-keyboard-response","153","228642","0.0-1.0-209.0","0","0","85918","","null","","","null","23","","","","","","","","","","","","","","","",""
"","ISI","","html-keyboard-response","154","230648","0.0-1.0-210.0","0","0","85918","","null","","","null","23","NaN","","","","","","","","","","","","","","",""
"","S2","","html-keyboard-response","155","230904","0.0-1.0-211.0","0","0","85918","","null","","","null","23","","NaN","","","","","","","","","","","","","",""
"","response","","html-keyboard-response","156","231442","0.0-1.0-212.0","0","0","85918","","533","","","68","23","","","1","23","training","adjacent","AB","1","2","Q.jpg","O.jpg","1","1","1","",""
"","feedback","","html-keyboard-response","157","232451","0.0-1.0-213.0-0.0","0","0","85918","","null","","","null","23","","","","","","","","","","","","","","","",""
"","ITI","","html-keyboard-response","158","233458","0.0-1.0-216.0","0","0","85918","","null","","","null","23","","","","","","","","","","","","","","","NaN",""
"","S1","","html-keyboard-response","159","233714","0.0-1.0-218.0","0","0","85918","","null","","","null","24","","","","","","","","","","","","","","","",""
"","ISI","","html-keyboard-response","160","235724","0.0-1.0-219.0","0","0","85918","","null","","","null","24","NaN","","","","","","","","","","","","","","",""
"","S2","","html-keyboard-response","161","235984","0.0-1.0-220.0","0","0","85918","","null","","","null","24","","NaN","","","","","","","","","","","","","",""
"","response","","html-keyboard-response","162","236933","0.0-1.0-221.0","0","0","85918","","941","","","75","24","","","1","24","training","adjacent","AB","1","2","Q.jpg","O.jpg","0","1","0","",""
"","feedback","","html-keyboard-response","163","237942","0.0-1.0-222.0-0.0","0","0","85918","","null","","","null","24","","","","","","","","","","","","","","","",""
"","time_out","","html-keyboard-response","164","239952","0.0-1.0-224.0-0.0","0","0","85918","","null","","","null","24","","","","","","","","","","","","","","","",""
"","ITI","","html-keyboard-response","165","240958","0.0-1.0-225.0","0","0","85918","","null","","","null","24","","","","","","","","","","","","","","","NaN",""
"","S1","","html-keyboard-response","166","241214","0.0-1.0-227.0","0","0","85918","","null","","","null","25","","","","","","","","","","","","","","","",""
"","ISI","","html-keyboard-response","167","243221","0.0-1.0-228.0","0","0","85918","","null","","","null","25","NaN","","","","","","","","","","","","","","",""
"","S2","","html-keyboard-response","168","243481","0.0-1.0-229.0","0","0","85918","","null","","","null","25","","NaN","","","","","","","","","","","","","",""
"","response","","html-keyboard-response","169","243808","0.0-1.0-230.0","0","0","85918","","319","","","68","25","","","1","25","training","adjacent","AB","1","2","Q.jpg","O.jpg","1","1","1","",""
"","feedback","","html-keyboard-response","170","244817","0.0-1.0-231.0-0.0","0","0","85918","","null","","","null","25","","","","","","","","","","","","","","","",""
"","ITI","","html-keyboard-response","171","245826","0.0-1.0-234.0","0","0","85918","","null","","","null","25","","","","","","","","","","","","","","","NaN",""
"","S1","","html-keyboard-response","172","246086","0.0-1.0-236.0","0","0","85918","","null","","","null","26","","","","","","","","","","","","","","","",""
"","ISI","","html-keyboard-response","173","248092","0.0-1.0-237.0","0","0","85918","","null","","","null","26","NaN","","","","","","","","","","","","","","",""
"","S2","","html-keyboard-response","174","248349","0.0-1.0-238.0","0","0","85918","","null","","","null","26","","NaN","","","","","","","","","","","","","",""
"","response","","html-keyboard-response","175","248950","0.0-1.0-239.0","0","0","85918","","593","","","75","26","","","1","26","training","adjacent","FE","6","5","R.jpg","N.jpg","0","0","1","",""
"","feedback","","html-keyboard-response","176","249957","0.0-1.0-240.0-0.0","0","0","85918","","null","","","null","26","","","","","","","","","","","","","","","",""
"","ITI","","html-keyboard-response","177","250964","0.0-1.0-243.0","0","0","85918","","null","","","null","26","","","","","","","","","","","","","","","NaN",""
"","S1","","html-keyboard-response","178","251225","0.0-1.0-245.0","0","0","85918","","null","","","null","27","","","","","","","","","","","","","","","",""
"","ISI","","html-keyboard-response","179","253232","0.0-1.0-246.0","0","0","85918","","null","","","null","27","NaN","","","","","","","","","","","","","","",""
"","S2","","html-keyboard-response","180","253488","0.0-1.0-247.0","0","0","85918","","null","","","null","27","","NaN","","","","","","","","","","","","","",""
"","response","","html-keyboard-response","181","253817","0.0-1.0-248.0","0","0","85918","","323","","","75","27","","","1","27","training","adjacent","DC","4","3","L.jpg","P.jpg","0","0","1","",""
"","feedback","","html-keyboard-response","182","254824","0.0-1.0-249.0-0.0","0","0","85918","","null","","","null","27","","","","","","","","","","","","","","","",""
"","ITI","","html-keyboard-response","183","255848","0.0-1.0-252.0","0","0","85918","","null","","","null","27","","","","","","","","","","","","","","","NaN",""
"","S1","","html-keyboard-response","184","256107","0.0-1.0-254.0","0","0","85918","","null","","","null","28","","","","","","","","","","","","","","","",""
"","ISI","","html-keyboard-response","185","258116","0.0-1.0-255.0","0","0","85918","","null","","","null","28","NaN","","","","","","","","","","","","","","",""
"","S2","","html-keyboard-response","186","258376","0.0-1.0-256.0","0","0","85918","","null","","","null","28","","NaN","","","","","","","","","","","","","",""
"","response","","html-keyboard-response","187","258755","0.0-1.0-257.0","0","0","85918","","368","","","75","28","","","1","28","training","adjacent","DE","4","5","L.jpg","N.jpg","0","1","0","",""
"","feedback","","html-keyboard-response","188","259763","0.0-1.0-258.0-0.0","0","0","85918","","null","","","null","28","","","","","","","","","","","","","","","",""
"","time_out","","html-keyboard-response","189","261771","0.0-1.0-260.0-0.0","0","0","85918","","null","","","null","28","","","","","","","","","","","","","","","",""
"","ITI","","html-keyboard-response","190","262777","0.0-1.0-261.0","0","0","85918","","null","","","null","28","","","","","","","","","","","","","","","NaN",""
"","S1","","html-keyboard-response","191","263036","0.0-1.0-263.0","0","0","85918","","null","","","null","29","","","","","","","","","","","","","","","",""
"","ISI","","html-keyboard-response","192","265044","0.0-1.0-264.0","0","0","85918","","null","","","null","29","NaN","","","","","","","","","","","","","","",""
"","S2","","html-keyboard-response","193","265306","0.0-1.0-265.0","0","0","85918","","null","","","null","29","","NaN","","","","","","","","","","","","","",""
"","response","","html-keyboard-response","194","265927","0.0-1.0-266.0","0","0","85918","","615","","","68","29","","","1","29","training","adjacent","GF","7","6","M.jpg","R.jpg","1","0","0","",""
"","feedback","","html-keyboard-response","195","266935","0.0-1.0-267.0-0.0","0","0","85918","","null","","","null","29","","","","","","","","","","","","","","","",""
"","time_out","","html-keyboard-response","196","268944","0.0-1.0-269.0-0.0","0","0","85918","","null","","","null","29","","","","","","","","","","","","","","","",""
"","ITI","","html-keyboard-response","197","269951","0.0-1.0-270.0","0","0","85918","","null","","","null","29","","","","","","","","","","","","","","","NaN",""
"","S1","","html-keyboard-response","198","270208","0.0-1.0-272.0","0","0","85918","","null","","","null","30","","","","","","","","","","","","","","","",""
"","ISI","","html-keyboard-response","199","272216","0.0-1.0-273.0","0","0","85918","","null","","","null","30","NaN","","","","","","","","","","","","","","",""
"","S2","","html-keyboard-response","200","272473","0.0-1.0-274.0","0","0","85918","","null","","","null","30","","NaN","","","","","","","","","","","","","",""
"","response","","html-keyboard-response","201","272871","0.0-1.0-275.0","0","0","85918","","393","","","75","30","","","1","30","training","adjacent","FG","6","7","R.jpg","M.jpg","0","1","0","",""
"","feedback","","html-keyboard-response","202","273878","0.0-1.0-276.0-0.0","0","0","85918","","null","","","null","30","","","","","","","","","","","","","","","",""
"","time_out","","html-keyboard-response","203","275887","0.0-1.0-278.0-0.0","0","0","85918","","null","","","null","30","","","","","","","","","","","","","","","",""
"","ITI","","html-keyboard-response","204","276895","0.0-1.0-279.0","0","0","85918","","null","","","null","30","","","","","","","","","","","","","","","NaN",""
"","S1","","html-keyboard-response","205","277158","0.0-1.0-281.0","0","0","85918","","null","","","null","31","","","","","","","","","","","","","","","",""
"","ISI","","html-keyboard-response","206","279165","0.0-1.0-282.0","0","0","85918","","null","","","null","31","NaN","","","","","","","","","","","","","","",""
"","S2","","html-keyboard-response","207","279429","0.0-1.0-283.0","0","0","85918","","null","","","null","31","","NaN","","","","","","","","","","","","","",""
"","response","","html-keyboard-response","208","279795","0.0-1.0-284.0","0","0","85918","","359","","","68","31","","","1","31","training","adjacent","EF","5","6","N.jpg","R.jpg","1","1","1","",""
"","feedback","","html-keyboard-response","209","280803","0.0-1.0-285.0-0.0","0","0","85918","","null","","","null","31","","","","","","","","","","","","","","","",""
"","ITI","","html-keyboard-response","210","281808","0.0-1.0-288.0","0","0","85918","","null","","","null","31","","","","","","","","","","","","","","","NaN",""
"","S1","","html-keyboard-response","211","282065","0.0-1.0-290.0","0","0","85918","","null","","","null","32","","","","","","","","","","","","","","","",""
"","ISI","","html-keyboard-response","212","284070","0.0-1.0-291.0","0","0","85918","","null","","","null","32","NaN","","","","","","","","","","","","","","",""
"","S2","","html-keyboard-response","213","284330","0.0-1.0-292.0","0","0","85918","","null","","","null","32","","NaN","","","","","","","","","","","","","",""
"","response","","html-keyboard-response","214","284742","0.0-1.0-293.0","0","0","85918","","407","","","68","32","","","1","32","training","adjacent","BC","2","3","O.jpg","P.jpg","1","1","1","",""
"","feedback","","html-keyboard-response","215","285750","0.0-1.0-294.0-0.0","0","0","85918","","null","","","null","32","","","","","","","","","","","","","","","",""
"","ITI","","html-keyboard-response","216","286758","0.0-1.0-297.0","0","0","85918","","null","","","null","32","","","","","","","","","","","","","","","NaN",""
"","S1","","html-keyboard-response","217","287014","0.0-1.0-299.0","0","0","85918","","null","","","null","33","","","","","","","","","","","","","","","",""
"","ISI","","html-keyboard-response","218","289024","0.0-1.0-300.0","0","0","85918","","null","","","null","33","NaN","","","","","","","","","","","","","","",""
"","S2","","html-keyboard-response","219","289283","0.0-1.0-301.0","0","0","85918","","null","","","null","33","","NaN","","","","","","","","","","","","","",""
"","response","","html-keyboard-response","220","289767","0.0-1.0-302.0","0","0","85918","","477","","","68","33","","","1","33","training","adjacent","AB","1","2","Q.jpg","O.jpg","1","1","1","",""
"","feedback","","html-keyboard-response","221","290803","0.0-1.0-303.0-0.0","0","0","85918","","null","","","null","33","","","","","","","","","","","","","","","",""
"","ITI","","html-keyboard-response","222","291810","0.0-1.0-306.0","0","0","85918","","null","","","null","33","","","","","","","","","","","","","","","NaN",""
"","S1","","html-keyboard-response","223","292066","0.0-1.0-308.0","0","0","85918","","null","","","null","34","","","","","","","","","","","","","","","",""
"","ISI","","html-keyboard-response","224","294071","0.0-1.0-309.0","0","0","85918","","null","","","null","34","NaN","","","","","","","","","","","","","","",""
"","S2","","html-keyboard-response","225","294334","0.0-1.0-310.0","0","0","85918","","null","","","null","34","","NaN","","","","","","","","","","","","","",""
"","response","","html-keyboard-response","226","295015","0.0-1.0-311.0","0","0","85918","","674","","","68","34","","","1","34","training","adjacent","DE","4","5","L.jpg","N.jpg","1","1","1","",""
"","feedback","","html-keyboard-response","227","296023","0.0-1.0-312.0-0.0","0","0","85918","","null","","","null","34","","","","","","","","","","","","","","","",""
"","ITI","","html-keyboard-response","228","297031","0.0-1.0-315.0","0","0","85918","","null","","","null","34","","","","","","","","","","","","","","","NaN",""
"","S1","","html-keyboard-response","229","297290","0.0-1.0-317.0","0","0","85918","","null","","","null","35","","","","","","","","","","","","","","","",""
"","ISI","","html-keyboard-response","230","299300","0.0-1.0-318.0","0","0","85918","","null","","","null","35","NaN","","","","","","","","","","","","","","",""
"","S2","","html-keyboard-response","231","299558","0.0-1.0-319.0","0","0","85918","","null","","","null","35","","NaN","","","","","","","","","","","","","",""
"","response","","html-keyboard-response","232","299886","0.0-1.0-320.0","0","0","85918","","321","","","68","35","","","1","35","training","adjacent","GF","7","6","M.jpg","R.jpg","1","0","0","",""
"","feedback","","html-keyboard-response","233","300892","0.0-1.0-321.0-0.0","0","0","85918","","null","","","null","35","","","","","","","","","","","","","","","",""
"","time_out","","html-keyboard-response","234","302898","0.0-1.0-323.0-0.0","0","0","85918","","null","","","null","35","","","","","","","","","","","","","","","",""
"","ITI","","html-keyboard-response","235","303904","0.0-1.0-324.0","0","0","85918","","null","","","null","35","","","","","","","","","","","","","","","NaN",""
"","S1","","html-keyboard-response","236","304164","0.0-1.0-326.0","0","0","85918","","null","","","null","36","","","","","","","","","","","","","","","",""
"","ISI","","html-keyboard-response","237","306172","0.0-1.0-327.0","0","0","85918","","null","","","null","36","NaN","","","","","","","","","","","","","","",""
"","S2","","html-keyboard-response","238","306431","0.0-1.0-328.0","0","0","85918","","null","","","null","36","","NaN","","","","","","","","","","","","","",""
"","response","","html-keyboard-response","239","307016","0.0-1.0-329.0","0","0","85918","","577","","","68","36","","","1","36","training","adjacent","DC","4","3","L.jpg","P.jpg","1","0","0","",""
"","feedback","","html-keyboard-response","240","308025","0.0-1.0-330.0-0.0","0","0","85918","","null","","","null","36","","","","","","","","","","","","","","","",""
"","time_out","","html-keyboard-response","241","310034","0.0-1.0-332.0-0.0","0","0","85918","","null","","","null","36","","","","","","","","","","","","","","","",""
"","ITI","","html-keyboard-response","242","311042","0.0-1.0-333.0","0","0","85918","","null","","","null","36","","","","","","","","","","","","","","","NaN",""
"","S1","","html-keyboard-response","243","311300","0.0-1.0-335.0","0","0","85918","","null","","","null","37","","","","","","","","","","","","","","","",""
"","ISI","","html-keyboard-response","244","313306","0.0-1.0-336.0","0","0","85918","","null","","","null","37","NaN","","","","","","","","","","","","","","",""
"","S2","","html-keyboard-response","245","313562","0.0-1.0-337.0","0","0","85918","","null","","","null","37","","NaN","","","","","","","","","","","","","",""
"","response","","html-keyboard-response","246","313775","0.0-1.0-338.0","0","0","85918","","206","","","75","37","","","1","37","training","adjacent","DC","4","3","L.jpg","P.jpg","0","0","1","",""
"","feedback","","html-keyboard-response","247","314782","0.0-1.0-339.0-0.0","0","0","85918","","null","","","null","37","","","","","","","","","","","","","","","",""
"","ITI","","html-keyboard-response","248","315790","0.0-1.0-342.0","0","0","85918","","null","","","null","37","","","","","","","","","","","","","","","NaN",""
"","S1","","html-keyboard-response","249","316049","0.0-1.0-344.0","0","0","85918","","null","","","null","38","","","","","","","","","","","","","","","",""
"","ISI","","html-keyboard-response","250","318060","0.0-1.0-345.0","0","0","85918","","null","","","null","38","NaN","","","","","","","","","","","","","","",""
"","S2","","html-keyboard-response","251","318319","0.0-1.0-346.0","0","0","85918","","null","","","null","38","","NaN","","","","","","","","","","","","","",""
"","response","","html-keyboard-response","252","319147","0.0-1.0-347.0","0","0","85918","","820","","","68","38","","","1","38","training","adjacent","BC","2","3","O.jpg","P.jpg","1","1","1","",""
"","feedback","","html-keyboard-response","253","320157","0.0-1.0-348.0-0.0","0","0","85918","","null","","","null","38","","","","","","","","","","","","","","","",""
"","ITI","","html-keyboard-response","254","321165","0.0-1.0-351.0","0","0","85918","","null","","","null","38","","","","","","","","","","","","","","","NaN",""
"","S1","","html-keyboard-response","255","321431","0.0-1.0-353.0","0","0","85918","","null","","","null","39","","","","","","","","","","","","","","","",""
"","ISI","","html-keyboard-response","256","323440","0.0-1.0-354.0","0","0","85918","","null","","","null","39","NaN","","","","","","","","","","","","","","",""
"","S2","","html-keyboard-response","257","323698","0.0-1.0-355.0","0","0","85918","","null","","","null","39","","NaN","","","","","","","","","","","","","",""
"","response","","html-keyboard-response","258","324027","0.0-1.0-356.0","0","0","85918","","322","","","75","39","","","1","39","training","adjacent","FG","6","7","R.jpg","M.jpg","0","1","0","",""
"","feedback","","html-keyboard-response","259","325034","0.0-1.0-357.0-0.0","0","0","85918","","null","","","null","39","","","","","","","","","","","","","","","",""
"","time_out","","html-keyboard-response","260","327040","0.0-1.0-359.0-0.0","0","0","85918","","null","","","null","39","","","","","","","","","","","","","","","",""
"","ITI","","html-keyboard-response","261","328050","0.0-1.0-360.0","0","0","85918","","null","","","null","39","","","","","","","","","","","","","","","NaN",""
"","S1","","html-keyboard-response","262","328308","0.0-1.0-362.0","0","0","85918","","null","","","null","40","","","","","","","","","","","","","","","",""
"","ISI","","html-keyboard-response","263","330318","0.0-1.0-363.0","0","0","85918","","null","","","null","40","NaN","","","","","","","","","","","","","","",""
"","S2","","html-keyboard-response","264","330577","0.0-1.0-364.0","0","0","85918","","null","","","null","40","","NaN","","","","","","","","","","","","","",""
"","response","","html-keyboard-response","265","330979","0.0-1.0-365.0","0","0","85918","","396","","","75","40","","","1","40","training","adjacent","DE","4","5","L.jpg","N.jpg","0","1","0","",""
"","feedback","","html-keyboard-response","266","331986","0.0-1.0-366.0-0.0","0","0","85918","","null","","","null","40","","","","","","","","","","","","","","","",""
"","time_out","","html-keyboard-response","267","333993","0.0-1.0-368.0-0.0","0","0","85918","","null","","","null","40","","","","","","","","","","","","","","","",""
"","ITI","","html-keyboard-response","268","335001","0.0-1.0-369.0","0","0","85918","","null","","","null","40","","","","","","","","","","","","","","","NaN",""
"","S1","","html-keyboard-response","269","335258","0.0-1.0-371.0","0","0","85918","","null","","","null","41","","","","","","","","","","","","","","","",""
"","ISI","","html-keyboard-response","270","337268","0.0-1.0-372.0","0","0","85918","","null","","","null","41","NaN","","","","","","","","","","","","","","",""
"","S2","","html-keyboard-response","271","337525","0.0-1.0-373.0","0","0","85918","","null","","","null","41","","NaN","","","","","","","","","","","","","",""
"","response","","html-keyboard-response","272","337845","0.0-1.0-374.0","0","0","85918","","313","","","75","41","","","1","41","training","adjacent","FE","6","5","R.jpg","N.jpg","0","0","1","",""
"","feedback","","html-keyboard-response","273","338851","0.0-1.0-375.0-0.0","0","0","85918","","null","","","null","41","","","","","","","","","","","","","","","",""
"","ITI","","html-keyboard-response","274","339866","0.0-1.0-378.0","0","0","85918","","null","","","null","41","","","","","","","","","","","","","","","NaN",""
"","S1","","html-keyboard-response","275","340126","0.0-1.0-380.0","0","0","85918","","null","","","null","42","","","","","","","","","","","","","","","",""
"","ISI","","html-keyboard-response","276","342135","0.0-1.0-381.0","0","0","85918","","null","","","null","42","NaN","","","","","","","","","","","","","","",""
"","S2","","html-keyboard-response","277","342394","0.0-1.0-382.0","0","0","85918","","null","","","null","42","","NaN","","","","","","","","","","","","","",""
"","response","","html-keyboard-response","278","343069","0.0-1.0-383.0","0","0","85918","","668","","","68","42","","","1","42","training","adjacent","DC","4","3","L.jpg","P.jpg","1","0","0","",""
"","feedback","","html-keyboard-response","279","344076","0.0-1.0-384.0-0.0","0","0","85918","","null","","","null","42","","","","","","","","","","","","","","","",""
"","time_out","","html-keyboard-response","280","346084","0.0-1.0-386.0-0.0","0","0","85918","","null","","","null","42","","","","","","","","","","","","","","","",""
"","ITI","","html-keyboard-response","281","347090","0.0-1.0-387.0","0","0","85918","","null","","","null","42","","","","","","","","","","","","","","","NaN",""
"","S1","","html-keyboard-response","282","347346","0.0-1.0-389.0","0","0","85918","","null","","","null","43","","","","","","","","","","","","","","","",""
"","ISI","","html-keyboard-response","283","349353","0.0-1.0-390.0","0","0","85918","","null","","","null","43","NaN","","","","","","","","","","","","","","",""
"","S2","","html-keyboard-response","284","349612","0.0-1.0-391.0","0","0","85918","","null","","","null","43","","NaN","","","","","","","","","","","","","",""
"","response","","html-keyboard-response","285","350072","0.0-1.0-392.0","0","0","85918","","456","","","68","43","","","1","43","training","adjacent","BC","2","3","O.jpg","P.jpg","1","1","1","",""
"","feedback","","html-keyboard-response","286","351082","0.0-1.0-393.0-0.0","0","0","85918","","null","","","null","43","","","","","","","","","","","","","","","",""
"","ITI","","html-keyboard-response","287","352089","0.0-1.0-396.0","0","0","85918","","null","","","null","43","","","","","","","","","","","","","","","NaN",""
"","S1","","html-keyboard-response","288","352344","0.0-1.0-398.0","0","0","85918","","null","","","null","44","","","","","","","","","","","","","","","",""
"","ISI","","html-keyboard-response","289","354352","0.0-1.0-399.0","0","0","85918","","null","","","null","44","NaN","","","","","","","","","","","","","","",""
"","S2","","html-keyboard-response","290","354615","0.0-1.0-400.0","0","0","85918","","null","","","null","44","","NaN","","","","","","","","","","","","","",""
"","response","","html-keyboard-response","291","354991","0.0-1.0-401.0","0","0","85918","","372","","","75","44","","","1","44","training","adjacent","BA","2","1","O.jpg","Q.jpg","0","0","1","",""
"","feedback","","html-keyboard-response","292","355999","0.0-1.0-402.0-0.0","0","0","85918","","null","","","null","44","","","","","","","","","","","","","","","",""
"","ITI","","html-keyboard-response","293","357021","0.0-1.0-405.0","0","0","85918","","null","","","null","44","","","","","","","","","","","","","","","NaN",""
"","S1","","html-keyboard-response","294","357277","0.0-1.0-407.0","0","0","85918","","null","","","null","45","","","","","","","","","","","","","","","",""
"","ISI","","html-keyboard-response","295","359286","0.0-1.0-408.0","0","0","85918","","null","","","null","45","NaN","","","","","","","","","","","","","","",""
"","S2","","html-keyboard-response","296","359545","0.0-1.0-409.0","0","0","85918","","null","","","null","45","","NaN","","","","","","","","","","","","","",""
"","response","","html-keyboard-response","297","359904","0.0-1.0-410.0","0","0","85918","","352","","","68","45","","","1","45","training","adjacent","EF","5","6","N.jpg","R.jpg","1","1","1","",""
"","feedback","","html-keyboard-response","298","360914","0.0-1.0-411.0-0.0","0","0","85918","","null","","","null","45","","","","","","","","","","","","","","","",""
"","ITI","","html-keyboard-response","299","361924","0.0-1.0-414.0","0","0","85918","","null","","","null","45","","","","","","","","","","","","","","","NaN",""
"","S1","","html-keyboard-response","300","362183","0.0-1.0-416.0","0","0","85918","","null","","","null","46","","","","","","","","","","","","","","","",""
"","ISI","","html-keyboard-response","301","364191","0.0-1.0-417.0","0","0","85918","","null","","","null","46","NaN","","","","","","","","","","","","","","",""
"","S2","","html-keyboard-response","302","364449","0.0-1.0-418.0","0","0","85918","","null","","","null","46","","NaN","","","","","","","","","","","","","",""
"","response","","html-keyboard-response","303","364939","0.0-1.0-419.0","0","0","85918","","484","","","68","46","","","1","46","training","adjacent","CB","3","2","P.jpg","O.jpg","1","0","0","",""
"","feedback","","html-keyboard-response","304","365948","0.0-1.0-420.0-0.0","0","0","85918","","null","","","null","46","","","","","","","","","","","","","","","",""
"","time_out","","html-keyboard-response","305","367954","0.0-1.0-422.0-0.0","0","0","85918","","null","","","null","46","","","","","","","","","","","","","","","",""
"","ITI","","html-keyboard-response","306","368961","0.0-1.0-423.0","0","0","85918","","null","","","null","46","","","","","","","","","","","","","","","NaN",""
"","S1","","html-keyboard-response","307","369219","0.0-1.0-425.0","0","0","85918","","null","","","null","47","","","","","","","","","","","","","","","",""
"","ISI","","html-keyboard-response","308","371229","0.0-1.0-426.0","0","0","85918","","null","","","null","47","NaN","","","","","","","","","","","","","","",""
"","S2","","html-keyboard-response","309","371492","0.0-1.0-427.0","0","0","85918","","null","","","null","47","","NaN","","","","","","","","","","","","","",""
"","response","","html-keyboard-response","310","372013","0.0-1.0-428.0","0","0","85918","","513","","","68","47","","","1","47","training","adjacent","EF","5","6","N.jpg","R.jpg","1","1","1","",""
"","feedback","","html-keyboard-response","311","373021","0.0-1.0-429.0-0.0","0","0","85918","","null","","","null","47","","","","","","","","","","","","","","","",""
"","ITI","","html-keyboard-response","312","374031","0.0-1.0-432.0","0","0","85918","","null","","","null","47","","","","","","","","","","","","","","","NaN",""
"","block_over","","html-keyboard-response","313","377624","0.0-1.0-433.0-0.0","0","0","85918","","3582","","","32","47","","","","","","","","","","","","","","","",""
"","S1","","html-keyboard-response","314","377886","0.0-1.0-434.0","0","0","85918","","null","","","null","48","","","","","","","","","","","","","","","",""
"","ISI","","html-keyboard-response","315","379893","0.0-1.0-435.0","0","0","85918","","null","","","null","48","NaN","","","","","","","","","","","","","","",""
"","S2","","html-keyboard-response","316","380151","0.0-1.0-436.0","0","0","85918","","null","","","null","48","","NaN","","","","","","","","","","","","","",""
"","response","","html-keyboard-response","317","380532","0.0-1.0-437.0","0","0","85918","","376","","","68","48","","","2","48","training","adjacent","GF","7","6","M.jpg","R.jpg","1","0","0","",""
"","feedback","","html-keyboard-response","318","381541","0.0-1.0-438.0-0.0","0","0","85918","","null","","","null","48","","","","","","","","","","","","","","","",""
"","time_out","","html-keyboard-response","319","383547","0.0-1.0-440.0-0.0","0","0","85918","","null","","","null","48","","","","","","","","","","","","","","","",""
"","ITI","","html-keyboard-response","320","384552","0.0-1.0-441.0","0","0","85918","","null","","","null","48","","","","","","","","","","","","","","","NaN",""
"","S1","","html-keyboard-response","321","384810","0.0-1.0-443.0","0","0","85918","","null","","","null","49","","","","","","","","","","","","","","","",""
"","ISI","","html-keyboard-response","322","386815","0.0-1.0-444.0","0","0","85918","","null","","","null","49","NaN","","","","","","","","","","","","","","",""
"","S2","","html-keyboard-response","323","387077","0.0-1.0-445.0","0","0","85918","","null","","","null","49","","NaN","","","","","","","","","","","","","",""
"","response","","html-keyboard-response","324","387394","0.0-1.0-446.0","0","0","85918","","310","","","68","49","","","2","49","training","adjacent","DC","4","3","L.jpg","P.jpg","1","0","0","",""
"","feedback","","html-keyboard-response","325","388403","0.0-1.0-447.0-0.0","0","0","85918","","null","","","null","49","","","","","","","","","","","","","","","",""
"","time_out","","html-keyboard-response","326","390413","0.0-1.0-449.0-0.0","0","0","85918","","null","","","null","49","","","","","","","","","","","","","","","",""
"","ITI","","html-keyboard-response","327","391422","0.0-1.0-450.0","0","0","85918","","null","","","null","49","","","","","","","","","","","","","","","NaN",""
"","S1","","html-keyboard-response","328","391682","0.0-1.0-452.0","0","0","85918","","null","","","null","50","","","","","","","","","","","","","","","",""
"","ISI","","html-keyboard-response","329","393687","0.0-1.0-453.0","0","0","85918","","null","","","null","50","NaN","","","","","","","","","","","","","","",""
"","S2","","html-keyboard-response","330","393942","0.0-1.0-454.0","0","0","85918","","null","","","null","50","","NaN","","","","","","","","","","","","","",""
"","response","","html-keyboard-response","331","394414","0.0-1.0-455.0","0","0","85918","","467","","","68","50","","","2","50","training","adjacent","AB","1","2","Q.jpg","O.jpg","1","1","1","",""
"","feedback","","html-keyboard-response","332","395419","0.0-1.0-456.0-0.0","0","0","85918","","null","","","null","50","","","","","","","","","","","","","","","",""
"","ITI","","html-keyboard-response","333","396428","0.0-1.0-459.0","0","0","85918","","null","","","null","50","","","","","","","","","","","","","","","NaN",""
"","S1","","html-keyboard-response","334","396687","0.0-1.0-461.0","0","0","85918","","null","","","null","51","","","","","","","","","","","","","","","",""
"","ISI","","html-keyboard-response","335","398695","0.0-1.0-462.0","0","0","85918","","null","","","null","51","NaN","","","","","","","","","","","","","","",""
"","S2","","html-keyboard-response","336","398953","0.0-1.0-463.0","0","0","85918","","null","","","null","51","","NaN","","","","","","","","","","","","","",""
"","response","","html-keyboard-response","337","399327","0.0-1.0-464.0","0","0","85918","","370","","","75","51","","","2","51","training","adjacent","DE","4","5","L.jpg","N.jpg","0","1","0","",""
"","feedback","","html-keyboard-response","338","400337","0.0-1.0-465.0-0.0","0","0","85918","","null","","","null","51","","","","","","","","","","","","","","","",""
"","time_out","","html-keyboard-response","339","402345","0.0-1.0-467.0-0.0","0","0","85918","","null","","","null","51","","","","","","","","","","","","","","","",""
"","ITI","","html-keyboard-response","340","403353","0.0-1.0-468.0","0","0","85918","","null","","","null","51","","","","","","","","","","","","","","","NaN",""
"","S1","","html-keyboard-response","341","403613","0.0-1.0-470.0","0","0","85918","","null","","","null","52","","","","","","","","","","","","","","","",""
"","ISI","","html-keyboard-response","342","405619","0.0-1.0-471.0","0","0","85918","","null","","","null","52","NaN","","","","","","","","","","","","","","",""
"","S2","","html-keyboard-response","343","405879","0.0-1.0-472.0","0","0","85918","","null","","","null","52","","NaN","","","","","","","","","","","","","",""
"","response","","html-keyboard-response","344","406220","0.0-1.0-473.0","0","0","85918","","334","","","75","52","","","2","52","training","adjacent","DE","4","5","L.jpg","N.jpg","0","1","0","",""
"","feedback","","html-keyboard-response","345","407228","0.0-1.0-474.0-0.0","0","0","85918","","null","","","null","52","","","","","","","","","","","","","","","",""
"","time_out","","html-keyboard-response","346","409236","0.0-1.0-476.0-0.0","0","0","85918","","null","","","null","52","","","","","","","","","","","","","","","",""
"","ITI","","html-keyboard-response","347","410242","0.0-1.0-477.0","0","0","85918","","null","","","null","52","","","","","","","","","","","","","","","NaN",""
"","S1","","html-keyboard-response","348","410500","0.0-1.0-479.0","0","0","85918","","null","","","null","53","","","","","","","","","","","","","","","",""
"","ISI","","html-keyboard-response","349","412508","0.0-1.0-480.0","0","0","85918","","null","","","null","53","NaN","","","","","","","","","","","","","","",""
"","S2","","html-keyboard-response","350","412764","0.0-1.0-481.0","0","0","85918","","null","","","null","53","","NaN","","","","","","","","","","","","","",""
"","response","","html-keyboard-response","351","414297","0.0-1.0-482.0","0","0","85918","","1528","","","75","53","","","2","53","training","adjacent","EF","5","6","N.jpg","R.jpg","0","1","0","",""
"","feedback","","html-keyboard-response","352","415303","0.0-1.0-483.0-0.0","0","0","85918","","null","","","null","53","","","","","","","","","","","","","","","",""
"","time_out","","html-keyboard-response","353","417308","0.0-1.0-485.0-0.0","0","0","85918","","null","","","null","53","","","","","","","","","","","","","","","",""
"","ITI","","html-keyboard-response","354","418314","0.0-1.0-486.0","0","0","85918","","null","","","null","53","","","","","","","","","","","","","","","NaN",""
"","S1","","html-keyboard-response","355","418569","0.0-1.0-488.0","0","0","85918","","null","","","null","54","","","","","","","","","","","","","","","",""
"","ISI","","html-keyboard-response","356","420577","0.0-1.0-489.0","0","0","85918","","null","","","null","54","NaN","","","","","","","","","","","","","","",""
"","S2","","html-keyboard-response","357","420834","0.0-1.0-490.0","0","0","85918","","null","","","null","54","","NaN","","","","","","","","","","","","","",""
"","response","","html-keyboard-response","358","421185","0.0-1.0-491.0","0","0","85918","","347","","","68","54","","","2","54","training","adjacent","DC","4","3","L.jpg","P.jpg","1","0","0","",""
"","feedback","","html-keyboard-response","359","422194","0.0-1.0-492.0-0.0","0","0","85918","","null","","","null","54","","","","","","","","","","","","","","","",""
"","time_out","","html-keyboard-response","360","424200","0.0-1.0-494.0-0.0","0","0","85918","","null","","","null","54","","","","","","","","","","","","","","","",""
"","ITI","","html-keyboard-response","361","425208","0.0-1.0-495.0","0","0","85918","","null","","","null","54","","","","","","","","","","","","","","","NaN",""
"","S1","","html-keyboard-response","362","425466","0.0-1.0-497.0","0","0","85918","","null","","","null","55","","","","","","","","","","","","","","","",""
"","ISI","","html-keyboard-response","363","427471","0.0-1.0-498.0","0","0","85918","","null","","","null","55","NaN","","","","","","","","","","","","","","",""
"","S2","","html-keyboard-response","364","427727","0.0-1.0-499.0","0","0","85918","","null","","","null","55","","NaN","","","","","","","","","","","","","",""
"","response","","html-keyboard-response","365","428065","0.0-1.0-500.0","0","0","85918","","334","","","75","55","","","2","55","training","adjacent","FE","6","5","R.jpg","N.jpg","0","0","1","",""
"","feedback","","html-keyboard-response","366","429072","0.0-1.0-501.0-0.0","0","0","85918","","null","","","null","55","","","","","","","","","","","","","","","",""
"","ITI","","html-keyboard-response","367","430080","0.0-1.0-504.0","0","0","85918","","null","","","null","55","","","","","","","","","","","","","","","NaN",""
"","S1","","html-keyboard-response","368","430338","0.0-1.0-506.0","0","0","85918","","null","","","null","56","","","","","","","","","","","","","","","",""
"","ISI","","html-keyboard-response","369","432346","0.0-1.0-507.0","0","0","85918","","null","","","null","56","NaN","","","","","","","","","","","","","","",""
"","S2","","html-keyboard-response","370","432615","0.0-1.0-508.0","0","0","85918","","null","","","null","56","","NaN","","","","","","","","","","","","","",""
"","response","","html-keyboard-response","371","433025","0.0-1.0-509.0","0","0","85918","","405","","","75","56","","","2","56","training","adjacent","CB","3","2","P.jpg","O.jpg","0","0","1","",""
"","feedback","","html-keyboard-response","372","434032","0.0-1.0-510.0-0.0","0","0","85918","","null","","","null","56","","","","","","","","","","","","","","","",""
"","ITI","","html-keyboard-response","373","435041","0.0-1.0-513.0","0","0","85918","","null","","","null","56","","","","","","","","","","","","","","","NaN",""
"","S1","","html-keyboard-response","374","435298","0.0-1.0-515.0","0","0","85918","","null","","","null","57","","","","","","","","","","","","","","","",""
"","ISI","","html-keyboard-response","375","437308","0.0-1.0-516.0","0","0","85918","","null","","","null","57","NaN","","","","","","","","","","","","","","",""
"","S2","","html-keyboard-response","376","437564","0.0-1.0-517.0","0","0","85918","","null","","","null","57","","NaN","","","","","","","","","","","","","",""
"","response","","html-keyboard-response","377","437991","0.0-1.0-518.0","0","0","85918","","422","","","68","57","","","2","57","training","adjacent","DE","4","5","L.jpg","N.jpg","1","1","1","",""
"","feedback","","html-keyboard-response","378","438999","0.0-1.0-519.0-0.0","0","0","85918","","null","","","null","57","","","","","","","","","","","","","","","",""
"","ITI","","html-keyboard-response","379","440005","0.0-1.0-522.0","0","0","85918","","null","","","null","57","","","","","","","","","","","","","","","NaN",""
"","S1","","html-keyboard-response","380","440262","0.0-1.0-524.0","0","0","85918","","null","","","null","58","","","","","","","","","","","","","","","",""
"","ISI","","html-keyboard-response","381","442271","0.0-1.0-525.0","0","0","85918","","null","","","null","58","NaN","","","","","","","","","","","","","","",""
"","S2","","html-keyboard-response","382","442528","0.0-1.0-526.0","0","0","85918","","null","","","null","58","","NaN","","","","","","","","","","","","","",""
"","response","","html-keyboard-response","383","442951","0.0-1.0-527.0","0","0","85918","","418","","","68","58","","","2","58","training","adjacent","ED","5","4","N.jpg","L.jpg","1","0","0","",""
"","feedback","","html-keyboard-response","384","443957","0.0-1.0-528.0-0.0","0","0","85918","","null","","","null","58","","","","","","","","","","","","","","","",""
"","time_out","","html-keyboard-response","385","445965","0.0-1.0-530.0-0.0","0","0","85918","","null","","","null","58","","","","","","","","","","","","","","","",""
"","ITI","","html-keyboard-response","386","446971","0.0-1.0-531.0","0","0","85918","","null","","","null","58","","","","","","","","","","","","","","","NaN",""
"","S1","","html-keyboard-response","387","447229","0.0-1.0-533.0","0","0","85918","","null","","","null","59","","","","","","","","","","","","","","","",""
"","ISI","","html-keyboard-response","388","449234","0.0-1.0-534.0","0","0","85918","","null","","","null","59","NaN","","","","","","","","","","","","","","",""
"","S2","","html-keyboard-response","389","449493","0.0-1.0-535.0","0","0","85918","","null","","","null","59","","NaN","","","","","","","","","","","","","",""
"","response","","html-keyboard-response","390","449942","0.0-1.0-536.0","0","0","85918","","443","","","75","59","","","2","59","training","adjacent","FG","6","7","R.jpg","M.jpg","0","1","0","",""
"","feedback","","html-keyboard-response","391","450949","0.0-1.0-537.0-0.0","0","0","85918","","null","","","null","59","","","","","","","","","","","","","","","",""
"","time_out","","html-keyboard-response","392","452955","0.0-1.0-539.0-0.0","0","0","85918","","null","","","null","59","","","","","","","","","","","","","","","",""
"","ITI","","html-keyboard-response","393","453961","0.0-1.0-540.0","0","0","85918","","null","","","null","59","","","","","","","","","","","","","","","NaN",""
"","S1","","html-keyboard-response","394","454257","0.0-1.0-542.0","0","0","85918","","null","","","null","60","","","","","","","","","","","","","","","",""
"","ISI","","html-keyboard-response","395","456282","0.0-1.0-543.0","0","0","85918","","null","","","null","60","NaN","","","","","","","","","","","","","","",""
"","S2","","html-keyboard-response","396","456542","0.0-1.0-544.0","0","0","85918","","null","","","null","60","","NaN","","","","","","","","","","","","","",""
"","response","","html-keyboard-response","397","457025","0.0-1.0-545.0","0","0","85918","","478","","","68","60","","","2","60","training","adjacent","EF","5","6","N.jpg","R.jpg","1","1","1","",""
"","feedback","","html-keyboard-response","398","458033","0.0-1.0-546.0-0.0","0","0","85918","","null","","","null","60","","","","","","","","","","","","","","","",""
"","ITI","","html-keyboard-response","399","459044","0.0-1.0-549.0","0","0","85918","","null","","","null","60","","","","","","","","","","","","","","","NaN",""
"","S1","","html-keyboard-response","400","459302","0.0-1.0-551.0","0","0","85918","","null","","","null","61","","","","","","","","","","","","","","","",""
"","ISI","","html-keyboard-response","401","461308","0.0-1.0-552.0","0","0","85918","","null","","","null","61","NaN","","","","","","","","","","","","","","",""
"","S2","","html-keyboard-response","402","461566","0.0-1.0-553.0","0","0","85918","","null","","","null","61","","NaN","","","","","","","","","","","","","",""
"","response","","html-keyboard-response","403","461934","0.0-1.0-554.0","0","0","85918","","361","","","68","61","","","2","61","training","adjacent","AB","1","2","Q.jpg","O.jpg","1","1","1","",""
"","feedback","","html-keyboard-response","404","462944","0.0-1.0-555.0-0.0","0","0","85918","","null","","","null","61","","","","","","","","","","","","","","","",""
"","ITI","","html-keyboard-response","405","463952","0.0-1.0-558.0","0","0","85918","","null","","","null","61","","","","","","","","","","","","","","","NaN",""
"","S1","","html-keyboard-response","406","464212","0.0-1.0-560.0","0","0","85918","","null","","","null","62","","","","","","","","","","","","","","","",""
"","ISI","","html-keyboard-response","407","466219","0.0-1.0-561.0","0","0","85918","","null","","","null","62","NaN","","","","","","","","","","","","","","",""
"","S2","","html-keyboard-response","408","466477","0.0-1.0-562.0","0","0","85918","","null","","","null","62","","NaN","","","","","","","","","","","","","",""
"","response","","html-keyboard-response","409","467024","0.0-1.0-563.0","0","0","85918","","539","","","75","62","","","2","62","training","adjacent","ED","5","4","N.jpg","L.jpg","0","0","1","",""
"","feedback","","html-keyboard-response","410","468040","0.0-1.0-564.0-0.0","0","0","85918","","null","","","null","62","","","","","","","","","","","","","","","",""
"","ITI","","html-keyboard-response","411","469047","0.0-1.0-567.0","0","0","85918","","null","","","null","62","","","","","","","","","","","","","","","NaN",""
"","S1","","html-keyboard-response","412","469306","0.0-1.0-569.0","0","0","85918","","null","","","null","63","","","","","","","","","","","","","","","",""
"","ISI","","html-keyboard-response","413","471327","0.0-1.0-570.0","0","0","85918","","null","","","null","63","NaN","","","","","","","","","","","","","","",""
"","S2","","html-keyboard-response","414","471585","0.0-1.0-571.0","0","0","85918","","null","","","null","63","","NaN","","","","","","","","","","","","","",""
"","response","","html-keyboard-response","415","471678","0.0-1.0-572.0","0","0","85918","","85","","","75","63","","","2","63","training","adjacent","BC","2","3","O.jpg","P.jpg","0","1","0","",""
"","feedback","","html-keyboard-response","416","472688","0.0-1.0-573.0-0.0","0","0","85918","","null","","","null","63","","","","","","","","","","","","","","","",""
"","time_out","","html-keyboard-response","417","474694","0.0-1.0-575.0-0.0","0","0","85918","","null","","","null","63","","","","","","","","","","","","","","","",""
"","ITI","","html-keyboard-response","418","475701","0.0-1.0-576.0","0","0","85918","","null","","","null","63","","","","","","","","","","","","","","","NaN",""
"","S1","","html-keyboard-response","419","475960","0.0-1.0-578.0","0","0","85918","","null","","","null","64","","","","","","","","","","","","","","","",""
"","ISI","","html-keyboard-response","420","477969","0.0-1.0-579.0","0","0","85918","","null","","","null","64","NaN","","","","","","","","","","","","","","",""
"","S2","","html-keyboard-response","421","478231","0.0-1.0-580.0","0","0","85918","","null","","","null","64","","NaN","","","","","","","","","","","","","",""
"","response","","html-keyboard-response","422","478803","0.0-1.0-581.0","0","0","85918","","566","","","68","64","","","2","64","training","adjacent","BC","2","3","O.jpg","P.jpg","1","1","1","",""
"","feedback","","html-keyboard-response","423","479819","0.0-1.0-582.0-0.0","0","0","85918","","null","","","null","64","","","","","","","","","","","","","","","",""
"","ITI","","html-keyboard-response","424","480826","0.0-1.0-585.0","0","0","85918","","null","","","null","64","","","","","","","","","","","","","","","NaN",""
"","S1","","html-keyboard-response","425","481085","0.0-1.0-587.0","0","0","85918","","null","","","null","65","","","","","","","","","","","","","","","",""
"","ISI","","html-keyboard-response","426","483094","0.0-1.0-588.0","0","0","85918","","null","","","null","65","NaN","","","","","","","","","","","","","","",""
"","S2","","html-keyboard-response","427","483352","0.0-1.0-589.0","0","0","85918","","null","","","null","65","","NaN","","","","","","","","","","","","","",""
"","response","","html-keyboard-response","428","483871","0.0-1.0-590.0","0","0","85918","","514","","","68","65","","","2","65","training","adjacent","CB","3","2","P.jpg","O.jpg","1","0","0","",""
"","feedback","","html-keyboard-response","429","484879","0.0-1.0-591.0-0.0","0","0","85918","","null","","","null","65","","","","","","","","","","","","","","","",""
"","time_out","","html-keyboard-response","430","486891","0.0-1.0-593.0-0.0","0","0","85918","","null","","","null","65","","","","","","","","","","","","","","","",""
"","ITI","","html-keyboard-response","431","487898","0.0-1.0-594.0","0","0","85918","","null","","","null","65","","","","","","","","","","","","","","","NaN",""
"","S1","","html-keyboard-response","432","488156","0.0-1.0-596.0","0","0","85918","","null","","","null","66","","","","","","","","","","","","","","","",""
"","ISI","","html-keyboard-response","433","490162","0.0-1.0-597.0","0","0","85918","","null","","","null","66","NaN","","","","","","","","","","","","","","",""
"","S2","","html-keyboard-response","434","490419","0.0-1.0-598.0","0","0","85918","","null","","","null","66","","NaN","","","","","","","","","","","","","",""
"","response","","html-keyboard-response","435","490750","0.0-1.0-599.0","0","0","85918","","323","","","75","66","","","2","66","training","adjacent","CD","3","4","P.jpg","L.jpg","0","1","0","",""
"","feedback","","html-keyboard-response","436","491758","0.0-1.0-600.0-0.0","0","0","85918","","null","","","null","66","","","","","","","","","","","","","","","",""
"","time_out","","html-keyboard-response","437","493764","0.0-1.0-602.0-0.0","0","0","85918","","null","","","null","66","","","","","","","","","","","","","","","",""
"","ITI","","html-keyboard-response","438","494771","0.0-1.0-603.0","0","0","85918","","null","","","null","66","","","","","","","","","","","","","","","NaN",""
"","S1","","html-keyboard-response","439","495028","0.0-1.0-605.0","0","0","85918","","null","","","null","67","","","","","","","","","","","","","","","",""
"","ISI","","html-keyboard-response","440","497052","0.0-1.0-606.0","0","0","85918","","null","","","null","67","NaN","","","","","","","","","","","","","","",""
"","S2","","html-keyboard-response","441","497308","0.0-1.0-607.0","0","0","85918","","null","","","null","67","","NaN","","","","","","","","","","","","","",""
"","response","","html-keyboard-response","442","497513","0.0-1.0-608.0","0","0","85918","","200","","","75","67","","","2","67","training","adjacent","FG","6","7","R.jpg","M.jpg","0","1","0","",""
"","feedback","","html-keyboard-response","443","498520","0.0-1.0-609.0-0.0","0","0","85918","","null","","","null","67","","","","","","","","","","","","","","","",""
"","time_out","","html-keyboard-response","444","500528","0.0-1.0-611.0-0.0","0","0","85918","","null","","","null","67","","","","","","","","","","","","","","","",""
"","ITI","","html-keyboard-response","445","501537","0.0-1.0-612.0","0","0","85918","","null","","","null","67","","","","","","","","","","","","","","","NaN",""
"","S1","","html-keyboard-response","446","501796","0.0-1.0-614.0","0","0","85918","","null","","","null","68","","","","","","","","","","","","","","","",""
"","ISI","","html-keyboard-response","447","503803","0.0-1.0-615.0","0","0","85918","","null","","","null","68","NaN","","","","","","","","","","","","","","",""
"","S2","","html-keyboard-response","448","504063","0.0-1.0-616.0","0","0","85918","","null","","","null","68","","NaN","","","","","","","","","","","","","",""
"","response","","html-keyboard-response","449","504399","0.0-1.0-617.0","0","0","85918","","332","","","75","68","","","2","68","training","adjacent","BA","2","1","O.jpg","Q.jpg","0","0","1","",""
"","feedback","","html-keyboard-response","450","505408","0.0-1.0-618.0-0.0","0","0","85918","","null","","","null","68","","","","","","","","","","","","","","","",""
"","ITI","","html-keyboard-response","451","506416","0.0-1.0-621.0","0","0","85918","","null","","","null","68","","","","","","","","","","","","","","","NaN",""
"","S1","","html-keyboard-response","452","506673","0.0-1.0-623.0","0","0","85918","","null","","","null","69","","","","","","","","","","","","","","","",""
"","ISI","","html-keyboard-response","453","508681","0.0-1.0-624.0","0","0","85918","","null","","","null","69","NaN","","","","","","","","","","","","","","",""
"","S2","","html-keyboard-response","454","508940","0.0-1.0-625.0","0","0","85918","","null","","","null","69","","NaN","","","","","","","","","","","","","",""
"","response","","html-keyboard-response","455","509470","0.0-1.0-626.0","0","0","85918","","522","","","68","69","","","2","69","training","adjacent","DC","4","3","L.jpg","P.jpg","1","0","0","",""
"","feedback","","html-keyboard-response","456","510480","0.0-1.0-627.0-0.0","0","0","85918","","null","","","null","69","","","","","","","","","","","","","","","",""
"","time_out","","html-keyboard-response","457","512490","0.0-1.0-629.0-0.0","0","0","85918","","null","","","null","69","","","","","","","","","","","","","","","",""
"","ITI","","html-keyboard-response","458","513499","0.0-1.0-630.0","0","0","85918","","null","","","null","69","","","","","","","","","","","","","","","NaN",""
"","S1","","html-keyboard-response","459","513759","0.0-1.0-632.0","0","0","85918","","null","","","null","70","","","","","","","","","","","","","","","",""
"","ISI","","html-keyboard-response","460","515768","0.0-1.0-633.0","0","0","85918","","null","","","null","70","NaN","","","","","","","","","","","","","","",""
"","S2","","html-keyboard-response","461","516026","0.0-1.0-634.0","0","0","85918","","null","","","null","70","","NaN","","","","","","","","","","","","","",""
"","response","","html-keyboard-response","462","516496","0.0-1.0-635.0","0","0","85918","","466","","","68","70","","","2","70","training","adjacent","ED","5","4","N.jpg","L.jpg","1","0","0","",""
"","feedback","","html-keyboard-response","463","517503","0.0-1.0-636.0-0.0","0","0","85918","","null","","","null","70","","","","","","","","","","","","","","","",""
"","time_out","","html-keyboard-response","464","519509","0.0-1.0-638.0-0.0","0","0","85918","","null","","","null","70","","","","","","","","","","","","","","","",""
"","ITI","","html-keyboard-response","465","520518","0.0-1.0-639.0","0","0","85918","","null","","","null","70","","","","","","","","","","","","","","","NaN",""
"","S1","","html-keyboard-response","466","520775","0.0-1.0-641.0","0","0","85918","","null","","","null","71","","","","","","","","","","","","","","","",""
"","ISI","","html-keyboard-response","467","522783","0.0-1.0-642.0","0","0","85918","","null","","","null","71","NaN","","","","","","","","","","","","","","",""
"","S2","","html-keyboard-response","468","523042","0.0-1.0-643.0","0","0","85918","","null","","","null","71","","NaN","","","","","","","","","","","","","",""
"","response","","html-keyboard-response","469","523232","0.0-1.0-644.0","0","0","85918","","182","","","68","71","","","2","71","training","adjacent","GF","7","6","M.jpg","R.jpg","1","0","0","",""
"","feedback","","html-keyboard-response","470","524240","0.0-1.0-645.0-0.0","0","0","85918","","null","","","null","71","","","","","","","","","","","","","","","",""
"","time_out","","html-keyboard-response","471","526258","0.0-1.0-647.0-0.0","0","0","85918","","null","","","null","71","","","","","","","","","","","","","","","",""
"","ITI","","html-keyboard-response","472","527264","0.0-1.0-648.0","0","0","85918","","null","","","null","71","","","","","","","","","","","","","","","NaN",""
"","S1","","html-keyboard-response","473","527522","0.0-1.0-650.0","0","0","85918","","null","","","null","72","","","","","","","","","","","","","","","",""
"","ISI","","html-keyboard-response","474","529530","0.0-1.0-651.0","0","0","85918","","null","","","null","72","NaN","","","","","","","","","","","","","","",""
"","S2","","html-keyboard-response","475","529790","0.0-1.0-652.0","0","0","85918","","null","","","null","72","","NaN","","","","","","","","","","","","","",""
"","response","","html-keyboard-response","476","530024","0.0-1.0-653.0","0","0","85918","","227","","","68","72","","","2","72","training","adjacent","AB","1","2","Q.jpg","O.jpg","1","1","1","",""
"","feedback","","html-keyboard-response","477","531035","0.0-1.0-654.0-0.0","0","0","85918","","null","","","null","72","","","","","","","","","","","","","","","",""
"","ITI","","html-keyboard-response","478","532044","0.0-1.0-657.0","0","0","85918","","null","","","null","72","","","","","","","","","","","","","","","NaN",""
"","S1","","html-keyboard-response","479","532301","0.0-1.0-659.0","0","0","85918","","null","","","null","73","","","","","","","","","","","","","","","",""
"","ISI","","html-keyboard-response","480","534309","0.0-1.0-660.0","0","0","85918","","null","","","null","73","NaN","","","","","","","","","","","","","","",""
"","S2","","html-keyboard-response","481","534567","0.0-1.0-661.0","0","0","85918","","null","","","null","73","","NaN","","","","","","","","","","","","","",""
"","response","","html-keyboard-response","482","534993","0.0-1.0-662.0","0","0","85918","","420","","","68","73","","","2","73","training","adjacent","EF","5","6","N.jpg","R.jpg","1","1","1","",""
"","feedback","","html-keyboard-response","483","536001","0.0-1.0-663.0-0.0","0","0","85918","","null","","","null","73","","","","","","","","","","","","","","","",""
"","ITI","","html-keyboard-response","484","537007","0.0-1.0-666.0","0","0","85918","","null","","","null","73","","","","","","","","","","","","","","","NaN",""
"","S1","","html-keyboard-response","485","537266","0.0-1.0-668.0","0","0","85918","","null","","","null","74","","","","","","","","","","","","","","","",""
"","ISI","","html-keyboard-response","486","539273","0.0-1.0-669.0","0","0","85918","","null","","","null","74","NaN","","","","","","","","","","","","","","",""
"","S2","","html-keyboard-response","487","539532","0.0-1.0-670.0","0","0","85918","","null","","","null","74","","NaN","","","","","","","","","","","","","",""
"","response","","html-keyboard-response","488","539979","0.0-1.0-671.0","0","0","85918","","440","","","75","74","","","2","74","training","adjacent","BC","2","3","O.jpg","P.jpg","0","1","0","",""
"","feedback","","html-keyboard-response","489","540989","0.0-1.0-672.0-0.0","0","0","85918","","null","","","null","74","","","","","","","","","","","","","","","",""
"","time_out","","html-keyboard-response","490","542997","0.0-1.0-674.0-0.0","0","0","85918","","null","","","null","74","","","","","","","","","","","","","","","",""
"","ITI","","html-keyboard-response","491","544004","0.0-1.0-675.0","0","0","85918","","null","","","null","74","","","","","","","","","","","","","","","NaN",""
"","S1","","html-keyboard-response","492","544264","0.0-1.0-677.0","0","0","85918","","null","","","null","75","","","","","","","","","","","","","","","",""
"","ISI","","html-keyboard-response","493","546273","0.0-1.0-678.0","0","0","85918","","null","","","null","75","NaN","","","","","","","","","","","","","","",""
"","S2","","html-keyboard-response","494","546532","0.0-1.0-679.0","0","0","85918","","null","","","null","75","","NaN","","","","","","","","","","","","","",""
"","response","","html-keyboard-response","495","547016","0.0-1.0-680.0","0","0","85918","","477","","","68","75","","","2","75","training","adjacent","BC","2","3","O.jpg","P.jpg","1","1","1","",""
"","feedback","","html-keyboard-response","496","548023","0.0-1.0-681.0-0.0","0","0","85918","","null","","","null","75","","","","","","","","","","","","","","","",""
"","ITI","","html-keyboard-response","497","549034","0.0-1.0-684.0","0","0","85918","","null","","","null","75","","","","","","","","","","","","","","","NaN",""
"","S1","","html-keyboard-response","498","549295","0.0-1.0-686.0","0","0","85918","","null","","","null","76","","","","","","","","","","","","","","","",""
"","ISI","","html-keyboard-response","499","551301","0.0-1.0-687.0","0","0","85918","","null","","","null","76","NaN","","","","","","","","","","","","","","",""
"","S2","","html-keyboard-response","500","551558","0.0-1.0-688.0","0","0","85918","","null","","","null","76","","NaN","","","","","","","","","","","","","",""
"","response","","html-keyboard-response","501","551860","0.0-1.0-689.0","0","0","85918","","297","","","68","76","","","2","76","training","adjacent","FG","6","7","R.jpg","M.jpg","1","1","1","",""
"","feedback","","html-keyboard-response","502","552869","0.0-1.0-690.0-0.0","0","0","85918","","null","","","null","76","","","","","","","","","","","","","","","",""
"","ITI","","html-keyboard-response","503","553879","0.0-1.0-693.0","0","0","85918","","null","","","null","76","","","","","","","","","","","","","","","NaN",""
"","S1","","html-keyboard-response","504","554139","0.0-1.0-695.0","0","0","85918","","null","","","null","77","","","","","","","","","","","","","","","",""
"","ISI","","html-keyboard-response","505","556147","0.0-1.0-696.0","0","0","85918","","null","","","null","77","NaN","","","","","","","","","","","","","","",""
"","S2","","html-keyboard-response","506","556405","0.0-1.0-697.0","0","0","85918","","null","","","null","77","","NaN","","","","","","","","","","","","","",""
"","response","","html-keyboard-response","507","556830","0.0-1.0-698.0","0","0","85918","","418","","","68","77","","","2","77","training","adjacent","DC","4","3","L.jpg","P.jpg","1","0","0","",""
"","feedback","","html-keyboard-response","508","557861","0.0-1.0-699.0-0.0","0","0","85918","","null","","","null","77","","","","","","","","","","","","","","","",""
"","time_out","","html-keyboard-response","509","559871","0.0-1.0-701.0-0.0","0","0","85918","","null","","","null","77","","","","","","","","","","","","","","","",""
"","ITI","","html-keyboard-response","510","560879","0.0-1.0-702.0","0","0","85918","","null","","","null","77","","","","","","","","","","","","","","","NaN",""
"","S1","","html-keyboard-response","511","561138","0.0-1.0-704.0","0","0","85918","","null","","","null","78","","","","","","","","","","","","","","","",""
"","ISI","","html-keyboard-response","512","563144","0.0-1.0-705.0","0","0","85918","","null","","","null","78","NaN","","","","","","","","","","","","","","",""
"","S2","","html-keyboard-response","513","563403","0.0-1.0-706.0","0","0","85918","","null","","","null","78","","NaN","","","","","","","","","","","","","",""
"","response","","html-keyboard-response","514","563946","0.0-1.0-707.0","0","0","85918","","534","","","68","78","","","2","78","training","adjacent","BA","2","1","O.jpg","Q.jpg","1","0","0","",""
"","feedback","","html-keyboard-response","515","564955","0.0-1.0-708.0-0.0","0","0","85918","","null","","","null","78","","","","","","","","","","","","","","","",""
"","time_out","","html-keyboard-response","516","566961","0.0-1.0-710.0-0.0","0","0","85918","","null","","","null","78","","","","","","","","","","","","","","","",""
"","ITI","","html-keyboard-response","517","567967","0.0-1.0-711.0","0","0","85918","","null","","","null","78","","","","","","","","","","","","","","","NaN",""
"","S1","","html-keyboard-response","518","568225","0.0-1.0-713.0","0","0","85918","","null","","","null","79","","","","","","","","","","","","","","","",""
"","ISI","","html-keyboard-response","519","570231","0.0-1.0-714.0","0","0","85918","","null","","","null","79","NaN","","","","","","","","","","","","","","",""
"","S2","","html-keyboard-response","520","570488","0.0-1.0-715.0","0","0","85918","","null","","","null","79","","NaN","","","","","","","","","","","","","",""
"","response","","html-keyboard-response","521","570562","0.0-1.0-716.0","0","0","85918","","65","","","68","79","","","2","79","training","adjacent","FE","6","5","R.jpg","N.jpg","1","0","0","",""
"","feedback","","html-keyboard-response","522","571571","0.0-1.0-717.0-0.0","0","0","85918","","null","","","null","79","","","","","","","","","","","","","","","",""
"","time_out","","html-keyboard-response","523","573578","0.0-1.0-719.0-0.0","0","0","85918","","null","","","null","79","","","","","","","","","","","","","","","",""
"","ITI","","html-keyboard-response","524","574584","0.0-1.0-720.0","0","0","85918","","null","","","null","79","","","","","","","","","","","","","","","NaN",""
"","S1","","html-keyboard-response","525","574840","0.0-1.0-722.0","0","0","85918","","null","","","null","80","","","","","","","","","","","","","","","",""
"","ISI","","html-keyboard-response","526","576849","0.0-1.0-723.0","0","0","85918","","null","","","null","80","NaN","","","","","","","","","","","","","","",""
"","S2","","html-keyboard-response","527","577109","0.0-1.0-724.0","0","0","85918","","null","","","null","80","","NaN","","","","","","","","","","","","","",""
"","response","","html-keyboard-response","528","577727","0.0-1.0-725.0","0","0","85918","","611","","","75","80","","","2","80","training","adjacent","FE","6","5","R.jpg","N.jpg","0","0","1","",""
"","feedback","","html-keyboard-response","529","578734","0.0-1.0-726.0-0.0","0","0","85918","","null","","","null","80","","","","","","","","","","","","","","","",""
"","ITI","","html-keyboard-response","530","579742","0.0-1.0-729.0","0","0","85918","","null","","","null","80","","","","","","","","","","","","","","","NaN",""
"","S1","","html-keyboard-response","531","579999","0.0-1.0-731.0","0","0","85918","","null","","","null","81","","","","","","","","","","","","","","","",""
"","ISI","","html-keyboard-response","532","582004","0.0-1.0-732.0","0","0","85918","","null","","","null","81","NaN","","","","","","","","","","","","","","",""
"","S2","","html-keyboard-response","533","582262","0.0-1.0-733.0","0","0","85918","","null","","","null","81","","NaN","","","","","","","","","","","","","",""
"","response","","html-keyboard-response","534","582687","0.0-1.0-734.0","0","0","85918","","418","","","68","81","","","2","81","training","adjacent","EF","5","6","N.jpg","R.jpg","1","1","1","",""
"","feedback","","html-keyboard-response","535","583694","0.0-1.0-735.0-0.0","0","0","85918","","null","","","null","81","","","","","","","","","","","","","","","",""
"","ITI","","html-keyboard-response","536","584701","0.0-1.0-738.0","0","0","85918","","null","","","null","81","","","","","","","","","","","","","","","NaN",""
"","S1","","html-keyboard-response","537","584957","0.0-1.0-740.0","0","0","85918","","null","","","null","82","","","","","","","","","","","","","","","",""
"","ISI","","html-keyboard-response","538","586966","0.0-1.0-741.0","0","0","85918","","null","","","null","82","NaN","","","","","","","","","","","","","","",""
"","S2","","html-keyboard-response","539","587225","0.0-1.0-742.0","0","0","85918","","null","","","null","82","","NaN","","","","","","","","","","","","","",""
"","response","","html-keyboard-response","540","588292","0.0-1.0-743.0","0","0","85918","","1061","","","68","82","","","2","82","training","adjacent","CD","3","4","P.jpg","L.jpg","1","1","1","",""
"","feedback","","html-keyboard-response","541","589301","0.0-1.0-744.0-0.0","0","0","85918","","null","","","null","82","","","","","","","","","","","","","","","",""
"","ITI","","html-keyboard-response","542","590308","0.0-1.0-747.0","0","0","85918","","null","","","null","82","","","","","","","","","","","","","","","NaN",""
"","S1","","html-keyboard-response","543","590565","0.0-1.0-749.0","0","0","85918","","null","","","null","83","","","","","","","","","","","","","","","",""
"","ISI","","html-keyboard-response","544","592572","0.0-1.0-750.0","0","0","85918","","null","","","null","83","NaN","","","","","","","","","","","","","","",""
"","S2","","html-keyboard-response","545","592828","0.0-1.0-751.0","0","0","85918","","null","","","null","83","","NaN","","","","","","","","","","","","","",""
"","response","","html-keyboard-response","546","593324","0.0-1.0-752.0","0","0","85918","","489","","","68","83","","","2","83","training","adjacent","FE","6","5","R.jpg","N.jpg","1","0","0","",""
"","feedback","","html-keyboard-response","547","594333","0.0-1.0-753.0-0.0","0","0","85918","","null","","","null","83","","","","","","","","","","","","","","","",""
"","time_out","","html-keyboard-response","548","596340","0.0-1.0-755.0-0.0","0","0","85918","","null","","","null","83","","","","","","","","","","","","","","","",""
"","ITI","","html-keyboard-response","549","597348","0.0-1.0-756.0","0","0","85918","","null","","","null","83","","","","","","","","","","","","","","","NaN",""
"","S1","","html-keyboard-response","550","597608","0.0-1.0-758.0","0","0","85918","","null","","","null","84","","","","","","","","","","","","","","","",""
"","ISI","","html-keyboard-response","551","599618","0.0-1.0-759.0","0","0","85918","","null","","","null","84","NaN","","","","","","","","","","","","","","",""
"","S2","","html-keyboard-response","552","599877","0.0-1.0-760.0","0","0","85918","","null","","","null","84","","NaN","","","","","","","","","","","","","",""
"","response","","html-keyboard-response","553","600312","0.0-1.0-761.0","0","0","85918","","428","","","75","84","","","2","84","training","adjacent","DE","4","5","L.jpg","N.jpg","0","1","0","",""
"","feedback","","html-keyboard-response","554","601322","0.0-1.0-762.0-0.0","0","0","85918","","null","","","null","84","","","","","","","","","","","","","","","",""
"","time_out","","html-keyboard-response","555","603331","0.0-1.0-764.0-0.0","0","0","85918","","null","","","null","84","","","","","","","","","","","","","","","",""
"","ITI","","html-keyboard-response","556","604339","0.0-1.0-765.0","0","0","85918","","null","","","null","84","","","","","","","","","","","","","","","NaN",""
"","S1","","html-keyboard-response","557","604601","0.0-1.0-767.0","0","0","85918","","null","","","null","85","","","","","","","","","","","","","","","",""
"","ISI","","html-keyboard-response","558","606610","0.0-1.0-768.0","0","0","85918","","null","","","null","85","NaN","","","","","","","","","","","","","","",""
"","S2","","html-keyboard-response","559","606870","0.0-1.0-769.0","0","0","85918","","null","","","null","85","","NaN","","","","","","","","","","","","","",""
"","response","","html-keyboard-response","560","607267","0.0-1.0-770.0","0","0","85918","","390","","","68","85","","","2","85","training","adjacent","CB","3","2","P.jpg","O.jpg","1","0","0","",""
"","feedback","","html-keyboard-response","561","608273","0.0-1.0-771.0-0.0","0","0","85918","","null","","","null","85","","","","","","","","","","","","","","","",""
"","time_out","","html-keyboard-response","562","610282","0.0-1.0-773.0-0.0","0","0","85918","","null","","","null","85","","","","","","","","","","","","","","","",""
"","ITI","","html-keyboard-response","563","611288","0.0-1.0-774.0","0","0","85918","","null","","","null","85","","","","","","","","","","","","","","","NaN",""
"","S1","","html-keyboard-response","564","611545","0.0-1.0-776.0","0","0","85918","","null","","","null","86","","","","","","","","","","","","","","","",""
"","ISI","","html-keyboard-response","565","613556","0.0-1.0-777.0","0","0","85918","","null","","","null","86","NaN","","","","","","","","","","","","","","",""
"","S2","","html-keyboard-response","566","613813","0.0-1.0-778.0","0","0","85918","","null","","","null","86","","NaN","","","","","","","","","","","","","",""
"","response","","html-keyboard-response","567","614630","0.0-1.0-779.0","0","0","85918","","811","","","75","86","","","2","86","training","adjacent","GF","7","6","M.jpg","R.jpg","0","0","1","",""
"","feedback","","html-keyboard-response","568","615638","0.0-1.0-780.0-0.0","0","0","85918","","null","","","null","86","","","","","","","","","","","","","","","",""
"","ITI","","html-keyboard-response","569","616644","0.0-1.0-783.0","0","0","85918","","null","","","null","86","","","","","","","","","","","","","","","NaN",""
"","S1","","html-keyboard-response","570","616903","0.0-1.0-785.0","0","0","85918","","null","","","null","87","","","","","","","","","","","","","","","",""
"","ISI","","html-keyboard-response","571","618912","0.0-1.0-786.0","0","0","85918","","null","","","null","87","NaN","","","","","","","","","","","","","","",""
"","S2","","html-keyboard-response","572","619171","0.0-1.0-787.0","0","0","85918","","null","","","null","87","","NaN","","","","","","","","","","","","","",""
"","response","","html-keyboard-response","573","619706","0.0-1.0-788.0","0","0","85918","","528","","","75","87","","","2","87","training","adjacent","GF","7","6","M.jpg","R.jpg","0","0","1","",""
"","feedback","","html-keyboard-response","574","620713","0.0-1.0-789.0-0.0","0","0","85918","","null","","","null","87","","","","","","","","","","","","","","","",""
"","ITI","","html-keyboard-response","575","621720","0.0-1.0-792.0","0","0","85918","","null","","","null","87","","","","","","","","","","","","","","","NaN",""
"","S1","","html-keyboard-response","576","621981","0.0-1.0-794.0","0","0","85918","","null","","","null","88","","","","","","","","","","","","","","","",""
"","ISI","","html-keyboard-response","577","623990","0.0-1.0-795.0","0","0","85918","","null","","","null","88","NaN","","","","","","","","","","","","","","",""
"","S2","","html-keyboard-response","578","624249","0.0-1.0-796.0","0","0","85918","","null","","","null","88","","NaN","","","","","","","","","","","","","",""
"","response","","html-keyboard-response","579","625937","0.0-1.0-797.0","0","0","85918","","1680","","","68","88","","","2","88","training","adjacent","CB","3","2","P.jpg","O.jpg","1","0","0","",""
"","feedback","","html-keyboard-response","580","626944","0.0-1.0-798.0-0.0","0","0","85918","","null","","","null","88","","","","","","","","","","","","","","","",""
"","time_out","","html-keyboard-response","581","628951","0.0-1.0-800.0-0.0","0","0","85918","","null","","","null","88","","","","","","","","","","","","","","","",""
"","ITI","","html-keyboard-response","582","629959","0.0-1.0-801.0","0","0","85918","","null","","","null","88","","","","","","","","","","","","","","","NaN",""
"","S1","","html-keyboard-response","583","630224","0.0-1.0-803.0","0","0","85918","","null","","","null","89","","","","","","","","","","","","","","","",""
"","ISI","","html-keyboard-response","584","632232","0.0-1.0-804.0","0","0","85918","","null","","","null","89","NaN","","","","","","","","","","","","","","",""
