"success","ttype","start_time","trial_type","trial_index","time_elapsed","internal_node_id","warning","missed_checkup","PID","view_history","rt","responses","repeat_instructions","key_press","index","keypress_isi","keypress_S2","block","trial_num","phase","group_type","pair_type","S1_stim","S2_stim","S1_img","S2_img","S1_chosen","S1_higher","accuracy","keypress_iti","total_bonus_tally"
"true","full_screen","d03042023hr1428","fullscreen","0","8361","0.0-0.0","0","0","85704","","","","","","","","","","","","","","","","","","","","","",""
"","instructions","","instructions","1","39562","0.0-1.0-0.0-0.0","0","0","85704","[{""page_index"":0,""viewing_time"":4137},{""page_index"":1,""viewing_time"":19371},{""page_index"":2,""viewing_time"":6116},{""page_index"":3,""viewing_time"":1575}]","31199","","","","","","","","","","","","","","","","","","","",""
"","comprehension_check","","survey-multi-choice","2","55119","0.0-1.0-0.0-1.0","0","0","85704","","15552","{""Q0"":""True"",""Q1"":""D"",""Q2"":""Once the second image appears and while the screen 'MAKE A CHOICE' is shown"",""Q3"":""Green mark"",""Q4"":""either D or K""}","0","","","","","","","","","","","","","","","","","",""
"","start_exp","","html-keyboard-response","3","56942","0.0-1.0-1.0","0","0","85704","","1819","","","32","","","","","","","","","","","","","","","","",""
"","S1","","html-keyboard-response","4","57195","0.0-1.0-2.0","0","0","85704","","null","","","null","0","","","","","","","","","","","","","","","",""
"","ISI","","html-keyboard-response","5","57699","0.0-1.0-3.0","0","0","85704","","null","","","null","0","NaN","","","","","","","","","","","","","","",""
"","S2","","html-keyboard-response","6","57954","0.0-1.0-4.0","0","0","85704","","null","","","null","0","","NaN","","","","","","","","","","","","","",""
"","response","","html-keyboard-response","7","58325","0.0-1.0-5.0-0.0","0","0","85704","","370","","","75","0","","","1","0","training","adjacent","GF","7","6","R.jpg","P.jpg","0","0","1","",""
"","feedback","","html-keyboard-response","8","59327","0.0-1.0-6.0-0.0","0","0","85704","","null","","","null","0","","","","","","","","","","","","","","","",""
"","ITI","","html-keyboard-response","9","60329","0.0-1.0-9.0","0","0","85704","","null","","","null","0","","","","","","","","","","","","","","","NaN",""
"","S1","","html-keyboard-response","10","60584","0.0-1.0-11.0","0","0","85704","","null","","","null","1","","","","","","","","","","","","","","","",""
"","ISI","","html-keyboard-response","11","61089","0.0-1.0-12.0","0","0","85704","","null","","","null","1","NaN","","","","","","","","","","","","","","",""
"","S2","","html-keyboard-response","12","61344","0.0-1.0-13.0","0","0","85704","","null","","","null","1","","NaN","","","","","","","","","","","","","",""
"","response","","html-keyboard-response","13","61647","0.0-1.0-14.0-0.0","0","0","85704","","301","","","68","1","","","1","1","training","adjacent","FE","6","5","P.jpg","N.jpg","1","0","0","",""
"","feedback","","html-keyboard-response","14","62650","0.0-1.0-15.0-0.0","0","0","85704","","null","","","null","1","","","","","","","","","","","","","","","",""
"","time_out","","html-keyboard-response","15","64653","0.0-1.0-17.0-0.0","0","0","85704","","null","","","null","1","","","","","","","","","","","","","","","",""
"","ITI","","html-keyboard-response","16","65657","0.0-1.0-18.0","0","0","85704","","null","","","null","1","","","","","","","","","","","","","","","NaN",""
"","S1","","html-keyboard-response","17","65913","0.0-1.0-20.0","0","0","85704","","null","","","null","2","","","","","","","","","","","","","","","",""
"","ISI","","html-keyboard-response","18","66418","0.0-1.0-21.0","0","0","85704","","null","","","null","2","NaN","","","","","","","","","","","","","","",""
"","S2","","html-keyboard-response","19","66672","0.0-1.0-22.0","0","0","85704","","null","","","null","2","","NaN","","","","","","","","","","","","","",""
"","response","","html-keyboard-response","20","67283","0.0-1.0-23.0-0.0","0","0","85704","","610","","","75","2","","","1","2","training","adjacent","DC","4","3","L.jpg","O.jpg","0","0","1","",""
"","feedback","","html-keyboard-response","21","68287","0.0-1.0-24.0-0.0","0","0","85704","","null","","","null","2","","","","","","","","","","","","","","","",""
"","ITI","","html-keyboard-response","22","69291","0.0-1.0-27.0","0","0","85704","","null","","","null","2","","","","","","","","","","","","","","","NaN",""
"","S1","","html-keyboard-response","23","69547","0.0-1.0-29.0","0","0","85704","","null","","","null","3","","","","","","","","","","","","","","","",""
"","ISI","","html-keyboard-response","24","70052","0.0-1.0-30.0","0","0","85704","","null","","","null","3","NaN","","","","","","","","","","","","","","",""
"","S2","","html-keyboard-response","25","70307","0.0-1.0-31.0","0","0","85704","","null","","","null","3","","NaN","","","","","","","","","","","","","",""
"","response","","html-keyboard-response","26","70681","0.0-1.0-32.0-0.0","0","0","85704","","371","","","75","3","","","1","3","training","adjacent","BA","2","1","M.jpg","Q.jpg","0","0","1","",""
"","feedback","","html-keyboard-response","27","71683","0.0-1.0-33.0-0.0","0","0","85704","","null","","","null","3","","","","","","","","","","","","","","","",""
"","ITI","","html-keyboard-response","28","72687","0.0-1.0-36.0","0","0","85704","","null","","","null","3","","","","","","","","","","","","","","","NaN",""
"","S1","","html-keyboard-response","29","72940","0.0-1.0-38.0","0","0","85704","","null","","","null","4","","","","","","","","","","","","","","","",""
"","ISI","","html-keyboard-response","30","73442","0.0-1.0-39.0","0","0","85704","","null","","","null","4","NaN","","","","","","","","","","","","","","",""
"","S2","","html-keyboard-response","31","73695","0.0-1.0-40.0","0","0","85704","","null","","","null","4","","NaN","","","","","","","","","","","","","",""
"","response","","html-keyboard-response","32","73923","0.0-1.0-41.0-0.0","0","0","85704","","226","","","75","4","","","1","4","training","adjacent","CD","3","4","O.jpg","L.jpg","0","1","0","",""
"","feedback","","html-keyboard-response","33","74928","0.0-1.0-42.0-0.0","0","0","85704","","null","","","null","4","","","","","","","","","","","","","","","",""
"","time_out","","html-keyboard-response","34","76931","0.0-1.0-44.0-0.0","0","0","85704","","null","","","null","4","","","","","","","","","","","","","","","",""
"","ITI","","html-keyboard-response","35","77934","0.0-1.0-45.0","0","0","85704","","null","","","null","4","","","","","","","","","","","","","","","NaN",""
"","S1","","html-keyboard-response","36","78190","0.0-1.0-47.0","0","0","85704","","null","","","null","5","","","","","","","","","","","","","","","",""
"","ISI","","html-keyboard-response","37","78696","0.0-1.0-48.0","0","0","85704","","null","","","null","5","NaN","","","","","","","","","","","","","","",""
"","S2","","html-keyboard-response","38","78949","0.0-1.0-49.0","0","0","85704","","null","","","null","5","","NaN","","","","","","","","","","","","","",""
"","response","","html-keyboard-response","39","79277","0.0-1.0-50.0-0.0","0","0","85704","","326","","","75","5","","","1","5","training","adjacent","DC","4","3","L.jpg","O.jpg","0","0","1","",""
"","feedback","","html-keyboard-response","40","80280","0.0-1.0-51.0-0.0","0","0","85704","","null","","","null","5","","","","","","","","","","","","","","","",""
"","ITI","","html-keyboard-response","41","81285","0.0-1.0-54.0","0","0","85704","","null","","","null","5","","","","","","","","","","","","","","","NaN",""
"","S1","","html-keyboard-response","42","81539","0.0-1.0-56.0","0","0","85704","","null","","","null","6","","","","","","","","","","","","","","","",""
"","ISI","","html-keyboard-response","43","82044","0.0-1.0-57.0","0","0","85704","","null","","","null","6","NaN","","","","","","","","","","","","","","",""
"","S2","","html-keyboard-response","44","82300","0.0-1.0-58.0","0","0","85704","","null","","","null","6","","NaN","","","","","","","","","","","","","",""
"","response","","html-keyboard-response","45","82847","0.0-1.0-59.0-0.0","0","0","85704","","545","","","75","6","","","1","6","training","adjacent","EF","5","6","N.jpg","P.jpg","0","1","0","",""
"","feedback","","html-keyboard-response","46","83851","0.0-1.0-60.0-0.0","0","0","85704","","null","","","null","6","","","","","","","","","","","","","","","",""
"","time_out","","html-keyboard-response","47","85853","0.0-1.0-62.0-0.0","0","0","85704","","null","","","null","6","","","","","","","","","","","","","","","",""
"","ITI","","html-keyboard-response","48","86858","0.0-1.0-63.0","0","0","85704","","null","","","null","6","","","","","","","","","","","","","","","NaN",""
"","S1","","html-keyboard-response","49","87114","0.0-1.0-65.0","0","0","85704","","null","","","null","7","","","","","","","","","","","","","","","",""
"","ISI","","html-keyboard-response","50","87619","0.0-1.0-66.0","0","0","85704","","null","","","null","7","NaN","","","","","","","","","","","","","","",""
"","S2","","html-keyboard-response","51","87871","0.0-1.0-67.0","0","0","85704","","null","","","null","7","","NaN","","","","","","","","","","","","","",""
"","response","","html-keyboard-response","52","88126","0.0-1.0-68.0-0.0","0","0","85704","","254","","","75","7","","","1","7","training","adjacent","FE","6","5","P.jpg","N.jpg","0","0","1","",""
"","feedback","","html-keyboard-response","53","89128","0.0-1.0-69.0-0.0","0","0","85704","","null","","","null","7","","","","","","","","","","","","","","","",""
"","ITI","","html-keyboard-response","54","90131","0.0-1.0-72.0","0","0","85704","","null","","","null","7","","","","","","","","","","","","","","","NaN",""
"","S1","","html-keyboard-response","55","90387","0.0-1.0-74.0","0","0","85704","","null","","","null","8","","","","","","","","","","","","","","","",""
"","ISI","","html-keyboard-response","56","90888","0.0-1.0-75.0","0","0","85704","","null","","","null","8","NaN","","","","","","","","","","","","","","",""
"","S2","","html-keyboard-response","57","91142","0.0-1.0-76.0","0","0","85704","","null","","","null","8","","NaN","","","","","","","","","","","","","",""
"","response","","html-keyboard-response","58","91291","0.0-1.0-77.0-0.0","0","0","85704","","148","","","75","8","","","1","8","training","adjacent","FG","6","7","P.jpg","R.jpg","0","1","0","",""
"","feedback","","html-keyboard-response","59","92297","0.0-1.0-78.0-0.0","0","0","85704","","null","","","null","8","","","","","","","","","","","","","","","",""
"","time_out","","html-keyboard-response","60","94300","0.0-1.0-80.0-0.0","0","0","85704","","null","","","null","8","","","","","","","","","","","","","","","",""
"","ITI","","html-keyboard-response","61","95304","0.0-1.0-81.0","0","0","85704","","null","","","null","8","","","","","","","","","","","","","","","NaN",""
"","S1","","html-keyboard-response","62","95560","0.0-1.0-83.0","0","0","85704","","null","","","null","9","","","","","","","","","","","","","","","",""
"","ISI","","html-keyboard-response","63","96065","0.0-1.0-84.0","0","0","85704","","null","","","null","9","NaN","","","","","","","","","","","","","","",""
"","S2","","html-keyboard-response","64","96318","0.0-1.0-85.0","0","0","85704","","null","","","null","9","","NaN","","","","","","","","","","","","","",""
"","response","","html-keyboard-response","65","96625","0.0-1.0-86.0-0.0","0","0","85704","","305","","","68","9","","","1","9","training","adjacent","CD","3","4","O.jpg","L.jpg","1","1","1","",""
"","feedback","","html-keyboard-response","66","97628","0.0-1.0-87.0-0.0","0","0","85704","","null","","","null","9","","","","","","","","","","","","","","","",""
"","ITI","","html-keyboard-response","67","98630","0.0-1.0-90.0","0","0","85704","","null","","","null","9","","","","","","","","","","","","","","","NaN",""
"","S1","","html-keyboard-response","68","98886","0.0-1.0-92.0","0","0","85704","","null","","","null","10","","","","","","","","","","","","","","","",""
"","ISI","","html-keyboard-response","69","99392","0.0-1.0-93.0","0","0","85704","","null","","","null","10","NaN","","","","","","","","","","","","","","",""
"","S2","","html-keyboard-response","70","99646","0.0-1.0-94.0","0","0","85704","","null","","","null","10","","NaN","","","","","","","","","","","","","",""
"","response","","html-keyboard-response","71","100031","0.0-1.0-95.0-0.0","0","0","85704","","383","","","68","10","","","1","10","training","adjacent","GF","7","6","R.jpg","P.jpg","1","0","0","",""
"","feedback","","html-keyboard-response","72","101034","0.0-1.0-96.0-0.0","0","0","85704","","null","","","null","10","","","","","","","","","","","","","","","",""
"","time_out","","html-keyboard-response","73","103037","0.0-1.0-98.0-0.0","0","0","85704","","null","","","null","10","","","","","","","","","","","","","","","",""
"","ITI","","html-keyboard-response","74","104041","0.0-1.0-99.0","0","0","85704","","null","","","null","10","","","","","","","","","","","","","","","NaN",""
"","S1","","html-keyboard-response","75","104296","0.0-1.0-101.0","0","0","85704","","null","","","null","11","","","","","","","","","","","","","","","",""
"","ISI","","html-keyboard-response","76","104802","0.0-1.0-102.0","0","0","85704","","null","","","null","11","NaN","","","","","","","","","","","","","","",""
"","S2","","html-keyboard-response","77","105055","0.0-1.0-103.0","0","0","85704","","null","","","null","11","","NaN","","","","","","","","","","","","","",""
"","response","","html-keyboard-response","78","105367","0.0-1.0-104.0-0.0","0","0","85704","","311","","","75","11","","","1","11","training","adjacent","CB","3","2","O.jpg","M.jpg","0","0","1","",""
"","feedback","","html-keyboard-response","79","106372","0.0-1.0-105.0-0.0","0","0","85704","","null","","","null","11","","","","","","","","","","","","","","","",""
"","ITI","","html-keyboard-response","80","107377","0.0-1.0-108.0","0","0","85704","","null","","","null","11","","","","","","","","","","","","","","","NaN",""
"","S1","","html-keyboard-response","81","107629","0.0-1.0-110.0","0","0","85704","","null","","","null","12","","","","","","","","","","","","","","","",""
"","ISI","","html-keyboard-response","82","108131","0.0-1.0-111.0","0","0","85704","","null","","","null","12","NaN","","","","","","","","","","","","","","",""
"","S2","","html-keyboard-response","83","108383","0.0-1.0-112.0","0","0","85704","","null","","","null","12","","NaN","","","","","","","","","","","","","",""
"","response","","html-keyboard-response","84","108721","0.0-1.0-113.0-0.0","0","0","85704","","336","","","75","12","","","1","12","training","adjacent","DE","4","5","L.jpg","N.jpg","0","1","0","",""
"","feedback","","html-keyboard-response","85","109727","0.0-1.0-114.0-0.0","0","0","85704","","null","","","null","12","","","","","","","","","","","","","","","",""
"","time_out","","html-keyboard-response","86","111729","0.0-1.0-116.0-0.0","0","0","85704","","null","","","null","12","","","","","","","","","","","","","","","",""
"","ITI","","html-keyboard-response","87","112732","0.0-1.0-117.0","0","0","85704","","null","","","null","12","","","","","","","","","","","","","","","NaN",""
"","S1","","html-keyboard-response","88","112987","0.0-1.0-119.0","0","0","85704","","null","","","null","13","","","","","","","","","","","","","","","",""
"","ISI","","html-keyboard-response","89","113492","0.0-1.0-120.0","0","0","85704","","null","","","null","13","NaN","","","","","","","","","","","","","","",""
"","S2","","html-keyboard-response","90","113746","0.0-1.0-121.0","0","0","85704","","null","","","null","13","","NaN","","","","","","","","","","","","","",""
"","response","","html-keyboard-response","91","114051","0.0-1.0-122.0-0.0","0","0","85704","","304","","","75","13","","","1","13","training","adjacent","DC","4","3","L.jpg","O.jpg","0","0","1","",""
"","feedback","","html-keyboard-response","92","115059","0.0-1.0-123.0-0.0","0","0","85704","","null","","","null","13","","","","","","","","","","","","","","","",""
"","ITI","","html-keyboard-response","93","116063","0.0-1.0-126.0","0","0","85704","","null","","","null","13","","","","","","","","","","","","","","","NaN",""
"","S1","","html-keyboard-response","94","116319","0.0-1.0-128.0","0","0","85704","","null","","","null","14","","","","","","","","","","","","","","","",""
"","ISI","","html-keyboard-response","95","116824","0.0-1.0-129.0","0","0","85704","","null","","","null","14","NaN","","","","","","","","","","","","","","",""
"","S2","","html-keyboard-response","96","117079","0.0-1.0-130.0","0","0","85704","","null","","","null","14","","NaN","","","","","","","","","","","","","",""
"","response","","html-keyboard-response","97","117230","0.0-1.0-131.0-0.0","0","0","85704","","149","","","75","14","","","1","14","training","adjacent","DC","4","3","L.jpg","O.jpg","0","0","1","",""
"","feedback","","html-keyboard-response","98","118237","0.0-1.0-132.0-0.0","0","0","85704","","null","","","null","14","","","","","","","","","","","","","","","",""
"","ITI","","html-keyboard-response","99","119241","0.0-1.0-135.0","0","0","85704","","null","","","null","14","","","","","","","","","","","","","","","NaN",""
"","S1","","html-keyboard-response","100","119494","0.0-1.0-137.0","0","0","85704","","null","","","null","15","","","","","","","","","","","","","","","",""
"","ISI","","html-keyboard-response","101","119999","0.0-1.0-138.0","0","0","85704","","null","","","null","15","NaN","","","","","","","","","","","","","","",""
"","S2","","html-keyboard-response","102","120255","0.0-1.0-139.0","0","0","85704","","null","","","null","15","","NaN","","","","","","","","","","","","","",""
"","response","","html-keyboard-response","103","120562","0.0-1.0-140.0-0.0","0","0","85704","","305","","","75","15","","","1","15","training","adjacent","FG","6","7","P.jpg","R.jpg","0","1","0","",""
"","feedback","","html-keyboard-response","104","121567","0.0-1.0-141.0-0.0","0","0","85704","","null","","","null","15","","","","","","","","","","","","","","","",""
"","time_out","","html-keyboard-response","105","123570","0.0-1.0-143.0-0.0","0","0","85704","","null","","","null","15","","","","","","","","","","","","","","","",""
"","ITI","","html-keyboard-response","106","124574","0.0-1.0-144.0","0","0","85704","","null","","","null","15","","","","","","","","","","","","","","","NaN",""
"","S1","","html-keyboard-response","107","124829","0.0-1.0-146.0","0","0","85704","","null","","","null","16","","","","","","","","","","","","","","","",""
"","ISI","","html-keyboard-response","108","125331","0.0-1.0-147.0","0","0","85704","","null","","","null","16","NaN","","","","","","","","","","","","","","",""
"","S2","","html-keyboard-response","109","125584","0.0-1.0-148.0","0","0","85704","","null","","","null","16","","NaN","","","","","","","","","","","","","",""
"","response","","html-keyboard-response","110","125670","0.0-1.0-149.0-0.0","0","0","85704","","85","","","68","16","","","1","16","training","adjacent","BA","2","1","M.jpg","Q.jpg","1","0","0","",""
"","feedback","","html-keyboard-response","111","126675","0.0-1.0-150.0-0.0","0","0","85704","","null","","","null","16","","","","","","","","","","","","","","","",""
"","time_out","","html-keyboard-response","112","128678","0.0-1.0-152.0-0.0","0","0","85704","","null","","","null","16","","","","","","","","","","","","","","","",""
"","ITI","","html-keyboard-response","113","129682","0.0-1.0-153.0","0","0","85704","","null","","","null","16","","","","","","","","","","","","","","","NaN",""
"","S1","","html-keyboard-response","114","129936","0.0-1.0-155.0","0","0","85704","","null","","","null","17","","","","","","","","","","","","","","","",""
"","ISI","","html-keyboard-response","115","130439","0.0-1.0-156.0","0","0","85704","","null","","","null","17","NaN","","","","","","","","","","","","","","",""
"","S2","","html-keyboard-response","116","130692","0.0-1.0-157.0","0","0","85704","","null","","","null","17","","NaN","","","","","","","","","","","","","",""
"","response","","html-keyboard-response","117","130953","0.0-1.0-158.0-0.0","0","0","85704","","259","","","68","17","","","1","17","training","adjacent","EF","5","6","N.jpg","P.jpg","1","1","1","",""
"","feedback","","html-keyboard-response","118","131958","0.0-1.0-159.0-0.0","0","0","85704","","null","","","null","17","","","","","","","","","","","","","","","",""
"","ITI","","html-keyboard-response","119","132963","0.0-1.0-162.0","0","0","85704","","null","","","null","17","","","","","","","","","","","","","","","NaN",""
"","S1","","html-keyboard-response","120","133218","0.0-1.0-164.0","0","0","85704","","null","","","null","18","","","","","","","","","","","","","","","",""
"","ISI","","html-keyboard-response","121","133723","0.0-1.0-165.0","0","0","85704","","null","","","null","18","NaN","","","","","","","","","","","","","","",""
"","S2","","html-keyboard-response","122","133978","0.0-1.0-166.0","0","0","85704","","null","","","null","18","","NaN","","","","","","","","","","","","","",""
"","response","","html-keyboard-response","123","134071","0.0-1.0-167.0-0.0","0","0","85704","","91","","","75","18","","","1","18","training","adjacent","FG","6","7","P.jpg","R.jpg","0","1","0","",""
"","feedback","","html-keyboard-response","124","135075","0.0-1.0-168.0-0.0","0","0","85704","","null","","","null","18","","","","","","","","","","","","","","","",""
"","time_out","","html-keyboard-response","125","137078","0.0-1.0-170.0-0.0","0","0","85704","","null","","","null","18","","","","","","","","","","","","","","","",""
"","ITI","","html-keyboard-response","126","138082","0.0-1.0-171.0","0","0","85704","","null","","","null","18","","","","","","","","","","","","","","","NaN",""
"","S1","","html-keyboard-response","127","138335","0.0-1.0-173.0","0","0","85704","","null","","","null","19","","","","","","","","","","","","","","","",""
"","ISI","","html-keyboard-response","128","138839","0.0-1.0-174.0","0","0","85704","","null","","","null","19","NaN","","","","","","","","","","","","","","",""
"","S2","","html-keyboard-response","129","139092","0.0-1.0-175.0","0","0","85704","","null","","","null","19","","NaN","","","","","","","","","","","","","",""
"","response","","html-keyboard-response","130","139686","0.0-1.0-176.0-0.0","0","0","85704","","593","","","75","19","","","1","19","training","adjacent","FG","6","7","P.jpg","R.jpg","0","1","0","",""
"","feedback","","html-keyboard-response","131","140689","0.0-1.0-177.0-0.0","0","0","85704","","null","","","null","19","","","","","","","","","","","","","","","",""
"","time_out","","html-keyboard-response","132","142692","0.0-1.0-179.0-0.0","0","0","85704","","null","","","null","19","","","","","","","","","","","","","","","",""
"","ITI","","html-keyboard-response","133","143696","0.0-1.0-180.0","0","0","85704","","null","","","null","19","","","","","","","","","","","","","","","NaN",""
"","S1","","html-keyboard-response","134","143951","0.0-1.0-182.0","0","0","85704","","null","","","null","20","","","","","","","","","","","","","","","",""
"","ISI","","html-keyboard-response","135","144456","0.0-1.0-183.0","0","0","85704","","null","","","null","20","NaN","","","","","","","","","","","","","","",""
"","S2","","html-keyboard-response","136","144710","0.0-1.0-184.0","0","0","85704","","null","","","null","20","","NaN","","","","","","","","","","","","","",""
"","response","","html-keyboard-response","137","144844","0.0-1.0-185.0-0.0","0","0","85704","","131","","","75","20","","","1","20","training","adjacent","DE","4","5","L.jpg","N.jpg","0","1","0","",""
"","feedback","","html-keyboard-response","138","145850","0.0-1.0-186.0-0.0","0","0","85704","","null","","","null","20","","","","","","","","","","","","","","","",""
"","time_out","","html-keyboard-response","139","147852","0.0-1.0-188.0-0.0","0","0","85704","","null","","","null","20","","","","","","","","","","","","","","","",""
"","ITI","","html-keyboard-response","140","148857","0.0-1.0-189.0","0","0","85704","","null","","","null","20","","","","","","","","","","","","","","","NaN",""
"","S1","","html-keyboard-response","141","149113","0.0-1.0-191.0","0","0","85704","","null","","","null","21","","","","","","","","","","","","","","","",""
"","ISI","","html-keyboard-response","142","149617","0.0-1.0-192.0","0","0","85704","","null","","","null","21","NaN","","","","","","","","","","","","","","",""
"","S2","","html-keyboard-response","143","149869","0.0-1.0-193.0","0","0","85704","","null","","","null","21","","NaN","","","","","","","","","","","","","",""
"","response","","html-keyboard-response","144","150453","0.0-1.0-194.0-0.0","0","0","85704","","581","","","68","21","","","1","21","training","adjacent","BA","2","1","M.jpg","Q.jpg","1","0","0","",""
"","feedback","","html-keyboard-response","145","151457","0.0-1.0-195.0-0.0","0","0","85704","","null","","","null","21","","","","","","","","","","","","","","","",""
"","time_out","","html-keyboard-response","146","153460","0.0-1.0-197.0-0.0","0","0","85704","","null","","","null","21","","","","","","","","","","","","","","","",""
"","ITI","","html-keyboard-response","147","154467","0.0-1.0-198.0","0","0","85704","","null","","","null","21","","","","","","","","","","","","","","","NaN",""
"","S1","","html-keyboard-response","148","154720","0.0-1.0-200.0","0","0","85704","","null","","","null","22","","","","","","","","","","","","","","","",""
"","ISI","","html-keyboard-response","149","155225","0.0-1.0-201.0","0","0","85704","","null","","","null","22","NaN","","","","","","","","","","","","","","",""
"","S2","","html-keyboard-response","150","155479","0.0-1.0-202.0","0","0","85704","","null","","","null","22","","NaN","","","","","","","","","","","","","",""
"","response","","html-keyboard-response","151","155637","0.0-1.0-203.0-0.0","0","0","85704","","157","","","68","22","","","1","22","training","adjacent","CD","3","4","O.jpg","L.jpg","1","1","1","",""
"","feedback","","html-keyboard-response","152","156641","0.0-1.0-204.0-0.0","0","0","85704","","null","","","null","22","","","","","","","","","","","","","","","",""
"","ITI","","html-keyboard-response","153","157646","0.0-1.0-207.0","0","0","85704","","null","","","null","22","","","","","","","","","","","","","","","NaN",""
"","S1","","html-keyboard-response","154","157901","0.0-1.0-209.0","0","0","85704","","null","","","null","23","","","","","","","","","","","","","","","",""
"","ISI","","html-keyboard-response","155","158406","0.0-1.0-210.0","0","0","85704","","null","","","null","23","NaN","","","","","","","","","","","","","","",""
"","S2","","html-keyboard-response","156","158662","0.0-1.0-211.0","0","0","85704","","null","","","null","23","","NaN","","","","","","","","","","","","","",""
"","response","","html-keyboard-response","157","159047","0.0-1.0-212.0-0.0","0","0","85704","","383","","","68","23","","","1","23","training","adjacent","CD","3","4","O.jpg","L.jpg","1","1","1","",""
"","feedback","","html-keyboard-response","158","160049","0.0-1.0-213.0-0.0","0","0","85704","","null","","","null","23","","","","","","","","","","","","","","","",""
"","ITI","","html-keyboard-response","159","161055","0.0-1.0-216.0","0","0","85704","","null","","","null","23","","","","","","","","","","","","","","","NaN",""
"","S1","","html-keyboard-response","160","161309","0.0-1.0-218.0","0","0","85704","","null","","","null","24","","","","","","","","","","","","","","","",""
"","ISI","","html-keyboard-response","161","161814","0.0-1.0-219.0","0","0","85704","","null","","","null","24","NaN","","","","","","","","","","","","","","",""
"","S2","","html-keyboard-response","162","162069","0.0-1.0-220.0","0","0","85704","","null","","","null","24","","NaN","","","","","","","","","","","","","",""
"","response","","html-keyboard-response","163","162666","0.0-1.0-221.0-0.0","0","0","85704","","595","","","75","24","","","1","24","training","adjacent","ED","5","4","N.jpg","L.jpg","0","0","1","",""
"","feedback","","html-keyboard-response","164","163671","0.0-1.0-222.0-0.0","0","0","85704","","null","","","null","24","","","","","","","","","","","","","","","",""
"","ITI","","html-keyboard-response","165","164676","0.0-1.0-225.0","0","0","85704","","null","","","null","24","","","","","","","","","","","","","","","NaN",""
"","S1","","html-keyboard-response","166","164931","0.0-1.0-227.0","0","0","85704","","null","","","null","25","","","","","","","","","","","","","","","",""
"","ISI","","html-keyboard-response","167","165433","0.0-1.0-228.0","0","0","85704","","null","","","null","25","NaN","","","","","","","","","","","","","","",""
"","S2","","html-keyboard-response","168","165686","0.0-1.0-229.0","0","0","85704","","null","","","null","25","","NaN","","","","","","","","","","","","","",""
"","response","","html-keyboard-response","169","166373","0.0-1.0-230.0-0.0","0","0","85704","","685","","","68","25","","","1","25","training","adjacent","AB","1","2","Q.jpg","M.jpg","1","1","1","",""
"","feedback","","html-keyboard-response","170","167379","0.0-1.0-231.0-0.0","0","0","85704","","null","","","null","25","","","","","","","","","","","","","","","",""
"","ITI","","html-keyboard-response","171","168385","0.0-1.0-234.0","0","0","85704","","null","","","null","25","","","","","","","","","","","","","","","NaN",""
"","S1","","html-keyboard-response","172","168637","0.0-1.0-236.0","0","0","85704","","null","","","null","26","","","","","","","","","","","","","","","",""
"","ISI","","html-keyboard-response","173","169140","0.0-1.0-237.0","0","0","85704","","null","","","null","26","NaN","","","","","","","","","","","","","","",""
"","S2","","html-keyboard-response","174","169396","0.0-1.0-238.0","0","0","85704","","null","","","null","26","","NaN","","","","","","","","","","","","","",""
"","response","","html-keyboard-response","175","169666","0.0-1.0-239.0-0.0","0","0","85704","","268","","","68","26","","","1","26","training","adjacent","DE","4","5","L.jpg","N.jpg","1","1","1","",""
"","feedback","","html-keyboard-response","176","170672","0.0-1.0-240.0-0.0","0","0","85704","","null","","","null","26","","","","","","","","","","","","","","","",""
"","ITI","","html-keyboard-response","177","171677","0.0-1.0-243.0","0","0","85704","","null","","","null","26","","","","","","","","","","","","","","","NaN",""
"","S1","","html-keyboard-response","178","171929","0.0-1.0-245.0","0","0","85704","","null","","","null","27","","","","","","","","","","","","","","","",""
"","ISI","","html-keyboard-response","179","172431","0.0-1.0-246.0","0","0","85704","","null","","","null","27","NaN","","","","","","","","","","","","","","",""
"","S2","","html-keyboard-response","180","172687","0.0-1.0-247.0","0","0","85704","","null","","","null","27","","NaN","","","","","","","","","","","","","",""
"","response","","html-keyboard-response","181","172790","0.0-1.0-248.0-0.0","0","0","85704","","102","","","75","27","","","1","27","training","adjacent","ED","5","4","N.jpg","L.jpg","0","0","1","",""
"","feedback","","html-keyboard-response","182","173796","0.0-1.0-249.0-0.0","0","0","85704","","null","","","null","27","","","","","","","","","","","","","","","",""
"","ITI","","html-keyboard-response","183","174800","0.0-1.0-252.0","0","0","85704","","null","","","null","27","","","","","","","","","","","","","","","NaN",""
"","S1","","html-keyboard-response","184","175057","0.0-1.0-254.0","0","0","85704","","null","","","null","28","","","","","","","","","","","","","","","",""
"","ISI","","html-keyboard-response","185","175560","0.0-1.0-255.0","0","0","85704","","null","","","null","28","NaN","","","","","","","","","","","","","","",""
"","S2","","html-keyboard-response","186","175816","0.0-1.0-256.0","0","0","85704","","null","","","null","28","","NaN","","","","","","","","","","","","","",""
"","response","","html-keyboard-response","187","176111","0.0-1.0-257.0-0.0","0","0","85704","","294","","","75","28","","","1","28","training","adjacent","AB","1","2","Q.jpg","M.jpg","0","1","0","",""
"","feedback","","html-keyboard-response","188","177116","0.0-1.0-258.0-0.0","0","0","85704","","null","","","null","28","","","","","","","","","","","","","","","",""
"","time_out","","html-keyboard-response","189","179119","0.0-1.0-260.0-0.0","0","0","85704","","null","","","null","28","","","","","","","","","","","","","","","",""
"","ITI","","html-keyboard-response","190","180124","0.0-1.0-261.0","0","0","85704","","null","","","null","28","","","","","","","","","","","","","","","NaN",""
"","S1","","html-keyboard-response","191","180379","0.0-1.0-263.0","0","0","85704","","null","","","null","29","","","","","","","","","","","","","","","",""
"","ISI","","html-keyboard-response","192","180884","0.0-1.0-264.0","0","0","85704","","null","","","null","29","NaN","","","","","","","","","","","","","","",""
"","S2","","html-keyboard-response","193","181137","0.0-1.0-265.0","0","0","85704","","null","","","null","29","","NaN","","","","","","","","","","","","","",""
"","response","","html-keyboard-response","194","181369","0.0-1.0-266.0-0.0","0","0","85704","","230","","","68","29","","","1","29","training","adjacent","BC","2","3","M.jpg","O.jpg","1","1","1","",""
"","feedback","","html-keyboard-response","195","182376","0.0-1.0-267.0-0.0","0","0","85704","","null","","","null","29","","","","","","","","","","","","","","","",""
"","ITI","","html-keyboard-response","196","183382","0.0-1.0-270.0","0","0","85704","","null","","","null","29","","","","","","","","","","","","","","","NaN",""
"","S1","","html-keyboard-response","197","183635","0.0-1.0-272.0","0","0","85704","","null","","","null","30","","","","","","","","","","","","","","","",""
"","ISI","","html-keyboard-response","198","184137","0.0-1.0-273.0","0","0","85704","","null","","","null","30","NaN","","","","","","","","","","","","","","",""
"","S2","","html-keyboard-response","199","184390","0.0-1.0-274.0","0","0","85704","","null","","","null","30","","NaN","","","","","","","","","","","","","",""
"","response","","html-keyboard-response","200","184632","0.0-1.0-275.0-0.0","0","0","85704","","241","","","75","30","","","1","30","training","adjacent","BC","2","3","M.jpg","O.jpg","0","1","0","",""
"","feedback","","html-keyboard-response","201","185635","0.0-1.0-276.0-0.0","0","0","85704","","null","","","null","30","","","","","","","","","","","","","","","",""
"","time_out","","html-keyboard-response","202","187639","0.0-1.0-278.0-0.0","0","0","85704","","null","","","null","30","","","","","","","","","","","","","","","",""
"","ITI","","html-keyboard-response","203","188644","0.0-1.0-279.0","0","0","85704","","null","","","null","30","","","","","","","","","","","","","","","NaN",""
"","S1","","html-keyboard-response","204","188900","0.0-1.0-281.0","0","0","85704","","null","","","null","31","","","","","","","","","","","","","","","",""
"","ISI","","html-keyboard-response","205","189406","0.0-1.0-282.0","0","0","85704","","null","","","null","31","NaN","","","","","","","","","","","","","","",""
"","S2","","html-keyboard-response","206","189658","0.0-1.0-283.0","0","0","85704","","null","","","null","31","","NaN","","","","","","","","","","","","","",""
"","response","","html-keyboard-response","207","189877","0.0-1.0-284.0-0.0","0","0","85704","","218","","","68","31","","","1","31","training","adjacent","AB","1","2","Q.jpg","M.jpg","1","1","1","",""
"","feedback","","html-keyboard-response","208","190880","0.0-1.0-285.0-0.0","0","0","85704","","null","","","null","31","","","","","","","","","","","","","","","",""
"","ITI","","html-keyboard-response","209","191885","0.0-1.0-288.0","0","0","85704","","null","","","null","31","","","","","","","","","","","","","","","NaN",""
"","S1","","html-keyboard-response","210","192136","0.0-1.0-290.0","0","0","85704","","null","","","null","32","","","","","","","","","","","","","","","",""
"","ISI","","html-keyboard-response","211","192639","0.0-1.0-291.0","0","0","85704","","null","","","null","32","NaN","","","","","","","","","","","","","","",""
"","S2","","html-keyboard-response","212","192894","0.0-1.0-292.0","0","0","85704","","null","","","null","32","","NaN","","","","","","","","","","","","","",""
"","response","","html-keyboard-response","213","193214","0.0-1.0-293.0-0.0","0","0","85704","","318","","","75","32","","","1","32","training","adjacent","DE","4","5","L.jpg","N.jpg","0","1","0","",""
"","feedback","","html-keyboard-response","214","194218","0.0-1.0-294.0-0.0","0","0","85704","","null","","","null","32","","","","","","","","","","","","","","","",""
"","time_out","","html-keyboard-response","215","196221","0.0-1.0-296.0-0.0","0","0","85704","","null","","","null","32","","","","","","","","","","","","","","","",""
"","ITI","","html-keyboard-response","216","197225","0.0-1.0-297.0","0","0","85704","","null","","","null","32","","","","","","","","","","","","","","","NaN",""
"","S1","","html-keyboard-response","217","197480","0.0-1.0-299.0","0","0","85704","","null","","","null","33","","","","","","","","","","","","","","","",""
"","ISI","","html-keyboard-response","218","197986","0.0-1.0-300.0","0","0","85704","","null","","","null","33","NaN","","","","","","","","","","","","","","",""
"","S2","","html-keyboard-response","219","198241","0.0-1.0-301.0","0","0","85704","","null","","","null","33","","NaN","","","","","","","","","","","","","",""
"","response","","html-keyboard-response","220","198331","0.0-1.0-302.0-0.0","0","0","85704","","89","","","68","33","","","1","33","training","adjacent","BC","2","3","M.jpg","O.jpg","1","1","1","",""
"","feedback","","html-keyboard-response","221","199333","0.0-1.0-303.0-0.0","0","0","85704","","null","","","null","33","","","","","","","","","","","","","","","",""
"","ITI","","html-keyboard-response","222","200336","0.0-1.0-306.0","0","0","85704","","null","","","null","33","","","","","","","","","","","","","","","NaN",""
"","S1","","html-keyboard-response","223","200592","0.0-1.0-308.0","0","0","85704","","null","","","null","34","","","","","","","","","","","","","","","",""
"","ISI","","html-keyboard-response","224","201097","0.0-1.0-309.0","0","0","85704","","null","","","null","34","NaN","","","","","","","","","","","","","","",""
"","S2","","html-keyboard-response","225","201352","0.0-1.0-310.0","0","0","85704","","null","","","null","34","","NaN","","","","","","","","","","","","","",""
"","response","","html-keyboard-response","226","201564","0.0-1.0-311.0-0.0","0","0","85704","","210","","","75","34","","","1","34","training","adjacent","FE","6","5","P.jpg","N.jpg","0","0","1","",""
"","feedback","","html-keyboard-response","227","202566","0.0-1.0-312.0-0.0","0","0","85704","","null","","","null","34","","","","","","","","","","","","","","","",""
"","ITI","","html-keyboard-response","228","203570","0.0-1.0-315.0","0","0","85704","","null","","","null","34","","","","","","","","","","","","","","","NaN",""
"","S1","","html-keyboard-response","229","203825","0.0-1.0-317.0","0","0","85704","","null","","","null","35","","","","","","","","","","","","","","","",""
"","ISI","","html-keyboard-response","230","204330","0.0-1.0-318.0","0","0","85704","","null","","","null","35","NaN","","","","","","","","","","","","","","",""
"","S2","","html-keyboard-response","231","204454","0.0-1.0-319.0","0","0","85704","","122","","","68","35","","d","1","35","training","adjacent","ED","5","4","N.jpg","L.jpg","1","0","0","",""
"","feedback","","html-keyboard-response","232","205457","0.0-1.0-321.0-0.0","0","0","85704","","null","","","null","35","","","","","","","","","","","","","","","",""
"","time_out","","html-keyboard-response","233","207459","0.0-1.0-323.0-0.0","0","0","85704","","null","","","null","35","","","","","","","","","","","","","","","",""
"","ITI","","html-keyboard-response","234","208464","0.0-1.0-324.0","0","0","85704","","null","","","null","35","","","","","","","","","","","","","","","NaN",""
"","S1","","html-keyboard-response","235","208719","0.0-1.0-326.0","0","0","85704","","null","","","null","36","","","","","","","","","","","","","","","",""
"","ISI","","html-keyboard-response","236","209225","0.0-1.0-327.0","0","0","85704","","null","","","null","36","NaN","","","","","","","","","","","","","","",""
"","S2","","html-keyboard-response","237","209478","0.0-1.0-328.0","0","0","85704","","null","","","null","36","","NaN","","","","","","","","","","","","","",""
"","response","","html-keyboard-response","238","209641","0.0-1.0-329.0-0.0","0","0","85704","","161","","","75","36","","","1","36","training","adjacent","CB","3","2","O.jpg","M.jpg","0","0","1","",""
"","feedback","","html-keyboard-response","239","210646","0.0-1.0-330.0-0.0","0","0","85704","","null","","","null","36","","","","","","","","","","","","","","","",""
"","ITI","","html-keyboard-response","240","211651","0.0-1.0-333.0","0","0","85704","","null","","","null","36","","","","","","","","","","","","","","","NaN",""
"","S1","","html-keyboard-response","241","211906","0.0-1.0-335.0","0","0","85704","","null","","","null","37","","","","","","","","","","","","","","","",""
"","ISI","","html-keyboard-response","242","212411","0.0-1.0-336.0","0","0","85704","","null","","","null","37","NaN","","","","","","","","","","","","","","",""
"","S2","","html-keyboard-response","243","212667","0.0-1.0-337.0","0","0","85704","","null","","","null","37","","NaN","","","","","","","","","","","","","",""
"","response","","html-keyboard-response","244","213342","0.0-1.0-338.0-0.0","0","0","85704","","673","","","75","37","","","1","37","training","adjacent","CB","3","2","O.jpg","M.jpg","0","0","1","",""
"","feedback","","html-keyboard-response","245","214344","0.0-1.0-339.0-0.0","0","0","85704","","null","","","null","37","","","","","","","","","","","","","","","",""
"","ITI","","html-keyboard-response","246","215349","0.0-1.0-342.0","0","0","85704","","null","","","null","37","","","","","","","","","","","","","","","NaN",""
"","S1","","html-keyboard-response","247","215605","0.0-1.0-344.0","0","0","85704","","null","","","null","38","","","","","","","","","","","","","","","",""
"","ISI","","html-keyboard-response","248","216109","0.0-1.0-345.0","0","0","85704","","null","","","null","38","NaN","","","","","","","","","","","","","","",""
"","S2","","html-keyboard-response","249","216365","0.0-1.0-346.0","0","0","85704","","null","","","null","38","","NaN","","","","","","","","","","","","","",""
"","response","","html-keyboard-response","250","216614","0.0-1.0-347.0-0.0","0","0","85704","","248","","","68","38","","","1","38","training","adjacent","CB","3","2","O.jpg","M.jpg","1","0","0","",""
"","feedback","","html-keyboard-response","251","217618","0.0-1.0-348.0-0.0","0","0","85704","","null","","","null","38","","","","","","","","","","","","","","","",""
"","time_out","","html-keyboard-response","252","219622","0.0-1.0-350.0-0.0","0","0","85704","","null","","","null","38","","","","","","","","","","","","","","","",""
"","ITI","","html-keyboard-response","253","220626","0.0-1.0-351.0","0","0","85704","","null","","","null","38","","","","","","","","","","","","","","","NaN",""
"","S1","","html-keyboard-response","254","220881","0.0-1.0-353.0","0","0","85704","","null","","","null","39","","","","","","","","","","","","","","","",""
"","ISI","","html-keyboard-response","255","221386","0.0-1.0-354.0","0","0","85704","","null","","","null","39","NaN","","","","","","","","","","","","","","",""
"","S2","","html-keyboard-response","256","221640","0.0-1.0-355.0","0","0","85704","","null","","","null","39","","NaN","","","","","","","","","","","","","",""
"","response","","html-keyboard-response","257","222011","0.0-1.0-356.0-0.0","0","0","85704","","370","","","75","39","","","1","39","training","adjacent","FE","6","5","P.jpg","N.jpg","0","0","1","",""
"","feedback","","html-keyboard-response","258","223017","0.0-1.0-357.0-0.0","0","0","85704","","null","","","null","39","","","","","","","","","","","","","","","",""
"","ITI","","html-keyboard-response","259","224022","0.0-1.0-360.0","0","0","85704","","null","","","null","39","","","","","","","","","","","","","","","NaN",""
"","S1","","html-keyboard-response","260","224277","0.0-1.0-362.0","0","0","85704","","null","","","null","40","","","","","","","","","","","","","","","",""
"","ISI","","html-keyboard-response","261","224782","0.0-1.0-363.0","0","0","85704","","null","","","null","40","NaN","","","","","","","","","","","","","","",""
"","S2","","html-keyboard-response","262","225034","0.0-1.0-364.0","0","0","85704","","null","","","null","40","","NaN","","","","","","","","","","","","","",""
"","response","","html-keyboard-response","263","226516","0.0-1.0-365.0-0.0","0","0","85704","","1480","","","75","40","","","1","40","training","adjacent","ED","5","4","N.jpg","L.jpg","0","0","1","",""
"","feedback","","html-keyboard-response","264","227522","0.0-1.0-366.0-0.0","0","0","85704","","null","","","null","40","","","","","","","","","","","","","","","",""
"","ITI","","html-keyboard-response","265","228526","0.0-1.0-369.0","0","0","85704","","null","","","null","40","","","","","","","","","","","","","","","NaN",""
"","S1","","html-keyboard-response","266","228782","0.0-1.0-371.0","0","0","85704","","null","","","null","41","","","","","","","","","","","","","","","",""
"","ISI","","html-keyboard-response","267","229287","0.0-1.0-372.0","0","0","85704","","null","","","null","41","NaN","","","","","","","","","","","","","","",""
"","S2","","html-keyboard-response","268","229540","0.0-1.0-373.0","0","0","85704","","null","","","null","41","","NaN","","","","","","","","","","","","","",""
"","response","","html-keyboard-response","269","229954","0.0-1.0-374.0-0.0","0","0","85704","","412","","","68","41","","","1","41","training","adjacent","GF","7","6","R.jpg","P.jpg","1","0","0","",""
"","feedback","","html-keyboard-response","270","230959","0.0-1.0-375.0-0.0","0","0","85704","","null","","","null","41","","","","","","","","","","","","","","","",""
"","time_out","","html-keyboard-response","271","232962","0.0-1.0-377.0-0.0","0","0","85704","","null","","","null","41","","","","","","","","","","","","","","","",""
"","ITI","","html-keyboard-response","272","233966","0.0-1.0-378.0","0","0","85704","","null","","","null","41","","","","","","","","","","","","","","","NaN",""
"","S1","","html-keyboard-response","273","234218","0.0-1.0-380.0","0","0","85704","","null","","","null","42","","","","","","","","","","","","","","","",""
"","ISI","","html-keyboard-response","274","234721","0.0-1.0-381.0","0","0","85704","","null","","","null","42","NaN","","","","","","","","","","","","","","",""
"","S2","","html-keyboard-response","275","234973","0.0-1.0-382.0","0","0","85704","","null","","","null","42","","NaN","","","","","","","","","","","","","",""
"","response","","html-keyboard-response","276","235112","0.0-1.0-383.0-0.0","0","0","85704","","138","","","75","42","","","1","42","training","adjacent","BC","2","3","M.jpg","O.jpg","0","1","0","",""
"","feedback","","html-keyboard-response","277","236114","0.0-1.0-384.0-0.0","0","0","85704","","null","","","null","42","","","","","","","","","","","","","","","",""
"","time_out","","html-keyboard-response","278","238116","0.0-1.0-386.0-0.0","0","0","85704","","null","","","null","42","","","","","","","","","","","","","","","",""
"","ITI","","html-keyboard-response","279","239121","0.0-1.0-387.0","0","0","85704","","null","","","null","42","","","","","","","","","","","","","","","NaN",""
"","S1","","html-keyboard-response","280","239377","0.0-1.0-389.0","0","0","85704","","null","","","null","43","","","","","","","","","","","","","","","",""
"","ISI","","html-keyboard-response","281","239881","0.0-1.0-390.0","0","0","85704","","null","","","null","43","NaN","","","","","","","","","","","","","","",""
"","S2","","html-keyboard-response","282","240134","0.0-1.0-391.0","0","0","85704","","null","","","null","43","","NaN","","","","","","","","","","","","","",""
"","response","","html-keyboard-response","283","240347","0.0-1.0-392.0-0.0","0","0","85704","","212","","","75","43","","","1","43","training","adjacent","AB","1","2","Q.jpg","M.jpg","0","1","0","",""
"","feedback","","html-keyboard-response","284","241350","0.0-1.0-393.0-0.0","0","0","85704","","null","","","null","43","","","","","","","","","","","","","","","",""
"","time_out","","html-keyboard-response","285","243353","0.0-1.0-395.0-0.0","0","0","85704","","null","","","null","43","","","","","","","","","","","","","","","",""
"","ITI","","html-keyboard-response","286","244357","0.0-1.0-396.0","0","0","85704","","null","","","null","43","","","","","","","","","","","","","","","NaN",""
"","S1","","html-keyboard-response","287","244612","0.0-1.0-398.0","0","0","85704","","null","","","null","44","","","","","","","","","","","","","","","",""
"","ISI","","html-keyboard-response","288","245117","0.0-1.0-399.0","0","0","85704","","null","","","null","44","NaN","","","","","","","","","","","","","","",""
"","S2","","html-keyboard-response","289","245371","0.0-1.0-400.0","0","0","85704","","null","","","null","44","","NaN","","","","","","","","","","","","","",""
"","response","","html-keyboard-response","290","245639","0.0-1.0-401.0-0.0","0","0","85704","","267","","","68","44","","","1","44","training","adjacent","GF","7","6","R.jpg","P.jpg","1","0","0","",""
"","feedback","","html-keyboard-response","291","246643","0.0-1.0-402.0-0.0","0","0","85704","","null","","","null","44","","","","","","","","","","","","","","","",""
"","time_out","","html-keyboard-response","292","248647","0.0-1.0-404.0-0.0","0","0","85704","","null","","","null","44","","","","","","","","","","","","","","","",""
"","ITI","","html-keyboard-response","293","249651","0.0-1.0-405.0","0","0","85704","","null","","","null","44","","","","","","","","","","","","","","","NaN",""
"","S1","","html-keyboard-response","294","249907","0.0-1.0-407.0","0","0","85704","","null","","","null","45","","","","","","","","","","","","","","","",""
"","ISI","","html-keyboard-response","295","250412","0.0-1.0-408.0","0","0","85704","","null","","","null","45","NaN","","","","","","","","","","","","","","",""
"","S2","","html-keyboard-response","296","250665","0.0-1.0-409.0","0","0","85704","","null","","","null","45","","NaN","","","","","","","","","","","","","",""
"","response","","html-keyboard-response","297","250974","0.0-1.0-410.0-0.0","0","0","85704","","307","","","75","45","","","1","45","training","adjacent","EF","5","6","N.jpg","P.jpg","0","1","0","",""
"","feedback","","html-keyboard-response","298","251981","0.0-1.0-411.0-0.0","0","0","85704","","null","","","null","45","","","","","","","","","","","","","","","",""
"","time_out","","html-keyboard-response","299","253987","0.0-1.0-413.0-0.0","0","0","85704","","null","","","null","45","","","","","","","","","","","","","","","",""
"","ITI","","html-keyboard-response","300","254992","0.0-1.0-414.0","0","0","85704","","null","","","null","45","","","","","","","","","","","","","","","NaN",""
"","S1","","html-keyboard-response","301","255247","0.0-1.0-416.0","0","0","85704","","null","","","null","46","","","","","","","","","","","","","","","",""
"","ISI","","html-keyboard-response","302","255752","0.0-1.0-417.0","0","0","85704","","null","","","null","46","NaN","","","","","","","","","","","","","","",""
"","S2","","html-keyboard-response","303","256006","0.0-1.0-418.0","0","0","85704","","null","","","null","46","","NaN","","","","","","","","","","","","","",""
"","response","","html-keyboard-response","304","256190","0.0-1.0-419.0-0.0","0","0","85704","","183","","","68","46","","","1","46","training","adjacent","BA","2","1","M.jpg","Q.jpg","1","0","0","",""
"","feedback","","html-keyboard-response","305","257192","0.0-1.0-420.0-0.0","0","0","85704","","null","","","null","46","","","","","","","","","","","","","","","",""
"","time_out","","html-keyboard-response","306","259195","0.0-1.0-422.0-0.0","0","0","85704","","null","","","null","46","","","","","","","","","","","","","","","",""
"","ITI","","html-keyboard-response","307","260199","0.0-1.0-423.0","0","0","85704","","null","","","null","46","","","","","","","","","","","","","","","NaN",""
"","S1","","html-keyboard-response","308","260455","0.0-1.0-425.0","0","0","85704","","null","","","null","47","","","","","","","","","","","","","","","",""
"","ISI","","html-keyboard-response","309","260960","0.0-1.0-426.0","0","0","85704","","null","","","null","47","NaN","","","","","","","","","","","","","","",""
"","S2","","html-keyboard-response","310","261212","0.0-1.0-427.0","0","0","85704","","null","","","null","47","","NaN","","","","","","","","","","","","","",""
"","response","","html-keyboard-response","311","261612","0.0-1.0-428.0-0.0","0","0","85704","","399","","","75","47","","","1","47","training","adjacent","EF","5","6","N.jpg","P.jpg","0","1","0","",""
"","feedback","","html-keyboard-response","312","262614","0.0-1.0-429.0-0.0","0","0","85704","","null","","","null","47","","","","","","","","","","","","","","","",""
"","time_out","","html-keyboard-response","313","264617","0.0-1.0-431.0-0.0","0","0","85704","","null","","","null","47","","","","","","","","","","","","","","","",""
"","ITI","","html-keyboard-response","314","265621","0.0-1.0-432.0","0","0","85704","","null","","","null","47","","","","","","","","","","","","","","","NaN",""
"","block_over","","html-keyboard-response","315","308091","0.0-1.0-433.0-0.0","0","0","85704","","42468","","","32","47","","","","","","","","","","","","","","","",""
"","S1","","html-keyboard-response","316","308346","0.0-1.0-434.0","0","0","85704","","null","","","null","48","","","","","","","","","","","","","","","",""
"","ISI","","html-keyboard-response","317","308851","0.0-1.0-435.0","0","0","85704","","null","","","null","48","NaN","","","","","","","","","","","","","","",""
"","S2","","html-keyboard-response","318","309102","0.0-1.0-436.0","0","0","85704","","null","","","null","48","","NaN","","","","","","","","","","","","","",""
"","response","","html-keyboard-response","319","309841","0.0-1.0-437.0-0.0","0","0","85704","","737","","","75","48","","","2","48","training","adjacent","ED","5","4","N.jpg","L.jpg","0","0","1","",""
"","feedback","","html-keyboard-response","320","310844","0.0-1.0-438.0-0.0","0","0","85704","","null","","","null","48","","","","","","","","","","","","","","","",""
"","ITI","","html-keyboard-response","321","311847","0.0-1.0-441.0","0","0","85704","","null","","","null","48","","","","","","","","","","","","","","","NaN",""
"","S1","","html-keyboard-response","322","312099","0.0-1.0-443.0","0","0","85704","","null","","","null","49","","","","","","","","","","","","","","","",""
"","ISI","","html-keyboard-response","323","312603","0.0-1.0-444.0","0","0","85704","","null","","","null","49","NaN","","","","","","","","","","","","","","",""
"","S2","","html-keyboard-response","324","312858","0.0-1.0-445.0","0","0","85704","","null","","","null","49","","NaN","","","","","","","","","","","","","",""
"","response","","html-keyboard-response","325","313053","0.0-1.0-446.0-0.0","0","0","85704","","194","","","75","49","","","2","49","training","adjacent","FE","6","5","P.jpg","N.jpg","0","0","1","",""
"","feedback","","html-keyboard-response","326","314059","0.0-1.0-447.0-0.0","0","0","85704","","null","","","null","49","","","","","","","","","","","","","","","",""
"","ITI","","html-keyboard-response","327","315063","0.0-1.0-450.0","0","0","85704","","null","","","null","49","","","","","","","","","","","","","","","NaN",""
"","S1","","html-keyboard-response","328","315319","0.0-1.0-452.0","0","0","85704","","null","","","null","50","","","","","","","","","","","","","","","",""
"","ISI","","html-keyboard-response","329","315824","0.0-1.0-453.0","0","0","85704","","null","","","null","50","NaN","","","","","","","","","","","","","","",""
"","S2","","html-keyboard-response","330","316080","0.0-1.0-454.0","0","0","85704","","null","","","null","50","","NaN","","","","","","","","","","","","","",""
"","response","","html-keyboard-response","331","316253","0.0-1.0-455.0-0.0","0","0","85704","","172","","","68","50","","","2","50","training","adjacent","CB","3","2","O.jpg","M.jpg","1","0","0","",""
"","feedback","","html-keyboard-response","332","317258","0.0-1.0-456.0-0.0","0","0","85704","","null","","","null","50","","","","","","","","","","","","","","","",""
"","time_out","","html-keyboard-response","333","319261","0.0-1.0-458.0-0.0","0","0","85704","","null","","","null","50","","","","","","","","","","","","","","","",""
"","ITI","","html-keyboard-response","334","320265","0.0-1.0-459.0","0","0","85704","","null","","","null","50","","","","","","","","","","","","","","","NaN",""
"","S1","","html-keyboard-response","335","320520","0.0-1.0-461.0","0","0","85704","","null","","","null","51","","","","","","","","","","","","","","","",""
"","ISI","","html-keyboard-response","336","321025","0.0-1.0-462.0","0","0","85704","","null","","","null","51","NaN","","","","","","","","","","","","","","",""
"","S2","","html-keyboard-response","337","321278","0.0-1.0-463.0","0","0","85704","","null","","","null","51","","NaN","","","","","","","","","","","","","",""
"","response","","html-keyboard-response","338","321926","0.0-1.0-464.0-0.0","0","0","85704","","647","","","75","51","","","2","51","training","adjacent","FE","6","5","P.jpg","N.jpg","0","0","1","",""
"","feedback","","html-keyboard-response","339","322930","0.0-1.0-465.0-0.0","0","0","85704","","null","","","null","51","","","","","","","","","","","","","","","",""
"","ITI","","html-keyboard-response","340","323934","0.0-1.0-468.0","0","0","85704","","null","","","null","51","","","","","","","","","","","","","","","NaN",""
"","S1","","html-keyboard-response","341","324190","0.0-1.0-470.0","0","0","85704","","null","","","null","52","","","","","","","","","","","","","","","",""
"","ISI","","html-keyboard-response","342","324694","0.0-1.0-471.0","0","0","85704","","null","","","null","52","NaN","","","","","","","","","","","","","","",""
"","S2","","html-keyboard-response","343","324949","0.0-1.0-472.0","0","0","85704","","null","","","null","52","","NaN","","","","","","","","","","","","","",""
"","response","","html-keyboard-response","344","325400","0.0-1.0-473.0-0.0","0","0","85704","","450","","","75","52","","","2","52","training","adjacent","GF","7","6","R.jpg","P.jpg","0","0","1","",""
"","feedback","","html-keyboard-response","345","326404","0.0-1.0-474.0-0.0","0","0","85704","","null","","","null","52","","","","","","","","","","","","","","","",""
"","ITI","","html-keyboard-response","346","327409","0.0-1.0-477.0","0","0","85704","","null","","","null","52","","","","","","","","","","","","","","","NaN",""
"","S1","","html-keyboard-response","347","327661","0.0-1.0-479.0","0","0","85704","","null","","","null","53","","","","","","","","","","","","","","","",""
"","ISI","","html-keyboard-response","348","328177","0.0-1.0-480.0","0","0","85704","","null","","","null","53","NaN","","","","","","","","","","","","","","",""
"","S2","","html-keyboard-response","349","328433","0.0-1.0-481.0","0","0","85704","","null","","","null","53","","NaN","","","","","","","","","","","","","",""
"","response","","html-keyboard-response","350","328816","0.0-1.0-482.0-0.0","0","0","85704","","382","","","75","53","","","2","53","training","adjacent","AB","1","2","Q.jpg","M.jpg","0","1","0","",""
"","feedback","","html-keyboard-response","351","329820","0.0-1.0-483.0-0.0","0","0","85704","","null","","","null","53","","","","","","","","","","","","","","","",""
"","time_out","","html-keyboard-response","352","331823","0.0-1.0-485.0-0.0","0","0","85704","","null","","","null","53","","","","","","","","","","","","","","","",""
"","ITI","","html-keyboard-response","353","332828","0.0-1.0-486.0","0","0","85704","","null","","","null","53","","","","","","","","","","","","","","","NaN",""
"","S1","","html-keyboard-response","354","333083","0.0-1.0-488.0","0","0","85704","","null","","","null","54","","","","","","","","","","","","","","","",""
"","ISI","","html-keyboard-response","355","333588","0.0-1.0-489.0","0","0","85704","","null","","","null","54","NaN","","","","","","","","","","","","","","",""
"","S2","","html-keyboard-response","356","333840","0.0-1.0-490.0","0","0","85704","","null","","","null","54","","NaN","","","","","","","","","","","","","",""
"","response","","html-keyboard-response","357","334116","0.0-1.0-491.0-0.0","0","0","85704","","275","","","75","54","","","2","54","training","adjacent","CB","3","2","O.jpg","M.jpg","0","0","1","",""
"","feedback","","html-keyboard-response","358","335120","0.0-1.0-492.0-0.0","0","0","85704","","null","","","null","54","","","","","","","","","","","","","","","",""
"","ITI","","html-keyboard-response","359","336125","0.0-1.0-495.0","0","0","85704","","null","","","null","54","","","","","","","","","","","","","","","NaN",""
"","S1","","html-keyboard-response","360","336380","0.0-1.0-497.0","0","0","85704","","null","","","null","55","","","","","","","","","","","","","","","",""
"","ISI","","html-keyboard-response","361","336885","0.0-1.0-498.0","0","0","85704","","null","","","null","55","NaN","","","","","","","","","","","","","","",""
"","S2","","html-keyboard-response","362","337137","0.0-1.0-499.0","0","0","85704","","null","","","null","55","","NaN","","","","","","","","","","","","","",""
"","response","","html-keyboard-response","363","337363","0.0-1.0-500.0-0.0","0","0","85704","","224","","","75","55","","","2","55","training","adjacent","AB","1","2","Q.jpg","M.jpg","0","1","0","",""
"","feedback","","html-keyboard-response","364","338366","0.0-1.0-501.0-0.0","0","0","85704","","null","","","null","55","","","","","","","","","","","","","","","",""
"","time_out","","html-keyboard-response","365","340368","0.0-1.0-503.0-0.0","0","0","85704","","null","","","null","55","","","","","","","","","","","","","","","",""
"","ITI","","html-keyboard-response","366","341373","0.0-1.0-504.0","0","0","85704","","null","","","null","55","","","","","","","","","","","","","","","NaN",""
"","S1","","html-keyboard-response","367","341628","0.0-1.0-506.0","0","0","85704","","null","","","null","56","","","","","","","","","","","","","","","",""
"","ISI","","html-keyboard-response","368","342133","0.0-1.0-507.0","0","0","85704","","null","","","null","56","NaN","","","","","","","","","","","","","","",""
"","S2","","html-keyboard-response","369","342387","0.0-1.0-508.0","0","0","85704","","null","","","null","56","","NaN","","","","","","","","","","","","","",""
"","response","","html-keyboard-response","370","342559","0.0-1.0-509.0-0.0","0","0","85704","","171","","","75","56","","","2","56","training","adjacent","CD","3","4","O.jpg","L.jpg","0","1","0","",""
"","feedback","","html-keyboard-response","371","343561","0.0-1.0-510.0-0.0","0","0","85704","","null","","","null","56","","","","","","","","","","","","","","","",""
"","time_out","","html-keyboard-response","372","345564","0.0-1.0-512.0-0.0","0","0","85704","","null","","","null","56","","","","","","","","","","","","","","","",""
"","ITI","","html-keyboard-response","373","346568","0.0-1.0-513.0","0","0","85704","","null","","","null","56","","","","","","","","","","","","","","","NaN",""
"","S1","","html-keyboard-response","374","346824","0.0-1.0-515.0","0","0","85704","","null","","","null","57","","","","","","","","","","","","","","","",""
"","ISI","","html-keyboard-response","375","347329","0.0-1.0-516.0","0","0","85704","","null","","","null","57","NaN","","","","","","","","","","","","","","",""
"","S2","","html-keyboard-response","376","347582","0.0-1.0-517.0","0","0","85704","","null","","","null","57","","NaN","","","","","","","","","","","","","",""
"","response","","html-keyboard-response","377","348549","0.0-1.0-518.0-0.0","0","0","85704","","965","","","68","57","","","2","57","training","adjacent","ED","5","4","N.jpg","L.jpg","1","0","0","",""
"","feedback","","html-keyboard-response","378","349553","0.0-1.0-519.0-0.0","0","0","85704","","null","","","null","57","","","","","","","","","","","","","","","",""
"","time_out","","html-keyboard-response","379","351557","0.0-1.0-521.0-0.0","0","0","85704","","null","","","null","57","","","","","","","","","","","","","","","",""
"","ITI","","html-keyboard-response","380","352560","0.0-1.0-522.0","0","0","85704","","null","","","null","57","","","","","","","","","","","","","","","NaN",""
"","S1","","html-keyboard-response","381","352813","0.0-1.0-524.0","0","0","85704","","null","","","null","58","","","","","","","","","","","","","","","",""
"","ISI","","html-keyboard-response","382","353317","0.0-1.0-525.0","0","0","85704","","null","","","null","58","NaN","","","","","","","","","","","","","","",""
"","S2","","html-keyboard-response","383","353569","0.0-1.0-526.0","0","0","85704","","null","","","null","58","","NaN","","","","","","","","","","","","","",""
"","response","","html-keyboard-response","384","353853","0.0-1.0-527.0-0.0","0","0","85704","","282","","","75","58","","","2","58","training","adjacent","FE","6","5","P.jpg","N.jpg","0","0","1","",""
"","feedback","","html-keyboard-response","385","354856","0.0-1.0-528.0-0.0","0","0","85704","","null","","","null","58","","","","","","","","","","","","","","","",""
"","ITI","","html-keyboard-response","386","355860","0.0-1.0-531.0","0","0","85704","","null","","","null","58","","","","","","","","","","","","","","","NaN",""
"","S1","","html-keyboard-response","387","356116","0.0-1.0-533.0","0","0","85704","","null","","","null","59","","","","","","","","","","","","","","","",""
"","ISI","","html-keyboard-response","388","356621","0.0-1.0-534.0","0","0","85704","","null","","","null","59","NaN","","","","","","","","","","","","","","",""
"","S2","","html-keyboard-response","389","356876","0.0-1.0-535.0","0","0","85704","","null","","","null","59","","NaN","","","","","","","","","","","","","",""
"","response","","html-keyboard-response","390","357580","0.0-1.0-536.0-0.0","0","0","85704","","702","","","68","59","","","2","59","training","adjacent","ED","5","4","N.jpg","L.jpg","1","0","0","",""
"","feedback","","html-keyboard-response","391","358585","0.0-1.0-537.0-0.0","0","0","85704","","null","","","null","59","","","","","","","","","","","","","","","",""
"","time_out","","html-keyboard-response","392","360588","0.0-1.0-539.0-0.0","0","0","85704","","null","","","null","59","","","","","","","","","","","","","","","",""
"","ITI","","html-keyboard-response","393","361592","0.0-1.0-540.0","0","0","85704","","null","","","null","59","","","","","","","","","","","","","","","NaN",""
"","S1","","html-keyboard-response","394","361844","0.0-1.0-542.0","0","0","85704","","null","","","null","60","","","","","","","","","","","","","","","",""
"","ISI","","html-keyboard-response","395","362346","0.0-1.0-543.0","0","0","85704","","null","","","null","60","NaN","","","","","","","","","","","","","","",""
"","S2","","html-keyboard-response","396","362598","0.0-1.0-544.0","0","0","85704","","null","","","null","60","","NaN","","","","","","","","","","","","","",""
"","response","","html-keyboard-response","397","362781","0.0-1.0-545.0-0.0","0","0","85704","","181","","","75","60","","","2","60","training","adjacent","EF","5","6","N.jpg","P.jpg","0","1","0","",""
"","feedback","","html-keyboard-response","398","363786","0.0-1.0-546.0-0.0","0","0","85704","","null","","","null","60","","","","","","","","","","","","","","","",""
"","time_out","","html-keyboard-response","399","365789","0.0-1.0-548.0-0.0","0","0","85704","","null","","","null","60","","","","","","","","","","","","","","","",""
"","ITI","","html-keyboard-response","400","366794","0.0-1.0-549.0","0","0","85704","","null","","","null","60","","","","","","","","","","","","","","","NaN",""
"","S1","","html-keyboard-response","401","367047","0.0-1.0-551.0","0","0","85704","","null","","","null","61","","","","","","","","","","","","","","","",""
"","ISI","","html-keyboard-response","402","367551","0.0-1.0-552.0","0","0","85704","","null","","","null","61","NaN","","","","","","","","","","","","","","",""
"","S2","","html-keyboard-response","403","367804","0.0-1.0-553.0","0","0","85704","","null","","","null","61","","NaN","","","","","","","","","","","","","",""
"","response","","html-keyboard-response","404","367997","0.0-1.0-554.0-0.0","0","0","85704","","191","","","75","61","","","2","61","training","adjacent","AB","1","2","Q.jpg","M.jpg","0","1","0","",""
"","feedback","","html-keyboard-response","405","369000","0.0-1.0-555.0-0.0","0","0","85704","","null","","","null","61","","","","","","","","","","","","","","","",""
"","time_out","","html-keyboard-response","406","371003","0.0-1.0-557.0-0.0","0","0","85704","","null","","","null","61","","","","","","","","","","","","","","","",""
"","ITI","","html-keyboard-response","407","372008","0.0-1.0-558.0","0","0","85704","","null","","","null","61","","","","","","","","","","","","","","","NaN",""
"","S1","","html-keyboard-response","408","372263","0.0-1.0-560.0","0","0","85704","","null","","","null","62","","","","","","","","","","","","","","","",""
"","ISI","","html-keyboard-response","409","372768","0.0-1.0-561.0","0","0","85704","","null","","","null","62","NaN","","","","","","","","","","","","","","",""
"","S2","","html-keyboard-response","410","373022","0.0-1.0-562.0","0","0","85704","","null","","","null","62","","NaN","","","","","","","","","","","","","",""
"","response","","html-keyboard-response","411","373176","0.0-1.0-563.0-0.0","0","0","85704","","153","","","75","62","","","2","62","training","adjacent","CD","3","4","O.jpg","L.jpg","0","1","0","",""
"","feedback","","html-keyboard-response","412","374179","0.0-1.0-564.0-0.0","0","0","85704","","null","","","null","62","","","","","","","","","","","","","","","",""
"","time_out","","html-keyboard-response","413","376182","0.0-1.0-566.0-0.0","0","0","85704","","null","","","null","62","","","","","","","","","","","","","","","",""
"","ITI","","html-keyboard-response","414","377187","0.0-1.0-567.0","0","0","85704","","null","","","null","62","","","","","","","","","","","","","","","NaN",""
"","S1","","html-keyboard-response","415","377442","0.0-1.0-569.0","0","0","85704","","null","","","null","63","","","","","","","","","","","","","","","",""
"","ISI","","html-keyboard-response","416","377944","0.0-1.0-570.0","0","0","85704","","null","","","null","63","NaN","","","","","","","","","","","","","","",""
"","S2","","html-keyboard-response","417","378197","0.0-1.0-571.0","0","0","85704","","null","","","null","63","","NaN","","","","","","","","","","","","","",""
"","response","","html-keyboard-response","418","378332","0.0-1.0-572.0-0.0","0","0","85704","","134","","","75","63","","","2","63","training","adjacent","BC","2","3","M.jpg","O.jpg","0","1","0","",""
"","feedback","","html-keyboard-response","419","379334","0.0-1.0-573.0-0.0","0","0","85704","","null","","","null","63","","","","","","","","","","","","","","","",""
"","time_out","","html-keyboard-response","420","381338","0.0-1.0-575.0-0.0","0","0","85704","","null","","","null","63","","","","","","","","","","","","","","","",""
"","ITI","","html-keyboard-response","421","382342","0.0-1.0-576.0","0","0","85704","","null","","","null","63","","","","","","","","","","","","","","","NaN",""
"","S1","","html-keyboard-response","422","382597","0.0-1.0-578.0","0","0","85704","","null","","","null","64","","","","","","","","","","","","","","","",""
"","ISI","","html-keyboard-response","423","383102","0.0-1.0-579.0","0","0","85704","","null","","","null","64","NaN","","","","","","","","","","","","","","",""
"","S2","","html-keyboard-response","424","383355","0.0-1.0-580.0","0","0","85704","","null","","","null","64","","NaN","","","","","","","","","","","","","",""
"","response","","html-keyboard-response","425","384446","0.0-1.0-581.0-0.0","0","0","85704","","1090","","","68","64","","","2","64","training","adjacent","BC","2","3","M.jpg","O.jpg","1","1","1","",""
"","feedback","","html-keyboard-response","426","385448","0.0-1.0-582.0-0.0","0","0","85704","","null","","","null","64","","","","","","","","","","","","","","","",""
"","ITI","","html-keyboard-response","427","386450","0.0-1.0-585.0","0","0","85704","","null","","","null","64","","","","","","","","","","","","","","","NaN",""
"","S1","","html-keyboard-response","428","386703","0.0-1.0-587.0","0","0","85704","","null","","","null","65","","","","","","","","","","","","","","","",""
"","ISI","","html-keyboard-response","429","387207","0.0-1.0-588.0","0","0","85704","","null","","","null","65","NaN","","","","","","","","","","","","","","",""
"","S2","","html-keyboard-response","430","387459","0.0-1.0-589.0","0","0","85704","","null","","","null","65","","NaN","","","","","","","","","","","","","",""
"","response","","html-keyboard-response","431","387780","0.0-1.0-590.0-0.0","0","0","85704","","319","","","68","65","","","2","65","training","adjacent","DE","4","5","L.jpg","N.jpg","1","1","1","",""
"","feedback","","html-keyboard-response","432","388786","0.0-1.0-591.0-0.0","0","0","85704","","null","","","null","65","","","","","","","","","","","","","","","",""
"","ITI","","html-keyboard-response","433","389791","0.0-1.0-594.0","0","0","85704","","null","","","null","65","","","","","","","","","","","","","","","NaN",""
"","S1","","html-keyboard-response","434","390045","0.0-1.0-596.0","0","0","85704","","null","","","null","66","","","","","","","","","","","","","","","",""
"","ISI","","html-keyboard-response","435","390556","0.0-1.0-597.0","0","0","85704","","null","","","null","66","NaN","","","","","","","","","","","","","","",""
"","S2","","html-keyboard-response","436","390812","0.0-1.0-598.0","0","0","85704","","null","","","null","66","","NaN","","","","","","","","","","","","","",""
"","response","","html-keyboard-response","437","391213","0.0-1.0-599.0-0.0","0","0","85704","","400","","","68","66","","","2","66","training","adjacent","EF","5","6","N.jpg","P.jpg","1","1","1","",""
"","feedback","","html-keyboard-response","438","392220","0.0-1.0-600.0-0.0","0","0","85704","","null","","","null","66","","","","","","","","","","","","","","","",""
"","ITI","","html-keyboard-response","439","393227","0.0-1.0-603.0","0","0","85704","","null","","","null","66","","","","","","","","","","","","","","","NaN",""
"","S1","","html-keyboard-response","440","393483","0.0-1.0-605.0","0","0","85704","","null","","","null","67","","","","","","","","","","","","","","","",""
"","ISI","","html-keyboard-response","441","393987","0.0-1.0-606.0","0","0","85704","","null","","","null","67","NaN","","","","","","","","","","","","","","",""
"","S2","","html-keyboard-response","442","394243","0.0-1.0-607.0","0","0","85704","","null","","","null","67","","NaN","","","","","","","","","","","","","",""
"","response","","html-keyboard-response","443","395256","0.0-1.0-608.0-0.0","0","0","85704","","1012","","","68","67","","","2","67","training","adjacent","BA","2","1","M.jpg","Q.jpg","1","0","0","",""
"","feedback","","html-keyboard-response","444","396262","0.0-1.0-609.0-0.0","0","0","85704","","null","","","null","67","","","","","","","","","","","","","","","",""
"","time_out","","html-keyboard-response","445","398266","0.0-1.0-611.0-0.0","0","0","85704","","null","","","null","67","","","","","","","","","","","","","","","",""
"","ITI","","html-keyboard-response","446","399270","0.0-1.0-612.0","0","0","85704","","981","","","75","67","","","","","","","","","","","","","","","k",""
"","S1","","html-keyboard-response","447","399526","0.0-1.0-614.0","0","0","85704","","null","","","null","68","","","","","","","","","","","","","","","",""
"","ISI","","html-keyboard-response","448","400031","0.0-1.0-615.0","0","0","85704","","null","","","null","68","NaN","","","","","","","","","","","","","","",""
"","S2","","html-keyboard-response","449","400285","0.0-1.0-616.0","0","0","85704","","null","","","null","68","","NaN","","","","","","","","","","","","","",""
"","response","","html-keyboard-response","450","400421","0.0-1.0-617.0-0.0","0","0","85704","","135","","","75","68","","","2","68","training","adjacent","DC","4","3","L.jpg","O.jpg","0","0","1","",""
"","feedback","","html-keyboard-response","451","401424","0.0-1.0-618.0-0.0","0","0","85704","","null","","","null","68","","","","","","","","","","","","","","","",""
"","ITI","","html-keyboard-response","452","402428","0.0-1.0-621.0","0","0","85704","","null","","","null","68","","","","","","","","","","","","","","","NaN",""
"","S1","","html-keyboard-response","453","402684","0.0-1.0-623.0","0","0","85704","","null","","","null","69","","","","","","","","","","","","","","","",""
"","ISI","","html-keyboard-response","454","403189","0.0-1.0-624.0","0","0","85704","","null","","","null","69","NaN","","","","","","","","","","","","","","",""
"","S2","","html-keyboard-response","455","403444","0.0-1.0-625.0","0","0","85704","","null","","","null","69","","NaN","","","","","","","","","","","","","",""
"","response","","html-keyboard-response","456","403813","0.0-1.0-626.0-0.0","0","0","85704","","367","","","75","69","","","2","69","training","adjacent","DC","4","3","L.jpg","O.jpg","0","0","1","",""
"","feedback","","html-keyboard-response","457","404820","0.0-1.0-627.0-0.0","0","0","85704","","null","","","null","69","","","","","","","","","","","","","","","",""
"","ITI","","html-keyboard-response","458","405824","0.0-1.0-630.0","0","0","85704","","null","","","null","69","","","","","","","","","","","","","","","NaN",""
"","S1","","html-keyboard-response","459","406080","0.0-1.0-632.0","0","0","85704","","null","","","null","70","","","","","","","","","","","","","","","",""
"","ISI","","html-keyboard-response","460","406585","0.0-1.0-633.0","0","0","85704","","null","","","null","70","NaN","","","","","","","","","","","","","","",""
"","S2","","html-keyboard-response","461","406840","0.0-1.0-634.0","0","0","85704","","null","","","null","70","","NaN","","","","","","","","","","","","","",""
"","response","","html-keyboard-response","462","407128","0.0-1.0-635.0-0.0","0","0","85704","","286","","","75","70","","","2","70","training","adjacent","FG","6","7","P.jpg","R.jpg","0","1","0","",""
"","feedback","","html-keyboard-response","463","408135","0.0-1.0-636.0-0.0","0","0","85704","","null","","","null","70","","","","","","","","","","","","","","","",""
"","time_out","","html-keyboard-response","464","410138","0.0-1.0-638.0-0.0","0","0","85704","","null","","","null","70","","","","","","","","","","","","","","","",""
"","ITI","","html-keyboard-response","465","411143","0.0-1.0-639.0","0","0","85704","","null","","","null","70","","","","","","","","","","","","","","","NaN",""
"","S1","","html-keyboard-response","466","411397","0.0-1.0-641.0","0","0","85704","","null","","","null","71","","","","","","","","","","","","","","","",""
"","ISI","","html-keyboard-response","467","411902","0.0-1.0-642.0","0","0","85704","","null","","","null","71","NaN","","","","","","","","","","","","","","",""
"","S2","","html-keyboard-response","468","412155","0.0-1.0-643.0","0","0","85704","","null","","","null","71","","NaN","","","","","","","","","","","","","",""
"","response","","html-keyboard-response","469","413567","0.0-1.0-644.0-0.0","0","0","85704","","1411","","","75","71","","","2","71","training","adjacent","BA","2","1","M.jpg","Q.jpg","0","0","1","",""
"","feedback","","html-keyboard-response","470","414573","0.0-1.0-645.0-0.0","0","0","85704","","null","","","null","71","","","","","","","","","","","","","","","",""
"","ITI","","html-keyboard-response","471","415577","0.0-1.0-648.0","0","0","85704","","null","","","null","71","","","","","","","","","","","","","","","NaN",""
"","S1","","html-keyboard-response","472","415833","0.0-1.0-650.0","0","0","85704","","null","","","null","72","","","","","","","","","","","","","","","",""
"","ISI","","html-keyboard-response","473","416338","0.0-1.0-651.0","0","0","85704","","null","","","null","72","NaN","","","","","","","","","","","","","","",""
"","S2","","html-keyboard-response","474","416593","0.0-1.0-652.0","0","0","85704","","null","","","null","72","","NaN","","","","","","","","","","","","","",""
"","response","","html-keyboard-response","475","417683","0.0-1.0-653.0-0.0","0","0","85704","","1088","","","75","72","","","2","72","training","adjacent","DC","4","3","L.jpg","O.jpg","0","0","1","",""
"","feedback","","html-keyboard-response","476","418689","0.0-1.0-654.0-0.0","0","0","85704","","null","","","null","72","","","","","","","","","","","","","","","",""
"","ITI","","html-keyboard-response","477","419693","0.0-1.0-657.0","0","0","85704","","null","","","null","72","","","","","","","","","","","","","","","NaN",""
"","S1","","html-keyboard-response","478","419945","0.0-1.0-659.0","0","0","85704","","null","","","null","73","","","","","","","","","","","","","","","",""
"","ISI","","html-keyboard-response","479","420448","0.0-1.0-660.0","0","0","85704","","null","","","null","73","NaN","","","","","","","","","","","","","","",""
"","S2","","html-keyboard-response","480","420704","0.0-1.0-661.0","0","0","85704","","null","","","null","73","","NaN","","","","","","","","","","","","","",""
"","response","","html-keyboard-response","481","421988","0.0-1.0-662.0-0.0","0","0","85704","","1282","","","75","73","","","2","73","training","adjacent","FG","6","7","P.jpg","R.jpg","0","1","0","",""
"","feedback","","html-keyboard-response","482","422991","0.0-1.0-663.0-0.0","0","0","85704","","null","","","null","73","","","","","","","","","","","","","","","",""
"","time_out","","html-keyboard-response","483","424993","0.0-1.0-665.0-0.0","0","0","85704","","null","","","null","73","","","","","","","","","","","","","","","",""
"","ITI","","html-keyboard-response","484","425997","0.0-1.0-666.0","0","0","85704","","null","","","null","73","","","","","","","","","","","","","","","NaN",""
"","S1","","html-keyboard-response","485","426250","0.0-1.0-668.0","0","0","85704","","null","","","null","74","","","","","","","","","","","","","","","",""
"","ISI","","html-keyboard-response","486","426752","0.0-1.0-669.0","0","0","85704","","null","","","null","74","NaN","","","","","","","","","","","","","","",""
"","S2","","html-keyboard-response","487","427004","0.0-1.0-670.0","0","0","85704","","null","","","null","74","","NaN","","","","","","","","","","","","","",""
"","response","","html-keyboard-response","488","427259","0.0-1.0-671.0-0.0","0","0","85704","","253","","","75","74","","","2","74","training","adjacent","DE","4","5","L.jpg","N.jpg","0","1","0","",""
"","feedback","","html-keyboard-response","489","428261","0.0-1.0-672.0-0.0","0","0","85704","","null","","","null","74","","","","","","","","","","","","","","","",""
"","time_out","","html-keyboard-response","490","430264","0.0-1.0-674.0-0.0","0","0","85704","","null","","","null","74","","","","","","","","","","","","","","","",""
"","ITI","","html-keyboard-response","491","431269","0.0-1.0-675.0","0","0","85704","","117","","","68","74","","","","","","","","","","","","","","","d",""
"","S1","","html-keyboard-response","492","431524","0.0-1.0-677.0","0","0","85704","","null","","","null","75","","","","","","","","","","","","","","","",""
"","ISI","","html-keyboard-response","493","432029","0.0-1.0-678.0","0","0","85704","","null","","","null","75","NaN","","","","","","","","","","","","","","",""
"","S2","","html-keyboard-response","494","432283","0.0-1.0-679.0","0","0","85704","","null","","","null","75","","NaN","","","","","","","","","","","","","",""
"","response","","html-keyboard-response","495","432732","0.0-1.0-680.0-0.0","0","0","85704","","448","","","68","75","","","2","75","training","adjacent","GF","7","6","R.jpg","P.jpg","1","0","0","",""
"","feedback","","html-keyboard-response","496","433736","0.0-1.0-681.0-0.0","0","0","85704","","null","","","null","75","","","","","","","","","","","","","","","",""
"","time_out","","html-keyboard-response","497","435739","0.0-1.0-683.0-0.0","0","0","85704","","null","","","null","75","","","","","","","","","","","","","","","",""
"","ITI","","html-keyboard-response","498","436743","0.0-1.0-684.0","0","0","85704","","null","","","null","75","","","","","","","","","","","","","","","NaN",""
"","S1","","html-keyboard-response","499","436998","0.0-1.0-686.0","0","0","85704","","null","","","null","76","","","","","","","","","","","","","","","",""
"","ISI","","html-keyboard-response","500","437503","0.0-1.0-687.0","0","0","85704","","null","","","null","76","NaN","","","","","","","","","","","","","","",""
"","S2","","html-keyboard-response","501","437755","0.0-1.0-688.0","0","0","85704","","null","","","null","76","","NaN","","","","","","","","","","","","","",""
"","response","","html-keyboard-response","502","438184","0.0-1.0-689.0-0.0","0","0","85704","","427","","","75","76","","","2","76","training","adjacent","BA","2","1","M.jpg","Q.jpg","0","0","1","",""
"","feedback","","html-keyboard-response","503","439187","0.0-1.0-690.0-0.0","0","0","85704","","null","","","null","76","","","","","","","","","","","","","","","",""
"","ITI","","html-keyboard-response","504","440192","0.0-1.0-693.0","0","0","85704","","null","","","null","76","","","","","","","","","","","","","","","NaN",""
"","S1","","html-keyboard-response","505","440447","0.0-1.0-695.0","0","0","85704","","null","","","null","77","","","","","","","","","","","","","","","",""
"","ISI","","html-keyboard-response","506","440949","0.0-1.0-696.0","0","0","85704","","null","","","null","77","NaN","","","","","","","","","","","","","","",""
"","S2","","html-keyboard-response","507","441201","0.0-1.0-697.0","0","0","85704","","null","","","null","77","","NaN","","","","","","","","","","","","","",""
"","response","","html-keyboard-response","508","442417","0.0-1.0-698.0-0.0","0","0","85704","","1214","","","75","77","","","2","77","training","adjacent","CB","3","2","O.jpg","M.jpg","0","0","1","",""
"","feedback","","html-keyboard-response","509","443419","0.0-1.0-699.0-0.0","0","0","85704","","null","","","null","77","","","","","","","","","","","","","","","",""
"","ITI","","html-keyboard-response","510","444423","0.0-1.0-702.0","0","0","85704","","null","","","null","77","","","","","","","","","","","","","","","NaN",""
"","S1","","html-keyboard-response","511","444678","0.0-1.0-704.0","0","0","85704","","null","","","null","78","","","","","","","","","","","","","","","",""
"","ISI","","html-keyboard-response","512","445183","0.0-1.0-705.0","0","0","85704","","null","","","null","78","NaN","","","","","","","","","","","","","","",""
"","S2","","html-keyboard-response","513","445439","0.0-1.0-706.0","0","0","85704","","null","","","null","78","","NaN","","","","","","","","","","","","","",""
"","response","","html-keyboard-response","514","445642","0.0-1.0-707.0-0.0","0","0","85704","","201","","","75","78","","","2","78","training","adjacent","ED","5","4","N.jpg","L.jpg","0","0","1","",""
"","feedback","","html-keyboard-response","515","446647","0.0-1.0-708.0-0.0","0","0","85704","","null","","","null","78","","","","","","","","","","","","","","","",""
"","ITI","","html-keyboard-response","516","447649","0.0-1.0-711.0","0","0","85704","","null","","","null","78","","","","","","","","","","","","","","","NaN",""
"","S1","","html-keyboard-response","517","447900","0.0-1.0-713.0","0","0","85704","","null","","","null","79","","","","","","","","","","","","","","","",""
"","ISI","","html-keyboard-response","518","448405","0.0-1.0-714.0","0","0","85704","","null","","","null","79","NaN","","","","","","","","","","","","","","",""
"","S2","","html-keyboard-response","519","448659","0.0-1.0-715.0","0","0","85704","","null","","","null","79","","NaN","","","","","","","","","","","","","",""
"","response","","html-keyboard-response","520","450414","0.0-1.0-716.0-0.0","0","0","85704","","null","","","null","79","","","2","79","training","adjacent","CB","3","2","O.jpg","M.jpg","NaN","0","0","",""
"","too_slow_prompt","","html-keyboard-response","521","451418","0.0-1.0-718.0-0.0","1","0","85704","","null","","","null","","","","","","","","","","","","","","","","",""
"","time_out","","html-keyboard-response","522","453421","0.0-1.0-719.0-0.0","0","0","85704","","null","","","null","79","","","","","","","","","","","","","","","",""
"","ITI","","html-keyboard-response","523","454425","0.0-1.0-720.0","0","0","85704","","null","","","null","79","","","","","","","","","","","","","","","NaN",""
"","S1","","html-keyboard-response","524","454681","0.0-1.0-722.0","0","0","85704","","null","","","null","80","","","","","","","","","","","","","","","",""
"","ISI","","html-keyboard-response","525","455186","0.0-1.0-723.0","0","0","85704","","null","","","null","80","NaN","","","","","","","","","","","","","","",""
"","S2","","html-keyboard-response","526","455440","0.0-1.0-724.0","0","0","85704","","null","","","null","80","","NaN","","","","","","","","","","","","","",""
"","response","","html-keyboard-response","527","456296","0.0-1.0-725.0-0.0","0","0","85704","","854","","","75","80","","","2","80","training","adjacent","EF","5","6","N.jpg","P.jpg","0","1","0","",""
"","feedback","","html-keyboard-response","528","457299","0.0-1.0-726.0-0.0","0","0","85704","","null","","","null","80","","","","","","","","","","","","","","","",""
"","time_out","","html-keyboard-response","529","459302","0.0-1.0-728.0-0.0","0","0","85704","","null","","","null","80","","","","","","","","","","","","","","","",""
"","ITI","","html-keyboard-response","530","460305","0.0-1.0-729.0","0","0","85704","","null","","","null","80","","","","","","","","","","","","","","","NaN",""
"","S1","","html-keyboard-response","531","460559","0.0-1.0-731.0","0","0","85704","","null","","","null","81","","","","","","","","","","","","","","","",""
"","ISI","","html-keyboard-response","532","461065","0.0-1.0-732.0","0","0","85704","","null","","","null","81","NaN","","","","","","","","","","","","","","",""
"","S2","","html-keyboard-response","533","461318","0.0-1.0-733.0","0","0","85704","","null","","","null","81","","NaN","","","","","","","","","","","","","",""
"","response","","html-keyboard-response","534","462737","0.0-1.0-734.0-0.0","0","0","85704","","1418","","","68","81","","","2","81","training","adjacent","GF","7","6","R.jpg","P.jpg","1","0","0","",""
"","feedback","","html-keyboard-response","535","463743","0.0-1.0-735.0-0.0","0","0","85704","","null","","","null","81","","","","","","","","","","","","","","","",""
"","time_out","","html-keyboard-response","536","465746","0.0-1.0-737.0-0.0","0","0","85704","","null","","","null","81","","","","","","","","","","","","","","","",""
"","ITI","","html-keyboard-response","537","466748","0.0-1.0-738.0","0","0","85704","","null","","","null","81","","","","","","","","","","","","","","","NaN",""
"","S1","","html-keyboard-response","538","466999","0.0-1.0-740.0","0","0","85704","","null","","","null","82","","","","","","","","","","","","","","","",""
"","ISI","","html-keyboard-response","539","467505","0.0-1.0-741.0","0","0","85704","","null","","","null","82","NaN","","","","","","","","","","","","","","",""
"","S2","","html-keyboard-response","540","467757","0.0-1.0-742.0","0","0","85704","","null","","","null","82","","NaN","","","","","","","","","","","","","",""
"","response","","html-keyboard-response","541","469513","0.0-1.0-743.0-0.0","0","0","85704","","null","","","null","82","","","2","82","training","adjacent","DE","4","5","L.jpg","N.jpg","NaN","1","0","",""
"","too_slow_prompt","","html-keyboard-response","542","470517","0.0-1.0-745.0-0.0","1","0","85704","","null","","","null","","","","","","","","","","","","","","","","",""
"","time_out","","html-keyboard-response","543","472520","0.0-1.0-746.0-0.0","0","0","85704","","null","","","null","82","","","","","","","","","","","","","","","",""
"","ITI","","html-keyboard-response","544","473524","0.0-1.0-747.0","0","0","85704","","null","","","null","82","","","","","","","","","","","","","","","NaN",""
"","S1","","html-keyboard-response","545","473780","0.0-1.0-749.0","0","0","85704","","null","","","null","83","","","","","","","","","","","","","","","",""
"","ISI","","html-keyboard-response","546","474285","0.0-1.0-750.0","0","0","85704","","null","","","null","83","NaN","","","","","","","","","","","","","","",""
"","S2","","html-keyboard-response","547","474538","0.0-1.0-751.0","0","0","85704","","null","","","null","83","","NaN","","","","","","","","","","","","","",""
"","response","","html-keyboard-response","548","475019","0.0-1.0-752.0-0.0","0","0","85704","","479","","","75","83","","","2","83","training","adjacent","GF","7","6","R.jpg","P.jpg","0","0","1","",""
"","feedback","","html-keyboard-response","549","476025","0.0-1.0-753.0-0.0","0","0","85704","","null","","","null","83","","","","","","","","","","","","","","","",""
"","ITI","","html-keyboard-response","550","477031","0.0-1.0-756.0","0","0","85704","","null","","","null","83","","","","","","","","","","","","","","","NaN",""
"","S1","","html-keyboard-response","551","477286","0.0-1.0-758.0","0","0","85704","","null","","","null","84","","","","","","","","","","","","","","","",""
"","ISI","","html-keyboard-response","552","477791","0.0-1.0-759.0","0","0","85704","","null","","","null","84","NaN","","","","","","","","","","","","","","",""
"","S2","","html-keyboard-response","553","478047","0.0-1.0-760.0","0","0","85704","","null","","","null","84","","NaN","","","","","","","","","","","","","",""
"","response","","html-keyboard-response","554","478563","0.0-1.0-761.0-0.0","0","0","85704","","515","","","75","84","","","2","84","training","adjacent","BC","2","3","M.jpg","O.jpg","0","1","0","",""
"","feedback","","html-keyboard-response","555","479570","0.0-1.0-762.0-0.0","0","0","85704","","null","","","null","84","","","","","","","","","","","","","","","",""
"","time_out","","html-keyboard-response","556","481576","0.0-1.0-764.0-0.0","0","0","85704","","null","","","null","84","","","","","","","","","","","","","","","",""
"","ITI","","html-keyboard-response","557","482580","0.0-1.0-765.0","0","0","85704","","null","","","null","84","","","","","","","","","","","","","","","NaN",""
"","S1","","html-keyboard-response","558","482836","0.0-1.0-767.0","0","0","85704","","null","","","null","85","","","","","","","","","","","","","","","",""
"","ISI","","html-keyboard-response","559","483341","0.0-1.0-768.0","0","0","85704","","null","","","null","85","NaN","","","","","","","","","","","","","","",""
"","S2","","html-keyboard-response","560","483595","0.0-1.0-769.0","0","0","85704","","null","","","null","85","","NaN","","","","","","","","","","","","","",""
"","response","","html-keyboard-response","561","483921","0.0-1.0-770.0-0.0","0","0","85704","","325","","","75","85","","","2","85","training","adjacent","BA","2","1","M.jpg","Q.jpg","0","0","1","",""
"","feedback","","html-keyboard-response","562","484926","0.0-1.0-771.0-0.0","0","0","85704","","null","","","null","85","","","","","","","","","","","","","","","",""
"","ITI","","html-keyboard-response","563","485930","0.0-1.0-774.0","0","0","85704","","null","","","null","85","","","","","","","","","","","","","","","NaN",""
"","S1","","html-keyboard-response","564","486185","0.0-1.0-776.0","0","0","85704","","null","","","null","86","","","","","","","","","","","","","","","",""
"","ISI","","html-keyboard-response","565","486690","0.0-1.0-777.0","0","0","85704","","null","","","null","86","NaN","","","","","","","","","","","","","","",""
"","S2","","html-keyboard-response","566","486946","0.0-1.0-778.0","0","0","85704","","null","","","null","86","","NaN","","","","","","","","","","","","","",""
"","response","","html-keyboard-response","567","487405","0.0-1.0-779.0-0.0","0","0","85704","","457","","","75","86","","","2","86","training","adjacent","FE","6","5","P.jpg","N.jpg","0","0","1","",""
"","feedback","","html-keyboard-response","568","488409","0.0-1.0-780.0-0.0","0","0","85704","","null","","","null","86","","","","","","","","","","","","","","","",""
"","ITI","","html-keyboard-response","569","489413","0.0-1.0-783.0","0","0","85704","","null","","","null","86","","","","","","","","","","","","","","","NaN",""
"","S1","","html-keyboard-response","570","489669","0.0-1.0-785.0","0","0","85704","","null","","","null","87","","","","","","","","","","","","","","","",""
"","ISI","","html-keyboard-response","571","490174","0.0-1.0-786.0","0","0","85704","","213","","","75","87","k","","","","","","","","","","","","","","",""
"","S2","","html-keyboard-response","572","490429","0.0-1.0-787.0","0","0","85704","","null","","","null","87","","NaN","","","","","","","","","","","","","",""
"","response","","html-keyboard-response","573","490588","0.0-1.0-788.0-0.0","0","0","85704","","157","","","75","87","","","2","87","training","adjacent","CD","3","4","O.jpg","L.jpg","0","1","0","",""
"","feedback","","html-keyboard-response","574","491592","0.0-1.0-789.0-0.0","0","0","85704","","null","","","null","87","","","","","","","","","","","","","","","",""
"","time_out","","html-keyboard-response","575","493599","0.0-1.0-791.0-0.0","0","0","85704","","null","","","null","87","","","","","","","","","","","","","","","",""
"","ITI","","html-keyboard-response","576","494603","0.0-1.0-792.0","0","0","85704","","null","","","null","87","","","","","","","","","","","","","","","NaN",""
"","S1","","html-keyboard-response","577","494856","0.0-1.0-794.0","0","0","85704","","null","","","null","88","","","","","","","","","","","","","","","",""
"","ISI","","html-keyboard-response","578","495358","0.0-1.0-795.0","0","0","85704","","null","","","null","88","NaN","","","","","","","","","","","","","","",""
"","S2","","html-keyboard-response","579","495610","0.0-1.0-796.0","0","0","85704","","null","","","null","88","","NaN","","","","","","","","","","","","","",""
"","response","","html-keyboard-response","580","495951","0.0-1.0-797.0-0.0","0","0","85704","","340","","","75","88","","","2","88","training","adjacent","CD","3","4","O.jpg","L.jpg","0","1","0","",""
"","feedback","","html-keyboard-response","581","496955","0.0-1.0-798.0-0.0","0","0","85704","","null","","","null","88","","","","","","","","","","","","","","","",""
"","time_out","","html-keyboard-response","582","498958","0.0-1.0-800.0-0.0","0","0","85704","","null","","","null","88","","","","","","","","","","","","","","","",""
