"success","ttype","start_time","trial_type","trial_index","time_elapsed","internal_node_id","warning","missed_checkup","PID","view_history","rt","responses","repeat_instructions","key_press","index","keypress_isi","keypress_S2","block","trial_num","phase","group_type","pair_type","S1_stim","S2_stim","S1_img","S2_img","S1_chosen","S1_higher","accuracy","keypress_iti","total_bonus_tally"
"true","full_screen","d08042022hr1755","fullscreen","0","10953","0.0-0.0","0","0","39725","","","","","","","","","","","","","","","","","","","","","",""
"","instructions","","instructions","1","39941","0.0-1.0-0.0-0.0","0","0","39725","[{""page_index"":0,""viewing_time"":3331},{""page_index"":1,""viewing_time"":12950},{""page_index"":2,""viewing_time"":10402},{""page_index"":3,""viewing_time"":2300}]","28984","","","","","","","","","","","","","","","","","","","",""
"","comprehension_check","","survey-multi-choice","2","63581","0.0-1.0-0.0-1.0","0","0","39725","","23635","{""Q0"":""True"",""Q1"":""K"",""Q2"":""Only when the screen 'MAKE A CHOICE' is shown"",""Q3"":""Green mark"",""Q4"":""either D or K""}","1","","","","","","","","","","","","","","","","","",""
"","missed_instruction_checkup","","html-keyboard-response","3","66801","0.0-1.0-0.0-2.0-0.0","0","1","39725","","3215","","","32","","","","","","","","","","","","","","","","",""
"","instructions","","instructions","4","85103","0.0-1.0-0.1-0.1","0","0","39725","[{""page_index"":0,""viewing_time"":3361},{""page_index"":1,""viewing_time"":10852},{""page_index"":2,""viewing_time"":2138},{""page_index"":3,""viewing_time"":1948}]","18299","","","","","","","","","","","","","","","","","","","",""
"","comprehension_check","","survey-multi-choice","5","95766","0.0-1.0-0.1-1.1","0","0","39725","","10657","{""Q0"":""True"",""Q1"":""K"",""Q2"":""Once the second image appears and while the screen 'MAKE A CHOICE' is shown"",""Q3"":""Green mark"",""Q4"":""either D or K""}","0","","","","","","","","","","","","","","","","","",""
"","start_exp","","html-keyboard-response","6","97498","0.0-1.0-1.0","0","0","39725","","1728","","","32","","","","","","","","","","","","","","","","",""
"","S1","","html-keyboard-response","7","97753","0.0-1.0-2.0","0","0","39725","","null","","","null","0","","","","","","","","","","","","","","","",""
"","ISI","","html-keyboard-response","8","99758","0.0-1.0-3.0","0","0","39725","","null","","","null","0","NaN","","","","","","","","","","","","","","",""
"","S2","","html-keyboard-response","9","100014","0.0-1.0-4.0","0","0","39725","","null","","","null","0","","NaN","","","","","","","","","","","","","",""
"","response","","html-keyboard-response","10","101383","0.0-1.0-5.0-0.0","0","0","39725","","1366","","","75","0","","","1","0","training","adjacent","AB","1","2","M.jpg","R.jpg","1","1","1","",""
"","feedback","","html-keyboard-response","11","102387","0.0-1.0-6.0-0.0","0","0","39725","","null","","","null","0","","","","","","","","","","","","","","","",""
"","ITI","","html-keyboard-response","12","103391","0.0-1.0-9.0","0","0","39725","","null","","","null","0","","","","","","","","","","","","","","","NaN",""
"","S1","","html-keyboard-response","13","103656","0.0-1.0-11.0","0","0","39725","","null","","","null","1","","","","","","","","","","","","","","","",""
"","ISI","","html-keyboard-response","14","105671","0.0-1.0-12.0","0","0","39725","","null","","","null","1","NaN","","","","","","","","","","","","","","",""
"","S2","","html-keyboard-response","15","105925","0.0-1.0-13.0","0","0","39725","","null","","","null","1","","NaN","","","","","","","","","","","","","",""
"","response","","html-keyboard-response","16","106822","0.0-1.0-14.0-0.0","0","0","39725","","894","","","68","1","","","1","1","training","adjacent","FG","6","7","N.jpg","L.jpg","0","1","0","",""
"","feedback","","html-keyboard-response","17","107827","0.0-1.0-15.0-0.0","0","0","39725","","null","","","null","1","","","","","","","","","","","","","","","",""
"","time_out","","html-keyboard-response","18","109831","0.0-1.0-17.0-0.0","0","0","39725","","null","","","null","1","","","","","","","","","","","","","","","",""
"","ITI","","html-keyboard-response","19","110835","0.0-1.0-18.0","0","0","39725","","null","","","null","1","","","","","","","","","","","","","","","NaN",""
"","S1","","html-keyboard-response","20","111089","0.0-1.0-20.0","0","0","39725","","null","","","null","2","","","","","","","","","","","","","","","",""
"","ISI","","html-keyboard-response","21","113093","0.0-1.0-21.0","0","0","39725","","null","","","null","2","NaN","","","","","","","","","","","","","","",""
"","S2","","html-keyboard-response","22","113348","0.0-1.0-22.0","0","0","39725","","null","","","null","2","","NaN","","","","","","","","","","","","","",""
"","response","","html-keyboard-response","23","113998","0.0-1.0-23.0-0.0","0","0","39725","","646","","","75","2","","","1","2","training","adjacent","FE","6","5","N.jpg","Q.jpg","1","0","0","",""
"","feedback","","html-keyboard-response","24","115002","0.0-1.0-24.0-0.0","0","0","39725","","null","","","null","2","","","","","","","","","","","","","","","",""
"","time_out","","html-keyboard-response","25","117006","0.0-1.0-26.0-0.0","0","0","39725","","null","","","null","2","","","","","","","","","","","","","","","",""
"","ITI","","html-keyboard-response","26","118008","0.0-1.0-27.0","0","0","39725","","null","","","null","2","","","","","","","","","","","","","","","NaN",""
"","S1","","html-keyboard-response","27","118263","0.0-1.0-29.0","0","0","39725","","null","","","null","3","","","","","","","","","","","","","","","",""
"","ISI","","html-keyboard-response","28","120277","0.0-1.0-30.0","0","0","39725","","null","","","null","3","NaN","","","","","","","","","","","","","","",""
"","S2","","html-keyboard-response","29","120530","0.0-1.0-31.0","0","0","39725","","null","","","null","3","","NaN","","","","","","","","","","","","","",""
"","response","","html-keyboard-response","30","121648","0.0-1.0-32.0-0.0","0","0","39725","","1115","","","75","3","","","1","3","training","adjacent","FE","6","5","N.jpg","Q.jpg","1","0","0","",""
"","feedback","","html-keyboard-response","31","122665","0.0-1.0-33.0-0.0","0","0","39725","","null","","","null","3","","","","","","","","","","","","","","","",""
"","time_out","","html-keyboard-response","32","124669","0.0-1.0-35.0-0.0","0","0","39725","","null","","","null","3","","","","","","","","","","","","","","","",""
"","ITI","","html-keyboard-response","33","125672","0.0-1.0-36.0","0","0","39725","","null","","","null","3","","","","","","","","","","","","","","","NaN",""
"","S1","","html-keyboard-response","34","125931","0.0-1.0-38.0","0","0","39725","","null","","","null","4","","","","","","","","","","","","","","","",""
"","ISI","","html-keyboard-response","35","127935","0.0-1.0-39.0","0","0","39725","","null","","","null","4","NaN","","","","","","","","","","","","","","",""
"","S2","","html-keyboard-response","36","128189","0.0-1.0-40.0","0","0","39725","","null","","","null","4","","NaN","","","","","","","","","","","","","",""
"","response","","html-keyboard-response","37","128917","0.0-1.0-41.0-0.0","0","0","39725","","726","","","75","4","","","1","4","training","adjacent","DE","4","5","O.jpg","Q.jpg","1","1","1","",""
"","feedback","","html-keyboard-response","38","129920","0.0-1.0-42.0-0.0","0","0","39725","","null","","","null","4","","","","","","","","","","","","","","","",""
"","ITI","","html-keyboard-response","39","130935","0.0-1.0-45.0","0","0","39725","","null","","","null","4","","","","","","","","","","","","","","","NaN",""
"","S1","","html-keyboard-response","40","131189","0.0-1.0-47.0","0","0","39725","","null","","","null","5","","","","","","","","","","","","","","","",""
"","ISI","","html-keyboard-response","41","133193","0.0-1.0-48.0","0","0","39725","","null","","","null","5","NaN","","","","","","","","","","","","","","",""
"","S2","","html-keyboard-response","42","133447","0.0-1.0-49.0","0","0","39725","","null","","","null","5","","NaN","","","","","","","","","","","","","",""
"","response","","html-keyboard-response","43","133774","0.0-1.0-50.0-0.0","0","0","39725","","323","","","75","5","","","1","5","training","adjacent","EF","5","6","Q.jpg","N.jpg","1","1","1","",""
"","feedback","","html-keyboard-response","44","134779","0.0-1.0-51.0-0.0","0","0","39725","","null","","","null","5","","","","","","","","","","","","","","","",""
"","ITI","","html-keyboard-response","45","135797","0.0-1.0-54.0","0","0","39725","","null","","","null","5","","","","","","","","","","","","","","","NaN",""
"","S1","","html-keyboard-response","46","136051","0.0-1.0-56.0","0","0","39725","","null","","","null","6","","","","","","","","","","","","","","","",""
"","ISI","","html-keyboard-response","47","138055","0.0-1.0-57.0","0","0","39725","","null","","","null","6","NaN","","","","","","","","","","","","","","",""
"","S2","","html-keyboard-response","48","138310","0.0-1.0-58.0","0","0","39725","","null","","","null","6","","NaN","","","","","","","","","","","","","",""
"","response","","html-keyboard-response","49","139245","0.0-1.0-59.0-0.0","0","0","39725","","932","","","68","6","","","1","6","training","adjacent","BA","2","1","R.jpg","M.jpg","0","0","1","",""
"","feedback","","html-keyboard-response","50","140251","0.0-1.0-60.0-0.0","0","0","39725","","null","","","null","6","","","","","","","","","","","","","","","",""
"","ITI","","html-keyboard-response","51","141257","0.0-1.0-63.0","0","0","39725","","null","","","null","6","","","","","","","","","","","","","","","NaN",""
"","S1","","html-keyboard-response","52","141512","0.0-1.0-65.0","0","0","39725","","null","","","null","7","","","","","","","","","","","","","","","",""
"","ISI","","html-keyboard-response","53","143515","0.0-1.0-66.0","0","0","39725","","null","","","null","7","NaN","","","","","","","","","","","","","","",""
"","S2","","html-keyboard-response","54","143769","0.0-1.0-67.0","0","0","39725","","null","","","null","7","","NaN","","","","","","","","","","","","","",""
"","response","","html-keyboard-response","55","144454","0.0-1.0-68.0-0.0","0","0","39725","","681","","","75","7","","","1","7","training","adjacent","EF","5","6","Q.jpg","N.jpg","1","1","1","",""
"","feedback","","html-keyboard-response","56","145461","0.0-1.0-69.0-0.0","0","0","39725","","null","","","null","7","","","","","","","","","","","","","","","",""
"","ITI","","html-keyboard-response","57","146466","0.0-1.0-72.0","0","0","39725","","null","","","null","7","","","","","","","","","","","","","","","NaN",""
"","S1","","html-keyboard-response","58","146721","0.0-1.0-74.0","0","0","39725","","null","","","null","8","","","","","","","","","","","","","","","",""
"","ISI","","html-keyboard-response","59","148726","0.0-1.0-75.0","0","0","39725","","null","","","null","8","NaN","","","","","","","","","","","","","","",""
"","S2","","html-keyboard-response","60","148981","0.0-1.0-76.0","0","0","39725","","null","","","null","8","","NaN","","","","","","","","","","","","","",""
"","response","","html-keyboard-response","61","149787","0.0-1.0-77.0-0.0","0","0","39725","","801","","","68","8","","","1","8","training","adjacent","ED","5","4","Q.jpg","O.jpg","0","0","1","",""
"","feedback","","html-keyboard-response","62","150793","0.0-1.0-78.0-0.0","0","0","39725","","null","","","null","8","","","","","","","","","","","","","","","",""
"","ITI","","html-keyboard-response","63","151797","0.0-1.0-81.0","0","0","39725","","null","","","null","8","","","","","","","","","","","","","","","NaN",""
"","S1","","html-keyboard-response","64","152053","0.0-1.0-83.0","0","0","39725","","null","","","null","9","","","","","","","","","","","","","","","",""
"","ISI","","html-keyboard-response","65","154057","0.0-1.0-84.0","0","0","39725","","null","","","null","9","NaN","","","","","","","","","","","","","","",""
"","S2","","html-keyboard-response","66","154312","0.0-1.0-85.0","0","0","39725","","null","","","null","9","","NaN","","","","","","","","","","","","","",""
"","response","","html-keyboard-response","67","154819","0.0-1.0-86.0-0.0","0","0","39725","","503","","","68","9","","","1","9","training","adjacent","ED","5","4","Q.jpg","O.jpg","0","0","1","",""
"","feedback","","html-keyboard-response","68","155823","0.0-1.0-87.0-0.0","0","0","39725","","null","","","null","9","","","","","","","","","","","","","","","",""
"","ITI","","html-keyboard-response","69","156827","0.0-1.0-90.0","0","0","39725","","null","","","null","9","","","","","","","","","","","","","","","NaN",""
"","S1","","html-keyboard-response","70","157093","0.0-1.0-92.0","0","0","39725","","null","","","null","10","","","","","","","","","","","","","","","",""
"","ISI","","html-keyboard-response","71","159098","0.0-1.0-93.0","0","0","39725","","null","","","null","10","NaN","","","","","","","","","","","","","","",""
"","S2","","html-keyboard-response","72","159353","0.0-1.0-94.0","0","0","39725","","null","","","null","10","","NaN","","","","","","","","","","","","","",""
"","response","","html-keyboard-response","73","160711","0.0-1.0-95.0-0.0","0","0","39725","","1354","","","75","10","","","1","10","training","adjacent","AB","1","2","M.jpg","R.jpg","1","1","1","",""
"","feedback","","html-keyboard-response","74","161716","0.0-1.0-96.0-0.0","0","0","39725","","null","","","null","10","","","","","","","","","","","","","","","",""
"","ITI","","html-keyboard-response","75","162720","0.0-1.0-99.0","0","0","39725","","null","","","null","10","","","","","","","","","","","","","","","NaN",""
"","S1","","html-keyboard-response","76","162974","0.0-1.0-101.0","0","0","39725","","null","","","null","11","","","","","","","","","","","","","","","",""
"","ISI","","html-keyboard-response","77","164977","0.0-1.0-102.0","0","0","39725","","null","","","null","11","NaN","","","","","","","","","","","","","","",""
"","S2","","html-keyboard-response","78","165231","0.0-1.0-103.0","0","0","39725","","null","","","null","11","","NaN","","","","","","","","","","","","","",""
"","response","","html-keyboard-response","79","166102","0.0-1.0-104.0-0.0","0","0","39725","","867","","","75","11","","","1","11","training","adjacent","BA","2","1","R.jpg","M.jpg","1","0","0","",""
"","feedback","","html-keyboard-response","80","167106","0.0-1.0-105.0-0.0","0","0","39725","","null","","","null","11","","","","","","","","","","","","","","","",""
"","time_out","","html-keyboard-response","81","169111","0.0-1.0-107.0-0.0","0","0","39725","","null","","","null","11","","","","","","","","","","","","","","","",""
"","ITI","","html-keyboard-response","82","170118","0.0-1.0-108.0","0","0","39725","","null","","","null","11","","","","","","","","","","","","","","","NaN",""
"","S1","","html-keyboard-response","83","170373","0.0-1.0-110.0","0","0","39725","","null","","","null","12","","","","","","","","","","","","","","","",""
"","ISI","","html-keyboard-response","84","172376","0.0-1.0-111.0","0","0","39725","","null","","","null","12","NaN","","","","","","","","","","","","","","",""
"","S2","","html-keyboard-response","85","172636","0.0-1.0-112.0","0","0","39725","","null","","","null","12","","NaN","","","","","","","","","","","","","",""
"","response","","html-keyboard-response","86","172739","0.0-1.0-113.0-0.0","0","0","39725","","100","","","75","12","","","1","12","training","adjacent","CB","3","2","P.jpg","R.jpg","1","0","0","",""
"","feedback","","html-keyboard-response","87","173744","0.0-1.0-114.0-0.0","0","0","39725","","null","","","null","12","","","","","","","","","","","","","","","",""
"","time_out","","html-keyboard-response","88","175748","0.0-1.0-116.0-0.0","0","0","39725","","null","","","null","12","","","","","","","","","","","","","","","",""
"","ITI","","html-keyboard-response","89","176753","0.0-1.0-117.0","0","0","39725","","null","","","null","12","","","","","","","","","","","","","","","NaN",""
"","S1","","html-keyboard-response","90","177008","0.0-1.0-119.0","0","0","39725","","null","","","null","13","","","","","","","","","","","","","","","",""
"","ISI","","html-keyboard-response","91","179013","0.0-1.0-120.0","0","0","39725","","null","","","null","13","NaN","","","","","","","","","","","","","","",""
"","S2","","html-keyboard-response","92","179266","0.0-1.0-121.0","0","0","39725","","null","","","null","13","","NaN","","","","","","","","","","","","","",""
"","response","","html-keyboard-response","93","179783","0.0-1.0-122.0-0.0","0","0","39725","","513","","","68","13","","","1","13","training","adjacent","ED","5","4","Q.jpg","O.jpg","0","0","1","",""
"","feedback","","html-keyboard-response","94","180788","0.0-1.0-123.0-0.0","0","0","39725","","null","","","null","13","","","","","","","","","","","","","","","",""
"","ITI","","html-keyboard-response","95","181793","0.0-1.0-126.0","0","0","39725","","null","","","null","13","","","","","","","","","","","","","","","NaN",""
"","S1","","html-keyboard-response","96","182048","0.0-1.0-128.0","0","0","39725","","null","","","null","14","","","","","","","","","","","","","","","",""
"","ISI","","html-keyboard-response","97","184052","0.0-1.0-129.0","0","0","39725","","null","","","null","14","NaN","","","","","","","","","","","","","","",""
"","S2","","html-keyboard-response","98","184307","0.0-1.0-130.0","0","0","39725","","null","","","null","14","","NaN","","","","","","","","","","","","","",""
"","response","","html-keyboard-response","99","184705","0.0-1.0-131.0-0.0","0","0","39725","","395","","","75","14","","","1","14","training","adjacent","DE","4","5","O.jpg","Q.jpg","1","1","1","",""
"","feedback","","html-keyboard-response","100","185709","0.0-1.0-132.0-0.0","0","0","39725","","null","","","null","14","","","","","","","","","","","","","","","",""
"","ITI","","html-keyboard-response","101","186729","0.0-1.0-135.0","0","0","39725","","null","","","null","14","","","","","","","","","","","","","","","NaN",""
"","S1","","html-keyboard-response","102","186984","0.0-1.0-137.0","0","0","39725","","null","","","null","15","","","","","","","","","","","","","","","",""
"","ISI","","html-keyboard-response","103","188988","0.0-1.0-138.0","0","0","39725","","null","","","null","15","NaN","","","","","","","","","","","","","","",""
"","S2","","html-keyboard-response","104","189243","0.0-1.0-139.0","0","0","39725","","null","","","null","15","","NaN","","","","","","","","","","","","","",""
"","response","","html-keyboard-response","105","190316","0.0-1.0-140.0-0.0","0","0","39725","","1070","","","75","15","","","1","15","training","adjacent","EF","5","6","Q.jpg","N.jpg","1","1","1","",""
"","feedback","","html-keyboard-response","106","191320","0.0-1.0-141.0-0.0","0","0","39725","","null","","","null","15","","","","","","","","","","","","","","","",""
"","ITI","","html-keyboard-response","107","192323","0.0-1.0-144.0","0","0","39725","","null","","","null","15","","","","","","","","","","","","","","","NaN",""
"","S1","","html-keyboard-response","108","192576","0.0-1.0-146.0","0","0","39725","","null","","","null","16","","","","","","","","","","","","","","","",""
"","ISI","","html-keyboard-response","109","194580","0.0-1.0-147.0","0","0","39725","","null","","","null","16","NaN","","","","","","","","","","","","","","",""
"","S2","","html-keyboard-response","110","194833","0.0-1.0-148.0","0","0","39725","","null","","","null","16","","NaN","","","","","","","","","","","","","",""
"","response","","html-keyboard-response","111","195444","0.0-1.0-149.0-0.0","0","0","39725","","609","","","68","16","","","1","16","training","adjacent","DC","4","3","O.jpg","P.jpg","0","0","1","",""
"","feedback","","html-keyboard-response","112","196455","0.0-1.0-150.0-0.0","0","0","39725","","null","","","null","16","","","","","","","","","","","","","","","",""
"","ITI","","html-keyboard-response","113","197458","0.0-1.0-153.0","0","0","39725","","null","","","null","16","","","","","","","","","","","","","","","NaN",""
"","S1","","html-keyboard-response","114","197713","0.0-1.0-155.0","0","0","39725","","null","","","null","17","","","","","","","","","","","","","","","",""
"","ISI","","html-keyboard-response","115","199717","0.0-1.0-156.0","0","0","39725","","null","","","null","17","NaN","","","","","","","","","","","","","","",""
"","S2","","html-keyboard-response","116","199973","0.0-1.0-157.0","0","0","39725","","null","","","null","17","","NaN","","","","","","","","","","","","","",""
"","response","","html-keyboard-response","117","201726","0.0-1.0-158.0-0.0","0","0","39725","","null","","","null","17","","","1","17","training","adjacent","BC","2","3","R.jpg","P.jpg","NaN","1","0","",""
"","too_slow_prompt","","html-keyboard-response","118","202730","0.0-1.0-160.0-0.0","1","0","39725","","null","","","null","","","","","","","","","","","","","","","","",""
"","time_out","","html-keyboard-response","119","204734","0.0-1.0-161.0-0.0","0","0","39725","","null","","","null","17","","","","","","","","","","","","","","","",""
"","ITI","","html-keyboard-response","120","205739","0.0-1.0-162.0","0","0","39725","","null","","","null","17","","","","","","","","","","","","","","","NaN",""
"","S1","","html-keyboard-response","121","205993","0.0-1.0-164.0","0","0","39725","","null","","","null","18","","","","","","","","","","","","","","","",""
"","ISI","","html-keyboard-response","122","207998","0.0-1.0-165.0","0","0","39725","","null","","","null","18","NaN","","","","","","","","","","","","","","",""
"","S2","","html-keyboard-response","123","208254","0.0-1.0-166.0","0","0","39725","","null","","","null","18","","NaN","","","","","","","","","","","","","",""
"","response","","html-keyboard-response","124","209286","0.0-1.0-167.0-0.0","0","0","39725","","1030","","","68","18","","","1","18","training","adjacent","FE","6","5","N.jpg","Q.jpg","0","0","1","",""
"","feedback","","html-keyboard-response","125","210291","0.0-1.0-168.0-0.0","0","0","39725","","null","","","null","18","","","","","","","","","","","","","","","",""
"","ITI","","html-keyboard-response","126","211297","0.0-1.0-171.0","0","0","39725","","null","","","null","18","","","","","","","","","","","","","","","NaN",""
"","S1","","html-keyboard-response","127","211552","0.0-1.0-173.0","0","0","39725","","null","","","null","19","","","","","","","","","","","","","","","",""
"","ISI","","html-keyboard-response","128","213558","0.0-1.0-174.0","0","0","39725","","null","","","null","19","NaN","","","","","","","","","","","","","","",""
"","S2","","html-keyboard-response","129","213813","0.0-1.0-175.0","0","0","39725","","null","","","null","19","","NaN","","","","","","","","","","","","","",""
"","response","","html-keyboard-response","130","214507","0.0-1.0-176.0-0.0","0","0","39725","","692","","","68","19","","","1","19","training","adjacent","AB","1","2","M.jpg","R.jpg","0","1","0","",""
"","feedback","","html-keyboard-response","131","215512","0.0-1.0-177.0-0.0","0","0","39725","","null","","","null","19","","","","","","","","","","","","","","","",""
"","time_out","","html-keyboard-response","132","217517","0.0-1.0-179.0-0.0","0","0","39725","","null","","","null","19","","","","","","","","","","","","","","","",""
"","ITI","","html-keyboard-response","133","218520","0.0-1.0-180.0","0","0","39725","","null","","","null","19","","","","","","","","","","","","","","","NaN",""
"","S1","","html-keyboard-response","134","218774","0.0-1.0-182.0","0","0","39725","","null","","","null","20","","","","","","","","","","","","","","","",""
"","ISI","","html-keyboard-response","135","220778","0.0-1.0-183.0","0","0","39725","","null","","","null","20","NaN","","","","","","","","","","","","","","",""
"","S2","","html-keyboard-response","136","221031","0.0-1.0-184.0","0","0","39725","","null","","","null","20","","NaN","","","","","","","","","","","","","",""
"","response","","html-keyboard-response","137","221568","0.0-1.0-185.0-0.0","0","0","39725","","532","","","68","20","","","1","20","training","adjacent","FG","6","7","N.jpg","L.jpg","0","1","0","",""
"","feedback","","html-keyboard-response","138","222571","0.0-1.0-186.0-0.0","0","0","39725","","null","","","null","20","","","","","","","","","","","","","","","",""
"","time_out","","html-keyboard-response","139","224573","0.0-1.0-188.0-0.0","0","0","39725","","null","","","null","20","","","","","","","","","","","","","","","",""
"","ITI","","html-keyboard-response","140","225577","0.0-1.0-189.0","0","0","39725","","null","","","null","20","","","","","","","","","","","","","","","NaN",""
"","S1","","html-keyboard-response","141","225832","0.0-1.0-191.0","0","0","39725","","null","","","null","21","","","","","","","","","","","","","","","",""
"","ISI","","html-keyboard-response","142","227836","0.0-1.0-192.0","0","0","39725","","null","","","null","21","NaN","","","","","","","","","","","","","","",""
"","S2","","html-keyboard-response","143","228089","0.0-1.0-193.0","0","0","39725","","null","","","null","21","","NaN","","","","","","","","","","","","","",""
"","response","","html-keyboard-response","144","228481","0.0-1.0-194.0-0.0","0","0","39725","","388","","","68","21","","","1","21","training","adjacent","BC","2","3","R.jpg","P.jpg","0","1","0","",""
"","feedback","","html-keyboard-response","145","229486","0.0-1.0-195.0-0.0","0","0","39725","","null","","","null","21","","","","","","","","","","","","","","","",""
"","time_out","","html-keyboard-response","146","231490","0.0-1.0-197.0-0.0","0","0","39725","","null","","","null","21","","","","","","","","","","","","","","","",""
"","ITI","","html-keyboard-response","147","232496","0.0-1.0-198.0","0","0","39725","","null","","","null","21","","","","","","","","","","","","","","","NaN",""
"","S1","","html-keyboard-response","148","232751","0.0-1.0-200.0","0","0","39725","","null","","","null","22","","","","","","","","","","","","","","","",""
"","ISI","","html-keyboard-response","149","234756","0.0-1.0-201.0","0","0","39725","","null","","","null","22","NaN","","","","","","","","","","","","","","",""
"","S2","","html-keyboard-response","150","235010","0.0-1.0-202.0","0","0","39725","","null","","","null","22","","NaN","","","","","","","","","","","","","",""
"","response","","html-keyboard-response","151","235539","0.0-1.0-203.0-0.0","0","0","39725","","527","","","68","22","","","1","22","training","adjacent","FE","6","5","N.jpg","Q.jpg","0","0","1","",""
"","feedback","","html-keyboard-response","152","236545","0.0-1.0-204.0-0.0","0","0","39725","","null","","","null","22","","","","","","","","","","","","","","","",""
"","ITI","","html-keyboard-response","153","237565","0.0-1.0-207.0","0","0","39725","","null","","","null","22","","","","","","","","","","","","","","","NaN",""
"","S1","","html-keyboard-response","154","237820","0.0-1.0-209.0","0","0","39725","","null","","","null","23","","","","","","","","","","","","","","","",""
"","ISI","","html-keyboard-response","155","239824","0.0-1.0-210.0","0","0","39725","","null","","","null","23","NaN","","","","","","","","","","","","","","",""
"","S2","","html-keyboard-response","156","240078","0.0-1.0-211.0","0","0","39725","","null","","","null","23","","NaN","","","","","","","","","","","","","",""
"","response","","html-keyboard-response","157","240660","0.0-1.0-212.0-0.0","0","0","39725","","578","","","75","23","","","1","23","training","adjacent","BA","2","1","R.jpg","M.jpg","1","0","0","",""
"","feedback","","html-keyboard-response","158","241666","0.0-1.0-213.0-0.0","0","0","39725","","null","","","null","23","","","","","","","","","","","","","","","",""
"","time_out","","html-keyboard-response","159","243670","0.0-1.0-215.0-0.0","0","0","39725","","null","","","null","23","","","","","","","","","","","","","","","",""
"","ITI","","html-keyboard-response","160","244674","0.0-1.0-216.0","0","0","39725","","null","","","null","23","","","","","","","","","","","","","","","NaN",""
"","S1","","html-keyboard-response","161","244929","0.0-1.0-218.0","0","0","39725","","null","","","null","24","","","","","","","","","","","","","","","",""
"","ISI","","html-keyboard-response","162","246934","0.0-1.0-219.0","0","0","39725","","null","","","null","24","NaN","","","","","","","","","","","","","","",""
"","S2","","html-keyboard-response","163","247188","0.0-1.0-220.0","0","0","39725","","null","","","null","24","","NaN","","","","","","","","","","","","","",""
"","response","","html-keyboard-response","164","247540","0.0-1.0-221.0-0.0","0","0","39725","","350","","","68","24","","","1","24","training","adjacent","DC","4","3","O.jpg","P.jpg","0","0","1","",""
"","feedback","","html-keyboard-response","165","248545","0.0-1.0-222.0-0.0","0","0","39725","","null","","","null","24","","","","","","","","","","","","","","","",""
"","ITI","","html-keyboard-response","166","249548","0.0-1.0-225.0","0","0","39725","","null","","","null","24","","","","","","","","","","","","","","","NaN",""
"","S1","","html-keyboard-response","167","249802","0.0-1.0-227.0","0","0","39725","","null","","","null","25","","","","","","","","","","","","","","","",""
"","ISI","","html-keyboard-response","168","251807","0.0-1.0-228.0","0","0","39725","","null","","","null","25","NaN","","","","","","","","","","","","","","",""
"","S2","","html-keyboard-response","169","252063","0.0-1.0-229.0","0","0","39725","","null","","","null","25","","NaN","","","","","","","","","","","","","",""
"","response","","html-keyboard-response","170","252661","0.0-1.0-230.0-0.0","0","0","39725","","596","","","68","25","","","1","25","training","adjacent","AB","1","2","M.jpg","R.jpg","0","1","0","",""
"","feedback","","html-keyboard-response","171","253663","0.0-1.0-231.0-0.0","0","0","39725","","null","","","null","25","","","","","","","","","","","","","","","",""
"","time_out","","html-keyboard-response","172","255665","0.0-1.0-233.0-0.0","0","0","39725","","null","","","null","25","","","","","","","","","","","","","","","",""
"","ITI","","html-keyboard-response","173","256669","0.0-1.0-234.0","0","0","39725","","null","","","null","25","","","","","","","","","","","","","","","NaN",""
"","S1","","html-keyboard-response","174","256923","0.0-1.0-236.0","0","0","39725","","null","","","null","26","","","","","","","","","","","","","","","",""
"","ISI","","html-keyboard-response","175","258925","0.0-1.0-237.0","0","0","39725","","null","","","null","26","NaN","","","","","","","","","","","","","","",""
"","S2","","html-keyboard-response","176","259179","0.0-1.0-238.0","0","0","39725","","null","","","null","26","","NaN","","","","","","","","","","","","","",""
"","response","","html-keyboard-response","177","259517","0.0-1.0-239.0-0.0","0","0","39725","","335","","","75","26","","","1","26","training","adjacent","CB","3","2","P.jpg","R.jpg","1","0","0","",""
"","feedback","","html-keyboard-response","178","260520","0.0-1.0-240.0-0.0","0","0","39725","","null","","","null","26","","","","","","","","","","","","","","","",""
"","time_out","","html-keyboard-response","179","262524","0.0-1.0-242.0-0.0","0","0","39725","","null","","","null","26","","","","","","","","","","","","","","","",""
"","ITI","","html-keyboard-response","180","263537","0.0-1.0-243.0","0","0","39725","","null","","","null","26","","","","","","","","","","","","","","","NaN",""
"","S1","","html-keyboard-response","181","263792","0.0-1.0-245.0","0","0","39725","","null","","","null","27","","","","","","","","","","","","","","","",""
"","ISI","","html-keyboard-response","182","265795","0.0-1.0-246.0","0","0","39725","","null","","","null","27","NaN","","","","","","","","","","","","","","",""
"","S2","","html-keyboard-response","183","266050","0.0-1.0-247.0","0","0","39725","","null","","","null","27","","NaN","","","","","","","","","","","","","",""
"","response","","html-keyboard-response","184","266354","0.0-1.0-248.0-0.0","0","0","39725","","300","","","75","27","","","1","27","training","adjacent","DE","4","5","O.jpg","Q.jpg","1","1","1","",""
"","feedback","","html-keyboard-response","185","267359","0.0-1.0-249.0-0.0","0","0","39725","","null","","","null","27","","","","","","","","","","","","","","","",""
"","ITI","","html-keyboard-response","186","268364","0.0-1.0-252.0","0","0","39725","","null","","","null","27","","","","","","","","","","","","","","","NaN",""
"","S1","","html-keyboard-response","187","268618","0.0-1.0-254.0","0","0","39725","","null","","","null","28","","","","","","","","","","","","","","","",""
"","ISI","","html-keyboard-response","188","270622","0.0-1.0-255.0","0","0","39725","","null","","","null","28","NaN","","","","","","","","","","","","","","",""
"","S2","","html-keyboard-response","189","270877","0.0-1.0-256.0","0","0","39725","","null","","","null","28","","NaN","","","","","","","","","","","","","",""
"","response","","html-keyboard-response","190","271210","0.0-1.0-257.0-0.0","0","0","39725","","331","","","75","28","","","1","28","training","adjacent","CD","3","4","P.jpg","O.jpg","1","1","1","",""
"","feedback","","html-keyboard-response","191","272215","0.0-1.0-258.0-0.0","0","0","39725","","null","","","null","28","","","","","","","","","","","","","","","",""
"","ITI","","html-keyboard-response","192","273220","0.0-1.0-261.0","0","0","39725","","null","","","null","28","","","","","","","","","","","","","","","NaN",""
"","S1","","html-keyboard-response","193","273474","0.0-1.0-263.0","0","0","39725","","null","","","null","29","","","","","","","","","","","","","","","",""
"","ISI","","html-keyboard-response","194","275477","0.0-1.0-264.0","0","0","39725","","null","","","null","29","NaN","","","","","","","","","","","","","","",""
"","S2","","html-keyboard-response","195","275730","0.0-1.0-265.0","0","0","39725","","null","","","null","29","","NaN","","","","","","","","","","","","","",""
"","response","","html-keyboard-response","196","276439","0.0-1.0-266.0-0.0","0","0","39725","","705","","","75","29","","","1","29","training","adjacent","EF","5","6","Q.jpg","N.jpg","1","1","1","",""
"","feedback","","html-keyboard-response","197","277444","0.0-1.0-267.0-0.0","0","0","39725","","null","","","null","29","","","","","","","","","","","","","","","",""
"","ITI","","html-keyboard-response","198","278448","0.0-1.0-270.0","0","0","39725","","null","","","null","29","","","","","","","","","","","","","","","NaN",""
"","S1","","html-keyboard-response","199","278703","0.0-1.0-272.0","0","0","39725","","null","","","null","30","","","","","","","","","","","","","","","",""
"","ISI","","html-keyboard-response","200","280707","0.0-1.0-273.0","0","0","39725","","null","","","null","30","NaN","","","","","","","","","","","","","","",""
"","S2","","html-keyboard-response","201","280961","0.0-1.0-274.0","0","0","39725","","null","","","null","30","","NaN","","","","","","","","","","","","","",""
"","response","","html-keyboard-response","202","282081","0.0-1.0-275.0-0.0","0","0","39725","","1118","","","75","30","","","1","30","training","adjacent","CD","3","4","P.jpg","O.jpg","1","1","1","",""
"","feedback","","html-keyboard-response","203","283086","0.0-1.0-276.0-0.0","0","0","39725","","null","","","null","30","","","","","","","","","","","","","","","",""
"","ITI","","html-keyboard-response","204","284103","0.0-1.0-279.0","0","0","39725","","null","","","null","30","","","","","","","","","","","","","","","NaN",""
"","S1","","html-keyboard-response","205","284357","0.0-1.0-281.0","0","0","39725","","null","","","null","31","","","","","","","","","","","","","","","",""
"","ISI","","html-keyboard-response","206","286358","0.0-1.0-282.0","0","0","39725","","null","","","null","31","NaN","","","","","","","","","","","","","","",""
"","S2","","html-keyboard-response","207","286613","0.0-1.0-283.0","0","0","39725","","null","","","null","31","","NaN","","","","","","","","","","","","","",""
"","response","","html-keyboard-response","208","286948","0.0-1.0-284.0-0.0","0","0","39725","","332","","","75","31","","","1","31","training","adjacent","GF","7","6","L.jpg","N.jpg","1","0","0","",""
"","feedback","","html-keyboard-response","209","287952","0.0-1.0-285.0-0.0","0","0","39725","","null","","","null","31","","","","","","","","","","","","","","","",""
"","time_out","","html-keyboard-response","210","289956","0.0-1.0-287.0-0.0","0","0","39725","","null","","","null","31","","","","","","","","","","","","","","","",""
"","ITI","","html-keyboard-response","211","290961","0.0-1.0-288.0","0","0","39725","","null","","","null","31","","","","","","","","","","","","","","","NaN",""
"","S1","","html-keyboard-response","212","291216","0.0-1.0-290.0","0","0","39725","","null","","","null","32","","","","","","","","","","","","","","","",""
"","ISI","","html-keyboard-response","213","293220","0.0-1.0-291.0","0","0","39725","","null","","","null","32","NaN","","","","","","","","","","","","","","",""
"","S2","","html-keyboard-response","214","293475","0.0-1.0-292.0","0","0","39725","","null","","","null","32","","NaN","","","","","","","","","","","","","",""
"","response","","html-keyboard-response","215","294373","0.0-1.0-293.0-0.0","0","0","39725","","895","","","75","32","","","1","32","training","adjacent","CD","3","4","P.jpg","O.jpg","1","1","1","",""
"","feedback","","html-keyboard-response","216","295378","0.0-1.0-294.0-0.0","0","0","39725","","null","","","null","32","","","","","","","","","","","","","","","",""
"","ITI","","html-keyboard-response","217","296383","0.0-1.0-297.0","0","0","39725","","null","","","null","32","","","","","","","","","","","","","","","NaN",""
"","S1","","html-keyboard-response","218","296642","0.0-1.0-299.0","0","0","39725","","null","","","null","33","","","","","","","","","","","","","","","",""
"","ISI","","html-keyboard-response","219","298644","0.0-1.0-300.0","0","0","39725","","null","","","null","33","NaN","","","","","","","","","","","","","","",""
"","S2","","html-keyboard-response","220","298898","0.0-1.0-301.0","0","0","39725","","null","","","null","33","","NaN","","","","","","","","","","","","","",""
"","response","","html-keyboard-response","221","299288","0.0-1.0-302.0-0.0","0","0","39725","","386","","","75","33","","","1","33","training","adjacent","CD","3","4","P.jpg","O.jpg","1","1","1","",""
"","feedback","","html-keyboard-response","222","300292","0.0-1.0-303.0-0.0","0","0","39725","","null","","","null","33","","","","","","","","","","","","","","","",""
"","ITI","","html-keyboard-response","223","301297","0.0-1.0-306.0","0","0","39725","","null","","","null","33","","","","","","","","","","","","","","","NaN",""
"","S1","","html-keyboard-response","224","301551","0.0-1.0-308.0","0","0","39725","","null","","","null","34","","","","","","","","","","","","","","","",""
"","ISI","","html-keyboard-response","225","303554","0.0-1.0-309.0","0","0","39725","","null","","","null","34","NaN","","","","","","","","","","","","","","",""
"","S2","","html-keyboard-response","226","303808","0.0-1.0-310.0","0","0","39725","","null","","","null","34","","NaN","","","","","","","","","","","","","",""
"","response","","html-keyboard-response","227","304114","0.0-1.0-311.0-0.0","0","0","39725","","301","","","75","34","","","1","34","training","adjacent","GF","7","6","L.jpg","N.jpg","1","0","0","",""
"","feedback","","html-keyboard-response","228","305120","0.0-1.0-312.0-0.0","0","0","39725","","null","","","null","34","","","","","","","","","","","","","","","",""
"","time_out","","html-keyboard-response","229","307123","0.0-1.0-314.0-0.0","0","0","39725","","null","","","null","34","","","","","","","","","","","","","","","",""
"","ITI","","html-keyboard-response","230","308128","0.0-1.0-315.0","0","0","39725","","null","","","null","34","","","","","","","","","","","","","","","NaN",""
"","S1","","html-keyboard-response","231","308383","0.0-1.0-317.0","0","0","39725","","null","","","null","35","","","","","","","","","","","","","","","",""
"","ISI","","html-keyboard-response","232","310385","0.0-1.0-318.0","0","0","39725","","null","","","null","35","NaN","","","","","","","","","","","","","","",""
"","S2","","html-keyboard-response","233","310639","0.0-1.0-319.0","0","0","39725","","null","","","null","35","","NaN","","","","","","","","","","","","","",""
"","response","","html-keyboard-response","234","311082","0.0-1.0-320.0-0.0","0","0","39725","","441","","","68","35","","","1","35","training","adjacent","ED","5","4","Q.jpg","O.jpg","0","0","1","",""
"","feedback","","html-keyboard-response","235","312085","0.0-1.0-321.0-0.0","0","0","39725","","null","","","null","35","","","","","","","","","","","","","","","",""
"","ITI","","html-keyboard-response","236","313089","0.0-1.0-324.0","0","0","39725","","null","","","null","35","","","","","","","","","","","","","","","NaN",""
"","S1","","html-keyboard-response","237","313344","0.0-1.0-326.0","0","0","39725","","null","","","null","36","","","","","","","","","","","","","","","",""
"","ISI","","html-keyboard-response","238","315347","0.0-1.0-327.0","0","0","39725","","null","","","null","36","NaN","","","","","","","","","","","","","","",""
"","S2","","html-keyboard-response","239","315601","0.0-1.0-328.0","0","0","39725","","null","","","null","36","","NaN","","","","","","","","","","","","","",""
"","response","","html-keyboard-response","240","316309","0.0-1.0-329.0-0.0","0","0","39725","","706","","","75","36","","","1","36","training","adjacent","FG","6","7","N.jpg","L.jpg","1","1","1","",""
"","feedback","","html-keyboard-response","241","317314","0.0-1.0-330.0-0.0","0","0","39725","","null","","","null","36","","","","","","","","","","","","","","","",""
"","ITI","","html-keyboard-response","242","318318","0.0-1.0-333.0","0","0","39725","","null","","","null","36","","","","","","","","","","","","","","","NaN",""
"","S1","","html-keyboard-response","243","318574","0.0-1.0-335.0","0","0","39725","","null","","","null","37","","","","","","","","","","","","","","","",""
"","ISI","","html-keyboard-response","244","320578","0.0-1.0-336.0","0","0","39725","","null","","","null","37","NaN","","","","","","","","","","","","","","",""
"","S2","","html-keyboard-response","245","320833","0.0-1.0-337.0","0","0","39725","","null","","","null","37","","NaN","","","","","","","","","","","","","",""
"","response","","html-keyboard-response","246","321140","0.0-1.0-338.0-0.0","0","0","39725","","304","","","68","37","","","1","37","training","adjacent","BC","2","3","R.jpg","P.jpg","0","1","0","",""
"","feedback","","html-keyboard-response","247","322145","0.0-1.0-339.0-0.0","0","0","39725","","null","","","null","37","","","","","","","","","","","","","","","",""
"","time_out","","html-keyboard-response","248","324149","0.0-1.0-341.0-0.0","0","0","39725","","null","","","null","37","","","","","","","","","","","","","","","",""
"","ITI","","html-keyboard-response","249","325155","0.0-1.0-342.0","0","0","39725","","null","","","null","37","","","","","","","","","","","","","","","NaN",""
"","S1","","html-keyboard-response","250","325410","0.0-1.0-344.0","0","0","39725","","null","","","null","38","","","","","","","","","","","","","","","",""
"","ISI","","html-keyboard-response","251","327413","0.0-1.0-345.0","0","0","39725","","null","","","null","38","NaN","","","","","","","","","","","","","","",""
"","S2","","html-keyboard-response","252","327665","0.0-1.0-346.0","0","0","39725","","null","","","null","38","","NaN","","","","","","","","","","","","","",""
"","response","","html-keyboard-response","253","328392","0.0-1.0-347.0-0.0","0","0","39725","","722","","","68","38","","","1","38","training","adjacent","CB","3","2","P.jpg","R.jpg","0","0","1","",""
"","feedback","","html-keyboard-response","254","329397","0.0-1.0-348.0-0.0","0","0","39725","","null","","","null","38","","","","","","","","","","","","","","","",""
"","ITI","","html-keyboard-response","255","330403","0.0-1.0-351.0","0","0","39725","","null","","","null","38","","","","","","","","","","","","","","","NaN",""
"","S1","","html-keyboard-response","256","330668","0.0-1.0-353.0","0","0","39725","","null","","","null","39","","","","","","","","","","","","","","","",""
"","ISI","","html-keyboard-response","257","332672","0.0-1.0-354.0","0","0","39725","","null","","","null","39","NaN","","","","","","","","","","","","","","",""
"","S2","","html-keyboard-response","258","332925","0.0-1.0-355.0","0","0","39725","","null","","","null","39","","NaN","","","","","","","","","","","","","",""
"","response","","html-keyboard-response","259","333323","0.0-1.0-356.0-0.0","0","0","39725","","395","","","75","39","","","1","39","training","adjacent","GF","7","6","L.jpg","N.jpg","1","0","0","",""
"","feedback","","html-keyboard-response","260","334327","0.0-1.0-357.0-0.0","0","0","39725","","null","","","null","39","","","","","","","","","","","","","","","",""
"","time_out","","html-keyboard-response","261","336331","0.0-1.0-359.0-0.0","0","0","39725","","null","","","null","39","","","","","","","","","","","","","","","",""
"","ITI","","html-keyboard-response","262","337343","0.0-1.0-360.0","0","0","39725","","null","","","null","39","","","","","","","","","","","","","","","NaN",""
"","S1","","html-keyboard-response","263","337596","0.0-1.0-362.0","0","0","39725","","null","","","null","40","","","","","","","","","","","","","","","",""
"","ISI","","html-keyboard-response","264","339599","0.0-1.0-363.0","0","0","39725","","null","","","null","40","NaN","","","","","","","","","","","","","","",""
"","S2","","html-keyboard-response","265","339853","0.0-1.0-364.0","0","0","39725","","null","","","null","40","","NaN","","","","","","","","","","","","","",""
"","response","","html-keyboard-response","266","340999","0.0-1.0-365.0-0.0","0","0","39725","","1143","","","68","40","","","1","40","training","adjacent","GF","7","6","L.jpg","N.jpg","0","0","1","",""
"","feedback","","html-keyboard-response","267","342011","0.0-1.0-366.0-0.0","0","0","39725","","null","","","null","40","","","","","","","","","","","","","","","",""
"","ITI","","html-keyboard-response","268","343028","0.0-1.0-369.0","0","0","39725","","null","","","null","40","","","","","","","","","","","","","","","NaN",""
"","S1","","html-keyboard-response","269","343282","0.0-1.0-371.0","0","0","39725","","null","","","null","41","","","","","","","","","","","","","","","",""
"","ISI","","html-keyboard-response","270","345287","0.0-1.0-372.0","0","0","39725","","null","","","null","41","NaN","","","","","","","","","","","","","","",""
"","S2","","html-keyboard-response","271","345541","0.0-1.0-373.0","0","0","39725","","null","","","null","41","","NaN","","","","","","","","","","","","","",""
"","response","","html-keyboard-response","272","346307","0.0-1.0-374.0-0.0","0","0","39725","","761","","","75","41","","","1","41","training","adjacent","DE","4","5","O.jpg","Q.jpg","1","1","1","",""
"","feedback","","html-keyboard-response","273","347320","0.0-1.0-375.0-0.0","0","0","39725","","null","","","null","41","","","","","","","","","","","","","","","",""
"","ITI","","html-keyboard-response","274","348325","0.0-1.0-378.0","0","0","39725","","null","","","null","41","","","","","","","","","","","","","","","NaN",""
"","S1","","html-keyboard-response","275","348578","0.0-1.0-380.0","0","0","39725","","null","","","null","42","","","","","","","","","","","","","","","",""
"","ISI","","html-keyboard-response","276","350583","0.0-1.0-381.0","0","0","39725","","null","","","null","42","NaN","","","","","","","","","","","","","","",""
"","S2","","html-keyboard-response","277","350837","0.0-1.0-382.0","0","0","39725","","null","","","null","42","","NaN","","","","","","","","","","","","","",""
"","response","","html-keyboard-response","278","351335","0.0-1.0-383.0-0.0","0","0","39725","","496","","","68","42","","","1","42","training","adjacent","BA","2","1","R.jpg","M.jpg","0","0","1","",""
"","feedback","","html-keyboard-response","279","352338","0.0-1.0-384.0-0.0","0","0","39725","","null","","","null","42","","","","","","","","","","","","","","","",""
"","ITI","","html-keyboard-response","280","353341","0.0-1.0-387.0","0","0","39725","","null","","","null","42","","","","","","","","","","","","","","","NaN",""
"","S1","","html-keyboard-response","281","353602","0.0-1.0-389.0","0","0","39725","","null","","","null","43","","","","","","","","","","","","","","","",""
"","ISI","","html-keyboard-response","282","355606","0.0-1.0-390.0","0","0","39725","","null","","","null","43","NaN","","","","","","","","","","","","","","",""
"","S2","","html-keyboard-response","283","355860","0.0-1.0-391.0","0","0","39725","","null","","","null","43","","NaN","","","","","","","","","","","","","",""
"","response","","html-keyboard-response","284","356493","0.0-1.0-392.0-0.0","0","0","39725","","629","","","75","43","","","1","43","training","adjacent","CB","3","2","P.jpg","R.jpg","1","0","0","",""
"","feedback","","html-keyboard-response","285","357497","0.0-1.0-393.0-0.0","0","0","39725","","null","","","null","43","","","","","","","","","","","","","","","",""
"","time_out","","html-keyboard-response","286","359500","0.0-1.0-395.0-0.0","0","0","39725","","null","","","null","43","","","","","","","","","","","","","","","",""
"","ITI","","html-keyboard-response","287","360503","0.0-1.0-396.0","0","0","39725","","null","","","null","43","","","","","","","","","","","","","","","NaN",""
"","S1","","html-keyboard-response","288","360757","0.0-1.0-398.0","0","0","39725","","null","","","null","44","","","","","","","","","","","","","","","",""
"","ISI","","html-keyboard-response","289","362760","0.0-1.0-399.0","0","0","39725","","null","","","null","44","NaN","","","","","","","","","","","","","","",""
"","S2","","html-keyboard-response","290","363013","0.0-1.0-400.0","0","0","39725","","null","","","null","44","","NaN","","","","","","","","","","","","","",""
"","response","","html-keyboard-response","291","363367","0.0-1.0-401.0-0.0","0","0","39725","","349","","","75","44","","","1","44","training","adjacent","BC","2","3","R.jpg","P.jpg","1","1","1","",""
"","feedback","","html-keyboard-response","292","364372","0.0-1.0-402.0-0.0","0","0","39725","","null","","","null","44","","","","","","","","","","","","","","","",""
"","ITI","","html-keyboard-response","293","365376","0.0-1.0-405.0","0","0","39725","","null","","","null","44","","","","","","","","","","","","","","","NaN",""
"","S1","","html-keyboard-response","294","365631","0.0-1.0-407.0","0","0","39725","","null","","","null","45","","","","","","","","","","","","","","","",""
"","ISI","","html-keyboard-response","295","367636","0.0-1.0-408.0","0","0","39725","","null","","","null","45","NaN","","","","","","","","","","","","","","",""
"","S2","","html-keyboard-response","296","367891","0.0-1.0-409.0","0","0","39725","","null","","","null","45","","NaN","","","","","","","","","","","","","",""
"","response","","html-keyboard-response","297","368761","0.0-1.0-410.0-0.0","0","0","39725","","866","","","68","45","","","1","45","training","adjacent","DC","4","3","O.jpg","P.jpg","0","0","1","",""
"","feedback","","html-keyboard-response","298","369766","0.0-1.0-411.0-0.0","0","0","39725","","null","","","null","45","","","","","","","","","","","","","","","",""
"","ITI","","html-keyboard-response","299","370771","0.0-1.0-414.0","0","0","39725","","null","","","null","45","","","","","","","","","","","","","","","NaN",""
"","S1","","html-keyboard-response","300","371025","0.0-1.0-416.0","0","0","39725","","null","","","null","46","","","","","","","","","","","","","","","",""
"","ISI","","html-keyboard-response","301","373029","0.0-1.0-417.0","0","0","39725","","null","","","null","46","NaN","","","","","","","","","","","","","","",""
"","S2","","html-keyboard-response","302","373284","0.0-1.0-418.0","0","0","39725","","null","","","null","46","","NaN","","","","","","","","","","","","","",""
"","response","","html-keyboard-response","303","374365","0.0-1.0-419.0-0.0","0","0","39725","","1079","","","75","46","","","1","46","training","adjacent","FG","6","7","N.jpg","L.jpg","1","1","1","",""
"","feedback","","html-keyboard-response","304","375368","0.0-1.0-420.0-0.0","0","0","39725","","null","","","null","46","","","","","","","","","","","","","","","",""
"","ITI","","html-keyboard-response","305","376372","0.0-1.0-423.0","0","0","39725","","null","","","null","46","","","","","","","","","","","","","","","NaN",""
"","S1","","html-keyboard-response","306","376625","0.0-1.0-425.0","0","0","39725","","null","","","null","47","","","","","","","","","","","","","","","",""
"","ISI","","html-keyboard-response","307","378630","0.0-1.0-426.0","0","0","39725","","null","","","null","47","NaN","","","","","","","","","","","","","","",""
"","S2","","html-keyboard-response","308","378885","0.0-1.0-427.0","0","0","39725","","null","","","null","47","","NaN","","","","","","","","","","","","","",""
"","response","","html-keyboard-response","309","379683","0.0-1.0-428.0-0.0","0","0","39725","","794","","","68","47","","","1","47","training","adjacent","DC","4","3","O.jpg","P.jpg","0","0","1","",""
"","feedback","","html-keyboard-response","310","380689","0.0-1.0-429.0-0.0","0","0","39725","","null","","","null","47","","","","","","","","","","","","","","","",""
"","ITI","","html-keyboard-response","311","381694","0.0-1.0-432.0","0","0","39725","","null","","","null","47","","","","","","","","","","","","","","","NaN",""
"","block_over","","html-keyboard-response","312","385770","0.0-1.0-433.0-0.0","0","0","39725","","4073","","","32","47","","","","","","","","","","","","","","","",""
"","S1","","html-keyboard-response","313","386023","0.0-1.0-434.0","0","0","39725","","null","","","null","48","","","","","","","","","","","","","","","",""
"","ISI","","html-keyboard-response","314","388029","0.0-1.0-435.0","0","0","39725","","null","","","null","48","NaN","","","","","","","","","","","","","","",""
"","S2","","html-keyboard-response","315","388284","0.0-1.0-436.0","0","0","39725","","null","","","null","48","","NaN","","","","","","","","","","","","","",""
"","response","","html-keyboard-response","316","389011","0.0-1.0-437.0-0.0","0","0","39725","","723","","","75","48","","","2","48","training","adjacent","BA","2","1","R.jpg","M.jpg","1","0","0","",""
"","feedback","","html-keyboard-response","317","390016","0.0-1.0-438.0-0.0","0","0","39725","","null","","","null","48","","","","","","","","","","","","","","","",""
"","time_out","","html-keyboard-response","318","392020","0.0-1.0-440.0-0.0","0","0","39725","","null","","","null","48","","","","","","","","","","","","","","","",""
"","ITI","","html-keyboard-response","319","393025","0.0-1.0-441.0","0","0","39725","","null","","","null","48","","","","","","","","","","","","","","","NaN",""
"","S1","","html-keyboard-response","320","393279","0.0-1.0-443.0","0","0","39725","","null","","","null","49","","","","","","","","","","","","","","","",""
"","ISI","","html-keyboard-response","321","395283","0.0-1.0-444.0","0","0","39725","","null","","","null","49","NaN","","","","","","","","","","","","","","",""
"","S2","","html-keyboard-response","322","395539","0.0-1.0-445.0","0","0","39725","","null","","","null","49","","NaN","","","","","","","","","","","","","",""
"","response","","html-keyboard-response","323","396248","0.0-1.0-446.0-0.0","0","0","39725","","704","","","75","49","","","2","49","training","adjacent","CD","3","4","P.jpg","O.jpg","1","1","1","",""
"","feedback","","html-keyboard-response","324","397252","0.0-1.0-447.0-0.0","0","0","39725","","null","","","null","49","","","","","","","","","","","","","","","",""
"","ITI","","html-keyboard-response","325","398256","0.0-1.0-450.0","0","0","39725","","null","","","null","49","","","","","","","","","","","","","","","NaN",""
"","S1","","html-keyboard-response","326","398511","0.0-1.0-452.0","0","0","39725","","null","","","null","50","","","","","","","","","","","","","","","",""
"","ISI","","html-keyboard-response","327","400515","0.0-1.0-453.0","0","0","39725","","null","","","null","50","NaN","","","","","","","","","","","","","","",""
"","S2","","html-keyboard-response","328","400769","0.0-1.0-454.0","0","0","39725","","null","","","null","50","","NaN","","","","","","","","","","","","","",""
"","response","","html-keyboard-response","329","401378","0.0-1.0-455.0-0.0","0","0","39725","","606","","","75","50","","","2","50","training","adjacent","DE","4","5","O.jpg","Q.jpg","1","1","1","",""
"","feedback","","html-keyboard-response","330","402383","0.0-1.0-456.0-0.0","0","0","39725","","null","","","null","50","","","","","","","","","","","","","","","",""
"","ITI","","html-keyboard-response","331","403386","0.0-1.0-459.0","0","0","39725","","null","","","null","50","","","","","","","","","","","","","","","NaN",""
"","S1","","html-keyboard-response","332","403640","0.0-1.0-461.0","0","0","39725","","null","","","null","51","","","","","","","","","","","","","","","",""
"","ISI","","html-keyboard-response","333","405643","0.0-1.0-462.0","0","0","39725","","null","","","null","51","NaN","","","","","","","","","","","","","","",""
"","S2","","html-keyboard-response","334","405899","0.0-1.0-463.0","0","0","39725","","null","","","null","51","","NaN","","","","","","","","","","","","","",""
"","response","","html-keyboard-response","335","406394","0.0-1.0-464.0-0.0","0","0","39725","","492","","","68","51","","","2","51","training","adjacent","BA","2","1","R.jpg","M.jpg","0","0","1","",""
"","feedback","","html-keyboard-response","336","407399","0.0-1.0-465.0-0.0","0","0","39725","","null","","","null","51","","","","","","","","","","","","","","","",""
"","ITI","","html-keyboard-response","337","408403","0.0-1.0-468.0","0","0","39725","","null","","","null","51","","","","","","","","","","","","","","","NaN",""
"","S1","","html-keyboard-response","338","408658","0.0-1.0-470.0","0","0","39725","","null","","","null","52","","","","","","","","","","","","","","","",""
"","ISI","","html-keyboard-response","339","410661","0.0-1.0-471.0","0","0","39725","","null","","","null","52","NaN","","","","","","","","","","","","","","",""
"","S2","","html-keyboard-response","340","410916","0.0-1.0-472.0","0","0","39725","","null","","","null","52","","NaN","","","","","","","","","","","","","",""
"","response","","html-keyboard-response","341","411383","0.0-1.0-473.0-0.0","0","0","39725","","466","","","75","52","","","2","52","training","adjacent","GF","7","6","L.jpg","N.jpg","1","0","0","",""
"","feedback","","html-keyboard-response","342","412388","0.0-1.0-474.0-0.0","0","0","39725","","null","","","null","52","","","","","","","","","","","","","","","",""
"","time_out","","html-keyboard-response","343","414400","0.0-1.0-476.0-0.0","0","0","39725","","null","","","null","52","","","","","","","","","","","","","","","",""
"","ITI","","html-keyboard-response","344","415403","0.0-1.0-477.0","0","0","39725","","null","","","null","52","","","","","","","","","","","","","","","NaN",""
"","S1","","html-keyboard-response","345","415657","0.0-1.0-479.0","0","0","39725","","null","","","null","53","","","","","","","","","","","","","","","",""
"","ISI","","html-keyboard-response","346","417662","0.0-1.0-480.0","0","0","39725","","null","","","null","53","NaN","","","","","","","","","","","","","","",""
"","S2","","html-keyboard-response","347","417914","0.0-1.0-481.0","0","0","39725","","null","","","null","53","","NaN","","","","","","","","","","","","","",""
"","response","","html-keyboard-response","348","418862","0.0-1.0-482.0-0.0","0","0","39725","","945","","","75","53","","","2","53","training","adjacent","BC","2","3","R.jpg","P.jpg","1","1","1","",""
"","feedback","","html-keyboard-response","349","419867","0.0-1.0-483.0-0.0","0","0","39725","","null","","","null","53","","","","","","","","","","","","","","","",""
"","ITI","","html-keyboard-response","350","420872","0.0-1.0-486.0","0","0","39725","","null","","","null","53","","","","","","","","","","","","","","","NaN",""
"","S1","","html-keyboard-response","351","421128","0.0-1.0-488.0","0","0","39725","","null","","","null","54","","","","","","","","","","","","","","","",""
"","ISI","","html-keyboard-response","352","423131","0.0-1.0-489.0","0","0","39725","","null","","","null","54","NaN","","","","","","","","","","","","","","",""
"","S2","","html-keyboard-response","353","423386","0.0-1.0-490.0","0","0","39725","","null","","","null","54","","NaN","","","","","","","","","","","","","",""
"","response","","html-keyboard-response","354","423835","0.0-1.0-491.0-0.0","0","0","39725","","446","","","68","54","","","2","54","training","adjacent","ED","5","4","Q.jpg","O.jpg","0","0","1","",""
"","feedback","","html-keyboard-response","355","424841","0.0-1.0-492.0-0.0","0","0","39725","","null","","","null","54","","","","","","","","","","","","","","","",""
"","ITI","","html-keyboard-response","356","425847","0.0-1.0-495.0","0","0","39725","","null","","","null","54","","","","","","","","","","","","","","","NaN",""
"","S1","","html-keyboard-response","357","426101","0.0-1.0-497.0","0","0","39725","","null","","","null","55","","","","","","","","","","","","","","","",""
"","ISI","","html-keyboard-response","358","428104","0.0-1.0-498.0","0","0","39725","","null","","","null","55","NaN","","","","","","","","","","","","","","",""
"","S2","","html-keyboard-response","359","428358","0.0-1.0-499.0","0","0","39725","","null","","","null","55","","NaN","","","","","","","","","","","","","",""
"","response","","html-keyboard-response","360","428757","0.0-1.0-500.0-0.0","0","0","39725","","397","","","68","55","","","2","55","training","adjacent","ED","5","4","Q.jpg","O.jpg","0","0","1","",""
"","feedback","","html-keyboard-response","361","429760","0.0-1.0-501.0-0.0","0","0","39725","","null","","","null","55","","","","","","","","","","","","","","","",""
"","ITI","","html-keyboard-response","362","430765","0.0-1.0-504.0","0","0","39725","","null","","","null","55","","","","","","","","","","","","","","","NaN",""
"","S1","","html-keyboard-response","363","431019","0.0-1.0-506.0","0","0","39725","","null","","","null","56","","","","","","","","","","","","","","","",""
"","ISI","","html-keyboard-response","364","433023","0.0-1.0-507.0","0","0","39725","","null","","","null","56","NaN","","","","","","","","","","","","","","",""
"","S2","","html-keyboard-response","365","433276","0.0-1.0-508.0","0","0","39725","","null","","","null","56","","NaN","","","","","","","","","","","","","",""
"","response","","html-keyboard-response","366","434166","0.0-1.0-509.0-0.0","0","0","39725","","887","","","75","56","","","2","56","training","adjacent","FG","6","7","N.jpg","L.jpg","1","1","1","",""
"","feedback","","html-keyboard-response","367","435172","0.0-1.0-510.0-0.0","0","0","39725","","null","","","null","56","","","","","","","","","","","","","","","",""
"","ITI","","html-keyboard-response","368","436177","0.0-1.0-513.0","0","0","39725","","null","","","null","56","","","","","","","","","","","","","","","NaN",""
"","S1","","html-keyboard-response","369","436432","0.0-1.0-515.0","0","0","39725","","null","","","null","57","","","","","","","","","","","","","","","",""
"","ISI","","html-keyboard-response","370","438436","0.0-1.0-516.0","0","0","39725","","null","","","null","57","NaN","","","","","","","","","","","","","","",""
"","S2","","html-keyboard-response","371","438692","0.0-1.0-517.0","0","0","39725","","null","","","null","57","","NaN","","","","","","","","","","","","","",""
"","response","","html-keyboard-response","372","439367","0.0-1.0-518.0-0.0","0","0","39725","","673","","","68","57","","","2","57","training","adjacent","ED","5","4","Q.jpg","O.jpg","0","0","1","",""
"","feedback","","html-keyboard-response","373","440372","0.0-1.0-519.0-0.0","0","0","39725","","null","","","null","57","","","","","","","","","","","","","","","",""
"","ITI","","html-keyboard-response","374","441377","0.0-1.0-522.0","0","0","39725","","null","","","null","57","","","","","","","","","","","","","","","NaN",""
"","S1","","html-keyboard-response","375","441632","0.0-1.0-524.0","0","0","39725","","null","","","null","58","","","","","","","","","","","","","","","",""
"","ISI","","html-keyboard-response","376","443636","0.0-1.0-525.0","0","0","39725","","null","","","null","58","NaN","","","","","","","","","","","","","","",""
"","S2","","html-keyboard-response","377","443891","0.0-1.0-526.0","0","0","39725","","null","","","null","58","","NaN","","","","","","","","","","","","","",""
"","response","","html-keyboard-response","378","444242","0.0-1.0-527.0-0.0","0","0","39725","","348","","","75","58","","","2","58","training","adjacent","FG","6","7","N.jpg","L.jpg","1","1","1","",""
"","feedback","","html-keyboard-response","379","445248","0.0-1.0-528.0-0.0","0","0","39725","","null","","","null","58","","","","","","","","","","","","","","","",""
"","ITI","","html-keyboard-response","380","446262","0.0-1.0-531.0","0","0","39725","","null","","","null","58","","","","","","","","","","","","","","","NaN",""
"","S1","","html-keyboard-response","381","446517","0.0-1.0-533.0","0","0","39725","","null","","","null","59","","","","","","","","","","","","","","","",""
"","ISI","","html-keyboard-response","382","448522","0.0-1.0-534.0","0","0","39725","","null","","","null","59","NaN","","","","","","","","","","","","","","",""
"","S2","","html-keyboard-response","383","448778","0.0-1.0-535.0","0","0","39725","","null","","","null","59","","NaN","","","","","","","","","","","","","",""
"","response","","html-keyboard-response","384","449241","0.0-1.0-536.0-0.0","0","0","39725","","460","","","75","59","","","2","59","training","adjacent","FG","6","7","N.jpg","L.jpg","1","1","1","",""
"","feedback","","html-keyboard-response","385","450245","0.0-1.0-537.0-0.0","0","0","39725","","null","","","null","59","","","","","","","","","","","","","","","",""
"","ITI","","html-keyboard-response","386","451247","0.0-1.0-540.0","0","0","39725","","null","","","null","59","","","","","","","","","","","","","","","NaN",""
"","S1","","html-keyboard-response","387","451501","0.0-1.0-542.0","0","0","39725","","null","","","null","60","","","","","","","","","","","","","","","",""
"","ISI","","html-keyboard-response","388","453504","0.0-1.0-543.0","0","0","39725","","null","","","null","60","NaN","","","","","","","","","","","","","","",""
"","S2","","html-keyboard-response","389","453759","0.0-1.0-544.0","0","0","39725","","null","","","null","60","","NaN","","","","","","","","","","","","","",""
"","response","","html-keyboard-response","390","454306","0.0-1.0-545.0-0.0","0","0","39725","","544","","","75","60","","","2","60","training","adjacent","CD","3","4","P.jpg","O.jpg","1","1","1","",""
"","feedback","","html-keyboard-response","391","455310","0.0-1.0-546.0-0.0","0","0","39725","","null","","","null","60","","","","","","","","","","","","","","","",""
"","ITI","","html-keyboard-response","392","456313","0.0-1.0-549.0","0","0","39725","","null","","","null","60","","","","","","","","","","","","","","","NaN",""
"","S1","","html-keyboard-response","393","456568","0.0-1.0-551.0","0","0","39725","","null","","","null","61","","","","","","","","","","","","","","","",""
"","ISI","","html-keyboard-response","394","458571","0.0-1.0-552.0","0","0","39725","","null","","","null","61","NaN","","","","","","","","","","","","","","",""
"","S2","","html-keyboard-response","395","458825","0.0-1.0-553.0","0","0","39725","","null","","","null","61","","NaN","","","","","","","","","","","","","",""
"","response","","html-keyboard-response","396","459487","0.0-1.0-554.0-0.0","0","0","39725","","658","","","75","61","","","2","61","training","adjacent","EF","5","6","Q.jpg","N.jpg","1","1","1","",""
"","feedback","","html-keyboard-response","397","460492","0.0-1.0-555.0-0.0","0","0","39725","","null","","","null","61","","","","","","","","","","","","","","","",""
"","ITI","","html-keyboard-response","398","461498","0.0-1.0-558.0","0","0","39725","","null","","","null","61","","","","","","","","","","","","","","","NaN",""
"","S1","","html-keyboard-response","399","461752","0.0-1.0-560.0","0","0","39725","","null","","","null","62","","","","","","","","","","","","","","","",""
"","ISI","","html-keyboard-response","400","463757","0.0-1.0-561.0","0","0","39725","","null","","","null","62","NaN","","","","","","","","","","","","","","",""
"","S2","","html-keyboard-response","401","464013","0.0-1.0-562.0","0","0","39725","","null","","","null","62","","NaN","","","","","","","","","","","","","",""
"","response","","html-keyboard-response","402","464621","0.0-1.0-563.0-0.0","0","0","39725","","605","","","75","62","","","2","62","training","adjacent","EF","5","6","Q.jpg","N.jpg","1","1","1","",""
"","feedback","","html-keyboard-response","403","465626","0.0-1.0-564.0-0.0","0","0","39725","","null","","","null","62","","","","","","","","","","","","","","","",""
"","ITI","","html-keyboard-response","404","466631","0.0-1.0-567.0","0","0","39725","","null","","","null","62","","","","","","","","","","","","","","","NaN",""
"","S1","","html-keyboard-response","405","466885","0.0-1.0-569.0","0","0","39725","","null","","","null","63","","","","","","","","","","","","","","","",""
"","ISI","","html-keyboard-response","406","468890","0.0-1.0-570.0","0","0","39725","","null","","","null","63","NaN","","","","","","","","","","","","","","",""
"","S2","","html-keyboard-response","407","469145","0.0-1.0-571.0","0","0","39725","","null","","","null","63","","NaN","","","","","","","","","","","","","",""
"","response","","html-keyboard-response","408","469385","0.0-1.0-572.0-0.0","0","0","39725","","239","","","68","63","","","2","63","training","adjacent","GF","7","6","L.jpg","N.jpg","0","0","1","",""
"","feedback","","html-keyboard-response","409","470389","0.0-1.0-573.0-0.0","0","0","39725","","null","","","null","63","","","","","","","","","","","","","","","",""
"","ITI","","html-keyboard-response","410","471392","0.0-1.0-576.0","0","0","39725","","null","","","null","63","","","","","","","","","","","","","","","NaN",""
"","S1","","html-keyboard-response","411","471656","0.0-1.0-578.0","0","0","39725","","null","","","null","64","","","","","","","","","","","","","","","",""
"","ISI","","html-keyboard-response","412","473659","0.0-1.0-579.0","0","0","39725","","null","","","null","64","NaN","","","","","","","","","","","","","","",""
"","S2","","html-keyboard-response","413","473921","0.0-1.0-580.0","0","0","39725","","null","","","null","64","","NaN","","","","","","","","","","","","","",""
"","response","","html-keyboard-response","414","474602","0.0-1.0-581.0-0.0","0","0","39725","","677","","","68","64","","","2","64","training","adjacent","GF","7","6","L.jpg","N.jpg","0","0","1","",""
"","feedback","","html-keyboard-response","415","475608","0.0-1.0-582.0-0.0","0","0","39725","","null","","","null","64","","","","","","","","","","","","","","","",""
"","ITI","","html-keyboard-response","416","476619","0.0-1.0-585.0","0","0","39725","","null","","","null","64","","","","","","","","","","","","","","","NaN",""
"","S1","","html-keyboard-response","417","476873","0.0-1.0-587.0","0","0","39725","","null","","","null","65","","","","","","","","","","","","","","","",""
"","ISI","","html-keyboard-response","418","478876","0.0-1.0-588.0","0","0","39725","","null","","","null","65","NaN","","","","","","","","","","","","","","",""
"","S2","","html-keyboard-response","419","479131","0.0-1.0-589.0","0","0","39725","","null","","","null","65","","NaN","","","","","","","","","","","","","",""
"","response","","html-keyboard-response","420","480546","0.0-1.0-590.0-0.0","0","0","39725","","1410","","","75","65","","","2","65","training","adjacent","DE","4","5","O.jpg","Q.jpg","1","1","1","",""
"","feedback","","html-keyboard-response","421","481551","0.0-1.0-591.0-0.0","0","0","39725","","null","","","null","65","","","","","","","","","","","","","","","",""
"","ITI","","html-keyboard-response","422","482554","0.0-1.0-594.0","0","0","39725","","null","","","null","65","","","","","","","","","","","","","","","NaN",""
"","S1","","html-keyboard-response","423","482806","0.0-1.0-596.0","0","0","39725","","null","","","null","66","","","","","","","","","","","","","","","",""
"","ISI","","html-keyboard-response","424","484809","0.0-1.0-597.0","0","0","39725","","null","","","null","66","NaN","","","","","","","","","","","","","","",""
"","S2","","html-keyboard-response","425","485063","0.0-1.0-598.0","0","0","39725","","null","","","null","66","","NaN","","","","","","","","","","","","","",""
"","response","","html-keyboard-response","426","485554","0.0-1.0-599.0-0.0","0","0","39725","","489","","","68","66","","","2","66","training","adjacent","CB","3","2","P.jpg","R.jpg","0","0","1","",""
"","feedback","","html-keyboard-response","427","486557","0.0-1.0-600.0-0.0","0","0","39725","","null","","","null","66","","","","","","","","","","","","","","","",""
"","ITI","","html-keyboard-response","428","487560","0.0-1.0-603.0","0","0","39725","","null","","","null","66","","","","","","","","","","","","","","","NaN",""
"","S1","","html-keyboard-response","429","487814","0.0-1.0-605.0","0","0","39725","","null","","","null","67","","","","","","","","","","","","","","","",""
"","ISI","","html-keyboard-response","430","489819","0.0-1.0-606.0","0","0","39725","","null","","","null","67","NaN","","","","","","","","","","","","","","",""
"","S2","","html-keyboard-response","431","490072","0.0-1.0-607.0","0","0","39725","","null","","","null","67","","NaN","","","","","","","","","","","","","",""
"","response","","html-keyboard-response","432","490377","0.0-1.0-608.0-0.0","0","0","39725","","302","","","75","67","","","2","67","training","adjacent","DE","4","5","O.jpg","Q.jpg","1","1","1","",""
"","feedback","","html-keyboard-response","433","491384","0.0-1.0-609.0-0.0","0","0","39725","","null","","","null","67","","","","","","","","","","","","","","","",""
"","ITI","","html-keyboard-response","434","492388","0.0-1.0-612.0","0","0","39725","","null","","","null","67","","","","","","","","","","","","","","","NaN",""
"","S1","","html-keyboard-response","435","492640","0.0-1.0-614.0","0","0","39725","","null","","","null","68","","","","","","","","","","","","","","","",""
"","ISI","","html-keyboard-response","436","494642","0.0-1.0-615.0","0","0","39725","","null","","","null","68","NaN","","","","","","","","","","","","","","",""
"","S2","","html-keyboard-response","437","494908","0.0-1.0-616.0","0","0","39725","","null","","","null","68","","NaN","","","","","","","","","","","","","",""
"","response","","html-keyboard-response","438","495574","0.0-1.0-617.0-0.0","0","0","39725","","663","","","68","68","","","2","68","training","adjacent","CB","3","2","P.jpg","R.jpg","0","0","1","",""
"","feedback","","html-keyboard-response","439","496579","0.0-1.0-618.0-0.0","0","0","39725","","null","","","null","68","","","","","","","","","","","","","","","",""
"","ITI","","html-keyboard-response","440","497588","0.0-1.0-621.0","0","0","39725","","null","","","null","68","","","","","","","","","","","","","","","NaN",""
"","S1","","html-keyboard-response","441","497844","0.0-1.0-623.0","0","0","39725","","null","","","null","69","","","","","","","","","","","","","","","",""
"","ISI","","html-keyboard-response","442","499849","0.0-1.0-624.0","0","0","39725","","null","","","null","69","NaN","","","","","","","","","","","","","","",""
"","S2","","html-keyboard-response","443","500104","0.0-1.0-625.0","0","0","39725","","null","","","null","69","","NaN","","","","","","","","","","","","","",""
"","response","","html-keyboard-response","444","500538","0.0-1.0-626.0-0.0","0","0","39725","","431","","","68","69","","","2","69","training","adjacent","ED","5","4","Q.jpg","O.jpg","0","0","1","",""
"","feedback","","html-keyboard-response","445","501542","0.0-1.0-627.0-0.0","0","0","39725","","null","","","null","69","","","","","","","","","","","","","","","",""
"","ITI","","html-keyboard-response","446","502545","0.0-1.0-630.0","0","0","39725","","null","","","null","69","","","","","","","","","","","","","","","NaN",""
"","S1","","html-keyboard-response","447","502799","0.0-1.0-632.0","0","0","39725","","null","","","null","70","","","","","","","","","","","","","","","",""
"","ISI","","html-keyboard-response","448","504803","0.0-1.0-633.0","0","0","39725","","null","","","null","70","NaN","","","","","","","","","","","","","","",""
"","S2","","html-keyboard-response","449","505058","0.0-1.0-634.0","0","0","39725","","null","","","null","70","","NaN","","","","","","","","","","","","","",""
"","response","","html-keyboard-response","450","505458","0.0-1.0-635.0-0.0","0","0","39725","","397","","","68","70","","","2","70","training","adjacent","AB","1","2","M.jpg","R.jpg","0","1","0","",""
"","feedback","","html-keyboard-response","451","506462","0.0-1.0-636.0-0.0","0","0","39725","","null","","","null","70","","","","","","","","","","","","","","","",""
"","time_out","","html-keyboard-response","452","508466","0.0-1.0-638.0-0.0","0","0","39725","","null","","","null","70","","","","","","","","","","","","","","","",""
"","ITI","","html-keyboard-response","453","509470","0.0-1.0-639.0","0","0","39725","","null","","","null","70","","","","","","","","","","","","","","","NaN",""
"","S1","","html-keyboard-response","454","509726","0.0-1.0-641.0","0","0","39725","","null","","","null","71","","","","","","","","","","","","","","","",""
"","ISI","","html-keyboard-response","455","511730","0.0-1.0-642.0","0","0","39725","","null","","","null","71","NaN","","","","","","","","","","","","","","",""
"","S2","","html-keyboard-response","456","511985","0.0-1.0-643.0","0","0","39725","","null","","","null","71","","NaN","","","","","","","","","","","","","",""
"","response","","html-keyboard-response","457","512362","0.0-1.0-644.0-0.0","0","0","39725","","374","","","68","71","","","2","71","training","adjacent","DC","4","3","O.jpg","P.jpg","0","0","1","",""
"","feedback","","html-keyboard-response","458","513366","0.0-1.0-645.0-0.0","0","0","39725","","null","","","null","71","","","","","","","","","","","","","","","",""
"","ITI","","html-keyboard-response","459","514370","0.0-1.0-648.0","0","0","39725","","null","","","null","71","","","","","","","","","","","","","","","NaN",""
"","S1","","html-keyboard-response","460","514625","0.0-1.0-650.0","0","0","39725","","null","","","null","72","","","","","","","","","","","","","","","",""
"","ISI","","html-keyboard-response","461","516639","0.0-1.0-651.0","0","0","39725","","null","","","null","72","NaN","","","","","","","","","","","","","","",""
"","S2","","html-keyboard-response","462","516892","0.0-1.0-652.0","0","0","39725","","null","","","null","72","","NaN","","","","","","","","","","","","","",""
"","response","","html-keyboard-response","463","517785","0.0-1.0-653.0-0.0","0","0","39725","","889","","","68","72","","","2","72","training","adjacent","FE","6","5","N.jpg","Q.jpg","0","0","1","",""
"","feedback","","html-keyboard-response","464","518789","0.0-1.0-654.0-0.0","0","0","39725","","null","","","null","72","","","","","","","","","","","","","","","",""
"","ITI","","html-keyboard-response","465","519794","0.0-1.0-657.0","0","0","39725","","null","","","null","72","","","","","","","","","","","","","","","NaN",""
"","S1","","html-keyboard-response","466","520048","0.0-1.0-659.0","0","0","39725","","null","","","null","73","","","","","","","","","","","","","","","",""
"","ISI","","html-keyboard-response","467","522053","0.0-1.0-660.0","0","0","39725","","null","","","null","73","NaN","","","","","","","","","","","","","","",""
"","S2","","html-keyboard-response","468","522308","0.0-1.0-661.0","0","0","39725","","null","","","null","73","","NaN","","","","","","","","","","","","","",""
"","response","","html-keyboard-response","469","522476","0.0-1.0-662.0-0.0","0","0","39725","","166","","","75","73","","","2","73","training","adjacent","EF","5","6","Q.jpg","N.jpg","1","1","1","",""
"","feedback","","html-keyboard-response","470","523480","0.0-1.0-663.0-0.0","0","0","39725","","null","","","null","73","","","","","","","","","","","","","","","",""
"","ITI","","html-keyboard-response","471","524484","0.0-1.0-666.0","0","0","39725","","null","","","null","73","","","","","","","","","","","","","","","NaN",""
"","S1","","html-keyboard-response","472","524738","0.0-1.0-668.0","0","0","39725","","null","","","null","74","","","","","","","","","","","","","","","",""
"","ISI","","html-keyboard-response","473","526744","0.0-1.0-669.0","0","0","39725","","null","","","null","74","NaN","","","","","","","","","","","","","","",""
"","S2","","html-keyboard-response","474","526997","0.0-1.0-670.0","0","0","39725","","null","","","null","74","","NaN","","","","","","","","","","","","","",""
"","response","","html-keyboard-response","475","527233","0.0-1.0-671.0-0.0","0","0","39725","","232","","","75","74","","","2","74","training","adjacent","BC","2","3","R.jpg","P.jpg","1","1","1","",""
"","feedback","","html-keyboard-response","476","528237","0.0-1.0-672.0-0.0","0","0","39725","","null","","","null","74","","","","","","","","","","","","","","","",""
"","ITI","","html-keyboard-response","477","529243","0.0-1.0-675.0","0","0","39725","","null","","","null","74","","","","","","","","","","","","","","","NaN",""
"","S1","","html-keyboard-response","478","529498","0.0-1.0-677.0","0","0","39725","","null","","","null","75","","","","","","","","","","","","","","","",""
"","ISI","","html-keyboard-response","479","531503","0.0-1.0-678.0","0","0","39725","","null","","","null","75","NaN","","","","","","","","","","","","","","",""
"","S2","","html-keyboard-response","480","531759","0.0-1.0-679.0","0","0","39725","","null","","","null","75","","NaN","","","","","","","","","","","","","",""
"","response","","html-keyboard-response","481","532500","0.0-1.0-680.0-0.0","0","0","39725","","739","","","68","75","","","2","75","training","adjacent","DC","4","3","O.jpg","P.jpg","0","0","1","",""
"","feedback","","html-keyboard-response","482","533504","0.0-1.0-681.0-0.0","0","0","39725","","null","","","null","75","","","","","","","","","","","","","","","",""
"","ITI","","html-keyboard-response","483","534507","0.0-1.0-684.0","0","0","39725","","null","","","null","75","","","","","","","","","","","","","","","NaN",""
"","S1","","html-keyboard-response","484","534761","0.0-1.0-686.0","0","0","39725","","null","","","null","76","","","","","","","","","","","","","","","",""
"","ISI","","html-keyboard-response","485","536766","0.0-1.0-687.0","0","0","39725","","null","","","null","76","NaN","","","","","","","","","","","","","","",""
"","S2","","html-keyboard-response","486","537021","0.0-1.0-688.0","0","0","39725","","null","","","null","76","","NaN","","","","","","","","","","","","","",""
"","response","","html-keyboard-response","487","537580","0.0-1.0-689.0-0.0","0","0","39725","","557","","","68","76","","","2","76","training","adjacent","DC","4","3","O.jpg","P.jpg","0","0","1","",""
"","feedback","","html-keyboard-response","488","538585","0.0-1.0-690.0-0.0","0","0","39725","","null","","","null","76","","","","","","","","","","","","","","","",""
"","ITI","","html-keyboard-response","489","539600","0.0-1.0-693.0","0","0","39725","","null","","","null","76","","","","","","","","","","","","","","","NaN",""
"","S1","","html-keyboard-response","490","539854","0.0-1.0-695.0","0","0","39725","","null","","","null","77","","","","","","","","","","","","","","","",""
"","ISI","","html-keyboard-response","491","541858","0.0-1.0-696.0","0","0","39725","","null","","","null","77","NaN","","","","","","","","","","","","","","",""
"","S2","","html-keyboard-response","492","542113","0.0-1.0-697.0","0","0","39725","","null","","","null","77","","NaN","","","","","","","","","","","","","",""
"","response","","html-keyboard-response","493","542505","0.0-1.0-698.0-0.0","0","0","39725","","391","","","75","77","","","2","77","training","adjacent","DE","4","5","O.jpg","Q.jpg","1","1","1","",""
"","feedback","","html-keyboard-response","494","543510","0.0-1.0-699.0-0.0","0","0","39725","","null","","","null","77","","","","","","","","","","","","","","","",""
"","ITI","","html-keyboard-response","495","544516","0.0-1.0-702.0","0","0","39725","","null","","","null","77","","","","","","","","","","","","","","","NaN",""
"","S1","","html-keyboard-response","496","544771","0.0-1.0-704.0","0","0","39725","","null","","","null","78","","","","","","","","","","","","","","","",""
"","ISI","","html-keyboard-response","497","546780","0.0-1.0-705.0","0","0","39725","","null","","","null","78","NaN","","","","","","","","","","","","","","",""
"","S2","","html-keyboard-response","498","547034","0.0-1.0-706.0","0","0","39725","","null","","","null","78","","NaN","","","","","","","","","","","","","",""
"","response","","html-keyboard-response","499","547558","0.0-1.0-707.0-0.0","0","0","39725","","523","","","75","78","","","2","78","training","adjacent","FE","6","5","N.jpg","Q.jpg","1","0","0","",""
"","feedback","","html-keyboard-response","500","548561","0.0-1.0-708.0-0.0","0","0","39725","","null","","","null","78","","","","","","","","","","","","","","","",""
"","time_out","","html-keyboard-response","501","550567","0.0-1.0-710.0-0.0","0","0","39725","","null","","","null","78","","","","","","","","","","","","","","","",""
"","ITI","","html-keyboard-response","502","551572","0.0-1.0-711.0","0","0","39725","","null","","","null","78","","","","","","","","","","","","","","","NaN",""
"","S1","","html-keyboard-response","503","551833","0.0-1.0-713.0","0","0","39725","","null","","","null","79","","","","","","","","","","","","","","","",""
"","ISI","","html-keyboard-response","504","553838","0.0-1.0-714.0","0","0","39725","","null","","","null","79","NaN","","","","","","","","","","","","","","",""
"","S2","","html-keyboard-response","505","554094","0.0-1.0-715.0","0","0","39725","","null","","","null","79","","NaN","","","","","","","","","","","","","",""
"","response","","html-keyboard-response","506","554725","0.0-1.0-716.0-0.0","0","0","39725","","626","","","75","79","","","2","79","training","adjacent","BA","2","1","R.jpg","M.jpg","1","0","0","",""
"","feedback","","html-keyboard-response","507","555744","0.0-1.0-717.0-0.0","0","0","39725","","null","","","null","79","","","","","","","","","","","","","","","",""
"","time_out","","html-keyboard-response","508","557749","0.0-1.0-719.0-0.0","0","0","39725","","null","","","null","79","","","","","","","","","","","","","","","",""
"","ITI","","html-keyboard-response","509","558753","0.0-1.0-720.0","0","0","39725","","null","","","null","79","","","","","","","","","","","","","","","NaN",""
"","S1","","html-keyboard-response","510","559008","0.0-1.0-722.0","0","0","39725","","null","","","null","80","","","","","","","","","","","","","","","",""
"","ISI","","html-keyboard-response","511","561011","0.0-1.0-723.0","0","0","39725","","null","","","null","80","NaN","","","","","","","","","","","","","","",""
"","S2","","html-keyboard-response","512","561264","0.0-1.0-724.0","0","0","39725","","null","","","null","80","","NaN","","","","","","","","","","","","","",""
"","response","","html-keyboard-response","513","561841","0.0-1.0-725.0-0.0","0","0","39725","","576","","","68","80","","","2","80","training","adjacent","BC","2","3","R.jpg","P.jpg","0","1","0","",""
"","feedback","","html-keyboard-response","514","562845","0.0-1.0-726.0-0.0","0","0","39725","","null","","","null","80","","","","","","","","","","","","","","","",""
"","time_out","","html-keyboard-response","515","564847","0.0-1.0-728.0-0.0","0","0","39725","","null","","","null","80","","","","","","","","","","","","","","","",""
"","ITI","","html-keyboard-response","516","565850","0.0-1.0-729.0","0","0","39725","","null","","","null","80","","","","","","","","","","","","","","","NaN",""
"","S1","","html-keyboard-response","517","566103","0.0-1.0-731.0","0","0","39725","","null","","","null","81","","","","","","","","","","","","","","","",""
"","ISI","","html-keyboard-response","518","568106","0.0-1.0-732.0","0","0","39725","","null","","","null","81","NaN","","","","","","","","","","","","","","",""
"","S2","","html-keyboard-response","519","568360","0.0-1.0-733.0","0","0","39725","","null","","","null","81","","NaN","","","","","","","","","","","","","",""
"","response","","html-keyboard-response","520","568691","0.0-1.0-734.0-0.0","0","0","39725","","329","","","75","81","","","2","81","training","adjacent","EF","5","6","Q.jpg","N.jpg","1","1","1","",""
"","feedback","","html-keyboard-response","521","569694","0.0-1.0-735.0-0.0","0","0","39725","","null","","","null","81","","","","","","","","","","","","","","","",""
"","ITI","","html-keyboard-response","522","570698","0.0-1.0-738.0","0","0","39725","","null","","","null","81","","","","","","","","","","","","","","","NaN",""
"","S1","","html-keyboard-response","523","570951","0.0-1.0-740.0","0","0","39725","","null","","","null","82","","","","","","","","","","","","","","","",""
"","ISI","","html-keyboard-response","524","572953","0.0-1.0-741.0","0","0","39725","","null","","","null","82","NaN","","","","","","","","","","","","","","",""
"","S2","","html-keyboard-response","525","573207","0.0-1.0-742.0","0","0","39725","","null","","","null","82","","NaN","","","","","","","","","","","","","",""
"","response","","html-keyboard-response","526","574245","0.0-1.0-743.0-0.0","0","0","39725","","1035","","","75","82","","","2","82","training","adjacent","BA","2","1","R.jpg","M.jpg","1","0","0","",""
"","feedback","","html-keyboard-response","527","575249","0.0-1.0-744.0-0.0","0","0","39725","","null","","","null","82","","","","","","","","","","","","","","","",""
"","time_out","","html-keyboard-response","528","577251","0.0-1.0-746.0-0.0","0","0","39725","","null","","","null","82","","","","","","","","","","","","","","","",""
"","ITI","","html-keyboard-response","529","578255","0.0-1.0-747.0","0","0","39725","","null","","","null","82","","","","","","","","","","","","","","","NaN",""
"","S1","","html-keyboard-response","530","578508","0.0-1.0-749.0","0","0","39725","","null","","","null","83","","","","","","","","","","","","","","","",""
"","ISI","","html-keyboard-response","531","580511","0.0-1.0-750.0","0","0","39725","","null","","","null","83","NaN","","","","","","","","","","","","","","",""
"","S2","","html-keyboard-response","532","580766","0.0-1.0-751.0","0","0","39725","","null","","","null","83","","NaN","","","","","","","","","","","","","",""
"","response","","html-keyboard-response","533","581284","0.0-1.0-752.0-0.0","0","0","39725","","515","","","75","83","","","2","83","training","adjacent","BC","2","3","R.jpg","P.jpg","1","1","1","",""
"","feedback","","html-keyboard-response","534","582288","0.0-1.0-753.0-0.0","0","0","39725","","null","","","null","83","","","","","","","","","","","","","","","",""
"","ITI","","html-keyboard-response","535","583292","0.0-1.0-756.0","0","0","39725","","null","","","null","83","","","","","","","","","","","","","","","NaN",""
"","S1","","html-keyboard-response","536","583546","0.0-1.0-758.0","0","0","39725","","null","","","null","84","","","","","","","","","","","","","","","",""
"","ISI","","html-keyboard-response","537","585549","0.0-1.0-759.0","0","0","39725","","null","","","null","84","NaN","","","","","","","","","","","","","","",""
"","S2","","html-keyboard-response","538","585805","0.0-1.0-760.0","0","0","39725","","null","","","null","84","","NaN","","","","","","","","","","","","","",""
"","response","","html-keyboard-response","539","586068","0.0-1.0-761.0-0.0","0","0","39725","","261","","","68","84","","","2","84","training","adjacent","GF","7","6","L.jpg","N.jpg","0","0","1","",""
"","feedback","","html-keyboard-response","540","587074","0.0-1.0-762.0-0.0","0","0","39725","","null","","","null","84","","","","","","","","","","","","","","","",""
"","ITI","","html-keyboard-response","541","588080","0.0-1.0-765.0","0","0","39725","","null","","","null","84","","","","","","","","","","","","","","","NaN",""
"","S1","","html-keyboard-response","542","588335","0.0-1.0-767.0","0","0","39725","","null","","","null","85","","","","","","","","","","","","","","","",""
"","ISI","","html-keyboard-response","543","590339","0.0-1.0-768.0","0","0","39725","","null","","","null","85","NaN","","","","","","","","","","","","","","",""
"","S2","","html-keyboard-response","544","590594","0.0-1.0-769.0","0","0","39725","","null","","","null","85","","NaN","","","","","","","","","","","","","",""
"","response","","html-keyboard-response","545","591387","0.0-1.0-770.0-0.0","0","0","39725","","790","","","68","85","","","2","85","training","adjacent","FE","6","5","N.jpg","Q.jpg","0","0","1","",""
"","feedback","","html-keyboard-response","546","592394","0.0-1.0-771.0-0.0","0","0","39725","","null","","","null","85","","","","","","","","","","","","","","","",""
"","ITI","","html-keyboard-response","547","593412","0.0-1.0-774.0","0","0","39725","","null","","","null","85","","","","","","","","","","","","","","","NaN",""
"","S1","","html-keyboard-response","548","593665","0.0-1.0-776.0","0","0","39725","","null","","","null","86","","","","","","","","","","","","","","","",""
"","ISI","","html-keyboard-response","549","595667","0.0-1.0-777.0","0","0","39725","","null","","","null","86","NaN","","","","","","","","","","","","","","",""
"","S2","","html-keyboard-response","550","595921","0.0-1.0-778.0","0","0","39725","","null","","","null","86","","NaN","","","","","","","","","","","","","",""
"","response","","html-keyboard-response","551","596812","0.0-1.0-779.0-0.0","0","0","39725","","887","","","75","86","","","2","86","training","adjacent","CD","3","4","P.jpg","O.jpg","1","1","1","",""
"","feedback","","html-keyboard-response","552","597821","0.0-1.0-780.0-0.0","0","0","39725","","null","","","null","86","","","","","","","","","","","","","","","",""
"","ITI","","html-keyboard-response","553","598826","0.0-1.0-783.0","0","0","39725","","null","","","null","86","","","","","","","","","","","","","","","NaN",""
"","S1","","html-keyboard-response","554","599081","0.0-1.0-785.0","0","0","39725","","null","","","null","87","","","","","","","","","","","","","","","",""
"","ISI","","html-keyboard-response","555","601084","0.0-1.0-786.0","0","0","39725","","null","","","null","87","NaN","","","","","","","","","","","","","","",""
"","S2","","html-keyboard-response","556","601337","0.0-1.0-787.0","0","0","39725","","null","","","null","87","","NaN","","","","","","","","","","","","","",""
"","response","","html-keyboard-response","557","601783","0.0-1.0-788.0-0.0","0","0","39725","","445","","","68","87","","","2","87","training","adjacent","FE","6","5","N.jpg","Q.jpg","0","0","1","",""
"","feedback","","html-keyboard-response","558","602788","0.0-1.0-789.0-0.0","0","0","39725","","null","","","null","87","","","","","","","","","","","","","","","",""
"","ITI","","html-keyboard-response","559","603791","0.0-1.0-792.0","0","0","39725","","null","","","null","87","","","","","","","","","","","","","","","NaN",""
"","S1","","html-keyboard-response","560","604046","0.0-1.0-794.0","0","0","39725","","null","","","null","88","","","","","","","","","","","","","","","",""
"","ISI","","html-keyboard-response","561","606051","0.0-1.0-795.0","0","0","39725","","null","","","null","88","NaN","","","","","","","","","","","","","","",""
"","S2","","html-keyboard-response","562","606304","0.0-1.0-796.0","0","0","39725","","null","","","null","88","","NaN","","","","","","","","","","","","","",""
"","response","","html-keyboard-response","563","607068","0.0-1.0-797.0-0.0","0","0","39725","","762","","","75","88","","","2","88","training","adjacent","FG","6","7","N.jpg","L.jpg","1","1","1","",""
"","feedback","","html-keyboard-response","564","608072","0.0-1.0-798.0-0.0","0","0","39725","","null","","","null","88","","","","","","","","","","","","","","","",""
"","ITI","","html-keyboard-response","565","609077","0.0-1.0-801.0","0","0","39725","","null","","","null","88","","","","","","","","","","","","","","","NaN",""
"","S1","","html-keyboard-response","566","609332","0.0-1.0-803.0","0","0","39725","","null","","","null","89","","","","","","","","","","","","","","","",""
"","ISI","","html-keyboard-response","567","611336","0.0-1.0-804.0","0","0","39725","","null","","","null","89","NaN","","","","","","","","","","","","","","",""
"","S2","","html-keyboard-response","568","611590","0.0-1.0-805.0","0","0","39725","","null","","","null","89","","NaN","","","","","","","","","","","","","",""
"","response","","html-keyboard-response","569","612331","0.0-1.0-806.0-0.0","0","0","39725","","737","","","68","89","","","2","89","training","adjacent","CB","3","2","P.jpg","R.jpg","0","0","1","",""
"","feedback","","html-keyboard-response","570","613335","0.0-1.0-807.0-0.0","0","0","39725","","null","","","null","89","","","","","","","","","","","","","","","",""
"","ITI","","html-keyboard-response","571","614340","0.0-1.0-810.0","0","0","39725","","null","","","null","89","","","","","","","","","","","","","","","NaN",""
"","S1","","html-keyboard-response","572","614594","0.0-1.0-812.0","0","0","39725","","null","","","null","90","","","","","","","","","","","","","","","",""
"","ISI","","html-keyboard-response","573","616598","0.0-1.0-813.0","0","0","39725","","null","","","null","90","NaN","","","","","","","","","","","","","","",""
"","S2","","html-keyboard-response","574","616854","0.0-1.0-814.0","0","0","39725","","null","","","null","90","","NaN","","","","","","","","","","","","","",""
"","response","","html-keyboard-response","575","617239","0.0-1.0-815.0-0.0","0","0","39725","","381","","","68","90","","","2","90","training","adjacent","CB","3","2","P.jpg","R.jpg","0","0","1","",""
"","feedback","","html-keyboard-response","576","618244","0.0-1.0-816.0-0.0","0","0","39725","","null","","","null","90","","","","","","","","","","","","","","","",""
"","ITI","","html-keyboard-response","577","619252","0.0-1.0-819.0","0","0","39725","","null","","","null","90","","","","","","","","","","","","","","","NaN",""
"","S1","","html-keyboard-response","578","619513","0.0-1.0-821.0","0","0","39725","","null","","","null","91","","","","","","","","","","","","","","","",""
"","ISI","","html-keyboard-response","579","621517","0.0-1.0-822.0","0","0","39725","","null","","","null","91","NaN","","","","","","","","","","","","","","",""
"","S2","","html-keyboard-response","580","621771","0.0-1.0-823.0","0","0","39725","","null","","","null","91","","NaN","","","","","","","","","","","","","",""
