"success","ttype","start_time","trial_type","trial_index","time_elapsed","internal_node_id","warning","missed_checkup","PID","view_history","rt","responses","repeat_instructions","key_press","index","keypress_isi","keypress_S2","block","trial_num","phase","group_type","pair_type","S1_stim","S2_stim","S1_img","S2_img","S1_chosen","S1_higher","accuracy","keypress_iti","total_bonus_tally"
"true","full_screen","d08052022hr1631","fullscreen","0","7441","0.0-0.0","0","0","75141","","","","","","","","","","","","","","","","","","","","","",""
"","instructions","","instructions","1","38900","0.0-1.0-0.0-0.0","0","0","75141","[{""page_index"":0,""viewing_time"":3561},{""page_index"":1,""viewing_time"":19180},{""page_index"":2,""viewing_time"":7524},{""page_index"":3,""viewing_time"":1192}]","31458","","","","","","","","","","","","","","","","","","","",""
"","comprehension_check","","survey-multi-choice","2","53585","0.0-1.0-0.0-1.0","0","0","75141","","14680","{""Q0"":""True"",""Q1"":""K"",""Q2"":""Once the second image appears and while the screen 'MAKE A CHOICE' is shown"",""Q3"":""Green mark"",""Q4"":""either D or K""}","0","","","","","","","","","","","","","","","","","",""
"","start_exp","","html-keyboard-response","3","55723","0.0-1.0-1.0","0","0","75141","","2134","","","32","","","","","","","","","","","","","","","","",""
"","S1","","html-keyboard-response","4","55977","0.0-1.0-2.0","0","0","75141","","null","","","null","0","","","","","","","","","","","","","","","",""
"","ISI","","html-keyboard-response","5","57983","0.0-1.0-3.0","0","0","75141","","null","","","null","0","NaN","","","","","","","","","","","","","","",""
"","S2","","html-keyboard-response","6","58238","0.0-1.0-4.0","0","0","75141","","null","","","null","0","","NaN","","","","","","","","","","","","","",""
"","response","","html-keyboard-response","7","58781","0.0-1.0-5.0-0.0","0","0","75141","","539","","","75","0","","","1","0","training","adjacent","EF","5","6","M.jpg","Q.jpg","1","1","1","",""
"","feedback","","html-keyboard-response","8","59786","0.0-1.0-6.0-0.0","0","0","75141","","null","","","null","0","","","","","","","","","","","","","","","",""
"","ITI","","html-keyboard-response","9","60789","0.0-1.0-9.0","0","0","75141","","null","","","null","0","","","","","","","","","","","","","","","NaN",""
"","S1","","html-keyboard-response","10","61043","0.0-1.0-11.0","0","0","75141","","null","","","null","1","","","","","","","","","","","","","","","",""
"","ISI","","html-keyboard-response","11","63045","0.0-1.0-12.0","0","0","75141","","null","","","null","1","NaN","","","","","","","","","","","","","","",""
"","S2","","html-keyboard-response","12","63299","0.0-1.0-13.0","0","0","75141","","null","","","null","1","","NaN","","","","","","","","","","","","","",""
"","response","","html-keyboard-response","13","63699","0.0-1.0-14.0-0.0","0","0","75141","","396","","","68","1","","","1","1","training","adjacent","DE","4","5","R.jpg","M.jpg","0","1","0","",""
"","feedback","","html-keyboard-response","14","64703","0.0-1.0-15.0-0.0","0","0","75141","","null","","","null","1","","","","","","","","","","","","","","","",""
"","time_out","","html-keyboard-response","15","66708","0.0-1.0-17.0-0.0","0","0","75141","","null","","","null","1","","","","","","","","","","","","","","","",""
"","ITI","","html-keyboard-response","16","67712","0.0-1.0-18.0","0","0","75141","","null","","","null","1","","","","","","","","","","","","","","","NaN",""
"","S1","","html-keyboard-response","17","67967","0.0-1.0-20.0","0","0","75141","","null","","","null","2","","","","","","","","","","","","","","","",""
"","ISI","","html-keyboard-response","18","69971","0.0-1.0-21.0","0","0","75141","","null","","","null","2","NaN","","","","","","","","","","","","","","",""
"","S2","","html-keyboard-response","19","70224","0.0-1.0-22.0","0","0","75141","","null","","","null","2","","NaN","","","","","","","","","","","","","",""
"","response","","html-keyboard-response","20","70685","0.0-1.0-23.0-0.0","0","0","75141","","457","","","68","2","","","1","2","training","adjacent","ED","5","4","M.jpg","R.jpg","0","0","1","",""
"","feedback","","html-keyboard-response","21","71689","0.0-1.0-24.0-0.0","0","0","75141","","null","","","null","2","","","","","","","","","","","","","","","",""
"","ITI","","html-keyboard-response","22","72694","0.0-1.0-27.0","0","0","75141","","null","","","null","2","","","","","","","","","","","","","","","NaN",""
"","S1","","html-keyboard-response","23","72948","0.0-1.0-29.0","0","0","75141","","null","","","null","3","","","","","","","","","","","","","","","",""
"","ISI","","html-keyboard-response","24","74952","0.0-1.0-30.0","0","0","75141","","null","","","null","3","NaN","","","","","","","","","","","","","","",""
"","S2","","html-keyboard-response","25","75207","0.0-1.0-31.0","0","0","75141","","null","","","null","3","","NaN","","","","","","","","","","","","","",""
"","response","","html-keyboard-response","26","75736","0.0-1.0-32.0-0.0","0","0","75141","","525","","","75","3","","","1","3","training","adjacent","FG","6","7","Q.jpg","N.jpg","1","1","1","",""
"","feedback","","html-keyboard-response","27","76740","0.0-1.0-33.0-0.0","0","0","75141","","null","","","null","3","","","","","","","","","","","","","","","",""
"","ITI","","html-keyboard-response","28","77744","0.0-1.0-36.0","0","0","75141","","null","","","null","3","","","","","","","","","","","","","","","NaN",""
"","S1","","html-keyboard-response","29","77998","0.0-1.0-38.0","0","0","75141","","null","","","null","4","","","","","","","","","","","","","","","",""
"","ISI","","html-keyboard-response","30","80001","0.0-1.0-39.0","0","0","75141","","null","","","null","4","NaN","","","","","","","","","","","","","","",""
"","S2","","html-keyboard-response","31","80256","0.0-1.0-40.0","0","0","75141","","null","","","null","4","","NaN","","","","","","","","","","","","","",""
"","response","","html-keyboard-response","32","80741","0.0-1.0-41.0-0.0","0","0","75141","","482","","","68","4","","","1","4","training","adjacent","DC","4","3","R.jpg","P.jpg","0","0","1","",""
"","feedback","","html-keyboard-response","33","81746","0.0-1.0-42.0-0.0","0","0","75141","","null","","","null","4","","","","","","","","","","","","","","","",""
"","ITI","","html-keyboard-response","34","82750","0.0-1.0-45.0","0","0","75141","","null","","","null","4","","","","","","","","","","","","","","","NaN",""
"","S1","","html-keyboard-response","35","83004","0.0-1.0-47.0","0","0","75141","","null","","","null","5","","","","","","","","","","","","","","","",""
"","ISI","","html-keyboard-response","36","85008","0.0-1.0-48.0","0","0","75141","","null","","","null","5","NaN","","","","","","","","","","","","","","",""
"","S2","","html-keyboard-response","37","85263","0.0-1.0-49.0","0","0","75141","","null","","","null","5","","NaN","","","","","","","","","","","","","",""
"","response","","html-keyboard-response","38","85653","0.0-1.0-50.0-0.0","0","0","75141","","387","","","75","5","","","1","5","training","adjacent","ED","5","4","M.jpg","R.jpg","1","0","0","",""
"","feedback","","html-keyboard-response","39","86656","0.0-1.0-51.0-0.0","0","0","75141","","null","","","null","5","","","","","","","","","","","","","","","",""
"","time_out","","html-keyboard-response","40","88660","0.0-1.0-53.0-0.0","0","0","75141","","null","","","null","5","","","","","","","","","","","","","","","",""
"","ITI","","html-keyboard-response","41","89664","0.0-1.0-54.0","0","0","75141","","null","","","null","5","","","","","","","","","","","","","","","NaN",""
"","S1","","html-keyboard-response","42","89919","0.0-1.0-56.0","0","0","75141","","null","","","null","6","","","","","","","","","","","","","","","",""
"","ISI","","html-keyboard-response","43","91923","0.0-1.0-57.0","0","0","75141","","null","","","null","6","NaN","","","","","","","","","","","","","","",""
"","S2","","html-keyboard-response","44","92177","0.0-1.0-58.0","0","0","75141","","null","","","null","6","","NaN","","","","","","","","","","","","","",""
"","response","","html-keyboard-response","45","92664","0.0-1.0-59.0-0.0","0","0","75141","","484","","","68","6","","","1","6","training","adjacent","DC","4","3","R.jpg","P.jpg","0","0","1","",""
"","feedback","","html-keyboard-response","46","93669","0.0-1.0-60.0-0.0","0","0","75141","","null","","","null","6","","","","","","","","","","","","","","","",""
"","ITI","","html-keyboard-response","47","94673","0.0-1.0-63.0","0","0","75141","","null","","","null","6","","","","","","","","","","","","","","","NaN",""
"","S1","","html-keyboard-response","48","94928","0.0-1.0-65.0","0","0","75141","","null","","","null","7","","","","","","","","","","","","","","","",""
"","ISI","","html-keyboard-response","49","96931","0.0-1.0-66.0","0","0","75141","","null","","","null","7","NaN","","","","","","","","","","","","","","",""
"","S2","","html-keyboard-response","50","97186","0.0-1.0-67.0","0","0","75141","","null","","","null","7","","NaN","","","","","","","","","","","","","",""
"","response","","html-keyboard-response","51","97695","0.0-1.0-68.0-0.0","0","0","75141","","506","","","68","7","","","1","7","training","adjacent","BC","2","3","L.jpg","P.jpg","0","1","0","",""
"","feedback","","html-keyboard-response","52","98700","0.0-1.0-69.0-0.0","0","0","75141","","null","","","null","7","","","","","","","","","","","","","","","",""
"","time_out","","html-keyboard-response","53","100703","0.0-1.0-71.0-0.0","0","0","75141","","null","","","null","7","","","","","","","","","","","","","","","",""
"","ITI","","html-keyboard-response","54","101707","0.0-1.0-72.0","0","0","75141","","null","","","null","7","","","","","","","","","","","","","","","NaN",""
"","S1","","html-keyboard-response","55","101961","0.0-1.0-74.0","0","0","75141","","null","","","null","8","","","","","","","","","","","","","","","",""
"","ISI","","html-keyboard-response","56","103964","0.0-1.0-75.0","0","0","75141","","null","","","null","8","NaN","","","","","","","","","","","","","","",""
"","S2","","html-keyboard-response","57","104219","0.0-1.0-76.0","0","0","75141","","null","","","null","8","","NaN","","","","","","","","","","","","","",""
"","response","","html-keyboard-response","58","104646","0.0-1.0-77.0-0.0","0","0","75141","","423","","","75","8","","","1","8","training","adjacent","BA","2","1","L.jpg","O.jpg","1","0","0","",""
"","feedback","","html-keyboard-response","59","105650","0.0-1.0-78.0-0.0","0","0","75141","","null","","","null","8","","","","","","","","","","","","","","","",""
"","time_out","","html-keyboard-response","60","107655","0.0-1.0-80.0-0.0","0","0","75141","","null","","","null","8","","","","","","","","","","","","","","","",""
"","ITI","","html-keyboard-response","61","108659","0.0-1.0-81.0","0","0","75141","","null","","","null","8","","","","","","","","","","","","","","","NaN",""
"","S1","","html-keyboard-response","62","108922","0.0-1.0-83.0","0","0","75141","","null","","","null","9","","","","","","","","","","","","","","","",""
"","ISI","","html-keyboard-response","63","110925","0.0-1.0-84.0","0","0","75141","","null","","","null","9","NaN","","","","","","","","","","","","","","",""
"","S2","","html-keyboard-response","64","111179","0.0-1.0-85.0","0","0","75141","","null","","","null","9","","NaN","","","","","","","","","","","","","",""
"","response","","html-keyboard-response","65","111741","0.0-1.0-86.0-0.0","0","0","75141","","558","","","75","9","","","1","9","training","adjacent","DE","4","5","R.jpg","M.jpg","1","1","1","",""
"","feedback","","html-keyboard-response","66","112745","0.0-1.0-87.0-0.0","0","0","75141","","null","","","null","9","","","","","","","","","","","","","","","",""
"","ITI","","html-keyboard-response","67","113750","0.0-1.0-90.0","0","0","75141","","null","","","null","9","","","","","","","","","","","","","","","NaN",""
"","S1","","html-keyboard-response","68","114004","0.0-1.0-92.0","0","0","75141","","null","","","null","10","","","","","","","","","","","","","","","",""
"","ISI","","html-keyboard-response","69","116007","0.0-1.0-93.0","0","0","75141","","null","","","null","10","NaN","","","","","","","","","","","","","","",""
"","S2","","html-keyboard-response","70","116262","0.0-1.0-94.0","0","0","75141","","null","","","null","10","","NaN","","","","","","","","","","","","","",""
"","response","","html-keyboard-response","71","117121","0.0-1.0-95.0-0.0","0","0","75141","","855","","","75","10","","","1","10","training","adjacent","BA","2","1","L.jpg","O.jpg","1","0","0","",""
"","feedback","","html-keyboard-response","72","118125","0.0-1.0-96.0-0.0","0","0","75141","","null","","","null","10","","","","","","","","","","","","","","","",""
"","time_out","","html-keyboard-response","73","120128","0.0-1.0-98.0-0.0","0","0","75141","","null","","","null","10","","","","","","","","","","","","","","","",""
"","ITI","","html-keyboard-response","74","121133","0.0-1.0-99.0","0","0","75141","","null","","","null","10","","","","","","","","","","","","","","","NaN",""
"","S1","","html-keyboard-response","75","121387","0.0-1.0-101.0","0","0","75141","","null","","","null","11","","","","","","","","","","","","","","","",""
"","ISI","","html-keyboard-response","76","123390","0.0-1.0-102.0","0","0","75141","","null","","","null","11","NaN","","","","","","","","","","","","","","",""
"","S2","","html-keyboard-response","77","123645","0.0-1.0-103.0","0","0","75141","","null","","","null","11","","NaN","","","","","","","","","","","","","",""
"","response","","html-keyboard-response","78","124255","0.0-1.0-104.0-0.0","0","0","75141","","607","","","75","11","","","1","11","training","adjacent","DE","4","5","R.jpg","M.jpg","1","1","1","",""
"","feedback","","html-keyboard-response","79","125260","0.0-1.0-105.0-0.0","0","0","75141","","null","","","null","11","","","","","","","","","","","","","","","",""
"","ITI","","html-keyboard-response","80","126264","0.0-1.0-108.0","0","0","75141","","null","","","null","11","","","","","","","","","","","","","","","NaN",""
"","S1","","html-keyboard-response","81","126519","0.0-1.0-110.0","0","0","75141","","null","","","null","12","","","","","","","","","","","","","","","",""
"","ISI","","html-keyboard-response","82","128523","0.0-1.0-111.0","0","0","75141","","null","","","null","12","NaN","","","","","","","","","","","","","","",""
"","S2","","html-keyboard-response","83","128778","0.0-1.0-112.0","0","0","75141","","null","","","null","12","","NaN","","","","","","","","","","","","","",""
"","response","","html-keyboard-response","84","129135","0.0-1.0-113.0-0.0","0","0","75141","","354","","","68","12","","","1","12","training","adjacent","CD","3","4","P.jpg","R.jpg","0","1","0","",""
"","feedback","","html-keyboard-response","85","130140","0.0-1.0-114.0-0.0","0","0","75141","","null","","","null","12","","","","","","","","","","","","","","","",""
"","time_out","","html-keyboard-response","86","132144","0.0-1.0-116.0-0.0","0","0","75141","","null","","","null","12","","","","","","","","","","","","","","","",""
"","ITI","","html-keyboard-response","87","133147","0.0-1.0-117.0","0","0","75141","","null","","","null","12","","","","","","","","","","","","","","","NaN",""
"","S1","","html-keyboard-response","88","133402","0.0-1.0-119.0","0","0","75141","","null","","","null","13","","","","","","","","","","","","","","","",""
"","ISI","","html-keyboard-response","89","135406","0.0-1.0-120.0","0","0","75141","","null","","","null","13","NaN","","","","","","","","","","","","","","",""
"","S2","","html-keyboard-response","90","135660","0.0-1.0-121.0","0","0","75141","","null","","","null","13","","NaN","","","","","","","","","","","","","",""
"","response","","html-keyboard-response","91","136209","0.0-1.0-122.0-0.0","0","0","75141","","547","","","75","13","","","1","13","training","adjacent","DC","4","3","R.jpg","P.jpg","1","0","0","",""
"","feedback","","html-keyboard-response","92","137214","0.0-1.0-123.0-0.0","0","0","75141","","null","","","null","13","","","","","","","","","","","","","","","",""
"","time_out","","html-keyboard-response","93","139218","0.0-1.0-125.0-0.0","0","0","75141","","null","","","null","13","","","","","","","","","","","","","","","",""
"","ITI","","html-keyboard-response","94","140221","0.0-1.0-126.0","0","0","75141","","null","","","null","13","","","","","","","","","","","","","","","NaN",""
"","S1","","html-keyboard-response","95","140475","0.0-1.0-128.0","0","0","75141","","null","","","null","14","","","","","","","","","","","","","","","",""
"","ISI","","html-keyboard-response","96","142478","0.0-1.0-129.0","0","0","75141","","null","","","null","14","NaN","","","","","","","","","","","","","","",""
"","S2","","html-keyboard-response","97","142737","0.0-1.0-130.0","0","0","75141","","null","","","null","14","","NaN","","","","","","","","","","","","","",""
"","response","","html-keyboard-response","98","143164","0.0-1.0-131.0-0.0","0","0","75141","","421","","","75","14","","","1","14","training","adjacent","CD","3","4","P.jpg","R.jpg","1","1","1","",""
"","feedback","","html-keyboard-response","99","144169","0.0-1.0-132.0-0.0","0","0","75141","","null","","","null","14","","","","","","","","","","","","","","","",""
"","ITI","","html-keyboard-response","100","145173","0.0-1.0-135.0","0","0","75141","","null","","","null","14","","","","","","","","","","","","","","","NaN",""
"","S1","","html-keyboard-response","101","145426","0.0-1.0-137.0","0","0","75141","","null","","","null","15","","","","","","","","","","","","","","","",""
"","ISI","","html-keyboard-response","102","147430","0.0-1.0-138.0","0","0","75141","","null","","","null","15","NaN","","","","","","","","","","","","","","",""
"","S2","","html-keyboard-response","103","147684","0.0-1.0-139.0","0","0","75141","","null","","","null","15","","NaN","","","","","","","","","","","","","",""
"","response","","html-keyboard-response","104","148089","0.0-1.0-140.0-0.0","0","0","75141","","401","","","68","15","","","1","15","training","adjacent","BC","2","3","L.jpg","P.jpg","0","1","0","",""
"","feedback","","html-keyboard-response","105","149093","0.0-1.0-141.0-0.0","0","0","75141","","null","","","null","15","","","","","","","","","","","","","","","",""
"","time_out","","html-keyboard-response","106","151097","0.0-1.0-143.0-0.0","0","0","75141","","null","","","null","15","","","","","","","","","","","","","","","",""
"","ITI","","html-keyboard-response","107","152101","0.0-1.0-144.0","0","0","75141","","null","","","null","15","","","","","","","","","","","","","","","NaN",""
"","S1","","html-keyboard-response","108","152355","0.0-1.0-146.0","0","0","75141","","null","","","null","16","","","","","","","","","","","","","","","",""
"","ISI","","html-keyboard-response","109","154359","0.0-1.0-147.0","0","0","75141","","null","","","null","16","NaN","","","","","","","","","","","","","","",""
"","S2","","html-keyboard-response","110","154614","0.0-1.0-148.0","0","0","75141","","null","","","null","16","","NaN","","","","","","","","","","","","","",""
"","response","","html-keyboard-response","111","155080","0.0-1.0-149.0-0.0","0","0","75141","","463","","","68","16","","","1","16","training","adjacent","FE","6","5","Q.jpg","M.jpg","0","0","1","",""
"","feedback","","html-keyboard-response","112","156084","0.0-1.0-150.0-0.0","0","0","75141","","null","","","null","16","","","","","","","","","","","","","","","",""
"","ITI","","html-keyboard-response","113","157088","0.0-1.0-153.0","0","0","75141","","null","","","null","16","","","","","","","","","","","","","","","NaN",""
"","S1","","html-keyboard-response","114","157344","0.0-1.0-155.0","0","0","75141","","null","","","null","17","","","","","","","","","","","","","","","",""
"","ISI","","html-keyboard-response","115","159347","0.0-1.0-156.0","0","0","75141","","null","","","null","17","NaN","","","","","","","","","","","","","","",""
"","S2","","html-keyboard-response","116","159601","0.0-1.0-157.0","0","0","75141","","null","","","null","17","","NaN","","","","","","","","","","","","","",""
"","response","","html-keyboard-response","117","160137","0.0-1.0-158.0-0.0","0","0","75141","","532","","","68","17","","","1","17","training","adjacent","FG","6","7","Q.jpg","N.jpg","0","1","0","",""
"","feedback","","html-keyboard-response","118","161141","0.0-1.0-159.0-0.0","0","0","75141","","null","","","null","17","","","","","","","","","","","","","","","",""
"","time_out","","html-keyboard-response","119","163144","0.0-1.0-161.0-0.0","0","0","75141","","null","","","null","17","","","","","","","","","","","","","","","",""
"","ITI","","html-keyboard-response","120","164148","0.0-1.0-162.0","0","0","75141","","null","","","null","17","","","","","","","","","","","","","","","NaN",""
"","S1","","html-keyboard-response","121","164402","0.0-1.0-164.0","0","0","75141","","null","","","null","18","","","","","","","","","","","","","","","",""
"","ISI","","html-keyboard-response","122","166405","0.0-1.0-165.0","0","0","75141","","null","","","null","18","NaN","","","","","","","","","","","","","","",""
"","S2","","html-keyboard-response","123","166660","0.0-1.0-166.0","0","0","75141","","null","","","null","18","","NaN","","","","","","","","","","","","","",""
"","response","","html-keyboard-response","124","167327","0.0-1.0-167.0-0.0","0","0","75141","","664","","","75","18","","","1","18","training","adjacent","DE","4","5","R.jpg","M.jpg","1","1","1","",""
"","feedback","","html-keyboard-response","125","168332","0.0-1.0-168.0-0.0","0","0","75141","","null","","","null","18","","","","","","","","","","","","","","","",""
"","ITI","","html-keyboard-response","126","169336","0.0-1.0-171.0","0","0","75141","","null","","","null","18","","","","","","","","","","","","","","","NaN",""
"","S1","","html-keyboard-response","127","169590","0.0-1.0-173.0","0","0","75141","","null","","","null","19","","","","","","","","","","","","","","","",""
"","ISI","","html-keyboard-response","128","171593","0.0-1.0-174.0","0","0","75141","","null","","","null","19","NaN","","","","","","","","","","","","","","",""
"","S2","","html-keyboard-response","129","171848","0.0-1.0-175.0","0","0","75141","","null","","","null","19","","NaN","","","","","","","","","","","","","",""
"","response","","html-keyboard-response","130","172741","0.0-1.0-176.0-0.0","0","0","75141","","890","","","75","19","","","1","19","training","adjacent","CB","3","2","P.jpg","L.jpg","1","0","0","",""
"","feedback","","html-keyboard-response","131","173745","0.0-1.0-177.0-0.0","0","0","75141","","null","","","null","19","","","","","","","","","","","","","","","",""
"","time_out","","html-keyboard-response","132","175749","0.0-1.0-179.0-0.0","0","0","75141","","null","","","null","19","","","","","","","","","","","","","","","",""
"","ITI","","html-keyboard-response","133","176754","0.0-1.0-180.0","0","0","75141","","null","","","null","19","","","","","","","","","","","","","","","NaN",""
"","S1","","html-keyboard-response","134","177009","0.0-1.0-182.0","0","0","75141","","null","","","null","20","","","","","","","","","","","","","","","",""
"","ISI","","html-keyboard-response","135","179013","0.0-1.0-183.0","0","0","75141","","null","","","null","20","NaN","","","","","","","","","","","","","","",""
"","S2","","html-keyboard-response","136","179268","0.0-1.0-184.0","0","0","75141","","null","","","null","20","","NaN","","","","","","","","","","","","","",""
"","response","","html-keyboard-response","137","179977","0.0-1.0-185.0-0.0","0","0","75141","","705","","","75","20","","","1","20","training","adjacent","EF","5","6","M.jpg","Q.jpg","1","1","1","",""
"","feedback","","html-keyboard-response","138","180981","0.0-1.0-186.0-0.0","0","0","75141","","null","","","null","20","","","","","","","","","","","","","","","",""
"","ITI","","html-keyboard-response","139","181985","0.0-1.0-189.0","0","0","75141","","null","","","null","20","","","","","","","","","","","","","","","NaN",""
"","S1","","html-keyboard-response","140","182239","0.0-1.0-191.0","0","0","75141","","null","","","null","21","","","","","","","","","","","","","","","",""
"","ISI","","html-keyboard-response","141","184244","0.0-1.0-192.0","0","0","75141","","null","","","null","21","NaN","","","","","","","","","","","","","","",""
"","S2","","html-keyboard-response","142","184498","0.0-1.0-193.0","0","0","75141","","null","","","null","21","","NaN","","","","","","","","","","","","","",""
"","response","","html-keyboard-response","143","185057","0.0-1.0-194.0-0.0","0","0","75141","","555","","","68","21","","","1","21","training","adjacent","GF","7","6","N.jpg","Q.jpg","0","0","1","",""
"","feedback","","html-keyboard-response","144","186061","0.0-1.0-195.0-0.0","0","0","75141","","null","","","null","21","","","","","","","","","","","","","","","",""
"","ITI","","html-keyboard-response","145","187065","0.0-1.0-198.0","0","0","75141","","null","","","null","21","","","","","","","","","","","","","","","NaN",""
"","S1","","html-keyboard-response","146","187319","0.0-1.0-200.0","0","0","75141","","null","","","null","22","","","","","","","","","","","","","","","",""
"","ISI","","html-keyboard-response","147","189323","0.0-1.0-201.0","0","0","75141","","null","","","null","22","NaN","","","","","","","","","","","","","","",""
"","S2","","html-keyboard-response","148","189578","0.0-1.0-202.0","0","0","75141","","null","","","null","22","","NaN","","","","","","","","","","","","","",""
"","response","","html-keyboard-response","149","189952","0.0-1.0-203.0-0.0","0","0","75141","","371","","","68","22","","","1","22","training","adjacent","FG","6","7","Q.jpg","N.jpg","0","1","0","",""
"","feedback","","html-keyboard-response","150","190957","0.0-1.0-204.0-0.0","0","0","75141","","null","","","null","22","","","","","","","","","","","","","","","",""
"","time_out","","html-keyboard-response","151","192960","0.0-1.0-206.0-0.0","0","0","75141","","null","","","null","22","","","","","","","","","","","","","","","",""
"","ITI","","html-keyboard-response","152","193966","0.0-1.0-207.0","0","0","75141","","null","","","null","22","","","","","","","","","","","","","","","NaN",""
"","S1","","html-keyboard-response","153","194220","0.0-1.0-209.0","0","0","75141","","null","","","null","23","","","","","","","","","","","","","","","",""
"","ISI","","html-keyboard-response","154","196224","0.0-1.0-210.0","0","0","75141","","null","","","null","23","NaN","","","","","","","","","","","","","","",""
"","S2","","html-keyboard-response","155","196478","0.0-1.0-211.0","0","0","75141","","null","","","null","23","","NaN","","","","","","","","","","","","","",""
"","response","","html-keyboard-response","156","197200","0.0-1.0-212.0-0.0","0","0","75141","","719","","","68","23","","","1","23","training","adjacent","BC","2","3","L.jpg","P.jpg","0","1","0","",""
"","feedback","","html-keyboard-response","157","198205","0.0-1.0-213.0-0.0","0","0","75141","","null","","","null","23","","","","","","","","","","","","","","","",""
"","time_out","","html-keyboard-response","158","200210","0.0-1.0-215.0-0.0","0","0","75141","","null","","","null","23","","","","","","","","","","","","","","","",""
"","ITI","","html-keyboard-response","159","201214","0.0-1.0-216.0","0","0","75141","","null","","","null","23","","","","","","","","","","","","","","","NaN",""
"","S1","","html-keyboard-response","160","201468","0.0-1.0-218.0","0","0","75141","","null","","","null","24","","","","","","","","","","","","","","","",""
"","ISI","","html-keyboard-response","161","203472","0.0-1.0-219.0","0","0","75141","","null","","","null","24","NaN","","","","","","","","","","","","","","",""
"","S2","","html-keyboard-response","162","203739","0.0-1.0-220.0","0","0","75141","","null","","","null","24","","NaN","","","","","","","","","","","","","",""
"","response","","html-keyboard-response","163","204231","0.0-1.0-221.0-0.0","0","0","75141","","489","","","68","24","","","1","24","training","adjacent","GF","7","6","N.jpg","Q.jpg","0","0","1","",""
"","feedback","","html-keyboard-response","164","205236","0.0-1.0-222.0-0.0","0","0","75141","","null","","","null","24","","","","","","","","","","","","","","","",""
"","ITI","","html-keyboard-response","165","206239","0.0-1.0-225.0","0","0","75141","","null","","","null","24","","","","","","","","","","","","","","","NaN",""
"","S1","","html-keyboard-response","166","206494","0.0-1.0-227.0","0","0","75141","","null","","","null","25","","","","","","","","","","","","","","","",""
"","ISI","","html-keyboard-response","167","208499","0.0-1.0-228.0","0","0","75141","","null","","","null","25","NaN","","","","","","","","","","","","","","",""
"","S2","","html-keyboard-response","168","208753","0.0-1.0-229.0","0","0","75141","","null","","","null","25","","NaN","","","","","","","","","","","","","",""
"","response","","html-keyboard-response","169","209232","0.0-1.0-230.0-0.0","0","0","75141","","476","","","75","25","","","1","25","training","adjacent","DC","4","3","R.jpg","P.jpg","1","0","0","",""
"","feedback","","html-keyboard-response","170","210237","0.0-1.0-231.0-0.0","0","0","75141","","null","","","null","25","","","","","","","","","","","","","","","",""
"","time_out","","html-keyboard-response","171","212241","0.0-1.0-233.0-0.0","0","0","75141","","null","","","null","25","","","","","","","","","","","","","","","",""
"","ITI","","html-keyboard-response","172","213246","0.0-1.0-234.0","0","0","75141","","null","","","null","25","","","","","","","","","","","","","","","NaN",""
"","S1","","html-keyboard-response","173","213499","0.0-1.0-236.0","0","0","75141","","null","","","null","26","","","","","","","","","","","","","","","",""
"","ISI","","html-keyboard-response","174","215503","0.0-1.0-237.0","0","0","75141","","null","","","null","26","NaN","","","","","","","","","","","","","","",""
"","S2","","html-keyboard-response","175","215758","0.0-1.0-238.0","0","0","75141","","null","","","null","26","","NaN","","","","","","","","","","","","","",""
"","response","","html-keyboard-response","176","216616","0.0-1.0-239.0-0.0","0","0","75141","","855","","","75","26","","","1","26","training","adjacent","BA","2","1","L.jpg","O.jpg","1","0","0","",""
"","feedback","","html-keyboard-response","177","217621","0.0-1.0-240.0-0.0","0","0","75141","","null","","","null","26","","","","","","","","","","","","","","","",""
"","time_out","","html-keyboard-response","178","219624","0.0-1.0-242.0-0.0","0","0","75141","","null","","","null","26","","","","","","","","","","","","","","","",""
"","ITI","","html-keyboard-response","179","220629","0.0-1.0-243.0","0","0","75141","","null","","","null","26","","","","","","","","","","","","","","","NaN",""
"","S1","","html-keyboard-response","180","220883","0.0-1.0-245.0","0","0","75141","","null","","","null","27","","","","","","","","","","","","","","","",""
"","ISI","","html-keyboard-response","181","222887","0.0-1.0-246.0","0","0","75141","","null","","","null","27","NaN","","","","","","","","","","","","","","",""
"","S2","","html-keyboard-response","182","223141","0.0-1.0-247.0","0","0","75141","","null","","","null","27","","NaN","","","","","","","","","","","","","",""
"","response","","html-keyboard-response","183","223948","0.0-1.0-248.0-0.0","0","0","75141","","804","","","68","27","","","1","27","training","adjacent","FG","6","7","Q.jpg","N.jpg","0","1","0","",""
"","feedback","","html-keyboard-response","184","224953","0.0-1.0-249.0-0.0","0","0","75141","","null","","","null","27","","","","","","","","","","","","","","","",""
"","time_out","","html-keyboard-response","185","226957","0.0-1.0-251.0-0.0","0","0","75141","","null","","","null","27","","","","","","","","","","","","","","","",""
"","ITI","","html-keyboard-response","186","227961","0.0-1.0-252.0","0","0","75141","","null","","","null","27","","","","","","","","","","","","","","","NaN",""
"","S1","","html-keyboard-response","187","228215","0.0-1.0-254.0","0","0","75141","","null","","","null","28","","","","","","","","","","","","","","","",""
"","ISI","","html-keyboard-response","188","230219","0.0-1.0-255.0","0","0","75141","","null","","","null","28","NaN","","","","","","","","","","","","","","",""
"","S2","","html-keyboard-response","189","230473","0.0-1.0-256.0","0","0","75141","","null","","","null","28","","NaN","","","","","","","","","","","","","",""
"","response","","html-keyboard-response","190","231413","0.0-1.0-257.0-0.0","0","0","75141","","937","","","68","28","","","1","28","training","adjacent","CD","3","4","P.jpg","R.jpg","0","1","0","",""
"","feedback","","html-keyboard-response","191","232417","0.0-1.0-258.0-0.0","0","0","75141","","null","","","null","28","","","","","","","","","","","","","","","",""
"","time_out","","html-keyboard-response","192","234421","0.0-1.0-260.0-0.0","0","0","75141","","null","","","null","28","","","","","","","","","","","","","","","",""
"","ITI","","html-keyboard-response","193","235425","0.0-1.0-261.0","0","0","75141","","null","","","null","28","","","","","","","","","","","","","","","NaN",""
"","S1","","html-keyboard-response","194","235679","0.0-1.0-263.0","0","0","75141","","null","","","null","29","","","","","","","","","","","","","","","",""
"","ISI","","html-keyboard-response","195","237683","0.0-1.0-264.0","0","0","75141","","null","","","null","29","NaN","","","","","","","","","","","","","","",""
"","S2","","html-keyboard-response","196","237937","0.0-1.0-265.0","0","0","75141","","null","","","null","29","","NaN","","","","","","","","","","","","","",""
"","response","","html-keyboard-response","197","238296","0.0-1.0-266.0-0.0","0","0","75141","","356","","","75","29","","","1","29","training","adjacent","CB","3","2","P.jpg","L.jpg","1","0","0","",""
"","feedback","","html-keyboard-response","198","239301","0.0-1.0-267.0-0.0","0","0","75141","","null","","","null","29","","","","","","","","","","","","","","","",""
"","time_out","","html-keyboard-response","199","241304","0.0-1.0-269.0-0.0","0","0","75141","","null","","","null","29","","","","","","","","","","","","","","","",""
"","ITI","","html-keyboard-response","200","242308","0.0-1.0-270.0","0","0","75141","","null","","","null","29","","","","","","","","","","","","","","","NaN",""
"","S1","","html-keyboard-response","201","242569","0.0-1.0-272.0","0","0","75141","","null","","","null","30","","","","","","","","","","","","","","","",""
"","ISI","","html-keyboard-response","202","244574","0.0-1.0-273.0","0","0","75141","","null","","","null","30","NaN","","","","","","","","","","","","","","",""
"","S2","","html-keyboard-response","203","244830","0.0-1.0-274.0","0","0","75141","","null","","","null","30","","NaN","","","","","","","","","","","","","",""
"","response","","html-keyboard-response","204","245712","0.0-1.0-275.0-0.0","0","0","75141","","879","","","68","30","","","1","30","training","adjacent","AB","1","2","O.jpg","L.jpg","0","1","0","",""
"","feedback","","html-keyboard-response","205","246717","0.0-1.0-276.0-0.0","0","0","75141","","null","","","null","30","","","","","","","","","","","","","","","",""
"","time_out","","html-keyboard-response","206","248722","0.0-1.0-278.0-0.0","0","0","75141","","null","","","null","30","","","","","","","","","","","","","","","",""
"","ITI","","html-keyboard-response","207","249726","0.0-1.0-279.0","0","0","75141","","null","","","null","30","","","","","","","","","","","","","","","NaN",""
"","S1","","html-keyboard-response","208","249980","0.0-1.0-281.0","0","0","75141","","null","","","null","31","","","","","","","","","","","","","","","",""
"","ISI","","html-keyboard-response","209","251984","0.0-1.0-282.0","0","0","75141","","null","","","null","31","NaN","","","","","","","","","","","","","","",""
"","S2","","html-keyboard-response","210","252239","0.0-1.0-283.0","0","0","75141","","null","","","null","31","","NaN","","","","","","","","","","","","","",""
"","response","","html-keyboard-response","211","252959","0.0-1.0-284.0-0.0","0","0","75141","","717","","","68","31","","","1","31","training","adjacent","ED","5","4","M.jpg","R.jpg","0","0","1","",""
"","feedback","","html-keyboard-response","212","253963","0.0-1.0-285.0-0.0","0","0","75141","","null","","","null","31","","","","","","","","","","","","","","","",""
"","ITI","","html-keyboard-response","213","254967","0.0-1.0-288.0","0","0","75141","","null","","","null","31","","","","","","","","","","","","","","","NaN",""
"","S1","","html-keyboard-response","214","255222","0.0-1.0-290.0","0","0","75141","","null","","","null","32","","","","","","","","","","","","","","","",""
"","ISI","","html-keyboard-response","215","257226","0.0-1.0-291.0","0","0","75141","","null","","","null","32","NaN","","","","","","","","","","","","","","",""
"","S2","","html-keyboard-response","216","257481","0.0-1.0-292.0","0","0","75141","","null","","","null","32","","NaN","","","","","","","","","","","","","",""
"","response","","html-keyboard-response","217","258335","0.0-1.0-293.0-0.0","0","0","75141","","851","","","75","32","","","1","32","training","adjacent","AB","1","2","O.jpg","L.jpg","1","1","1","",""
"","feedback","","html-keyboard-response","218","259340","0.0-1.0-294.0-0.0","0","0","75141","","null","","","null","32","","","","","","","","","","","","","","","",""
"","ITI","","html-keyboard-response","219","260344","0.0-1.0-297.0","0","0","75141","","null","","","null","32","","","","","","","","","","","","","","","NaN",""
"","S1","","html-keyboard-response","220","260596","0.0-1.0-299.0","0","0","75141","","null","","","null","33","","","","","","","","","","","","","","","",""
"","ISI","","html-keyboard-response","221","262599","0.0-1.0-300.0","0","0","75141","","null","","","null","33","NaN","","","","","","","","","","","","","","",""
"","S2","","html-keyboard-response","222","262854","0.0-1.0-301.0","0","0","75141","","null","","","null","33","","NaN","","","","","","","","","","","","","",""
"","response","","html-keyboard-response","223","263841","0.0-1.0-302.0-0.0","0","0","75141","","984","","","68","33","","","1","33","training","adjacent","CD","3","4","P.jpg","R.jpg","0","1","0","",""
"","feedback","","html-keyboard-response","224","264846","0.0-1.0-303.0-0.0","0","0","75141","","null","","","null","33","","","","","","","","","","","","","","","",""
"","time_out","","html-keyboard-response","225","266850","0.0-1.0-305.0-0.0","0","0","75141","","null","","","null","33","","","","","","","","","","","","","","","",""
"","ITI","","html-keyboard-response","226","267853","0.0-1.0-306.0","0","0","75141","","null","","","null","33","","","","","","","","","","","","","","","NaN",""
"","S1","","html-keyboard-response","227","268107","0.0-1.0-308.0","0","0","75141","","null","","","null","34","","","","","","","","","","","","","","","",""
"","ISI","","html-keyboard-response","228","270111","0.0-1.0-309.0","0","0","75141","","null","","","null","34","NaN","","","","","","","","","","","","","","",""
"","S2","","html-keyboard-response","229","270365","0.0-1.0-310.0","0","0","75141","","null","","","null","34","","NaN","","","","","","","","","","","","","",""
"","response","","html-keyboard-response","230","270761","0.0-1.0-311.0-0.0","0","0","75141","","391","","","75","34","","","1","34","training","adjacent","FE","6","5","Q.jpg","M.jpg","1","0","0","",""
"","feedback","","html-keyboard-response","231","271766","0.0-1.0-312.0-0.0","0","0","75141","","null","","","null","34","","","","","","","","","","","","","","","",""
"","time_out","","html-keyboard-response","232","273770","0.0-1.0-314.0-0.0","0","0","75141","","null","","","null","34","","","","","","","","","","","","","","","",""
"","ITI","","html-keyboard-response","233","274776","0.0-1.0-315.0","0","0","75141","","null","","","null","34","","","","","","","","","","","","","","","NaN",""
"","S1","","html-keyboard-response","234","275030","0.0-1.0-317.0","0","0","75141","","null","","","null","35","","","","","","","","","","","","","","","",""
"","ISI","","html-keyboard-response","235","277034","0.0-1.0-318.0","0","0","75141","","null","","","null","35","NaN","","","","","","","","","","","","","","",""
"","S2","","html-keyboard-response","236","277288","0.0-1.0-319.0","0","0","75141","","null","","","null","35","","NaN","","","","","","","","","","","","","",""
"","response","","html-keyboard-response","237","278210","0.0-1.0-320.0-0.0","0","0","75141","","920","","","68","35","","","1","35","training","adjacent","FE","6","5","Q.jpg","M.jpg","0","0","1","",""
"","feedback","","html-keyboard-response","238","279215","0.0-1.0-321.0-0.0","0","0","75141","","null","","","null","35","","","","","","","","","","","","","","","",""
"","ITI","","html-keyboard-response","239","280234","0.0-1.0-324.0","0","0","75141","","null","","","null","35","","","","","","","","","","","","","","","NaN",""
"","S1","","html-keyboard-response","240","280488","0.0-1.0-326.0","0","0","75141","","null","","","null","36","","","","","","","","","","","","","","","",""
"","ISI","","html-keyboard-response","241","282492","0.0-1.0-327.0","0","0","75141","","null","","","null","36","NaN","","","","","","","","","","","","","","",""
"","S2","","html-keyboard-response","242","282746","0.0-1.0-328.0","0","0","75141","","null","","","null","36","","NaN","","","","","","","","","","","","","",""
"","response","","html-keyboard-response","243","283608","0.0-1.0-329.0-0.0","0","0","75141","","859","","","75","36","","","1","36","training","adjacent","CB","3","2","P.jpg","L.jpg","1","0","0","",""
"","feedback","","html-keyboard-response","244","284612","0.0-1.0-330.0-0.0","0","0","75141","","null","","","null","36","","","","","","","","","","","","","","","",""
"","time_out","","html-keyboard-response","245","286615","0.0-1.0-332.0-0.0","0","0","75141","","null","","","null","36","","","","","","","","","","","","","","","",""
"","ITI","","html-keyboard-response","246","287620","0.0-1.0-333.0","0","0","75141","","null","","","null","36","","","","","","","","","","","","","","","NaN",""
"","S1","","html-keyboard-response","247","287874","0.0-1.0-335.0","0","0","75141","","null","","","null","37","","","","","","","","","","","","","","","",""
"","ISI","","html-keyboard-response","248","289877","0.0-1.0-336.0","0","0","75141","","null","","","null","37","NaN","","","","","","","","","","","","","","",""
"","S2","","html-keyboard-response","249","290131","0.0-1.0-337.0","0","0","75141","","null","","","null","37","","NaN","","","","","","","","","","","","","",""
"","response","","html-keyboard-response","250","290996","0.0-1.0-338.0-0.0","0","0","75141","","861","","","75","37","","","1","37","training","adjacent","BC","2","3","L.jpg","P.jpg","1","1","1","",""
"","feedback","","html-keyboard-response","251","292000","0.0-1.0-339.0-0.0","0","0","75141","","null","","","null","37","","","","","","","","","","","","","","","",""
"","ITI","","html-keyboard-response","252","293005","0.0-1.0-342.0","0","0","75141","","null","","","null","37","","","","","","","","","","","","","","","NaN",""
"","S1","","html-keyboard-response","253","293259","0.0-1.0-344.0","0","0","75141","","null","","","null","38","","","","","","","","","","","","","","","",""
"","ISI","","html-keyboard-response","254","295262","0.0-1.0-345.0","0","0","75141","","null","","","null","38","NaN","","","","","","","","","","","","","","",""
"","S2","","html-keyboard-response","255","295516","0.0-1.0-346.0","0","0","75141","","null","","","null","38","","NaN","","","","","","","","","","","","","",""
"","response","","html-keyboard-response","256","296211","0.0-1.0-347.0-0.0","0","0","75141","","692","","","68","38","","","1","38","training","adjacent","AB","1","2","O.jpg","L.jpg","0","1","0","",""
"","feedback","","html-keyboard-response","257","297231","0.0-1.0-348.0-0.0","0","0","75141","","null","","","null","38","","","","","","","","","","","","","","","",""
"","time_out","","html-keyboard-response","258","299235","0.0-1.0-350.0-0.0","0","0","75141","","null","","","null","38","","","","","","","","","","","","","","","",""
"","ITI","","html-keyboard-response","259","300240","0.0-1.0-351.0","0","0","75141","","null","","","null","38","","","","","","","","","","","","","","","NaN",""
"","S1","","html-keyboard-response","260","300493","0.0-1.0-353.0","0","0","75141","","null","","","null","39","","","","","","","","","","","","","","","",""
"","ISI","","html-keyboard-response","261","302498","0.0-1.0-354.0","0","0","75141","","null","","","null","39","NaN","","","","","","","","","","","","","","",""
"","S2","","html-keyboard-response","262","302752","0.0-1.0-355.0","0","0","75141","","null","","","null","39","","NaN","","","","","","","","","","","","","",""
"","response","","html-keyboard-response","263","303596","0.0-1.0-356.0-0.0","0","0","75141","","841","","","75","39","","","1","39","training","adjacent","FE","6","5","Q.jpg","M.jpg","1","0","0","",""
"","feedback","","html-keyboard-response","264","304601","0.0-1.0-357.0-0.0","0","0","75141","","null","","","null","39","","","","","","","","","","","","","","","",""
"","time_out","","html-keyboard-response","265","306605","0.0-1.0-359.0-0.0","0","0","75141","","null","","","null","39","","","","","","","","","","","","","","","",""
"","ITI","","html-keyboard-response","266","307608","0.0-1.0-360.0","0","0","75141","","null","","","null","39","","","","","","","","","","","","","","","NaN",""
"","S1","","html-keyboard-response","267","307861","0.0-1.0-362.0","0","0","75141","","null","","","null","40","","","","","","","","","","","","","","","",""
"","ISI","","html-keyboard-response","268","309865","0.0-1.0-363.0","0","0","75141","","null","","","null","40","NaN","","","","","","","","","","","","","","",""
"","S2","","html-keyboard-response","269","310119","0.0-1.0-364.0","0","0","75141","","null","","","null","40","","NaN","","","","","","","","","","","","","",""
"","response","","html-keyboard-response","270","310640","0.0-1.0-365.0-0.0","0","0","75141","","518","","","68","40","","","1","40","training","adjacent","ED","5","4","M.jpg","R.jpg","0","0","1","",""
"","feedback","","html-keyboard-response","271","311645","0.0-1.0-366.0-0.0","0","0","75141","","null","","","null","40","","","","","","","","","","","","","","","",""
"","ITI","","html-keyboard-response","272","312649","0.0-1.0-369.0","0","0","75141","","null","","","null","40","","","","","","","","","","","","","","","NaN",""
"","S1","","html-keyboard-response","273","312903","0.0-1.0-371.0","0","0","75141","","null","","","null","41","","","","","","","","","","","","","","","",""
"","ISI","","html-keyboard-response","274","314906","0.0-1.0-372.0","0","0","75141","","null","","","null","41","NaN","","","","","","","","","","","","","","",""
"","S2","","html-keyboard-response","275","315161","0.0-1.0-373.0","0","0","75141","","null","","","null","41","","NaN","","","","","","","","","","","","","",""
"","response","","html-keyboard-response","276","316038","0.0-1.0-374.0-0.0","0","0","75141","","874","","","75","41","","","1","41","training","adjacent","GF","7","6","N.jpg","Q.jpg","1","0","0","",""
"","feedback","","html-keyboard-response","277","317042","0.0-1.0-375.0-0.0","0","0","75141","","null","","","null","41","","","","","","","","","","","","","","","",""
"","time_out","","html-keyboard-response","278","319047","0.0-1.0-377.0-0.0","0","0","75141","","null","","","null","41","","","","","","","","","","","","","","","",""
"","ITI","","html-keyboard-response","279","320051","0.0-1.0-378.0","0","0","75141","","null","","","null","41","","","","","","","","","","","","","","","NaN",""
"","S1","","html-keyboard-response","280","320305","0.0-1.0-380.0","0","0","75141","","null","","","null","42","","","","","","","","","","","","","","","",""
"","ISI","","html-keyboard-response","281","322309","0.0-1.0-381.0","0","0","75141","","null","","","null","42","NaN","","","","","","","","","","","","","","",""
"","S2","","html-keyboard-response","282","322564","0.0-1.0-382.0","0","0","75141","","null","","","null","42","","NaN","","","","","","","","","","","","","",""
"","response","","html-keyboard-response","283","323538","0.0-1.0-383.0-0.0","0","0","75141","","971","","","68","42","","","1","42","training","adjacent","BA","2","1","L.jpg","O.jpg","0","0","1","",""
"","feedback","","html-keyboard-response","284","324543","0.0-1.0-384.0-0.0","0","0","75141","","null","","","null","42","","","","","","","","","","","","","","","",""
"","ITI","","html-keyboard-response","285","325547","0.0-1.0-387.0","0","0","75141","","null","","","null","42","","","","","","","","","","","","","","","NaN",""
"","S1","","html-keyboard-response","286","325801","0.0-1.0-389.0","0","0","75141","","null","","","null","43","","","","","","","","","","","","","","","",""
"","ISI","","html-keyboard-response","287","327805","0.0-1.0-390.0","0","0","75141","","null","","","null","43","NaN","","","","","","","","","","","","","","",""
"","S2","","html-keyboard-response","288","328060","0.0-1.0-391.0","0","0","75141","","null","","","null","43","","NaN","","","","","","","","","","","","","",""
"","response","","html-keyboard-response","289","328582","0.0-1.0-392.0-0.0","0","0","75141","","518","","","68","43","","","1","43","training","adjacent","EF","5","6","M.jpg","Q.jpg","0","1","0","",""
"","feedback","","html-keyboard-response","290","329586","0.0-1.0-393.0-0.0","0","0","75141","","null","","","null","43","","","","","","","","","","","","","","","",""
"","time_out","","html-keyboard-response","291","331590","0.0-1.0-395.0-0.0","0","0","75141","","null","","","null","43","","","","","","","","","","","","","","","",""
"","ITI","","html-keyboard-response","292","332594","0.0-1.0-396.0","0","0","75141","","null","","","null","43","","","","","","","","","","","","","","","NaN",""
"","S1","","html-keyboard-response","293","332849","0.0-1.0-398.0","0","0","75141","","null","","","null","44","","","","","","","","","","","","","","","",""
"","ISI","","html-keyboard-response","294","334853","0.0-1.0-399.0","0","0","75141","","null","","","null","44","NaN","","","","","","","","","","","","","","",""
"","S2","","html-keyboard-response","295","335107","0.0-1.0-400.0","0","0","75141","","null","","","null","44","","NaN","","","","","","","","","","","","","",""
"","response","","html-keyboard-response","296","335571","0.0-1.0-401.0-0.0","0","0","75141","","461","","","75","44","","","1","44","training","adjacent","EF","5","6","M.jpg","Q.jpg","1","1","1","",""
"","feedback","","html-keyboard-response","297","336575","0.0-1.0-402.0-0.0","0","0","75141","","null","","","null","44","","","","","","","","","","","","","","","",""
"","ITI","","html-keyboard-response","298","337580","0.0-1.0-405.0","0","0","75141","","null","","","null","44","","","","","","","","","","","","","","","NaN",""
"","S1","","html-keyboard-response","299","337835","0.0-1.0-407.0","0","0","75141","","null","","","null","45","","","","","","","","","","","","","","","",""
"","ISI","","html-keyboard-response","300","339838","0.0-1.0-408.0","0","0","75141","","null","","","null","45","NaN","","","","","","","","","","","","","","",""
"","S2","","html-keyboard-response","301","340094","0.0-1.0-409.0","0","0","75141","","null","","","null","45","","NaN","","","","","","","","","","","","","",""
"","response","","html-keyboard-response","302","341114","0.0-1.0-410.0-0.0","0","0","75141","","1017","","","68","45","","","1","45","training","adjacent","GF","7","6","N.jpg","Q.jpg","0","0","1","",""
"","feedback","","html-keyboard-response","303","342119","0.0-1.0-411.0-0.0","0","0","75141","","null","","","null","45","","","","","","","","","","","","","","","",""
"","ITI","","html-keyboard-response","304","343124","0.0-1.0-414.0","0","0","75141","","null","","","null","45","","","","","","","","","","","","","","","NaN",""
"","S1","","html-keyboard-response","305","343378","0.0-1.0-416.0","0","0","75141","","null","","","null","46","","","","","","","","","","","","","","","",""
"","ISI","","html-keyboard-response","306","345382","0.0-1.0-417.0","0","0","75141","","null","","","null","46","NaN","","","","","","","","","","","","","","",""
"","S2","","html-keyboard-response","307","345636","0.0-1.0-418.0","0","0","75141","","null","","","null","46","","NaN","","","","","","","","","","","","","",""
"","response","","html-keyboard-response","308","345971","0.0-1.0-419.0-0.0","0","0","75141","","330","","","75","46","","","1","46","training","adjacent","AB","1","2","O.jpg","L.jpg","1","1","1","",""
"","feedback","","html-keyboard-response","309","346975","0.0-1.0-420.0-0.0","0","0","75141","","null","","","null","46","","","","","","","","","","","","","","","",""
"","ITI","","html-keyboard-response","310","347980","0.0-1.0-423.0","0","0","75141","","null","","","null","46","","","","","","","","","","","","","","","NaN",""
"","S1","","html-keyboard-response","311","348234","0.0-1.0-425.0","0","0","75141","","null","","","null","47","","","","","","","","","","","","","","","",""
"","ISI","","html-keyboard-response","312","350238","0.0-1.0-426.0","0","0","75141","","null","","","null","47","NaN","","","","","","","","","","","","","","",""
"","S2","","html-keyboard-response","313","350492","0.0-1.0-427.0","0","0","75141","","null","","","null","47","","NaN","","","","","","","","","","","","","",""
"","response","","html-keyboard-response","314","351134","0.0-1.0-428.0-0.0","0","0","75141","","639","","","75","47","","","1","47","training","adjacent","CB","3","2","P.jpg","L.jpg","1","0","0","",""
"","feedback","","html-keyboard-response","315","352139","0.0-1.0-429.0-0.0","0","0","75141","","null","","","null","47","","","","","","","","","","","","","","","",""
"","time_out","","html-keyboard-response","316","354144","0.0-1.0-431.0-0.0","0","0","75141","","null","","","null","47","","","","","","","","","","","","","","","",""
"","ITI","","html-keyboard-response","317","355149","0.0-1.0-432.0","0","0","75141","","null","","","null","47","","","","","","","","","","","","","","","NaN",""
"","block_over","","html-keyboard-response","318","373144","0.0-1.0-433.0-0.0","0","0","75141","","17991","","","32","47","","","","","","","","","","","","","","","",""
"","S1","","html-keyboard-response","319","373399","0.0-1.0-434.0","0","0","75141","","null","","","null","48","","","","","","","","","","","","","","","",""
"","ISI","","html-keyboard-response","320","375403","0.0-1.0-435.0","0","0","75141","","null","","","null","48","NaN","","","","","","","","","","","","","","",""
"","S2","","html-keyboard-response","321","375657","0.0-1.0-436.0","0","0","75141","","null","","","null","48","","NaN","","","","","","","","","","","","","",""
"","response","","html-keyboard-response","322","376535","0.0-1.0-437.0-0.0","0","0","75141","","874","","","68","48","","","2","48","training","adjacent","CB","3","2","P.jpg","L.jpg","0","0","1","",""
"","feedback","","html-keyboard-response","323","377539","0.0-1.0-438.0-0.0","0","0","75141","","null","","","null","48","","","","","","","","","","","","","","","",""
"","ITI","","html-keyboard-response","324","378544","0.0-1.0-441.0","0","0","75141","","null","","","null","48","","","","","","","","","","","","","","","NaN",""
"","S1","","html-keyboard-response","325","378798","0.0-1.0-443.0","0","0","75141","","null","","","null","49","","","","","","","","","","","","","","","",""
"","ISI","","html-keyboard-response","326","380804","0.0-1.0-444.0","0","0","75141","","null","","","null","49","NaN","","","","","","","","","","","","","","",""
"","S2","","html-keyboard-response","327","381058","0.0-1.0-445.0","0","0","75141","","null","","","null","49","","NaN","","","","","","","","","","","","","",""
"","response","","html-keyboard-response","328","381544","0.0-1.0-446.0-0.0","0","0","75141","","482","","","75","49","","","2","49","training","adjacent","EF","5","6","M.jpg","Q.jpg","1","1","1","",""
"","feedback","","html-keyboard-response","329","382549","0.0-1.0-447.0-0.0","0","0","75141","","null","","","null","49","","","","","","","","","","","","","","","",""
"","ITI","","html-keyboard-response","330","383554","0.0-1.0-450.0","0","0","75141","","null","","","null","49","","","","","","","","","","","","","","","NaN",""
"","S1","","html-keyboard-response","331","383807","0.0-1.0-452.0","0","0","75141","","null","","","null","50","","","","","","","","","","","","","","","",""
"","ISI","","html-keyboard-response","332","385811","0.0-1.0-453.0","0","0","75141","","null","","","null","50","NaN","","","","","","","","","","","","","","",""
"","S2","","html-keyboard-response","333","386066","0.0-1.0-454.0","0","0","75141","","null","","","null","50","","NaN","","","","","","","","","","","","","",""
"","response","","html-keyboard-response","334","386808","0.0-1.0-455.0-0.0","0","0","75141","","738","","","68","50","","","2","50","training","adjacent","DC","4","3","R.jpg","P.jpg","0","0","1","",""
"","feedback","","html-keyboard-response","335","387813","0.0-1.0-456.0-0.0","0","0","75141","","null","","","null","50","","","","","","","","","","","","","","","",""
"","ITI","","html-keyboard-response","336","388818","0.0-1.0-459.0","0","0","75141","","null","","","null","50","","","","","","","","","","","","","","","NaN",""
"","S1","","html-keyboard-response","337","389074","0.0-1.0-461.0","0","0","75141","","null","","","null","51","","","","","","","","","","","","","","","",""
"","ISI","","html-keyboard-response","338","391077","0.0-1.0-462.0","0","0","75141","","null","","","null","51","NaN","","","","","","","","","","","","","","",""
"","S2","","html-keyboard-response","339","391332","0.0-1.0-463.0","0","0","75141","","null","","","null","51","","NaN","","","","","","","","","","","","","",""
"","response","","html-keyboard-response","340","392326","0.0-1.0-464.0-0.0","0","0","75141","","991","","","75","51","","","2","51","training","adjacent","EF","5","6","M.jpg","Q.jpg","1","1","1","",""
"","feedback","","html-keyboard-response","341","393331","0.0-1.0-465.0-0.0","0","0","75141","","null","","","null","51","","","","","","","","","","","","","","","",""
"","ITI","","html-keyboard-response","342","394335","0.0-1.0-468.0","0","0","75141","","null","","","null","51","","","","","","","","","","","","","","","NaN",""
"","S1","","html-keyboard-response","343","394590","0.0-1.0-470.0","0","0","75141","","null","","","null","52","","","","","","","","","","","","","","","",""
"","ISI","","html-keyboard-response","344","396594","0.0-1.0-471.0","0","0","75141","","null","","","null","52","NaN","","","","","","","","","","","","","","",""
"","S2","","html-keyboard-response","345","396848","0.0-1.0-472.0","0","0","75141","","null","","","null","52","","NaN","","","","","","","","","","","","","",""
"","response","","html-keyboard-response","346","397237","0.0-1.0-473.0-0.0","0","0","75141","","385","","","68","52","","","2","52","training","adjacent","CB","3","2","P.jpg","L.jpg","0","0","1","",""
"","feedback","","html-keyboard-response","347","398241","0.0-1.0-474.0-0.0","0","0","75141","","null","","","null","52","","","","","","","","","","","","","","","",""
"","ITI","","html-keyboard-response","348","399246","0.0-1.0-477.0","0","0","75141","","null","","","null","52","","","","","","","","","","","","","","","NaN",""
"","S1","","html-keyboard-response","349","399501","0.0-1.0-479.0","0","0","75141","","null","","","null","53","","","","","","","","","","","","","","","",""
"","ISI","","html-keyboard-response","350","401504","0.0-1.0-480.0","0","0","75141","","null","","","null","53","NaN","","","","","","","","","","","","","","",""
"","S2","","html-keyboard-response","351","401759","0.0-1.0-481.0","0","0","75141","","null","","","null","53","","NaN","","","","","","","","","","","","","",""
"","response","","html-keyboard-response","352","402086","0.0-1.0-482.0-0.0","0","0","75141","","324","","","75","53","","","2","53","training","adjacent","FE","6","5","Q.jpg","M.jpg","1","0","0","",""
"","feedback","","html-keyboard-response","353","403091","0.0-1.0-483.0-0.0","0","0","75141","","null","","","null","53","","","","","","","","","","","","","","","",""
"","time_out","","html-keyboard-response","354","405095","0.0-1.0-485.0-0.0","0","0","75141","","null","","","null","53","","","","","","","","","","","","","","","",""
"","ITI","","html-keyboard-response","355","406099","0.0-1.0-486.0","0","0","75141","","null","","","null","53","","","","","","","","","","","","","","","NaN",""
"","S1","","html-keyboard-response","356","406354","0.0-1.0-488.0","0","0","75141","","null","","","null","54","","","","","","","","","","","","","","","",""
"","ISI","","html-keyboard-response","357","408358","0.0-1.0-489.0","0","0","75141","","null","","","null","54","NaN","","","","","","","","","","","","","","",""
"","S2","","html-keyboard-response","358","408613","0.0-1.0-490.0","0","0","75141","","null","","","null","54","","NaN","","","","","","","","","","","","","",""
"","response","","html-keyboard-response","359","409199","0.0-1.0-491.0-0.0","0","0","75141","","583","","","75","54","","","2","54","training","adjacent","DE","4","5","R.jpg","M.jpg","1","1","1","",""
"","feedback","","html-keyboard-response","360","410204","0.0-1.0-492.0-0.0","0","0","75141","","null","","","null","54","","","","","","","","","","","","","","","",""
"","ITI","","html-keyboard-response","361","411209","0.0-1.0-495.0","0","0","75141","","null","","","null","54","","","","","","","","","","","","","","","NaN",""
"","S1","","html-keyboard-response","362","411464","0.0-1.0-497.0","0","0","75141","","null","","","null","55","","","","","","","","","","","","","","","",""
"","ISI","","html-keyboard-response","363","413468","0.0-1.0-498.0","0","0","75141","","null","","","null","55","NaN","","","","","","","","","","","","","","",""
"","S2","","html-keyboard-response","364","413731","0.0-1.0-499.0","0","0","75141","","null","","","null","55","","NaN","","","","","","","","","","","","","",""
"","response","","html-keyboard-response","365","414289","0.0-1.0-500.0-0.0","0","0","75141","","554","","","75","55","","","2","55","training","adjacent","ED","5","4","M.jpg","R.jpg","1","0","0","",""
"","feedback","","html-keyboard-response","366","415293","0.0-1.0-501.0-0.0","0","0","75141","","null","","","null","55","","","","","","","","","","","","","","","",""
"","time_out","","html-keyboard-response","367","417298","0.0-1.0-503.0-0.0","0","0","75141","","null","","","null","55","","","","","","","","","","","","","","","",""
"","ITI","","html-keyboard-response","368","418303","0.0-1.0-504.0","0","0","75141","","null","","","null","55","","","","","","","","","","","","","","","NaN",""
"","S1","","html-keyboard-response","369","418557","0.0-1.0-506.0","0","0","75141","","null","","","null","56","","","","","","","","","","","","","","","",""
"","ISI","","html-keyboard-response","370","420562","0.0-1.0-507.0","0","0","75141","","null","","","null","56","NaN","","","","","","","","","","","","","","",""
"","S2","","html-keyboard-response","371","420816","0.0-1.0-508.0","0","0","75141","","null","","","null","56","","NaN","","","","","","","","","","","","","",""
"","response","","html-keyboard-response","372","421452","0.0-1.0-509.0-0.0","0","0","75141","","633","","","75","56","","","2","56","training","adjacent","EF","5","6","M.jpg","Q.jpg","1","1","1","",""
"","feedback","","html-keyboard-response","373","422458","0.0-1.0-510.0-0.0","0","0","75141","","null","","","null","56","","","","","","","","","","","","","","","",""
"","ITI","","html-keyboard-response","374","423463","0.0-1.0-513.0","0","0","75141","","null","","","null","56","","","","","","","","","","","","","","","NaN",""
"","S1","","html-keyboard-response","375","423717","0.0-1.0-515.0","0","0","75141","","null","","","null","57","","","","","","","","","","","","","","","",""
"","ISI","","html-keyboard-response","376","425720","0.0-1.0-516.0","0","0","75141","","null","","","null","57","NaN","","","","","","","","","","","","","","",""
"","S2","","html-keyboard-response","377","425975","0.0-1.0-517.0","0","0","75141","","null","","","null","57","","NaN","","","","","","","","","","","","","",""
"","response","","html-keyboard-response","378","426249","0.0-1.0-518.0-0.0","0","0","75141","","271","","","68","57","","","2","57","training","adjacent","FG","6","7","Q.jpg","N.jpg","0","1","0","",""
"","feedback","","html-keyboard-response","379","427266","0.0-1.0-519.0-0.0","0","0","75141","","null","","","null","57","","","","","","","","","","","","","","","",""
"","time_out","","html-keyboard-response","380","429271","0.0-1.0-521.0-0.0","0","0","75141","","null","","","null","57","","","","","","","","","","","","","","","",""
"","ITI","","html-keyboard-response","381","430275","0.0-1.0-522.0","0","0","75141","","null","","","null","57","","","","","","","","","","","","","","","NaN",""
"","S1","","html-keyboard-response","382","430530","0.0-1.0-524.0","0","0","75141","","null","","","null","58","","","","","","","","","","","","","","","",""
"","ISI","","html-keyboard-response","383","432534","0.0-1.0-525.0","0","0","75141","","null","","","null","58","NaN","","","","","","","","","","","","","","",""
"","S2","","html-keyboard-response","384","432788","0.0-1.0-526.0","0","0","75141","","null","","","null","58","","NaN","","","","","","","","","","","","","",""
"","response","","html-keyboard-response","385","433131","0.0-1.0-527.0-0.0","0","0","75141","","338","","","68","58","","","2","58","training","adjacent","AB","1","2","O.jpg","L.jpg","0","1","0","",""
"","feedback","","html-keyboard-response","386","434136","0.0-1.0-528.0-0.0","0","0","75141","","null","","","null","58","","","","","","","","","","","","","","","",""
"","time_out","","html-keyboard-response","387","436139","0.0-1.0-530.0-0.0","0","0","75141","","null","","","null","58","","","","","","","","","","","","","","","",""
"","ITI","","html-keyboard-response","388","437144","0.0-1.0-531.0","0","0","75141","","null","","","null","58","","","","","","","","","","","","","","","NaN",""
"","S1","","html-keyboard-response","389","437398","0.0-1.0-533.0","0","0","75141","","null","","","null","59","","","","","","","","","","","","","","","",""
"","ISI","","html-keyboard-response","390","439401","0.0-1.0-534.0","0","0","75141","","null","","","null","59","NaN","","","","","","","","","","","","","","",""
"","S2","","html-keyboard-response","391","439655","0.0-1.0-535.0","0","0","75141","","null","","","null","59","","NaN","","","","","","","","","","","","","",""
"","response","","html-keyboard-response","392","440594","0.0-1.0-536.0-0.0","0","0","75141","","934","","","75","59","","","2","59","training","adjacent","BC","2","3","L.jpg","P.jpg","1","1","1","",""
"","feedback","","html-keyboard-response","393","441599","0.0-1.0-537.0-0.0","0","0","75141","","null","","","null","59","","","","","","","","","","","","","","","",""
"","ITI","","html-keyboard-response","394","442604","0.0-1.0-540.0","0","0","75141","","null","","","null","59","","","","","","","","","","","","","","","NaN",""
"","S1","","html-keyboard-response","395","442858","0.0-1.0-542.0","0","0","75141","","null","","","null","60","","","","","","","","","","","","","","","",""
"","ISI","","html-keyboard-response","396","444862","0.0-1.0-543.0","0","0","75141","","null","","","null","60","NaN","","","","","","","","","","","","","","",""
"","S2","","html-keyboard-response","397","445117","0.0-1.0-544.0","0","0","75141","","null","","","null","60","","NaN","","","","","","","","","","","","","",""
"","response","","html-keyboard-response","398","445693","0.0-1.0-545.0-0.0","0","0","75141","","573","","","75","60","","","2","60","training","adjacent","GF","7","6","N.jpg","Q.jpg","1","0","0","",""
"","feedback","","html-keyboard-response","399","446698","0.0-1.0-546.0-0.0","0","0","75141","","null","","","null","60","","","","","","","","","","","","","","","",""
"","time_out","","html-keyboard-response","400","448704","0.0-1.0-548.0-0.0","0","0","75141","","null","","","null","60","","","","","","","","","","","","","","","",""
"","ITI","","html-keyboard-response","401","449708","0.0-1.0-549.0","0","0","75141","","null","","","null","60","","","","","","","","","","","","","","","NaN",""
"","S1","","html-keyboard-response","402","449965","0.0-1.0-551.0","0","0","75141","","null","","","null","61","","","","","","","","","","","","","","","",""
"","ISI","","html-keyboard-response","403","451969","0.0-1.0-552.0","0","0","75141","","null","","","null","61","NaN","","","","","","","","","","","","","","",""
"","S2","","html-keyboard-response","404","452223","0.0-1.0-553.0","0","0","75141","","null","","","null","61","","NaN","","","","","","","","","","","","","",""
"","response","","html-keyboard-response","405","453319","0.0-1.0-554.0-0.0","0","0","75141","","1093","","","75","61","","","2","61","training","adjacent","ED","5","4","M.jpg","R.jpg","1","0","0","",""
"","feedback","","html-keyboard-response","406","454324","0.0-1.0-555.0-0.0","0","0","75141","","null","","","null","61","","","","","","","","","","","","","","","",""
"","time_out","","html-keyboard-response","407","456328","0.0-1.0-557.0-0.0","0","0","75141","","null","","","null","61","","","","","","","","","","","","","","","",""
"","ITI","","html-keyboard-response","408","457333","0.0-1.0-558.0","0","0","75141","","null","","","null","61","","","","","","","","","","","","","","","NaN",""
"","S1","","html-keyboard-response","409","457588","0.0-1.0-560.0","0","0","75141","","null","","","null","62","","","","","","","","","","","","","","","",""
"","ISI","","html-keyboard-response","410","459592","0.0-1.0-561.0","0","0","75141","","null","","","null","62","NaN","","","","","","","","","","","","","","",""
"","S2","","html-keyboard-response","411","459846","0.0-1.0-562.0","0","0","75141","","null","","","null","62","","NaN","","","","","","","","","","","","","",""
"","response","","html-keyboard-response","412","460134","0.0-1.0-563.0-0.0","0","0","75141","","285","","","68","62","","","2","62","training","adjacent","FG","6","7","Q.jpg","N.jpg","0","1","0","",""
"","feedback","","html-keyboard-response","413","461139","0.0-1.0-564.0-0.0","0","0","75141","","null","","","null","62","","","","","","","","","","","","","","","",""
"","time_out","","html-keyboard-response","414","463143","0.0-1.0-566.0-0.0","0","0","75141","","null","","","null","62","","","","","","","","","","","","","","","",""
"","ITI","","html-keyboard-response","415","464147","0.0-1.0-567.0","0","0","75141","","null","","","null","62","","","","","","","","","","","","","","","NaN",""
"","S1","","html-keyboard-response","416","464402","0.0-1.0-569.0","0","0","75141","","null","","","null","63","","","","","","","","","","","","","","","",""
"","ISI","","html-keyboard-response","417","466405","0.0-1.0-570.0","0","0","75141","","null","","","null","63","NaN","","","","","","","","","","","","","","",""
"","S2","","html-keyboard-response","418","466659","0.0-1.0-571.0","0","0","75141","","null","","","null","63","","NaN","","","","","","","","","","","","","",""
"","response","","html-keyboard-response","419","467501","0.0-1.0-572.0-0.0","0","0","75141","","838","","","68","63","","","2","63","training","adjacent","BA","2","1","L.jpg","O.jpg","0","0","1","",""
"","feedback","","html-keyboard-response","420","468506","0.0-1.0-573.0-0.0","0","0","75141","","null","","","null","63","","","","","","","","","","","","","","","",""
"","ITI","","html-keyboard-response","421","469510","0.0-1.0-576.0","0","0","75141","","null","","","null","63","","","","","","","","","","","","","","","NaN",""
"","S1","","html-keyboard-response","422","469764","0.0-1.0-578.0","0","0","75141","","null","","","null","64","","","","","","","","","","","","","","","",""
"","ISI","","html-keyboard-response","423","471768","0.0-1.0-579.0","0","0","75141","","null","","","null","64","NaN","","","","","","","","","","","","","","",""
"","S2","","html-keyboard-response","424","472023","0.0-1.0-580.0","0","0","75141","","null","","","null","64","","NaN","","","","","","","","","","","","","",""
"","response","","html-keyboard-response","425","472458","0.0-1.0-581.0-0.0","0","0","75141","","432","","","75","64","","","2","64","training","adjacent","DE","4","5","R.jpg","M.jpg","1","1","1","",""
"","feedback","","html-keyboard-response","426","473463","0.0-1.0-582.0-0.0","0","0","75141","","null","","","null","64","","","","","","","","","","","","","","","",""
"","ITI","","html-keyboard-response","427","474468","0.0-1.0-585.0","0","0","75141","","null","","","null","64","","","","","","","","","","","","","","","NaN",""
"","S1","","html-keyboard-response","428","474724","0.0-1.0-587.0","0","0","75141","","null","","","null","65","","","","","","","","","","","","","","","",""
"","ISI","","html-keyboard-response","429","476727","0.0-1.0-588.0","0","0","75141","","null","","","null","65","NaN","","","","","","","","","","","","","","",""
"","S2","","html-keyboard-response","430","476982","0.0-1.0-589.0","0","0","75141","","null","","","null","65","","NaN","","","","","","","","","","","","","",""
"","response","","html-keyboard-response","431","478063","0.0-1.0-590.0-0.0","0","0","75141","","1078","","","68","65","","","2","65","training","adjacent","GF","7","6","N.jpg","Q.jpg","0","0","1","",""
"","feedback","","html-keyboard-response","432","479068","0.0-1.0-591.0-0.0","0","0","75141","","null","","","null","65","","","","","","","","","","","","","","","",""
"","ITI","","html-keyboard-response","433","480074","0.0-1.0-594.0","0","0","75141","","null","","","null","65","","","","","","","","","","","","","","","NaN",""
"","S1","","html-keyboard-response","434","480328","0.0-1.0-596.0","0","0","75141","","null","","","null","66","","","","","","","","","","","","","","","",""
"","ISI","","html-keyboard-response","435","482333","0.0-1.0-597.0","0","0","75141","","null","","","null","66","NaN","","","","","","","","","","","","","","",""
"","S2","","html-keyboard-response","436","482587","0.0-1.0-598.0","0","0","75141","","null","","","null","66","","NaN","","","","","","","","","","","","","",""
"","response","","html-keyboard-response","437","483270","0.0-1.0-599.0-0.0","0","0","75141","","680","","","68","66","","","2","66","training","adjacent","CD","3","4","P.jpg","R.jpg","0","1","0","",""
"","feedback","","html-keyboard-response","438","484275","0.0-1.0-600.0-0.0","0","0","75141","","null","","","null","66","","","","","","","","","","","","","","","",""
"","time_out","","html-keyboard-response","439","486279","0.0-1.0-602.0-0.0","0","0","75141","","null","","","null","66","","","","","","","","","","","","","","","",""
"","ITI","","html-keyboard-response","440","487282","0.0-1.0-603.0","0","0","75141","","null","","","null","66","","","","","","","","","","","","","","","NaN",""
"","S1","","html-keyboard-response","441","487535","0.0-1.0-605.0","0","0","75141","","null","","","null","67","","","","","","","","","","","","","","","",""
"","ISI","","html-keyboard-response","442","489538","0.0-1.0-606.0","0","0","75141","","null","","","null","67","NaN","","","","","","","","","","","","","","",""
"","S2","","html-keyboard-response","443","489793","0.0-1.0-607.0","0","0","75141","","null","","","null","67","","NaN","","","","","","","","","","","","","",""
"","response","","html-keyboard-response","444","490942","0.0-1.0-608.0-0.0","0","0","75141","","1144","","","75","67","","","2","67","training","adjacent","ED","5","4","M.jpg","R.jpg","1","0","0","",""
"","feedback","","html-keyboard-response","445","491947","0.0-1.0-609.0-0.0","0","0","75141","","null","","","null","67","","","","","","","","","","","","","","","",""
"","time_out","","html-keyboard-response","446","493953","0.0-1.0-611.0-0.0","0","0","75141","","null","","","null","67","","","","","","","","","","","","","","","",""
"","ITI","","html-keyboard-response","447","494958","0.0-1.0-612.0","0","0","75141","","null","","","null","67","","","","","","","","","","","","","","","NaN",""
"","S1","","html-keyboard-response","448","495214","0.0-1.0-614.0","0","0","75141","","null","","","null","68","","","","","","","","","","","","","","","",""
"","ISI","","html-keyboard-response","449","497217","0.0-1.0-615.0","0","0","75141","","null","","","null","68","NaN","","","","","","","","","","","","","","",""
"","S2","","html-keyboard-response","450","497473","0.0-1.0-616.0","0","0","75141","","null","","","null","68","","NaN","","","","","","","","","","","","","",""
"","response","","html-keyboard-response","451","497956","0.0-1.0-617.0-0.0","0","0","75141","","480","","","75","68","","","2","68","training","adjacent","EF","5","6","M.jpg","Q.jpg","1","1","1","",""
"","feedback","","html-keyboard-response","452","498960","0.0-1.0-618.0-0.0","0","0","75141","","null","","","null","68","","","","","","","","","","","","","","","",""
"","ITI","","html-keyboard-response","453","499964","0.0-1.0-621.0","0","0","75141","","null","","","null","68","","","","","","","","","","","","","","","NaN",""
"","S1","","html-keyboard-response","454","500219","0.0-1.0-623.0","0","0","75141","","null","","","null","69","","","","","","","","","","","","","","","",""
"","ISI","","html-keyboard-response","455","502223","0.0-1.0-624.0","0","0","75141","","null","","","null","69","NaN","","","","","","","","","","","","","","",""
"","S2","","html-keyboard-response","456","502478","0.0-1.0-625.0","0","0","75141","","null","","","null","69","","NaN","","","","","","","","","","","","","",""
"","response","","html-keyboard-response","457","502713","0.0-1.0-626.0-0.0","0","0","75141","","232","","","68","69","","","2","69","training","adjacent","FE","6","5","Q.jpg","M.jpg","0","0","1","",""
"","feedback","","html-keyboard-response","458","503718","0.0-1.0-627.0-0.0","0","0","75141","","null","","","null","69","","","","","","","","","","","","","","","",""
"","ITI","","html-keyboard-response","459","504724","0.0-1.0-630.0","0","0","75141","","null","","","null","69","","","","","","","","","","","","","","","NaN",""
"","S1","","html-keyboard-response","460","504977","0.0-1.0-632.0","0","0","75141","","null","","","null","70","","","","","","","","","","","","","","","",""
"","ISI","","html-keyboard-response","461","506981","0.0-1.0-633.0","0","0","75141","","null","","","null","70","NaN","","","","","","","","","","","","","","",""
"","S2","","html-keyboard-response","462","507235","0.0-1.0-634.0","0","0","75141","","null","","","null","70","","NaN","","","","","","","","","","","","","",""
"","response","","html-keyboard-response","463","507754","0.0-1.0-635.0-0.0","0","0","75141","","516","","","68","70","","","2","70","training","adjacent","DE","4","5","R.jpg","M.jpg","0","1","0","",""
"","feedback","","html-keyboard-response","464","508760","0.0-1.0-636.0-0.0","0","0","75141","","null","","","null","70","","","","","","","","","","","","","","","",""
"","time_out","","html-keyboard-response","465","510764","0.0-1.0-638.0-0.0","0","0","75141","","null","","","null","70","","","","","","","","","","","","","","","",""
"","ITI","","html-keyboard-response","466","511768","0.0-1.0-639.0","0","0","75141","","null","","","null","70","","","","","","","","","","","","","","","NaN",""
"","S1","","html-keyboard-response","467","512023","0.0-1.0-641.0","0","0","75141","","null","","","null","71","","","","","","","","","","","","","","","",""
"","ISI","","html-keyboard-response","468","514027","0.0-1.0-642.0","0","0","75141","","null","","","null","71","NaN","","","","","","","","","","","","","","",""
"","S2","","html-keyboard-response","469","514296","0.0-1.0-643.0","0","0","75141","","null","","","null","71","","NaN","","","","","","","","","","","","","",""
"","response","","html-keyboard-response","470","514669","0.0-1.0-644.0-0.0","0","0","75141","","369","","","75","71","","","2","71","training","adjacent","GF","7","6","N.jpg","Q.jpg","1","0","0","",""
"","feedback","","html-keyboard-response","471","515674","0.0-1.0-645.0-0.0","0","0","75141","","null","","","null","71","","","","","","","","","","","","","","","",""
"","time_out","","html-keyboard-response","472","517679","0.0-1.0-647.0-0.0","0","0","75141","","null","","","null","71","","","","","","","","","","","","","","","",""
"","ITI","","html-keyboard-response","473","518684","0.0-1.0-648.0","0","0","75141","","null","","","null","71","","","","","","","","","","","","","","","NaN",""
"","S1","","html-keyboard-response","474","518937","0.0-1.0-650.0","0","0","75141","","null","","","null","72","","","","","","","","","","","","","","","",""
"","ISI","","html-keyboard-response","475","520940","0.0-1.0-651.0","0","0","75141","","null","","","null","72","NaN","","","","","","","","","","","","","","",""
"","S2","","html-keyboard-response","476","521195","0.0-1.0-652.0","0","0","75141","","null","","","null","72","","NaN","","","","","","","","","","","","","",""
"","response","","html-keyboard-response","477","521836","0.0-1.0-653.0-0.0","0","0","75141","","637","","","75","72","","","2","72","training","adjacent","DE","4","5","R.jpg","M.jpg","1","1","1","",""
"","feedback","","html-keyboard-response","478","522840","0.0-1.0-654.0-0.0","0","0","75141","","null","","","null","72","","","","","","","","","","","","","","","",""
"","ITI","","html-keyboard-response","479","523846","0.0-1.0-657.0","0","0","75141","","null","","","null","72","","","","","","","","","","","","","","","NaN",""
"","S1","","html-keyboard-response","480","524099","0.0-1.0-659.0","0","0","75141","","null","","","null","73","","","","","","","","","","","","","","","",""
"","ISI","","html-keyboard-response","481","526103","0.0-1.0-660.0","0","0","75141","","null","","","null","73","NaN","","","","","","","","","","","","","","",""
"","S2","","html-keyboard-response","482","526357","0.0-1.0-661.0","0","0","75141","","null","","","null","73","","NaN","","","","","","","","","","","","","",""
"","response","","html-keyboard-response","483","527706","0.0-1.0-662.0-0.0","0","0","75141","","1346","","","68","73","","","2","73","training","adjacent","AB","1","2","O.jpg","L.jpg","0","1","0","",""
"","feedback","","html-keyboard-response","484","528711","0.0-1.0-663.0-0.0","0","0","75141","","null","","","null","73","","","","","","","","","","","","","","","",""
"","time_out","","html-keyboard-response","485","530717","0.0-1.0-665.0-0.0","0","0","75141","","null","","","null","73","","","","","","","","","","","","","","","",""
"","ITI","","html-keyboard-response","486","531721","0.0-1.0-666.0","0","0","75141","","null","","","null","73","","","","","","","","","","","","","","","NaN",""
"","S1","","html-keyboard-response","487","531976","0.0-1.0-668.0","0","0","75141","","null","","","null","74","","","","","","","","","","","","","","","",""
"","ISI","","html-keyboard-response","488","533980","0.0-1.0-669.0","0","0","75141","","null","","","null","74","NaN","","","","","","","","","","","","","","",""
"","S2","","html-keyboard-response","489","534235","0.0-1.0-670.0","0","0","75141","","null","","","null","74","","NaN","","","","","","","","","","","","","",""
"","response","","html-keyboard-response","490","535190","0.0-1.0-671.0-0.0","0","0","75141","","952","","","75","74","","","2","74","training","adjacent","CB","3","2","P.jpg","L.jpg","1","0","0","",""
"","feedback","","html-keyboard-response","491","536195","0.0-1.0-672.0-0.0","0","0","75141","","null","","","null","74","","","","","","","","","","","","","","","",""
"","time_out","","html-keyboard-response","492","538199","0.0-1.0-674.0-0.0","0","0","75141","","null","","","null","74","","","","","","","","","","","","","","","",""
"","ITI","","html-keyboard-response","493","539203","0.0-1.0-675.0","0","0","75141","","null","","","null","74","","","","","","","","","","","","","","","NaN",""
"","S1","","html-keyboard-response","494","539457","0.0-1.0-677.0","0","0","75141","","null","","","null","75","","","","","","","","","","","","","","","",""
"","ISI","","html-keyboard-response","495","541461","0.0-1.0-678.0","0","0","75141","","null","","","null","75","NaN","","","","","","","","","","","","","","",""
"","S2","","html-keyboard-response","496","541715","0.0-1.0-679.0","0","0","75141","","null","","","null","75","","NaN","","","","","","","","","","","","","",""
"","response","","html-keyboard-response","497","542388","0.0-1.0-680.0-0.0","0","0","75141","","668","","","68","75","","","2","75","training","adjacent","AB","1","2","O.jpg","L.jpg","0","1","0","",""
"","feedback","","html-keyboard-response","498","543392","0.0-1.0-681.0-0.0","0","0","75141","","null","","","null","75","","","","","","","","","","","","","","","",""
"","time_out","","html-keyboard-response","499","545397","0.0-1.0-683.0-0.0","0","0","75141","","null","","","null","75","","","","","","","","","","","","","","","",""
"","ITI","","html-keyboard-response","500","546399","0.0-1.0-684.0","0","0","75141","","null","","","null","75","","","","","","","","","","","","","","","NaN",""
"","S1","","html-keyboard-response","501","546653","0.0-1.0-686.0","0","0","75141","","null","","","null","76","","","","","","","","","","","","","","","",""
"","ISI","","html-keyboard-response","502","548657","0.0-1.0-687.0","0","0","75141","","null","","","null","76","NaN","","","","","","","","","","","","","","",""
"","S2","","html-keyboard-response","503","548912","0.0-1.0-688.0","0","0","75141","","null","","","null","76","","NaN","","","","","","","","","","","","","",""
"","response","","html-keyboard-response","504","550078","0.0-1.0-689.0-0.0","0","0","75141","","1163","","","75","76","","","2","76","training","adjacent","FG","6","7","Q.jpg","N.jpg","1","1","1","",""
"","feedback","","html-keyboard-response","505","551084","0.0-1.0-690.0-0.0","0","0","75141","","null","","","null","76","","","","","","","","","","","","","","","",""
"","ITI","","html-keyboard-response","506","552088","0.0-1.0-693.0","0","0","75141","","null","","","null","76","","","","","","","","","","","","","","","NaN",""
"","S1","","html-keyboard-response","507","552354","0.0-1.0-695.0","0","0","75141","","null","","","null","77","","","","","","","","","","","","","","","",""
"","ISI","","html-keyboard-response","508","554358","0.0-1.0-696.0","0","0","75141","","null","","","null","77","NaN","","","","","","","","","","","","","","",""
"","S2","","html-keyboard-response","509","554613","0.0-1.0-697.0","0","0","75141","","null","","","null","77","","NaN","","","","","","","","","","","","","",""
"","response","","html-keyboard-response","510","555152","0.0-1.0-698.0-0.0","0","0","75141","","536","","","75","77","","","2","77","training","adjacent","CB","3","2","P.jpg","L.jpg","1","0","0","",""
"","feedback","","html-keyboard-response","511","556157","0.0-1.0-699.0-0.0","0","0","75141","","null","","","null","77","","","","","","","","","","","","","","","",""
"","time_out","","html-keyboard-response","512","558161","0.0-1.0-701.0-0.0","0","0","75141","","null","","","null","77","","","","","","","","","","","","","","","",""
"","ITI","","html-keyboard-response","513","559165","0.0-1.0-702.0","0","0","75141","","null","","","null","77","","","","","","","","","","","","","","","NaN",""
"","S1","","html-keyboard-response","514","559420","0.0-1.0-704.0","0","0","75141","","null","","","null","78","","","","","","","","","","","","","","","",""
"","ISI","","html-keyboard-response","515","561424","0.0-1.0-705.0","0","0","75141","","null","","","null","78","NaN","","","","","","","","","","","","","","",""
"","S2","","html-keyboard-response","516","561678","0.0-1.0-706.0","0","0","75141","","null","","","null","78","","NaN","","","","","","","","","","","","","",""
"","response","","html-keyboard-response","517","562200","0.0-1.0-707.0-0.0","0","0","75141","","519","","","68","78","","","2","78","training","adjacent","ED","5","4","M.jpg","R.jpg","0","0","1","",""
"","feedback","","html-keyboard-response","518","563205","0.0-1.0-708.0-0.0","0","0","75141","","null","","","null","78","","","","","","","","","","","","","","","",""
"","ITI","","html-keyboard-response","519","564211","0.0-1.0-711.0","0","0","75141","","null","","","null","78","","","","","","","","","","","","","","","NaN",""
"","S1","","html-keyboard-response","520","564477","0.0-1.0-713.0","0","0","75141","","null","","","null","79","","","","","","","","","","","","","","","",""
"","ISI","","html-keyboard-response","521","566480","0.0-1.0-714.0","0","0","75141","","null","","","null","79","NaN","","","","","","","","","","","","","","",""
"","S2","","html-keyboard-response","522","566735","0.0-1.0-715.0","0","0","75141","","null","","","null","79","","NaN","","","","","","","","","","","","","",""
"","response","","html-keyboard-response","523","567294","0.0-1.0-716.0-0.0","0","0","75141","","556","","","68","79","","","2","79","training","adjacent","DC","4","3","R.jpg","P.jpg","0","0","1","",""
"","feedback","","html-keyboard-response","524","568300","0.0-1.0-717.0-0.0","0","0","75141","","null","","","null","79","","","","","","","","","","","","","","","",""
"","ITI","","html-keyboard-response","525","569317","0.0-1.0-720.0","0","0","75141","","null","","","null","79","","","","","","","","","","","","","","","NaN",""
"","S1","","html-keyboard-response","526","569571","0.0-1.0-722.0","0","0","75141","","null","","","null","80","","","","","","","","","","","","","","","",""
"","ISI","","html-keyboard-response","527","571575","0.0-1.0-723.0","0","0","75141","","null","","","null","80","NaN","","","","","","","","","","","","","","",""
"","S2","","html-keyboard-response","528","571829","0.0-1.0-724.0","0","0","75141","","null","","","null","80","","NaN","","","","","","","","","","","","","",""
"","response","","html-keyboard-response","529","572876","0.0-1.0-725.0-0.0","0","0","75141","","1044","","","68","80","","","2","80","training","adjacent","BA","2","1","L.jpg","O.jpg","0","0","1","",""
"","feedback","","html-keyboard-response","530","573881","0.0-1.0-726.0-0.0","0","0","75141","","null","","","null","80","","","","","","","","","","","","","","","",""
"","ITI","","html-keyboard-response","531","574886","0.0-1.0-729.0","0","0","75141","","null","","","null","80","","","","","","","","","","","","","","","NaN",""
"","S1","","html-keyboard-response","532","575141","0.0-1.0-731.0","0","0","75141","","null","","","null","81","","","","","","","","","","","","","","","",""
"","ISI","","html-keyboard-response","533","577145","0.0-1.0-732.0","0","0","75141","","null","","","null","81","NaN","","","","","","","","","","","","","","",""
"","S2","","html-keyboard-response","534","577399","0.0-1.0-733.0","0","0","75141","","null","","","null","81","","NaN","","","","","","","","","","","","","",""
"","response","","html-keyboard-response","535","577994","0.0-1.0-734.0-0.0","0","0","75141","","593","","","75","81","","","2","81","training","adjacent","CD","3","4","P.jpg","R.jpg","1","1","1","",""
"","feedback","","html-keyboard-response","536","578999","0.0-1.0-735.0-0.0","0","0","75141","","null","","","null","81","","","","","","","","","","","","","","","",""
"","ITI","","html-keyboard-response","537","580004","0.0-1.0-738.0","0","0","75141","","null","","","null","81","","","","","","","","","","","","","","","NaN",""
"","S1","","html-keyboard-response","538","580259","0.0-1.0-740.0","0","0","75141","","null","","","null","82","","","","","","","","","","","","","","","",""
"","ISI","","html-keyboard-response","539","582264","0.0-1.0-741.0","0","0","75141","","null","","","null","82","NaN","","","","","","","","","","","","","","",""
"","S2","","html-keyboard-response","540","582518","0.0-1.0-742.0","0","0","75141","","null","","","null","82","","NaN","","","","","","","","","","","","","",""
"","response","","html-keyboard-response","541","583629","0.0-1.0-743.0-0.0","0","0","75141","","1108","","","75","82","","","2","82","training","adjacent","BA","2","1","L.jpg","O.jpg","1","0","0","",""
"","feedback","","html-keyboard-response","542","584634","0.0-1.0-744.0-0.0","0","0","75141","","null","","","null","82","","","","","","","","","","","","","","","",""
"","time_out","","html-keyboard-response","543","586639","0.0-1.0-746.0-0.0","0","0","75141","","null","","","null","82","","","","","","","","","","","","","","","",""
"","ITI","","html-keyboard-response","544","587643","0.0-1.0-747.0","0","0","75141","","null","","","null","82","","","","","","","","","","","","","","","NaN",""
"","S1","","html-keyboard-response","545","587898","0.0-1.0-749.0","0","0","75141","","null","","","null","83","","","","","","","","","","","","","","","",""
"","ISI","","html-keyboard-response","546","589902","0.0-1.0-750.0","0","0","75141","","null","","","null","83","NaN","","","","","","","","","","","","","","",""
"","S2","","html-keyboard-response","547","590156","0.0-1.0-751.0","0","0","75141","","null","","","null","83","","NaN","","","","","","","","","","","","","",""
"","response","","html-keyboard-response","548","591511","0.0-1.0-752.0-0.0","0","0","75141","","1350","","","75","83","","","2","83","training","adjacent","BC","2","3","L.jpg","P.jpg","1","1","1","",""
"","feedback","","html-keyboard-response","549","592530","0.0-1.0-753.0-0.0","0","0","75141","","null","","","null","83","","","","","","","","","","","","","","","",""
"","ITI","","html-keyboard-response","550","593536","0.0-1.0-756.0","0","0","75141","","null","","","null","83","","","","","","","","","","","","","","","NaN",""
"","S1","","html-keyboard-response","551","593790","0.0-1.0-758.0","0","0","75141","","null","","","null","84","","","","","","","","","","","","","","","",""
"","ISI","","html-keyboard-response","552","595795","0.0-1.0-759.0","0","0","75141","","null","","","null","84","NaN","","","","","","","","","","","","","","",""
"","S2","","html-keyboard-response","553","596049","0.0-1.0-760.0","0","0","75141","","null","","","null","84","","NaN","","","","","","","","","","","","","",""
"","response","","html-keyboard-response","554","596488","0.0-1.0-761.0-0.0","0","0","75141","","435","","","68","84","","","2","84","training","adjacent","DC","4","3","R.jpg","P.jpg","0","0","1","",""
"","feedback","","html-keyboard-response","555","597501","0.0-1.0-762.0-0.0","0","0","75141","","null","","","null","84","","","","","","","","","","","","","","","",""
"","ITI","","html-keyboard-response","556","598506","0.0-1.0-765.0","0","0","75141","","null","","","null","84","","","","","","","","","","","","","","","NaN",""
"","S1","","html-keyboard-response","557","598761","0.0-1.0-767.0","0","0","75141","","null","","","null","85","","","","","","","","","","","","","","","",""
"","ISI","","html-keyboard-response","558","600765","0.0-1.0-768.0","0","0","75141","","null","","","null","85","NaN","","","","","","","","","","","","","","",""
"","S2","","html-keyboard-response","559","601019","0.0-1.0-769.0","0","0","75141","","null","","","null","85","","NaN","","","","","","","","","","","","","",""
"","response","","html-keyboard-response","560","601400","0.0-1.0-770.0-0.0","0","0","75141","","378","","","68","85","","","2","85","training","adjacent","FE","6","5","Q.jpg","M.jpg","0","0","1","",""
"","feedback","","html-keyboard-response","561","602405","0.0-1.0-771.0-0.0","0","0","75141","","null","","","null","85","","","","","","","","","","","","","","","",""
"","ITI","","html-keyboard-response","562","603410","0.0-1.0-774.0","0","0","75141","","null","","","null","85","","","","","","","","","","","","","","","NaN",""
"","S1","","html-keyboard-response","563","603664","0.0-1.0-776.0","0","0","75141","","null","","","null","86","","","","","","","","","","","","","","","",""
"","ISI","","html-keyboard-response","564","605669","0.0-1.0-777.0","0","0","75141","","null","","","null","86","NaN","","","","","","","","","","","","","","",""
"","S2","","html-keyboard-response","565","605924","0.0-1.0-778.0","0","0","75141","","null","","","null","86","","NaN","","","","","","","","","","","","","",""
"","response","","html-keyboard-response","566","606373","0.0-1.0-779.0-0.0","0","0","75141","","446","","","75","86","","","2","86","training","adjacent","BC","2","3","L.jpg","P.jpg","1","1","1","",""
"","feedback","","html-keyboard-response","567","607377","0.0-1.0-780.0-0.0","0","0","75141","","null","","","null","86","","","","","","","","","","","","","","","",""
"","ITI","","html-keyboard-response","568","608384","0.0-1.0-783.0","0","0","75141","","null","","","null","86","","","","","","","","","","","","","","","NaN",""
"","S1","","html-keyboard-response","569","608638","0.0-1.0-785.0","0","0","75141","","null","","","null","87","","","","","","","","","","","","","","","",""
"","ISI","","html-keyboard-response","570","610643","0.0-1.0-786.0","0","0","75141","","null","","","null","87","NaN","","","","","","","","","","","","","","",""
"","S2","","html-keyboard-response","571","610898","0.0-1.0-787.0","0","0","75141","","null","","","null","87","","NaN","","","","","","","","","","","","","",""
"","response","","html-keyboard-response","572","611904","0.0-1.0-788.0-0.0","0","0","75141","","1002","","","75","87","","","2","87","training","adjacent","BC","2","3","L.jpg","P.jpg","1","1","1","",""
"","feedback","","html-keyboard-response","573","612910","0.0-1.0-789.0-0.0","0","0","75141","","null","","","null","87","","","","","","","","","","","","","","","",""
"","ITI","","html-keyboard-response","574","613914","0.0-1.0-792.0","0","0","75141","","null","","","null","87","","","","","","","","","","","","","","","NaN",""
"","S1","","html-keyboard-response","575","614169","0.0-1.0-794.0","0","0","75141","","null","","","null","88","","","","","","","","","","","","","","","",""
"","ISI","","html-keyboard-response","576","616174","0.0-1.0-795.0","0","0","75141","","null","","","null","88","NaN","","","","","","","","","","","","","","",""
"","S2","","html-keyboard-response","577","616428","0.0-1.0-796.0","0","0","75141","","null","","","null","88","","NaN","","","","","","","","","","","","","",""
"","response","","html-keyboard-response","578","617599","0.0-1.0-797.0-0.0","0","0","75141","","1167","","","68","88","","","2","88","training","adjacent","FE","6","5","Q.jpg","M.jpg","0","0","1","",""
"","feedback","","html-keyboard-response","579","618604","0.0-1.0-798.0-0.0","0","0","75141","","null","","","null","88","","","","","","","","","","","","","","","",""
"","ITI","","html-keyboard-response","580","619607","0.0-1.0-801.0","0","0","75141","","null","","","null","88","","","","","","","","","","","","","","","NaN",""
"","S1","","html-keyboard-response","581","619861","0.0-1.0-803.0","0","0","75141","","null","","","null","89","","","","","","","","","","","","","","","",""
"","ISI","","html-keyboard-response","582","621865","0.0-1.0-804.0","0","0","75141","","null","","","null","89","NaN","","","","","","","","","","","","","","",""
"","S2","","html-keyboard-response","583","622121","0.0-1.0-805.0","0","0","75141","","null","","","null","89","","NaN","","","","","","","","","","","","","",""
