"success","ttype","start_time","trial_type","trial_index","time_elapsed","internal_node_id","warning","missed_checkup","PID","view_history","rt","responses","repeat_instructions","key_press","index","keypress_isi","keypress_S2","block","trial_num","phase","group_type","pair_type","S1_stim","S2_stim","S1_img","S2_img","S1_chosen","S1_higher","accuracy","keypress_iti","total_bonus_tally"
"true","full_screen","d03072023hr2140","fullscreen","0","2187","0.0-0.0","0","0","86365","","","","","","","","","","","","","","","","","","","","","",""
"","instructions","","instructions","1","30131","0.0-1.0-0.0-0.0","0","0","86365","[{""page_index"":0,""viewing_time"":1847},{""page_index"":1,""viewing_time"":14469},{""page_index"":2,""viewing_time"":9587},{""page_index"":3,""viewing_time"":2035}]","27939","","","","","","","","","","","","","","","","","","","",""
"","comprehension_check","","survey-multi-choice","2","47926","0.0-1.0-0.0-1.0","0","0","86365","","17792","{""Q0"":""True"",""Q1"":""D"",""Q2"":""Only when the screen 'MAKE A CHOICE' is shown"",""Q3"":""Green mark"",""Q4"":""either D or K""}","1","","","","","","","","","","","","","","","","","",""
"","missed_instruction_checkup","","html-keyboard-response","3","50341","0.0-1.0-0.0-2.0-0.0","0","1","86365","","2412","","","32","","","","","","","","","","","","","","","","",""
"","instructions","","instructions","4","66098","0.0-1.0-0.1-0.1","0","0","86365","[{""page_index"":0,""viewing_time"":4854},{""page_index"":1,""viewing_time"":9381},{""page_index"":2,""viewing_time"":791},{""page_index"":3,""viewing_time"":727}]","15754","","","","","","","","","","","","","","","","","","","",""
"","comprehension_check","","survey-multi-choice","5","82427","0.0-1.0-0.1-1.1","0","0","86365","","16319","{""Q0"":""True"",""Q1"":""K"",""Q2"":""Once the second image appears and while the screen 'MAKE A CHOICE' is shown"",""Q3"":""Green mark"",""Q4"":""either D or K""}","0","","","","","","","","","","","","","","","","","",""
"","start_exp","","html-keyboard-response","6","84020","0.0-1.0-1.0","0","0","86365","","1590","","","32","","","","","","","","","","","","","","","","",""
"","S1","","html-keyboard-response","7","84276","0.0-1.0-2.0","0","0","86365","","null","","","null","0","","","","","","","","","","","","","","","",""
"","ISI","","html-keyboard-response","8","85281","0.0-1.0-3.0","0","0","86365","","null","","","null","0","NaN","","","","","","","","","","","","","","",""
"","S2","","html-keyboard-response","9","85301","0.0-1.0-4.0","0","0","86365","","15","","","75","0","","k","1","0","training","adjacent","EF","5","6","L.jpg","Q.jpg","1","1","1","",""
"","feedback","","html-keyboard-response","10","86306","0.0-1.0-6.0-0.0","0","0","86365","","null","","","null","0","","","","","","","","","","","","","","","",""
"","ITI","","html-keyboard-response","11","87312","0.0-1.0-9.0","0","0","86365","","377","","","75","0","","","","","","","","","","","","","","","k",""
"","S1","","html-keyboard-response","12","87568","0.0-1.0-11.0","0","0","86365","","null","","","null","1","","","","","","","","","","","","","","","",""
"","ISI","","html-keyboard-response","13","88575","0.0-1.0-12.0","0","0","86365","","15","","","68","1","d","","","","","","","","","","","","","","",""
"","S2","","html-keyboard-response","14","88825","0.0-1.0-13.0","0","0","86365","","247","","","75","1","","k","1","1","training","adjacent","BC","2","3","R.jpg","M.jpg","1","1","1","",""
"","feedback","","html-keyboard-response","15","89830","0.0-1.0-15.0-0.0","0","0","86365","","null","","","null","1","","","","","","","","","","","","","","","",""
"","ITI","","html-keyboard-response","16","90834","0.0-1.0-18.0","0","0","86365","","null","","","null","1","","","","","","","","","","","","","","","NaN",""
"","S1","","html-keyboard-response","17","91091","0.0-1.0-20.0","0","0","86365","","null","","","null","2","","","","","","","","","","","","","","","",""
"","ISI","","html-keyboard-response","18","92097","0.0-1.0-21.0","0","0","86365","","null","","","null","2","NaN","","","","","","","","","","","","","","",""
"","S2","","html-keyboard-response","19","92348","0.0-1.0-22.0","0","0","86365","","249","","","75","2","","k","1","2","training","adjacent","ED","5","4","L.jpg","N.jpg","1","0","0","",""
"","feedback","","html-keyboard-response","20","93352","0.0-1.0-24.0-0.0","0","0","86365","","null","","","null","2","","","","","","","","","","","","","","","",""
"","time_out","","html-keyboard-response","21","95369","0.0-1.0-26.0-0.0","0","0","86365","","null","","","null","2","","","","","","","","","","","","","","","",""
"","ITI","","html-keyboard-response","22","96372","0.0-1.0-27.0","0","0","86365","","null","","","null","2","","","","","","","","","","","","","","","NaN",""
"","S1","","html-keyboard-response","23","96625","0.0-1.0-29.0","0","0","86365","","null","","","null","3","","","","","","","","","","","","","","","",""
"","ISI","","html-keyboard-response","24","97628","0.0-1.0-30.0","0","0","86365","","null","","","null","3","NaN","","","","","","","","","","","","","","",""
"","S2","","html-keyboard-response","25","97881","0.0-1.0-31.0","0","0","86365","","null","","","null","3","","NaN","","","","","","","","","","","","","",""
"","response","","html-keyboard-response","26","97898","0.0-1.0-32.0-0.0","0","0","86365","","14","","","68","3","","","1","3","training","adjacent","DC","4","3","N.jpg","M.jpg","0","0","1","",""
"","feedback","","html-keyboard-response","27","98900","0.0-1.0-33.0-0.0","0","0","86365","","null","","","null","3","","","","","","","","","","","","","","","",""
"","ITI","","html-keyboard-response","28","99912","0.0-1.0-36.0","0","0","86365","","null","","","null","3","","","","","","","","","","","","","","","NaN",""
"","S1","","html-keyboard-response","29","100165","0.0-1.0-38.0","0","0","86365","","null","","","null","4","","","","","","","","","","","","","","","",""
"","ISI","","html-keyboard-response","30","101167","0.0-1.0-39.0","0","0","86365","","null","","","null","4","NaN","","","","","","","","","","","","","","",""
"","S2","","html-keyboard-response","31","101421","0.0-1.0-40.0","0","0","86365","","null","","","null","4","","NaN","","","","","","","","","","","","","",""
"","response","","html-keyboard-response","32","101599","0.0-1.0-41.0-0.0","0","0","86365","","175","","","68","4","","","1","4","training","adjacent","CB","3","2","M.jpg","R.jpg","0","0","1","",""
"","feedback","","html-keyboard-response","33","102602","0.0-1.0-42.0-0.0","0","0","86365","","null","","","null","4","","","","","","","","","","","","","","","",""
"","ITI","","html-keyboard-response","34","103604","0.0-1.0-45.0","0","0","86365","","null","","","null","4","","","","","","","","","","","","","","","NaN",""
"","S1","","html-keyboard-response","35","103857","0.0-1.0-47.0","0","0","86365","","null","","","null","5","","","","","","","","","","","","","","","",""
"","ISI","","html-keyboard-response","36","104861","0.0-1.0-48.0","0","0","86365","","null","","","null","5","NaN","","","","","","","","","","","","","","",""
"","S2","","html-keyboard-response","37","105114","0.0-1.0-49.0","0","0","86365","","null","","","null","5","","NaN","","","","","","","","","","","","","",""
"","response","","html-keyboard-response","38","105142","0.0-1.0-50.0-0.0","0","0","86365","","26","","","75","5","","","1","5","training","adjacent","AB","1","2","O.jpg","R.jpg","1","1","1","",""
"","feedback","","html-keyboard-response","39","106146","0.0-1.0-51.0-0.0","0","0","86365","","null","","","null","5","","","","","","","","","","","","","","","",""
"","ITI","","html-keyboard-response","40","107149","0.0-1.0-54.0","0","0","86365","","null","","","null","5","","","","","","","","","","","","","","","NaN",""
"","S1","","html-keyboard-response","41","107402","0.0-1.0-56.0","0","0","86365","","null","","","null","6","","","","","","","","","","","","","","","",""
"","ISI","","html-keyboard-response","42","108404","0.0-1.0-57.0","0","0","86365","","null","","","null","6","NaN","","","","","","","","","","","","","","",""
"","S2","","html-keyboard-response","43","108658","0.0-1.0-58.0","0","0","86365","","null","","","null","6","","NaN","","","","","","","","","","","","","",""
"","response","","html-keyboard-response","44","108798","0.0-1.0-59.0-0.0","0","0","86365","","138","","","68","6","","","1","6","training","adjacent","GF","7","6","P.jpg","Q.jpg","0","0","1","",""
"","feedback","","html-keyboard-response","45","109815","0.0-1.0-60.0-0.0","0","0","86365","","null","","","null","6","","","","","","","","","","","","","","","",""
"","ITI","","html-keyboard-response","46","110819","0.0-1.0-63.0","0","0","86365","","null","","","null","6","","","","","","","","","","","","","","","NaN",""
"","S1","","html-keyboard-response","47","111073","0.0-1.0-65.0","0","0","86365","","null","","","null","7","","","","","","","","","","","","","","","",""
"","ISI","","html-keyboard-response","48","112076","0.0-1.0-66.0","0","0","86365","","null","","","null","7","NaN","","","","","","","","","","","","","","",""
"","S2","","html-keyboard-response","49","112329","0.0-1.0-67.0","0","0","86365","","null","","","null","7","","NaN","","","","","","","","","","","","","",""
"","response","","html-keyboard-response","50","112565","0.0-1.0-68.0-0.0","0","0","86365","","234","","","68","7","","","1","7","training","adjacent","EF","5","6","L.jpg","Q.jpg","0","1","0","",""
"","feedback","","html-keyboard-response","51","113568","0.0-1.0-69.0-0.0","0","0","86365","","null","","","null","7","","","","","","","","","","","","","","","",""
"","time_out","","html-keyboard-response","52","115585","0.0-1.0-71.0-0.0","0","0","86365","","null","","","null","7","","","","","","","","","","","","","","","",""
"","ITI","","html-keyboard-response","53","116588","0.0-1.0-72.0","0","0","86365","","null","","","null","7","","","","","","","","","","","","","","","NaN",""
"","S1","","html-keyboard-response","54","116842","0.0-1.0-74.0","0","0","86365","","null","","","null","8","","","","","","","","","","","","","","","",""
"","ISI","","html-keyboard-response","55","117845","0.0-1.0-75.0","0","0","86365","","null","","","null","8","NaN","","","","","","","","","","","","","","",""
"","S2","","html-keyboard-response","56","118097","0.0-1.0-76.0","0","0","86365","","null","","","null","8","","NaN","","","","","","","","","","","","","",""
"","response","","html-keyboard-response","57","118124","0.0-1.0-77.0-0.0","0","0","86365","","25","","","75","8","","","1","8","training","adjacent","DC","4","3","N.jpg","M.jpg","1","0","0","",""
"","feedback","","html-keyboard-response","58","119128","0.0-1.0-78.0-0.0","0","0","86365","","null","","","null","8","","","","","","","","","","","","","","","",""
"","time_out","","html-keyboard-response","59","121131","0.0-1.0-80.0-0.0","0","0","86365","","null","","","null","8","","","","","","","","","","","","","","","",""
"","ITI","","html-keyboard-response","60","122135","0.0-1.0-81.0","0","0","86365","","null","","","null","8","","","","","","","","","","","","","","","NaN",""
"","S1","","html-keyboard-response","61","122388","0.0-1.0-83.0","0","0","86365","","null","","","null","9","","","","","","","","","","","","","","","",""
"","ISI","","html-keyboard-response","62","123391","0.0-1.0-84.0","0","0","86365","","97","","","68","9","d","","","","","","","","","","","","","","",""
"","S2","","html-keyboard-response","63","123574","0.0-1.0-85.0","0","0","86365","","182","","","68","9","","d","1","9","training","adjacent","GF","7","6","P.jpg","Q.jpg","0","0","1","",""
"","feedback","","html-keyboard-response","64","124577","0.0-1.0-87.0-0.0","0","0","86365","","null","","","null","9","","","","","","","","","","","","","","","",""
"","ITI","","html-keyboard-response","65","125580","0.0-1.0-90.0","0","0","86365","","null","","","null","9","","","","","","","","","","","","","","","NaN",""
"","S1","","html-keyboard-response","66","125833","0.0-1.0-92.0","0","0","86365","","null","","","null","10","","","","","","","","","","","","","","","",""
"","ISI","","html-keyboard-response","67","126837","0.0-1.0-93.0","0","0","86365","","896","","","68","10","d","","","","","","","","","","","","","","",""
"","S2","","html-keyboard-response","68","127090","0.0-1.0-94.0","0","0","86365","","null","","","null","10","","NaN","","","","","","","","","","","","","",""
"","response","","html-keyboard-response","69","127261","0.0-1.0-95.0-0.0","0","0","86365","","169","","","68","10","","","1","10","training","adjacent","GF","7","6","P.jpg","Q.jpg","0","0","1","",""
"","feedback","","html-keyboard-response","70","128266","0.0-1.0-96.0-0.0","0","0","86365","","null","","","null","10","","","","","","","","","","","","","","","",""
"","ITI","","html-keyboard-response","71","129268","0.0-1.0-99.0","0","0","86365","","null","","","null","10","","","","","","","","","","","","","","","NaN",""
"","S1","","html-keyboard-response","72","129521","0.0-1.0-101.0","0","0","86365","","null","","","null","11","","","","","","","","","","","","","","","",""
"","ISI","","html-keyboard-response","73","130524","0.0-1.0-102.0","0","0","86365","","null","","","null","11","NaN","","","","","","","","","","","","","","",""
"","S2","","html-keyboard-response","74","130746","0.0-1.0-103.0","0","0","86365","","220","","","75","11","","k","1","11","training","adjacent","BA","2","1","R.jpg","O.jpg","1","0","0","",""
"","feedback","","html-keyboard-response","75","131756","0.0-1.0-105.0-0.0","0","0","86365","","null","","","null","11","","","","","","","","","","","","","","","",""
"","time_out","","html-keyboard-response","76","133758","0.0-1.0-107.0-0.0","0","0","86365","","null","","","null","11","","","","","","","","","","","","","","","",""
"","ITI","","html-keyboard-response","77","134761","0.0-1.0-108.0","0","0","86365","","null","","","null","11","","","","","","","","","","","","","","","NaN",""
"","S1","","html-keyboard-response","78","135014","0.0-1.0-110.0","0","0","86365","","null","","","null","12","","","","","","","","","","","","","","","",""
"","ISI","","html-keyboard-response","79","136017","0.0-1.0-111.0","0","0","86365","","null","","","null","12","NaN","","","","","","","","","","","","","","",""
"","S2","","html-keyboard-response","80","136277","0.0-1.0-112.0","0","0","86365","","null","","","null","12","","NaN","","","","","","","","","","","","","",""
"","response","","html-keyboard-response","81","136353","0.0-1.0-113.0-0.0","0","0","86365","","74","","","75","12","","","1","12","training","adjacent","DE","4","5","N.jpg","L.jpg","1","1","1","",""
"","feedback","","html-keyboard-response","82","137355","0.0-1.0-114.0-0.0","0","0","86365","","null","","","null","12","","","","","","","","","","","","","","","",""
"","ITI","","html-keyboard-response","83","138360","0.0-1.0-117.0","0","0","86365","","null","","","null","12","","","","","","","","","","","","","","","NaN",""
"","S1","","html-keyboard-response","84","138613","0.0-1.0-119.0","0","0","86365","","null","","","null","13","","","","","","","","","","","","","","","",""
"","ISI","","html-keyboard-response","85","139616","0.0-1.0-120.0","0","0","86365","","null","","","null","13","NaN","","","","","","","","","","","","","","",""
"","S2","","html-keyboard-response","86","139870","0.0-1.0-121.0","0","0","86365","","null","","","null","13","","NaN","","","","","","","","","","","","","",""
"","response","","html-keyboard-response","87","140156","0.0-1.0-122.0-0.0","0","0","86365","","284","","","68","13","","","1","13","training","adjacent","CB","3","2","M.jpg","R.jpg","0","0","1","",""
"","feedback","","html-keyboard-response","88","141159","0.0-1.0-123.0-0.0","0","0","86365","","null","","","null","13","","","","","","","","","","","","","","","",""
"","ITI","","html-keyboard-response","89","142163","0.0-1.0-126.0","0","0","86365","","null","","","null","13","","","","","","","","","","","","","","","NaN",""
"","S1","","html-keyboard-response","90","142416","0.0-1.0-128.0","0","0","86365","","null","","","null","14","","","","","","","","","","","","","","","",""
"","ISI","","html-keyboard-response","91","143434","0.0-1.0-129.0","0","0","86365","","null","","","null","14","NaN","","","","","","","","","","","","","","",""
"","S2","","html-keyboard-response","92","143689","0.0-1.0-130.0","0","0","86365","","null","","","null","14","","NaN","","","","","","","","","","","","","",""
"","response","","html-keyboard-response","93","143785","0.0-1.0-131.0-0.0","0","0","86365","","94","","","75","14","","","1","14","training","adjacent","AB","1","2","O.jpg","R.jpg","1","1","1","",""
"","feedback","","html-keyboard-response","94","144788","0.0-1.0-132.0-0.0","0","0","86365","","null","","","null","14","","","","","","","","","","","","","","","",""
"","ITI","","html-keyboard-response","95","145792","0.0-1.0-135.0","0","0","86365","","null","","","null","14","","","","","","","","","","","","","","","NaN",""
"","S1","","html-keyboard-response","96","146046","0.0-1.0-137.0","0","0","86365","","null","","","null","15","","","","","","","","","","","","","","","",""
"","ISI","","html-keyboard-response","97","147049","0.0-1.0-138.0","0","0","86365","","null","","","null","15","NaN","","","","","","","","","","","","","","",""
"","S2","","html-keyboard-response","98","147303","0.0-1.0-139.0","0","0","86365","","null","","","null","15","","NaN","","","","","","","","","","","","","",""
"","response","","html-keyboard-response","99","147423","0.0-1.0-140.0-0.0","0","0","86365","","119","","","68","15","","","1","15","training","adjacent","GF","7","6","P.jpg","Q.jpg","0","0","1","",""
"","feedback","","html-keyboard-response","100","148425","0.0-1.0-141.0-0.0","0","0","86365","","null","","","null","15","","","","","","","","","","","","","","","",""
"","ITI","","html-keyboard-response","101","149427","0.0-1.0-144.0","0","0","86365","","null","","","null","15","","","","","","","","","","","","","","","NaN",""
"","S1","","html-keyboard-response","102","149681","0.0-1.0-146.0","0","0","86365","","null","","","null","16","","","","","","","","","","","","","","","",""
"","ISI","","html-keyboard-response","103","150684","0.0-1.0-147.0","0","0","86365","","null","","","null","16","NaN","","","","","","","","","","","","","","",""
"","S2","","html-keyboard-response","104","150936","0.0-1.0-148.0","0","0","86365","","null","","","null","16","","NaN","","","","","","","","","","","","","",""
"","response","","html-keyboard-response","105","151071","0.0-1.0-149.0-0.0","0","0","86365","","132","","","68","16","","","1","16","training","adjacent","DE","4","5","N.jpg","L.jpg","0","1","0","",""
"","feedback","","html-keyboard-response","106","152075","0.0-1.0-150.0-0.0","0","0","86365","","null","","","null","16","","","","","","","","","","","","","","","",""
"","time_out","","html-keyboard-response","107","154077","0.0-1.0-152.0-0.0","0","0","86365","","null","","","null","16","","","","","","","","","","","","","","","",""
"","ITI","","html-keyboard-response","108","155081","0.0-1.0-153.0","0","0","86365","","null","","","null","16","","","","","","","","","","","","","","","NaN",""
"","S1","","html-keyboard-response","109","155335","0.0-1.0-155.0","0","0","86365","","null","","","null","17","","","","","","","","","","","","","","","",""
"","ISI","","html-keyboard-response","110","156338","0.0-1.0-156.0","0","0","86365","","null","","","null","17","NaN","","","","","","","","","","","","","","",""
"","S2","","html-keyboard-response","111","156593","0.0-1.0-157.0","0","0","86365","","null","","","null","17","","NaN","","","","","","","","","","","","","",""
"","response","","html-keyboard-response","112","156655","0.0-1.0-158.0-0.0","0","0","86365","","61","","","68","17","","","1","17","training","adjacent","CD","3","4","M.jpg","N.jpg","0","1","0","",""
"","feedback","","html-keyboard-response","113","157658","0.0-1.0-159.0-0.0","0","0","86365","","null","","","null","17","","","","","","","","","","","","","","","",""
"","time_out","","html-keyboard-response","114","159661","0.0-1.0-161.0-0.0","0","0","86365","","null","","","null","17","","","","","","","","","","","","","","","",""
"","ITI","","html-keyboard-response","115","160664","0.0-1.0-162.0","0","0","86365","","null","","","null","17","","","","","","","","","","","","","","","NaN",""
"","S1","","html-keyboard-response","116","160916","0.0-1.0-164.0","0","0","86365","","null","","","null","18","","","","","","","","","","","","","","","",""
"","ISI","","html-keyboard-response","117","161931","0.0-1.0-165.0","0","0","86365","","null","","","null","18","NaN","","","","","","","","","","","","","","",""
"","S2","","html-keyboard-response","118","162184","0.0-1.0-166.0","0","0","86365","","null","","","null","18","","NaN","","","","","","","","","","","","","",""
"","response","","html-keyboard-response","119","162281","0.0-1.0-167.0-0.0","0","0","86365","","95","","","68","18","","","1","18","training","adjacent","BA","2","1","R.jpg","O.jpg","0","0","1","",""
"","feedback","","html-keyboard-response","120","163284","0.0-1.0-168.0-0.0","0","0","86365","","null","","","null","18","","","","","","","","","","","","","","","",""
"","ITI","","html-keyboard-response","121","164286","0.0-1.0-171.0","0","0","86365","","null","","","null","18","","","","","","","","","","","","","","","NaN",""
"","S1","","html-keyboard-response","122","164540","0.0-1.0-173.0","0","0","86365","","null","","","null","19","","","","","","","","","","","","","","","",""
"","ISI","","html-keyboard-response","123","165543","0.0-1.0-174.0","0","0","86365","","null","","","null","19","NaN","","","","","","","","","","","","","","",""
"","S2","","html-keyboard-response","124","165797","0.0-1.0-175.0","0","0","86365","","null","","","null","19","","NaN","","","","","","","","","","","","","",""
"","response","","html-keyboard-response","125","165928","0.0-1.0-176.0-0.0","0","0","86365","","128","","","75","19","","","1","19","training","adjacent","CD","3","4","M.jpg","N.jpg","1","1","1","",""
"","feedback","","html-keyboard-response","126","166931","0.0-1.0-177.0-0.0","0","0","86365","","null","","","null","19","","","","","","","","","","","","","","","",""
"","ITI","","html-keyboard-response","127","167934","0.0-1.0-180.0","0","0","86365","","null","","","null","19","","","","","","","","","","","","","","","NaN",""
"","S1","","html-keyboard-response","128","168187","0.0-1.0-182.0","0","0","86365","","null","","","null","20","","","","","","","","","","","","","","","",""
"","ISI","","html-keyboard-response","129","169189","0.0-1.0-183.0","0","0","86365","","null","","","null","20","NaN","","","","","","","","","","","","","","",""
"","S2","","html-keyboard-response","130","169442","0.0-1.0-184.0","0","0","86365","","null","","","null","20","","NaN","","","","","","","","","","","","","",""
"","response","","html-keyboard-response","131","169614","0.0-1.0-185.0-0.0","0","0","86365","","170","","","68","20","","","1","20","training","adjacent","AB","1","2","O.jpg","R.jpg","0","1","0","",""
"","feedback","","html-keyboard-response","132","170630","0.0-1.0-186.0-0.0","0","0","86365","","null","","","null","20","","","","","","","","","","","","","","","",""
"","time_out","","html-keyboard-response","133","172647","0.0-1.0-188.0-0.0","0","0","86365","","null","","","null","20","","","","","","","","","","","","","","","",""
"","ITI","","html-keyboard-response","134","173650","0.0-1.0-189.0","0","0","86365","","null","","","null","20","","","","","","","","","","","","","","","NaN",""
"","S1","","html-keyboard-response","135","173904","0.0-1.0-191.0","0","0","86365","","null","","","null","21","","","","","","","","","","","","","","","",""
"","ISI","","html-keyboard-response","136","174906","0.0-1.0-192.0","0","0","86365","","null","","","null","21","NaN","","","","","","","","","","","","","","",""
"","S2","","html-keyboard-response","137","175159","0.0-1.0-193.0","0","0","86365","","null","","","null","21","","NaN","","","","","","","","","","","","","",""
"","response","","html-keyboard-response","138","175329","0.0-1.0-194.0-0.0","0","0","86365","","168","","","75","21","","","1","21","training","adjacent","BC","2","3","R.jpg","M.jpg","1","1","1","",""
"","feedback","","html-keyboard-response","139","176333","0.0-1.0-195.0-0.0","0","0","86365","","null","","","null","21","","","","","","","","","","","","","","","",""
"","ITI","","html-keyboard-response","140","177336","0.0-1.0-198.0","0","0","86365","","null","","","null","21","","","","","","","","","","","","","","","NaN",""
"","S1","","html-keyboard-response","141","177589","0.0-1.0-200.0","0","0","86365","","null","","","null","22","","","","","","","","","","","","","","","",""
"","ISI","","html-keyboard-response","142","178593","0.0-1.0-201.0","0","0","86365","","null","","","null","22","NaN","","","","","","","","","","","","","","",""
"","S2","","html-keyboard-response","143","178847","0.0-1.0-202.0","0","0","86365","","null","","","null","22","","NaN","","","","","","","","","","","","","",""
"","response","","html-keyboard-response","144","178869","0.0-1.0-203.0-0.0","0","0","86365","","20","","","68","22","","","1","22","training","adjacent","CB","3","2","M.jpg","R.jpg","0","0","1","",""
"","feedback","","html-keyboard-response","145","179872","0.0-1.0-204.0-0.0","0","0","86365","","null","","","null","22","","","","","","","","","","","","","","","",""
"","ITI","","html-keyboard-response","146","180875","0.0-1.0-207.0","0","0","86365","","null","","","null","22","","","","","","","","","","","","","","","NaN",""
"","S1","","html-keyboard-response","147","181128","0.0-1.0-209.0","0","0","86365","","null","","","null","23","","","","","","","","","","","","","","","",""
"","ISI","","html-keyboard-response","148","182132","0.0-1.0-210.0","0","0","86365","","null","","","null","23","NaN","","","","","","","","","","","","","","",""
"","S2","","html-keyboard-response","149","182386","0.0-1.0-211.0","0","0","86365","","null","","","null","23","","NaN","","","","","","","","","","","","","",""
"","response","","html-keyboard-response","150","182420","0.0-1.0-212.0-0.0","0","0","86365","","32","","","75","23","","","1","23","training","adjacent","BA","2","1","R.jpg","O.jpg","1","0","0","",""
"","feedback","","html-keyboard-response","151","183423","0.0-1.0-213.0-0.0","0","0","86365","","null","","","null","23","","","","","","","","","","","","","","","",""
"","time_out","","html-keyboard-response","152","185426","0.0-1.0-215.0-0.0","0","0","86365","","null","","","null","23","","","","","","","","","","","","","","","",""
"","ITI","","html-keyboard-response","153","186442","0.0-1.0-216.0","0","0","86365","","null","","","null","23","","","","","","","","","","","","","","","NaN",""
"","S1","","html-keyboard-response","154","186695","0.0-1.0-218.0","0","0","86365","","null","","","null","24","","","","","","","","","","","","","","","",""
"","ISI","","html-keyboard-response","155","187698","0.0-1.0-219.0","0","0","86365","","null","","","null","24","NaN","","","","","","","","","","","","","","",""
"","S2","","html-keyboard-response","156","187951","0.0-1.0-220.0","0","0","86365","","null","","","null","24","","NaN","","","","","","","","","","","","","",""
"","response","","html-keyboard-response","157","187967","0.0-1.0-221.0-0.0","0","0","86365","","14","","","68","24","","","1","24","training","adjacent","FG","6","7","Q.jpg","P.jpg","0","1","0","",""
"","feedback","","html-keyboard-response","158","188971","0.0-1.0-222.0-0.0","0","0","86365","","null","","","null","24","","","","","","","","","","","","","","","",""
"","time_out","","html-keyboard-response","159","190973","0.0-1.0-224.0-0.0","0","0","86365","","null","","","null","24","","","","","","","","","","","","","","","",""
"","ITI","","html-keyboard-response","160","191976","0.0-1.0-225.0","0","0","86365","","null","","","null","24","","","","","","","","","","","","","","","NaN",""
"","S1","","html-keyboard-response","161","192229","0.0-1.0-227.0","0","0","86365","","null","","","null","25","","","","","","","","","","","","","","","",""
"","ISI","","html-keyboard-response","162","193246","0.0-1.0-228.0","0","0","86365","","null","","","null","25","NaN","","","","","","","","","","","","","","",""
"","S2","","html-keyboard-response","163","193408","0.0-1.0-229.0","0","0","86365","","160","","","75","25","","k","1","25","training","adjacent","EF","5","6","L.jpg","Q.jpg","1","1","1","",""
"","feedback","","html-keyboard-response","164","194424","0.0-1.0-231.0-0.0","0","0","86365","","null","","","null","25","","","","","","","","","","","","","","","",""
"","ITI","","html-keyboard-response","165","195426","0.0-1.0-234.0","0","0","86365","","null","","","null","25","","","","","","","","","","","","","","","NaN",""
"","S1","","html-keyboard-response","166","195680","0.0-1.0-236.0","0","0","86365","","null","","","null","26","","","","","","","","","","","","","","","",""
"","ISI","","html-keyboard-response","167","196683","0.0-1.0-237.0","0","0","86365","","208","","","75","26","k","","","","","","","","","","","","","","",""
"","S2","","html-keyboard-response","168","196920","0.0-1.0-238.0","0","0","86365","","234","","","75","26","","k","1","26","training","adjacent","DC","4","3","N.jpg","M.jpg","1","0","0","",""
"","feedback","","html-keyboard-response","169","197925","0.0-1.0-240.0-0.0","0","0","86365","","null","","","null","26","","","","","","","","","","","","","","","",""
"","time_out","","html-keyboard-response","170","199932","0.0-1.0-242.0-0.0","0","0","86365","","null","","","null","26","","","","","","","","","","","","","","","",""
"","ITI","","html-keyboard-response","171","200935","0.0-1.0-243.0","0","0","86365","","null","","","null","26","","","","","","","","","","","","","","","NaN",""
"","S1","","html-keyboard-response","172","201189","0.0-1.0-245.0","0","0","86365","","null","","","null","27","","","","","","","","","","","","","","","",""
"","ISI","","html-keyboard-response","173","202191","0.0-1.0-246.0","0","0","86365","","null","","","null","27","NaN","","","","","","","","","","","","","","",""
"","S2","","html-keyboard-response","174","202424","0.0-1.0-247.0","0","0","86365","","231","","","75","27","","k","1","27","training","adjacent","FE","6","5","Q.jpg","L.jpg","1","0","0","",""
"","feedback","","html-keyboard-response","175","203432","0.0-1.0-249.0-0.0","0","0","86365","","null","","","null","27","","","","","","","","","","","","","","","",""
"","time_out","","html-keyboard-response","176","205436","0.0-1.0-251.0-0.0","0","0","86365","","null","","","null","27","","","","","","","","","","","","","","","",""
"","ITI","","html-keyboard-response","177","206441","0.0-1.0-252.0","0","0","86365","","null","","","null","27","","","","","","","","","","","","","","","NaN",""
"","S1","","html-keyboard-response","178","206697","0.0-1.0-254.0","0","0","86365","","null","","","null","28","","","","","","","","","","","","","","","",""
"","ISI","","html-keyboard-response","179","207701","0.0-1.0-255.0","0","0","86365","","401","","","75","28","k","","","","","","","","","","","","","","",""
"","S2","","html-keyboard-response","180","207957","0.0-1.0-256.0","0","0","86365","","null","","","null","28","","NaN","","","","","","","","","","","","","",""
"","response","","html-keyboard-response","181","207980","0.0-1.0-257.0-0.0","0","0","86365","","20","","","75","28","","","1","28","training","adjacent","ED","5","4","L.jpg","N.jpg","1","0","0","",""
"","feedback","","html-keyboard-response","182","208983","0.0-1.0-258.0-0.0","0","0","86365","","null","","","null","28","","","","","","","","","","","","","","","",""
"","time_out","","html-keyboard-response","183","210988","0.0-1.0-260.0-0.0","0","0","86365","","null","","","null","28","","","","","","","","","","","","","","","",""
"","ITI","","html-keyboard-response","184","211996","0.0-1.0-261.0","0","0","86365","","null","","","null","28","","","","","","","","","","","","","","","NaN",""
"","S1","","html-keyboard-response","185","212262","0.0-1.0-263.0","0","0","86365","","null","","","null","29","","","","","","","","","","","","","","","",""
"","ISI","","html-keyboard-response","186","213266","0.0-1.0-264.0","0","0","86365","","null","","","null","29","NaN","","","","","","","","","","","","","","",""
"","S2","","html-keyboard-response","187","213505","0.0-1.0-265.0","0","0","86365","","236","","","75","29","","k","1","29","training","adjacent","AB","1","2","O.jpg","R.jpg","1","1","1","",""
"","feedback","","html-keyboard-response","188","214508","0.0-1.0-267.0-0.0","0","0","86365","","null","","","null","29","","","","","","","","","","","","","","","",""
"","ITI","","html-keyboard-response","189","215512","0.0-1.0-270.0","0","0","86365","","null","","","null","29","","","","","","","","","","","","","","","NaN",""
"","S1","","html-keyboard-response","190","215767","0.0-1.0-272.0","0","0","86365","","null","","","null","30","","","","","","","","","","","","","","","",""
"","ISI","","html-keyboard-response","191","216771","0.0-1.0-273.0","0","0","86365","","null","","","null","30","NaN","","","","","","","","","","","","","","",""
"","S2","","html-keyboard-response","192","217026","0.0-1.0-274.0","0","0","86365","","null","","","null","30","","NaN","","","","","","","","","","","","","",""
"","response","","html-keyboard-response","193","217236","0.0-1.0-275.0-0.0","0","0","86365","","206","","","75","30","","","1","30","training","adjacent","FE","6","5","Q.jpg","L.jpg","1","0","0","",""
"","feedback","","html-keyboard-response","194","218242","0.0-1.0-276.0-0.0","0","0","86365","","null","","","null","30","","","","","","","","","","","","","","","",""
"","time_out","","html-keyboard-response","195","220247","0.0-1.0-278.0-0.0","0","0","86365","","null","","","null","30","","","","","","","","","","","","","","","",""
"","ITI","","html-keyboard-response","196","221251","0.0-1.0-279.0","0","0","86365","","null","","","null","30","","","","","","","","","","","","","","","NaN",""
"","S1","","html-keyboard-response","197","221507","0.0-1.0-281.0","0","0","86365","","null","","","null","31","","","","","","","","","","","","","","","",""
"","ISI","","html-keyboard-response","198","222510","0.0-1.0-282.0","0","0","86365","","null","","","null","31","NaN","","","","","","","","","","","","","","",""
"","S2","","html-keyboard-response","199","222765","0.0-1.0-283.0","0","0","86365","","null","","","null","31","","NaN","","","","","","","","","","","","","",""
"","response","","html-keyboard-response","200","223158","0.0-1.0-284.0-0.0","0","0","86365","","390","","","75","31","","","1","31","training","adjacent","FE","6","5","Q.jpg","L.jpg","1","0","0","",""
"","feedback","","html-keyboard-response","201","224162","0.0-1.0-285.0-0.0","0","0","86365","","null","","","null","31","","","","","","","","","","","","","","","",""
"","time_out","","html-keyboard-response","202","226165","0.0-1.0-287.0-0.0","0","0","86365","","null","","","null","31","","","","","","","","","","","","","","","",""
"","ITI","","html-keyboard-response","203","227169","0.0-1.0-288.0","0","0","86365","","null","","","null","31","","","","","","","","","","","","","","","NaN",""
"","S1","","html-keyboard-response","204","227423","0.0-1.0-290.0","0","0","86365","","null","","","null","32","","","","","","","","","","","","","","","",""
"","ISI","","html-keyboard-response","205","228430","0.0-1.0-291.0","0","0","86365","","61","","","68","32","d","","","","","","","","","","","","","","",""
"","S2","","html-keyboard-response","206","228686","0.0-1.0-292.0","0","0","86365","","null","","","null","32","","NaN","","","","","","","","","","","","","",""
"","response","","html-keyboard-response","207","229039","0.0-1.0-293.0-0.0","0","0","86365","","349","","","75","32","","","1","32","training","adjacent","ED","5","4","L.jpg","N.jpg","1","0","0","",""
"","feedback","","html-keyboard-response","208","230044","0.0-1.0-294.0-0.0","0","0","86365","","null","","","null","32","","","","","","","","","","","","","","","",""
"","time_out","","html-keyboard-response","209","232048","0.0-1.0-296.0-0.0","0","0","86365","","null","","","null","32","","","","","","","","","","","","","","","",""
"","ITI","","html-keyboard-response","210","233053","0.0-1.0-297.0","0","0","86365","","null","","","null","32","","","","","","","","","","","","","","","NaN",""
"","S1","","html-keyboard-response","211","233309","0.0-1.0-299.0","0","0","86365","","null","","","null","33","","","","","","","","","","","","","","","",""
"","ISI","","html-keyboard-response","212","234313","0.0-1.0-300.0","0","0","86365","","null","","","null","33","NaN","","","","","","","","","","","","","","",""
"","S2","","html-keyboard-response","213","234569","0.0-1.0-301.0","0","0","86365","","null","","","null","33","","NaN","","","","","","","","","","","","","",""
"","response","","html-keyboard-response","214","234998","0.0-1.0-302.0-0.0","0","0","86365","","426","","","75","33","","","1","33","training","adjacent","EF","5","6","L.jpg","Q.jpg","1","1","1","",""
"","feedback","","html-keyboard-response","215","236003","0.0-1.0-303.0-0.0","0","0","86365","","null","","","null","33","","","","","","","","","","","","","","","",""
"","ITI","","html-keyboard-response","216","237008","0.0-1.0-306.0","0","0","86365","","null","","","null","33","","","","","","","","","","","","","","","NaN",""
"","S1","","html-keyboard-response","217","237264","0.0-1.0-308.0","0","0","86365","","null","","","null","34","","","","","","","","","","","","","","","",""
"","ISI","","html-keyboard-response","218","238284","0.0-1.0-309.0","0","0","86365","","null","","","null","34","NaN","","","","","","","","","","","","","","",""
"","S2","","html-keyboard-response","219","238540","0.0-1.0-310.0","0","0","86365","","null","","","null","34","","NaN","","","","","","","","","","","","","",""
"","response","","html-keyboard-response","220","238720","0.0-1.0-311.0-0.0","0","0","86365","","177","","","68","34","","","1","34","training","adjacent","CD","3","4","M.jpg","N.jpg","0","1","0","",""
"","feedback","","html-keyboard-response","221","239726","0.0-1.0-312.0-0.0","0","0","86365","","null","","","null","34","","","","","","","","","","","","","","","",""
"","time_out","","html-keyboard-response","222","241743","0.0-1.0-314.0-0.0","0","0","86365","","null","","","null","34","","","","","","","","","","","","","","","",""
"","ITI","","html-keyboard-response","223","242746","0.0-1.0-315.0","0","0","86365","","null","","","null","34","","","","","","","","","","","","","","","NaN",""
"","S1","","html-keyboard-response","224","243002","0.0-1.0-317.0","0","0","86365","","null","","","null","35","","","","","","","","","","","","","","","",""
"","ISI","","html-keyboard-response","225","244007","0.0-1.0-318.0","0","0","86365","","null","","","null","35","NaN","","","","","","","","","","","","","","",""
"","S2","","html-keyboard-response","226","244235","0.0-1.0-319.0","0","0","86365","","224","","","75","35","","k","1","35","training","adjacent","FG","6","7","Q.jpg","P.jpg","1","1","1","",""
"","feedback","","html-keyboard-response","227","245241","0.0-1.0-321.0-0.0","0","0","86365","","null","","","null","35","","","","","","","","","","","","","","","",""
"","ITI","","html-keyboard-response","228","246246","0.0-1.0-324.0","0","0","86365","","null","","","null","35","","","","","","","","","","","","","","","NaN",""
"","S1","","html-keyboard-response","229","246501","0.0-1.0-326.0","0","0","86365","","null","","","null","36","","","","","","","","","","","","","","","",""
"","ISI","","html-keyboard-response","230","247503","0.0-1.0-327.0","0","0","86365","","null","","","null","36","NaN","","","","","","","","","","","","","","",""
"","S2","","html-keyboard-response","231","247757","0.0-1.0-328.0","0","0","86365","","null","","","null","36","","NaN","","","","","","","","","","","","","",""
"","response","","html-keyboard-response","232","248138","0.0-1.0-329.0-0.0","0","0","86365","","377","","","75","36","","","1","36","training","adjacent","FE","6","5","Q.jpg","L.jpg","1","0","0","",""
"","feedback","","html-keyboard-response","233","249142","0.0-1.0-330.0-0.0","0","0","86365","","null","","","null","36","","","","","","","","","","","","","","","",""
"","time_out","","html-keyboard-response","234","251147","0.0-1.0-332.0-0.0","0","0","86365","","null","","","null","36","","","","","","","","","","","","","","","",""
"","ITI","","html-keyboard-response","235","252152","0.0-1.0-333.0","0","0","86365","","577","","","68","36","","","","","","","","","","","","","","","d",""
"","S1","","html-keyboard-response","236","252410","0.0-1.0-335.0","0","0","86365","","null","","","null","37","","","","","","","","","","","","","","","",""
"","ISI","","html-keyboard-response","237","253417","0.0-1.0-336.0","0","0","86365","","16","","","75","37","k","","","","","","","","","","","","","","",""
"","S2","","html-keyboard-response","238","253673","0.0-1.0-337.0","0","0","86365","","null","","","null","37","","NaN","","","","","","","","","","","","","",""
"","response","","html-keyboard-response","239","253768","0.0-1.0-338.0-0.0","0","0","86365","","92","","","75","37","","","1","37","training","adjacent","ED","5","4","L.jpg","N.jpg","1","0","0","",""
"","feedback","","html-keyboard-response","240","254774","0.0-1.0-339.0-0.0","0","0","86365","","null","","","null","37","","","","","","","","","","","","","","","",""
"","time_out","","html-keyboard-response","241","256778","0.0-1.0-341.0-0.0","0","0","86365","","null","","","null","37","","","","","","","","","","","","","","","",""
"","ITI","","html-keyboard-response","242","257783","0.0-1.0-342.0","0","0","86365","","null","","","null","37","","","","","","","","","","","","","","","NaN",""
"","S1","","html-keyboard-response","243","258039","0.0-1.0-344.0","0","0","86365","","null","","","null","38","","","","","","","","","","","","","","","",""
"","ISI","","html-keyboard-response","244","259043","0.0-1.0-345.0","0","0","86365","","77","","","75","38","k","","","","","","","","","","","","","","",""
"","S2","","html-keyboard-response","245","259299","0.0-1.0-346.0","0","0","86365","","null","","","null","38","","NaN","","","","","","","","","","","","","",""
"","response","","html-keyboard-response","246","259419","0.0-1.0-347.0-0.0","0","0","86365","","116","","","75","38","","","1","38","training","adjacent","FG","6","7","Q.jpg","P.jpg","1","1","1","",""
"","feedback","","html-keyboard-response","247","260425","0.0-1.0-348.0-0.0","0","0","86365","","null","","","null","38","","","","","","","","","","","","","","","",""
"","ITI","","html-keyboard-response","248","261444","0.0-1.0-351.0","0","0","86365","","null","","","null","38","","","","","","","","","","","","","","","NaN",""
"","S1","","html-keyboard-response","249","261700","0.0-1.0-353.0","0","0","86365","","null","","","null","39","","","","","","","","","","","","","","","",""
"","ISI","","html-keyboard-response","250","262705","0.0-1.0-354.0","0","0","86365","","null","","","null","39","NaN","","","","","","","","","","","","","","",""
"","S2","","html-keyboard-response","251","262960","0.0-1.0-355.0","0","0","86365","","null","","","null","39","","NaN","","","","","","","","","","","","","",""
"","response","","html-keyboard-response","252","263070","0.0-1.0-356.0-0.0","0","0","86365","","108","","","75","39","","","1","39","training","adjacent","BC","2","3","R.jpg","M.jpg","1","1","1","",""
"","feedback","","html-keyboard-response","253","264075","0.0-1.0-357.0-0.0","0","0","86365","","null","","","null","39","","","","","","","","","","","","","","","",""
"","ITI","","html-keyboard-response","254","265080","0.0-1.0-360.0","0","0","86365","","null","","","null","39","","","","","","","","","","","","","","","NaN",""
"","S1","","html-keyboard-response","255","265336","0.0-1.0-362.0","0","0","86365","","null","","","null","40","","","","","","","","","","","","","","","",""
"","ISI","","html-keyboard-response","256","266341","0.0-1.0-363.0","0","0","86365","","null","","","null","40","NaN","","","","","","","","","","","","","","",""
"","S2","","html-keyboard-response","257","266596","0.0-1.0-364.0","0","0","86365","","null","","","null","40","","NaN","","","","","","","","","","","","","",""
"","response","","html-keyboard-response","258","266845","0.0-1.0-365.0-0.0","0","0","86365","","246","","","75","40","","","1","40","training","adjacent","CB","3","2","M.jpg","R.jpg","1","0","0","",""
"","feedback","","html-keyboard-response","259","267850","0.0-1.0-366.0-0.0","0","0","86365","","null","","","null","40","","","","","","","","","","","","","","","",""
"","time_out","","html-keyboard-response","260","269856","0.0-1.0-368.0-0.0","0","0","86365","","null","","","null","40","","","","","","","","","","","","","","","",""
"","ITI","","html-keyboard-response","261","270860","0.0-1.0-369.0","0","0","86365","","null","","","null","40","","","","","","","","","","","","","","","NaN",""
"","S1","","html-keyboard-response","262","271115","0.0-1.0-371.0","0","0","86365","","null","","","null","41","","","","","","","","","","","","","","","",""
"","ISI","","html-keyboard-response","263","272119","0.0-1.0-372.0","0","0","86365","","null","","","null","41","NaN","","","","","","","","","","","","","","",""
"","S2","","html-keyboard-response","264","272375","0.0-1.0-373.0","0","0","86365","","null","","","null","41","","NaN","","","","","","","","","","","","","",""
"","response","","html-keyboard-response","265","272379","0.0-1.0-374.0-0.0","0","0","86365","","2","","","68","41","","","1","41","training","adjacent","FG","6","7","Q.jpg","P.jpg","0","1","0","",""
"","feedback","","html-keyboard-response","266","273382","0.0-1.0-375.0-0.0","0","0","86365","","null","","","null","41","","","","","","","","","","","","","","","",""
"","time_out","","html-keyboard-response","267","275387","0.0-1.0-377.0-0.0","0","0","86365","","null","","","null","41","","","","","","","","","","","","","","","",""
"","ITI","","html-keyboard-response","268","276391","0.0-1.0-378.0","0","0","86365","","null","","","null","41","","","","","","","","","","","","","","","NaN",""
"","S1","","html-keyboard-response","269","276646","0.0-1.0-380.0","0","0","86365","","null","","","null","42","","","","","","","","","","","","","","","",""
"","ISI","","html-keyboard-response","270","277651","0.0-1.0-381.0","0","0","86365","","null","","","null","42","NaN","","","","","","","","","","","","","","",""
"","S2","","html-keyboard-response","271","277907","0.0-1.0-382.0","0","0","86365","","null","","","null","42","","NaN","","","","","","","","","","","","","",""
"","response","","html-keyboard-response","272","278106","0.0-1.0-383.0-0.0","0","0","86365","","197","","","75","42","","","1","42","training","adjacent","CD","3","4","M.jpg","N.jpg","1","1","1","",""
"","feedback","","html-keyboard-response","273","279110","0.0-1.0-384.0-0.0","0","0","86365","","null","","","null","42","","","","","","","","","","","","","","","",""
"","ITI","","html-keyboard-response","274","280116","0.0-1.0-387.0","0","0","86365","","null","","","null","42","","","","","","","","","","","","","","","NaN",""
"","S1","","html-keyboard-response","275","280372","0.0-1.0-389.0","0","0","86365","","null","","","null","43","","","","","","","","","","","","","","","",""
"","ISI","","html-keyboard-response","276","281377","0.0-1.0-390.0","0","0","86365","","null","","","null","43","NaN","","","","","","","","","","","","","","",""
"","S2","","html-keyboard-response","277","281631","0.0-1.0-391.0","0","0","86365","","null","","","null","43","","NaN","","","","","","","","","","","","","",""
"","response","","html-keyboard-response","278","281746","0.0-1.0-392.0-0.0","0","0","86365","","112","","","68","43","","","1","43","training","adjacent","DC","4","3","N.jpg","M.jpg","0","0","1","",""
"","feedback","","html-keyboard-response","279","282765","0.0-1.0-393.0-0.0","0","0","86365","","null","","","null","43","","","","","","","","","","","","","","","",""
"","ITI","","html-keyboard-response","280","283769","0.0-1.0-396.0","0","0","86365","","null","","","null","43","","","","","","","","","","","","","","","NaN",""
"","S1","","html-keyboard-response","281","284023","0.0-1.0-398.0","0","0","86365","","null","","","null","44","","","","","","","","","","","","","","","",""
"","ISI","","html-keyboard-response","282","285028","0.0-1.0-399.0","0","0","86365","","null","","","null","44","NaN","","","","","","","","","","","","","","",""
"","S2","","html-keyboard-response","283","285284","0.0-1.0-400.0","0","0","86365","","null","","","null","44","","NaN","","","","","","","","","","","","","",""
"","response","","html-keyboard-response","284","285291","0.0-1.0-401.0-0.0","0","0","86365","","4","","","75","44","","","1","44","training","adjacent","DE","4","5","N.jpg","L.jpg","1","1","1","",""
"","feedback","","html-keyboard-response","285","286296","0.0-1.0-402.0-0.0","0","0","86365","","null","","","null","44","","","","","","","","","","","","","","","",""
"","ITI","","html-keyboard-response","286","287302","0.0-1.0-405.0","0","0","86365","","null","","","null","44","","","","","","","","","","","","","","","NaN",""
"","S1","","html-keyboard-response","287","287558","0.0-1.0-407.0","0","0","86365","","null","","","null","45","","","","","","","","","","","","","","","",""
"","ISI","","html-keyboard-response","288","288562","0.0-1.0-408.0","0","0","86365","","null","","","null","45","NaN","","","","","","","","","","","","","","",""
"","S2","","html-keyboard-response","289","288587","0.0-1.0-409.0","0","0","86365","","22","","","68","45","","d","1","45","training","adjacent","BC","2","3","R.jpg","M.jpg","0","1","0","",""
"","feedback","","html-keyboard-response","290","289591","0.0-1.0-411.0-0.0","0","0","86365","","null","","","null","45","","","","","","","","","","","","","","","",""
"","time_out","","html-keyboard-response","291","291597","0.0-1.0-413.0-0.0","0","0","86365","","null","","","null","45","","","","","","","","","","","","","","","",""
"","ITI","","html-keyboard-response","292","292602","0.0-1.0-414.0","0","0","86365","","null","","","null","45","","","","","","","","","","","","","","","NaN",""
"","S1","","html-keyboard-response","293","292857","0.0-1.0-416.0","0","0","86365","","null","","","null","46","","","","","","","","","","","","","","","",""
"","ISI","","html-keyboard-response","294","293862","0.0-1.0-417.0","0","0","86365","","null","","","null","46","NaN","","","","","","","","","","","","","","",""
"","S2","","html-keyboard-response","295","294039","0.0-1.0-418.0","0","0","86365","","172","","","75","46","","k","1","46","training","adjacent","DE","4","5","N.jpg","L.jpg","1","1","1","",""
"","feedback","","html-keyboard-response","296","295046","0.0-1.0-420.0-0.0","0","0","86365","","null","","","null","46","","","","","","","","","","","","","","","",""
"","ITI","","html-keyboard-response","297","296051","0.0-1.0-423.0","0","0","86365","","null","","","null","46","","","","","","","","","","","","","","","NaN",""
"","S1","","html-keyboard-response","298","296307","0.0-1.0-425.0","0","0","86365","","null","","","null","47","","","","","","","","","","","","","","","",""
"","ISI","","html-keyboard-response","299","297312","0.0-1.0-426.0","0","0","86365","","null","","","null","47","NaN","","","","","","","","","","","","","","",""
"","S2","","html-keyboard-response","300","297542","0.0-1.0-427.0","0","0","86365","","226","","","68","47","","d","1","47","training","adjacent","BA","2","1","R.jpg","O.jpg","0","0","1","",""
"","feedback","","html-keyboard-response","301","298548","0.0-1.0-429.0-0.0","0","0","86365","","null","","","null","47","","","","","","","","","","","","","","","",""
"","ITI","","html-keyboard-response","302","299552","0.0-1.0-432.0","0","0","86365","","null","","","null","47","","","","","","","","","","","","","","","NaN",""
"","block_over","","html-keyboard-response","303","302537","0.0-1.0-433.0-0.0","0","0","86365","","2981","","","32","47","","","","","","","","","","","","","","","",""
"","S1","","html-keyboard-response","304","302792","0.0-1.0-434.0","0","0","86365","","null","","","null","48","","","","","","","","","","","","","","","",""
"","ISI","","html-keyboard-response","305","303796","0.0-1.0-435.0","0","0","86365","","903","","","75","48","k","","","","","","","","","","","","","","",""
"","S2","","html-keyboard-response","306","304052","0.0-1.0-436.0","0","0","86365","","null","","","null","48","","NaN","","","","","","","","","","","","","",""
"","response","","html-keyboard-response","307","304535","0.0-1.0-437.0-0.0","0","0","86365","","479","","","75","48","","","2","48","training","adjacent","DC","4","3","N.jpg","M.jpg","1","0","0","",""
"","feedback","","html-keyboard-response","308","305541","0.0-1.0-438.0-0.0","0","0","86365","","null","","","null","48","","","","","","","","","","","","","","","",""
"","time_out","","html-keyboard-response","309","307545","0.0-1.0-440.0-0.0","0","0","86365","","null","","","null","48","","","","","","","","","","","","","","","",""
"","ITI","","html-keyboard-response","310","308557","0.0-1.0-441.0","0","0","86365","","290","","","75","48","","","","","","","","","","","","","","","k",""
"","S1","","html-keyboard-response","311","308812","0.0-1.0-443.0","0","0","86365","","null","","","null","49","","","","","","","","","","","","","","","",""
"","ISI","","html-keyboard-response","312","309816","0.0-1.0-444.0","0","0","86365","","122","","","68","49","d","","","","","","","","","","","","","","",""
"","S2","","html-keyboard-response","313","310009","0.0-1.0-445.0","0","0","86365","","190","","","75","49","","k","2","49","training","adjacent","BA","2","1","R.jpg","O.jpg","1","0","0","",""
"","feedback","","html-keyboard-response","314","311014","0.0-1.0-447.0-0.0","0","0","86365","","null","","","null","49","","","","","","","","","","","","","","","",""
"","time_out","","html-keyboard-response","315","313020","0.0-1.0-449.0-0.0","0","0","86365","","null","","","null","49","","","","","","","","","","","","","","","",""
"","ITI","","html-keyboard-response","316","314024","0.0-1.0-450.0","0","0","86365","","null","","","null","49","","","","","","","","","","","","","","","NaN",""
"","S1","","html-keyboard-response","317","314280","0.0-1.0-452.0","0","0","86365","","null","","","null","50","","","","","","","","","","","","","","","",""
"","ISI","","html-keyboard-response","318","315283","0.0-1.0-453.0","0","0","86365","","null","","","null","50","NaN","","","","","","","","","","","","","","",""
"","S2","","html-keyboard-response","319","315539","0.0-1.0-454.0","0","0","86365","","null","","","null","50","","NaN","","","","","","","","","","","","","",""
"","response","","html-keyboard-response","320","315559","0.0-1.0-455.0-0.0","0","0","86365","","17","","","75","50","","","2","50","training","adjacent","FE","6","5","Q.jpg","L.jpg","1","0","0","",""
"","feedback","","html-keyboard-response","321","316563","0.0-1.0-456.0-0.0","0","0","86365","","null","","","null","50","","","","","","","","","","","","","","","",""
"","time_out","","html-keyboard-response","322","318569","0.0-1.0-458.0-0.0","0","0","86365","","null","","","null","50","","","","","","","","","","","","","","","",""
"","ITI","","html-keyboard-response","323","319574","0.0-1.0-459.0","0","0","86365","","489","","","68","50","","","","","","","","","","","","","","","d",""
"","S1","","html-keyboard-response","324","319830","0.0-1.0-461.0","0","0","86365","","null","","","null","51","","","","","","","","","","","","","","","",""
"","ISI","","html-keyboard-response","325","320835","0.0-1.0-462.0","0","0","86365","","null","","","null","51","NaN","","","","","","","","","","","","","","",""
"","S2","","html-keyboard-response","326","321092","0.0-1.0-463.0","0","0","86365","","null","","","null","51","","NaN","","","","","","","","","","","","","",""
"","response","","html-keyboard-response","327","321108","0.0-1.0-464.0-0.0","0","0","86365","","14","","","75","51","","","2","51","training","adjacent","ED","5","4","L.jpg","N.jpg","1","0","0","",""
"","feedback","","html-keyboard-response","328","322112","0.0-1.0-465.0-0.0","0","0","86365","","null","","","null","51","","","","","","","","","","","","","","","",""
"","time_out","","html-keyboard-response","329","324116","0.0-1.0-467.0-0.0","0","0","86365","","null","","","null","51","","","","","","","","","","","","","","","",""
"","ITI","","html-keyboard-response","330","325120","0.0-1.0-468.0","0","0","86365","","null","","","null","51","","","","","","","","","","","","","","","NaN",""
"","S1","","html-keyboard-response","331","325375","0.0-1.0-470.0","0","0","86365","","null","","","null","52","","","","","","","","","","","","","","","",""
"","ISI","","html-keyboard-response","332","326380","0.0-1.0-471.0","0","0","86365","","101","","","75","52","k","","","","","","","","","","","","","","",""
"","S2","","html-keyboard-response","333","326572","0.0-1.0-472.0","0","0","86365","","189","","","75","52","","k","2","52","training","adjacent","GF","7","6","P.jpg","Q.jpg","1","0","0","",""
"","feedback","","html-keyboard-response","334","327584","0.0-1.0-474.0-0.0","0","0","86365","","null","","","null","52","","","","","","","","","","","","","","","",""
"","time_out","","html-keyboard-response","335","329589","0.0-1.0-476.0-0.0","0","0","86365","","null","","","null","52","","","","","","","","","","","","","","","",""
"","ITI","","html-keyboard-response","336","330593","0.0-1.0-477.0","0","0","86365","","null","","","null","52","","","","","","","","","","","","","","","NaN",""
"","S1","","html-keyboard-response","337","330848","0.0-1.0-479.0","0","0","86365","","null","","","null","53","","","","","","","","","","","","","","","",""
"","ISI","","html-keyboard-response","338","331853","0.0-1.0-480.0","0","0","86365","","null","","","null","53","NaN","","","","","","","","","","","","","","",""
"","S2","","html-keyboard-response","339","331955","0.0-1.0-481.0","0","0","86365","","96","","","68","53","","d","2","53","training","adjacent","EF","5","6","L.jpg","Q.jpg","0","1","0","",""
"","feedback","","html-keyboard-response","340","332959","0.0-1.0-483.0-0.0","0","0","86365","","null","","","null","53","","","","","","","","","","","","","","","",""
"","time_out","","html-keyboard-response","341","334965","0.0-1.0-485.0-0.0","0","0","86365","","null","","","null","53","","","","","","","","","","","","","","","",""
"","ITI","","html-keyboard-response","342","335970","0.0-1.0-486.0","0","0","86365","","null","","","null","53","","","","","","","","","","","","","","","NaN",""
"","S1","","html-keyboard-response","343","336227","0.0-1.0-488.0","0","0","86365","","null","","","null","54","","","","","","","","","","","","","","","",""
"","ISI","","html-keyboard-response","344","337231","0.0-1.0-489.0","0","0","86365","","190","","","68","54","d","","","","","","","","","","","","","","",""
"","S2","","html-keyboard-response","345","337501","0.0-1.0-490.0","0","0","86365","","null","","","null","54","","NaN","","","","","","","","","","","","","",""
"","response","","html-keyboard-response","346","337609","0.0-1.0-491.0-0.0","0","0","86365","","106","","","68","54","","","2","54","training","adjacent","DE","4","5","N.jpg","L.jpg","0","1","0","",""
"","feedback","","html-keyboard-response","347","338623","0.0-1.0-492.0-0.0","0","0","86365","","null","","","null","54","","","","","","","","","","","","","","","",""
"","time_out","","html-keyboard-response","348","340628","0.0-1.0-494.0-0.0","0","0","86365","","null","","","null","54","","","","","","","","","","","","","","","",""
"","ITI","","html-keyboard-response","349","341632","0.0-1.0-495.0","0","0","86365","","19","","","68","54","","","","","","","","","","","","","","","d",""
"","S1","","html-keyboard-response","350","341889","0.0-1.0-497.0","0","0","86365","","null","","","null","55","","","","","","","","","","","","","","","",""
"","ISI","","html-keyboard-response","351","342894","0.0-1.0-498.0","0","0","86365","","24","","","75","55","k","","","","","","","","","","","","","","",""
"","S2","","html-keyboard-response","352","343001","0.0-1.0-499.0","0","0","86365","","103","","","75","55","","k","2","55","training","adjacent","DC","4","3","N.jpg","M.jpg","1","0","0","",""
"","feedback","","html-keyboard-response","353","344005","0.0-1.0-501.0-0.0","0","0","86365","","null","","","null","55","","","","","","","","","","","","","","","",""
"","time_out","","html-keyboard-response","354","346010","0.0-1.0-503.0-0.0","0","0","86365","","null","","","null","55","","","","","","","","","","","","","","","",""
"","ITI","","html-keyboard-response","355","347013","0.0-1.0-504.0","0","0","86365","","117","","","75","55","","","","","","","","","","","","","","","k",""
"","S1","","html-keyboard-response","356","347268","0.0-1.0-506.0","0","0","86365","","null","","","null","56","","","","","","","","","","","","","","","",""
"","ISI","","html-keyboard-response","357","348273","0.0-1.0-507.0","0","0","86365","","11","","","68","56","d","","","","","","","","","","","","","","",""
"","S2","","html-keyboard-response","358","348418","0.0-1.0-508.0","0","0","86365","","140","","","75","56","","k","2","56","training","adjacent","BC","2","3","R.jpg","M.jpg","1","1","1","",""
"","feedback","","html-keyboard-response","359","349422","0.0-1.0-510.0-0.0","0","0","86365","","null","","","null","56","","","","","","","","","","","","","","","",""
"","ITI","","html-keyboard-response","360","350426","0.0-1.0-513.0","0","0","86365","","322","","","75","56","","","","","","","","","","","","","","","k",""
"","S1","","html-keyboard-response","361","350689","0.0-1.0-515.0","0","0","86365","","null","","","null","57","","","","","","","","","","","","","","","",""
"","ISI","","html-keyboard-response","362","351694","0.0-1.0-516.0","0","0","86365","","143","","","68","57","d","","","","","","","","","","","","","","",""
"","S2","","html-keyboard-response","363","351750","0.0-1.0-517.0","0","0","86365","","52","","","75","57","","k","2","57","training","adjacent","AB","1","2","O.jpg","R.jpg","1","1","1","",""
"","feedback","","html-keyboard-response","364","352756","0.0-1.0-519.0-0.0","0","0","86365","","null","","","null","57","","","","","","","","","","","","","","","",""
"","ITI","","html-keyboard-response","365","353761","0.0-1.0-522.0","0","0","86365","","131","","","68","57","","","","","","","","","","","","","","","d",""
"","S1","","html-keyboard-response","366","354017","0.0-1.0-524.0","0","0","86365","","null","","","null","58","","","","","","","","","","","","","","","",""
"","ISI","","html-keyboard-response","367","355021","0.0-1.0-525.0","0","0","86365","","null","","","null","58","NaN","","","","","","","","","","","","","","",""
"","S2","","html-keyboard-response","368","355277","0.0-1.0-526.0","0","0","86365","","null","","","null","58","","NaN","","","","","","","","","","","","","",""
"","response","","html-keyboard-response","369","355283","0.0-1.0-527.0-0.0","0","0","86365","","3","","","75","58","","","2","58","training","adjacent","FG","6","7","Q.jpg","P.jpg","1","1","1","",""
"","feedback","","html-keyboard-response","370","356287","0.0-1.0-528.0-0.0","0","0","86365","","null","","","null","58","","","","","","","","","","","","","","","",""
"","ITI","","html-keyboard-response","371","357292","0.0-1.0-531.0","0","0","86365","","null","","","null","58","","","","","","","","","","","","","","","NaN",""
"","S1","","html-keyboard-response","372","357548","0.0-1.0-533.0","0","0","86365","","null","","","null","59","","","","","","","","","","","","","","","",""
"","ISI","","html-keyboard-response","373","358553","0.0-1.0-534.0","0","0","86365","","null","","","null","59","NaN","","","","","","","","","","","","","","",""
"","S2","","html-keyboard-response","374","358808","0.0-1.0-535.0","0","0","86365","","null","","","null","59","","NaN","","","","","","","","","","","","","",""
"","response","","html-keyboard-response","375","358835","0.0-1.0-536.0-0.0","0","0","86365","","25","","","68","59","","","2","59","training","adjacent","DC","4","3","N.jpg","M.jpg","0","0","1","",""
"","feedback","","html-keyboard-response","376","359837","0.0-1.0-537.0-0.0","0","0","86365","","null","","","null","59","","","","","","","","","","","","","","","",""
"","ITI","","html-keyboard-response","377","360843","0.0-1.0-540.0","0","0","86365","","null","","","null","59","","","","","","","","","","","","","","","NaN",""
"","S1","","html-keyboard-response","378","361096","0.0-1.0-542.0","0","0","86365","","null","","","null","60","","","","","","","","","","","","","","","",""
"","ISI","","html-keyboard-response","379","362098","0.0-1.0-543.0","0","0","86365","","null","","","null","60","NaN","","","","","","","","","","","","","","",""
"","S2","","html-keyboard-response","380","362311","0.0-1.0-544.0","0","0","86365","","208","","","75","60","","k","2","60","training","adjacent","DE","4","5","N.jpg","L.jpg","1","1","1","",""
"","feedback","","html-keyboard-response","381","363316","0.0-1.0-546.0-0.0","0","0","86365","","null","","","null","60","","","","","","","","","","","","","","","",""
"","ITI","","html-keyboard-response","382","364319","0.0-1.0-549.0","0","0","86365","","null","","","null","60","","","","","","","","","","","","","","","NaN",""
"","S1","","html-keyboard-response","383","364576","0.0-1.0-551.0","0","0","86365","","null","","","null","61","","","","","","","","","","","","","","","",""
"","ISI","","html-keyboard-response","384","365580","0.0-1.0-552.0","0","0","86365","","null","","","null","61","NaN","","","","","","","","","","","","","","",""
"","S2","","html-keyboard-response","385","365790","0.0-1.0-553.0","0","0","86365","","207","","","75","61","","k","2","61","training","adjacent","GF","7","6","P.jpg","Q.jpg","1","0","0","",""
"","feedback","","html-keyboard-response","386","366796","0.0-1.0-555.0-0.0","0","0","86365","","null","","","null","61","","","","","","","","","","","","","","","",""
"","time_out","","html-keyboard-response","387","368801","0.0-1.0-557.0-0.0","0","0","86365","","null","","","null","61","","","","","","","","","","","","","","","",""
"","ITI","","html-keyboard-response","388","369810","0.0-1.0-558.0","0","0","86365","","null","","","null","61","","","","","","","","","","","","","","","NaN",""
"","S1","","html-keyboard-response","389","370066","0.0-1.0-560.0","0","0","86365","","null","","","null","62","","","","","","","","","","","","","","","",""
"","ISI","","html-keyboard-response","390","371071","0.0-1.0-561.0","0","0","86365","","null","","","null","62","NaN","","","","","","","","","","","","","","",""
"","S2","","html-keyboard-response","391","371326","0.0-1.0-562.0","0","0","86365","","null","","","null","62","","NaN","","","","","","","","","","","","","",""
"","response","","html-keyboard-response","392","371366","0.0-1.0-563.0-0.0","0","0","86365","","37","","","75","62","","","2","62","training","adjacent","FG","6","7","Q.jpg","P.jpg","1","1","1","",""
"","feedback","","html-keyboard-response","393","372371","0.0-1.0-564.0-0.0","0","0","86365","","null","","","null","62","","","","","","","","","","","","","","","",""
"","ITI","","html-keyboard-response","394","373377","0.0-1.0-567.0","0","0","86365","","null","","","null","62","","","","","","","","","","","","","","","NaN",""
"","S1","","html-keyboard-response","395","373632","0.0-1.0-569.0","0","0","86365","","null","","","null","63","","","","","","","","","","","","","","","",""
"","ISI","","html-keyboard-response","396","374635","0.0-1.0-570.0","0","0","86365","","null","","","null","63","NaN","","","","","","","","","","","","","","",""
"","S2","","html-keyboard-response","397","374871","0.0-1.0-571.0","0","0","86365","","234","","","68","63","","d","2","63","training","adjacent","GF","7","6","P.jpg","Q.jpg","0","0","1","",""
"","feedback","","html-keyboard-response","398","375877","0.0-1.0-573.0-0.0","0","0","86365","","null","","","null","63","","","","","","","","","","","","","","","",""
"","ITI","","html-keyboard-response","399","376891","0.0-1.0-576.0","0","0","86365","","null","","","null","63","","","","","","","","","","","","","","","NaN",""
"","S1","","html-keyboard-response","400","377146","0.0-1.0-578.0","0","0","86365","","null","","","null","64","","","","","","","","","","","","","","","",""
"","ISI","","html-keyboard-response","401","378150","0.0-1.0-579.0","0","0","86365","","null","","","null","64","NaN","","","","","","","","","","","","","","",""
"","S2","","html-keyboard-response","402","378342","0.0-1.0-580.0","0","0","86365","","189","","","75","64","","k","2","64","training","adjacent","EF","5","6","L.jpg","Q.jpg","1","1","1","",""
"","feedback","","html-keyboard-response","403","379348","0.0-1.0-582.0-0.0","0","0","86365","","null","","","null","64","","","","","","","","","","","","","","","",""
"","ITI","","html-keyboard-response","404","380353","0.0-1.0-585.0","0","0","86365","","null","","","null","64","","","","","","","","","","","","","","","NaN",""
"","S1","","html-keyboard-response","405","380608","0.0-1.0-587.0","0","0","86365","","null","","","null","65","","","","","","","","","","","","","","","",""
"","ISI","","html-keyboard-response","406","381612","0.0-1.0-588.0","0","0","86365","","null","","","null","65","NaN","","","","","","","","","","","","","","",""
"","S2","","html-keyboard-response","407","381868","0.0-1.0-589.0","0","0","86365","","null","","","null","65","","NaN","","","","","","","","","","","","","",""
"","response","","html-keyboard-response","408","381882","0.0-1.0-590.0-0.0","0","0","86365","","11","","","68","65","","","2","65","training","adjacent","CD","3","4","M.jpg","N.jpg","0","1","0","",""
"","feedback","","html-keyboard-response","409","382887","0.0-1.0-591.0-0.0","0","0","86365","","null","","","null","65","","","","","","","","","","","","","","","",""
"","time_out","","html-keyboard-response","410","384905","0.0-1.0-593.0-0.0","0","0","86365","","null","","","null","65","","","","","","","","","","","","","","","",""
"","ITI","","html-keyboard-response","411","385909","0.0-1.0-594.0","0","0","86365","","null","","","null","65","","","","","","","","","","","","","","","NaN",""
"","S1","","html-keyboard-response","412","386166","0.0-1.0-596.0","0","0","86365","","null","","","null","66","","","","","","","","","","","","","","","",""
"","ISI","","html-keyboard-response","413","387170","0.0-1.0-597.0","0","0","86365","","null","","","null","66","NaN","","","","","","","","","","","","","","",""
"","S2","","html-keyboard-response","414","387426","0.0-1.0-598.0","0","0","86365","","null","","","null","66","","NaN","","","","","","","","","","","","","",""
"","response","","html-keyboard-response","415","387566","0.0-1.0-599.0-0.0","0","0","86365","","136","","","68","66","","","2","66","training","adjacent","AB","1","2","O.jpg","R.jpg","0","1","0","",""
"","feedback","","html-keyboard-response","416","388570","0.0-1.0-600.0-0.0","0","0","86365","","null","","","null","66","","","","","","","","","","","","","","","",""
"","time_out","","html-keyboard-response","417","390576","0.0-1.0-602.0-0.0","0","0","86365","","null","","","null","66","","","","","","","","","","","","","","","",""
"","ITI","","html-keyboard-response","418","391582","0.0-1.0-603.0","0","0","86365","","null","","","null","66","","","","","","","","","","","","","","","NaN",""
"","S1","","html-keyboard-response","419","391836","0.0-1.0-605.0","0","0","86365","","null","","","null","67","","","","","","","","","","","","","","","",""
"","ISI","","html-keyboard-response","420","392842","0.0-1.0-606.0","0","0","86365","","null","","","null","67","NaN","","","","","","","","","","","","","","",""
"","S2","","html-keyboard-response","421","393083","0.0-1.0-607.0","0","0","86365","","238","","","68","67","","d","2","67","training","adjacent","ED","5","4","L.jpg","N.jpg","0","0","1","",""
"","feedback","","html-keyboard-response","422","394099","0.0-1.0-609.0-0.0","0","0","86365","","null","","","null","67","","","","","","","","","","","","","","","",""
"","ITI","","html-keyboard-response","423","395104","0.0-1.0-612.0","0","0","86365","","null","","","null","67","","","","","","","","","","","","","","","NaN",""
"","S1","","html-keyboard-response","424","395360","0.0-1.0-614.0","0","0","86365","","null","","","null","68","","","","","","","","","","","","","","","",""
"","ISI","","html-keyboard-response","425","396365","0.0-1.0-615.0","0","0","86365","","null","","","null","68","NaN","","","","","","","","","","","","","","",""
"","S2","","html-keyboard-response","426","396581","0.0-1.0-616.0","0","0","86365","","213","","","75","68","","k","2","68","training","adjacent","FE","6","5","Q.jpg","L.jpg","1","0","0","",""
"","feedback","","html-keyboard-response","427","397585","0.0-1.0-618.0-0.0","0","0","86365","","null","","","null","68","","","","","","","","","","","","","","","",""
"","time_out","","html-keyboard-response","428","399590","0.0-1.0-620.0-0.0","0","0","86365","","null","","","null","68","","","","","","","","","","","","","","","",""
"","ITI","","html-keyboard-response","429","400596","0.0-1.0-621.0","0","0","86365","","972","","","75","68","","","","","","","","","","","","","","","k",""
"","S1","","html-keyboard-response","430","400864","0.0-1.0-623.0","0","0","86365","","null","","","null","69","","","","","","","","","","","","","","","",""
"","ISI","","html-keyboard-response","431","401869","0.0-1.0-624.0","0","0","86365","","214","","","75","69","k","","","","","","","","","","","","","","",""
"","S2","","html-keyboard-response","432","402032","0.0-1.0-625.0","0","0","86365","","159","","","68","69","","d","2","69","training","adjacent","FE","6","5","Q.jpg","L.jpg","0","0","1","",""
"","feedback","","html-keyboard-response","433","403038","0.0-1.0-627.0-0.0","0","0","86365","","null","","","null","69","","","","","","","","","","","","","","","",""
"","ITI","","html-keyboard-response","434","404044","0.0-1.0-630.0","0","0","86365","","309","","","75","69","","","","","","","","","","","","","","","k",""
"","S1","","html-keyboard-response","435","404299","0.0-1.0-632.0","0","0","86365","","null","","","null","70","","","","","","","","","","","","","","","",""
"","ISI","","html-keyboard-response","436","405304","0.0-1.0-633.0","0","0","86365","","258","","","75","70","k","","","","","","","","","","","","","","",""
"","S2","","html-keyboard-response","437","405449","0.0-1.0-634.0","0","0","86365","","140","","","75","70","","k","2","70","training","adjacent","BC","2","3","R.jpg","M.jpg","1","1","1","",""
"","feedback","","html-keyboard-response","438","406454","0.0-1.0-636.0-0.0","0","0","86365","","null","","","null","70","","","","","","","","","","","","","","","",""
"","ITI","","html-keyboard-response","439","407458","0.0-1.0-639.0","0","0","86365","","105","","","75","70","","","","","","","","","","","","","","","k",""
"","S1","","html-keyboard-response","440","407714","0.0-1.0-641.0","0","0","86365","","null","","","null","71","","","","","","","","","","","","","","","",""
"","ISI","","html-keyboard-response","441","408718","0.0-1.0-642.0","0","0","86365","","383","","","75","71","k","","","","","","","","","","","","","","",""
"","S2","","html-keyboard-response","442","408973","0.0-1.0-643.0","0","0","86365","","null","","","null","71","","NaN","","","","","","","","","","","","","",""
"","response","","html-keyboard-response","443","408974","0.0-1.0-644.0-0.0","0","0","86365","","1","","","75","71","","","2","71","training","adjacent","BA","2","1","R.jpg","O.jpg","1","0","0","",""
"","feedback","","html-keyboard-response","444","409978","0.0-1.0-645.0-0.0","0","0","86365","","null","","","null","71","","","","","","","","","","","","","","","",""
"","time_out","","html-keyboard-response","445","411983","0.0-1.0-647.0-0.0","0","0","86365","","null","","","null","71","","","","","","","","","","","","","","","",""
"","ITI","","html-keyboard-response","446","412992","0.0-1.0-648.0","0","0","86365","","null","","","null","71","","","","","","","","","","","","","","","NaN",""
"","S1","","html-keyboard-response","447","413247","0.0-1.0-650.0","0","0","86365","","null","","","null","72","","","","","","","","","","","","","","","",""
"","ISI","","html-keyboard-response","448","414251","0.0-1.0-651.0","0","0","86365","","35","","","68","72","d","","","","","","","","","","","","","","",""
"","S2","","html-keyboard-response","449","414476","0.0-1.0-652.0","0","0","86365","","222","","","68","72","","d","2","72","training","adjacent","CB","3","2","M.jpg","R.jpg","0","0","1","",""
"","feedback","","html-keyboard-response","450","415480","0.0-1.0-654.0-0.0","0","0","86365","","null","","","null","72","","","","","","","","","","","","","","","",""
"","ITI","","html-keyboard-response","451","416484","0.0-1.0-657.0","0","0","86365","","null","","","null","72","","","","","","","","","","","","","","","NaN",""
"","S1","","html-keyboard-response","452","416738","0.0-1.0-659.0","0","0","86365","","null","","","null","73","","","","","","","","","","","","","","","",""
"","ISI","","html-keyboard-response","453","417743","0.0-1.0-660.0","0","0","86365","","null","","","null","73","NaN","","","","","","","","","","","","","","",""
"","S2","","html-keyboard-response","454","417970","0.0-1.0-661.0","0","0","86365","","224","","","68","73","","d","2","73","training","adjacent","EF","5","6","L.jpg","Q.jpg","0","1","0","",""
"","feedback","","html-keyboard-response","455","418977","0.0-1.0-663.0-0.0","0","0","86365","","null","","","null","73","","","","","","","","","","","","","","","",""
"","time_out","","html-keyboard-response","456","420982","0.0-1.0-665.0-0.0","0","0","86365","","null","","","null","73","","","","","","","","","","","","","","","",""
"","ITI","","html-keyboard-response","457","421988","0.0-1.0-666.0","0","0","86365","","null","","","null","73","","","","","","","","","","","","","","","NaN",""
"","S1","","html-keyboard-response","458","422243","0.0-1.0-668.0","0","0","86365","","null","","","null","74","","","","","","","","","","","","","","","",""
"","ISI","","html-keyboard-response","459","423248","0.0-1.0-669.0","0","0","86365","","null","","","null","74","NaN","","","","","","","","","","","","","","",""
"","S2","","html-keyboard-response","460","423500","0.0-1.0-670.0","0","0","86365","","249","","","68","74","","d","2","74","training","adjacent","BA","2","1","R.jpg","O.jpg","0","0","1","",""
"","feedback","","html-keyboard-response","461","424505","0.0-1.0-672.0-0.0","0","0","86365","","null","","","null","74","","","","","","","","","","","","","","","",""
"","ITI","","html-keyboard-response","462","425510","0.0-1.0-675.0","0","0","86365","","null","","","null","74","","","","","","","","","","","","","","","NaN",""
"","S1","","html-keyboard-response","463","425767","0.0-1.0-677.0","0","0","86365","","null","","","null","75","","","","","","","","","","","","","","","",""
"","ISI","","html-keyboard-response","464","426771","0.0-1.0-678.0","0","0","86365","","153","","","75","75","k","","","","","","","","","","","","","","",""
"","S2","","html-keyboard-response","465","427026","0.0-1.0-679.0","0","0","86365","","null","","","null","75","","NaN","","","","","","","","","","","","","",""
"","response","","html-keyboard-response","466","427196","0.0-1.0-680.0-0.0","0","0","86365","","166","","","75","75","","","2","75","training","adjacent","EF","5","6","L.jpg","Q.jpg","1","1","1","",""
"","feedback","","html-keyboard-response","467","428200","0.0-1.0-681.0-0.0","0","0","86365","","null","","","null","75","","","","","","","","","","","","","","","",""
"","ITI","","html-keyboard-response","468","429208","0.0-1.0-684.0","0","0","86365","","null","","","null","75","","","","","","","","","","","","","","","NaN",""
"","S1","","html-keyboard-response","469","429462","0.0-1.0-686.0","0","0","86365","","null","","","null","76","","","","","","","","","","","","","","","",""
"","ISI","","html-keyboard-response","470","430481","0.0-1.0-687.0","0","0","86365","","null","","","null","76","NaN","","","","","","","","","","","","","","",""
"","S2","","html-keyboard-response","471","430737","0.0-1.0-688.0","0","0","86365","","null","","","null","76","","NaN","","","","","","","","","","","","","",""
"","response","","html-keyboard-response","472","430798","0.0-1.0-689.0-0.0","0","0","86365","","57","","","75","76","","","2","76","training","adjacent","CD","3","4","M.jpg","N.jpg","1","1","1","",""
"","feedback","","html-keyboard-response","473","431804","0.0-1.0-690.0-0.0","0","0","86365","","null","","","null","76","","","","","","","","","","","","","","","",""
"","ITI","","html-keyboard-response","474","432808","0.0-1.0-693.0","0","0","86365","","null","","","null","76","","","","","","","","","","","","","","","NaN",""
"","S1","","html-keyboard-response","475","433064","0.0-1.0-695.0","0","0","86365","","null","","","null","77","","","","","","","","","","","","","","","",""
"","ISI","","html-keyboard-response","476","434069","0.0-1.0-696.0","0","0","86365","","null","","","null","77","NaN","","","","","","","","","","","","","","",""
"","S2","","html-keyboard-response","477","434326","0.0-1.0-697.0","0","0","86365","","null","","","null","77","","NaN","","","","","","","","","","","","","",""
"","response","","html-keyboard-response","478","434371","0.0-1.0-698.0-0.0","0","0","86365","","41","","","68","77","","","2","77","training","adjacent","FG","6","7","Q.jpg","P.jpg","0","1","0","",""
"","feedback","","html-keyboard-response","479","435376","0.0-1.0-699.0-0.0","0","0","86365","","null","","","null","77","","","","","","","","","","","","","","","",""
"","time_out","","html-keyboard-response","480","437382","0.0-1.0-701.0-0.0","0","0","86365","","null","","","null","77","","","","","","","","","","","","","","","",""
"","ITI","","html-keyboard-response","481","438387","0.0-1.0-702.0","0","0","86365","","null","","","null","77","","","","","","","","","","","","","","","NaN",""
"","S1","","html-keyboard-response","482","438641","0.0-1.0-704.0","0","0","86365","","null","","","null","78","","","","","","","","","","","","","","","",""
"","ISI","","html-keyboard-response","483","439646","0.0-1.0-705.0","0","0","86365","","null","","","null","78","NaN","","","","","","","","","","","","","","",""
"","S2","","html-keyboard-response","484","439848","0.0-1.0-706.0","0","0","86365","","199","","","68","78","","d","2","78","training","adjacent","CD","3","4","M.jpg","N.jpg","0","1","0","",""
"","feedback","","html-keyboard-response","485","440866","0.0-1.0-708.0-0.0","0","0","86365","","null","","","null","78","","","","","","","","","","","","","","","",""
"","time_out","","html-keyboard-response","486","442870","0.0-1.0-710.0-0.0","0","0","86365","","null","","","null","78","","","","","","","","","","","","","","","",""
"","ITI","","html-keyboard-response","487","443875","0.0-1.0-711.0","0","0","86365","","null","","","null","78","","","","","","","","","","","","","","","NaN",""
"","S1","","html-keyboard-response","488","444141","0.0-1.0-713.0","0","0","86365","","null","","","null","79","","","","","","","","","","","","","","","",""
"","ISI","","html-keyboard-response","489","445146","0.0-1.0-714.0","0","0","86365","","null","","","null","79","NaN","","","","","","","","","","","","","","",""
"","S2","","html-keyboard-response","490","445402","0.0-1.0-715.0","0","0","86365","","null","","","null","79","","NaN","","","","","","","","","","","","","",""
"","response","","html-keyboard-response","491","445410","0.0-1.0-716.0-0.0","0","0","86365","","6","","","75","79","","","2","79","training","adjacent","FG","6","7","Q.jpg","P.jpg","1","1","1","",""
"","feedback","","html-keyboard-response","492","446418","0.0-1.0-717.0-0.0","0","0","86365","","null","","","null","79","","","","","","","","","","","","","","","",""
"","ITI","","html-keyboard-response","493","447422","0.0-1.0-720.0","0","0","86365","","null","","","null","79","","","","","","","","","","","","","","","NaN",""
"","S1","","html-keyboard-response","494","447677","0.0-1.0-722.0","0","0","86365","","null","","","null","80","","","","","","","","","","","","","","","",""
"","ISI","","html-keyboard-response","495","448681","0.0-1.0-723.0","0","0","86365","","null","","","null","80","NaN","","","","","","","","","","","","","","",""
"","S2","","html-keyboard-response","496","448877","0.0-1.0-724.0","0","0","86365","","191","","","75","80","","k","2","80","training","adjacent","CD","3","4","M.jpg","N.jpg","1","1","1","",""
"","feedback","","html-keyboard-response","497","449883","0.0-1.0-726.0-0.0","0","0","86365","","null","","","null","80","","","","","","","","","","","","","","","",""
"","ITI","","html-keyboard-response","498","450892","0.0-1.0-729.0","0","0","86365","","null","","","null","80","","","","","","","","","","","","","","","NaN",""
"","S1","","html-keyboard-response","499","451147","0.0-1.0-731.0","0","0","86365","","null","","","null","81","","","","","","","","","","","","","","","",""
"","ISI","","html-keyboard-response","500","452151","0.0-1.0-732.0","0","0","86365","","null","","","null","81","NaN","","","","","","","","","","","","","","",""
"","S2","","html-keyboard-response","501","452411","0.0-1.0-733.0","0","0","86365","","null","","","null","81","","NaN","","","","","","","","","","","","","",""
"","response","","html-keyboard-response","502","452456","0.0-1.0-734.0-0.0","0","0","86365","","42","","","68","81","","","2","81","training","adjacent","BA","2","1","R.jpg","O.jpg","0","0","1","",""
"","feedback","","html-keyboard-response","503","453461","0.0-1.0-735.0-0.0","0","0","86365","","null","","","null","81","","","","","","","","","","","","","","","",""
"","ITI","","html-keyboard-response","504","454466","0.0-1.0-738.0","0","0","86365","","null","","","null","81","","","","","","","","","","","","","","","NaN",""
"","S1","","html-keyboard-response","505","454719","0.0-1.0-740.0","0","0","86365","","null","","","null","82","","","","","","","","","","","","","","","",""
"","ISI","","html-keyboard-response","506","455724","0.0-1.0-741.0","0","0","86365","","null","","","null","82","NaN","","","","","","","","","","","","","","",""
"","S2","","html-keyboard-response","507","455952","0.0-1.0-742.0","0","0","86365","","223","","","75","82","","k","2","82","training","adjacent","DE","4","5","N.jpg","L.jpg","1","1","1","",""
"","feedback","","html-keyboard-response","508","456957","0.0-1.0-744.0-0.0","0","0","86365","","null","","","null","82","","","","","","","","","","","","","","","",""
"","ITI","","html-keyboard-response","509","457963","0.0-1.0-747.0","0","0","86365","","null","","","null","82","","","","","","","","","","","","","","","NaN",""
"","S1","","html-keyboard-response","510","458219","0.0-1.0-749.0","0","0","86365","","null","","","null","83","","","","","","","","","","","","","","","",""
"","ISI","","html-keyboard-response","511","459224","0.0-1.0-750.0","0","0","86365","","null","","","null","83","NaN","","","","","","","","","","","","","","",""
"","S2","","html-keyboard-response","512","459462","0.0-1.0-751.0","0","0","86365","","233","","","68","83","","d","2","83","training","adjacent","ED","5","4","L.jpg","N.jpg","0","0","1","",""
"","feedback","","html-keyboard-response","513","460467","0.0-1.0-753.0-0.0","0","0","86365","","null","","","null","83","","","","","","","","","","","","","","","",""
"","ITI","","html-keyboard-response","514","461472","0.0-1.0-756.0","0","0","86365","","null","","","null","83","","","","","","","","","","","","","","","NaN",""
"","S1","","html-keyboard-response","515","461728","0.0-1.0-758.0","0","0","86365","","null","","","null","84","","","","","","","","","","","","","","","",""
"","ISI","","html-keyboard-response","516","462734","0.0-1.0-759.0","0","0","86365","","null","","","null","84","NaN","","","","","","","","","","","","","","",""
"","S2","","html-keyboard-response","517","462957","0.0-1.0-760.0","0","0","86365","","221","","","75","84","","k","2","84","training","adjacent","DE","4","5","N.jpg","L.jpg","1","1","1","",""
"","feedback","","html-keyboard-response","518","463962","0.0-1.0-762.0-0.0","0","0","86365","","null","","","null","84","","","","","","","","","","","","","","","",""
"","ITI","","html-keyboard-response","519","464967","0.0-1.0-765.0","0","0","86365","","null","","","null","84","","","","","","","","","","","","","","","NaN",""
"","S1","","html-keyboard-response","520","465222","0.0-1.0-767.0","0","0","86365","","null","","","null","85","","","","","","","","","","","","","","","",""
"","ISI","","html-keyboard-response","521","466225","0.0-1.0-768.0","0","0","86365","","943","","","75","85","k","","","","","","","","","","","","","","",""
"","S2","","html-keyboard-response","522","466479","0.0-1.0-769.0","0","0","86365","","null","","","null","85","","NaN","","","","","","","","","","","","","",""
"","response","","html-keyboard-response","523","467098","0.0-1.0-770.0-0.0","0","0","86365","","615","","","75","85","","","2","85","training","adjacent","DC","4","3","N.jpg","M.jpg","1","0","0","",""
"","feedback","","html-keyboard-response","524","468104","0.0-1.0-771.0-0.0","0","0","86365","","null","","","null","85","","","","","","","","","","","","","","","",""
"","time_out","","html-keyboard-response","525","470110","0.0-1.0-773.0-0.0","0","0","86365","","null","","","null","85","","","","","","","","","","","","","","","",""
"","ITI","","html-keyboard-response","526","471115","0.0-1.0-774.0","0","0","86365","","null","","","null","85","","","","","","","","","","","","","","","NaN",""
"","S1","","html-keyboard-response","527","471371","0.0-1.0-776.0","0","0","86365","","null","","","null","86","","","","","","","","","","","","","","","",""
"","ISI","","html-keyboard-response","528","472376","0.0-1.0-777.0","0","0","86365","","null","","","null","86","NaN","","","","","","","","","","","","","","",""
"","S2","","html-keyboard-response","529","472615","0.0-1.0-778.0","0","0","86365","","235","","","68","86","","d","2","86","training","adjacent","FE","6","5","Q.jpg","L.jpg","0","0","1","",""
"","feedback","","html-keyboard-response","530","473619","0.0-1.0-780.0-0.0","0","0","86365","","null","","","null","86","","","","","","","","","","","","","","","",""
"","ITI","","html-keyboard-response","531","474623","0.0-1.0-783.0","0","0","86365","","null","","","null","86","","","","","","","","","","","","","","","NaN",""
"","S1","","html-keyboard-response","532","474879","0.0-1.0-785.0","0","0","86365","","null","","","null","87","","","","","","","","","","","","","","","",""
"","ISI","","html-keyboard-response","533","475884","0.0-1.0-786.0","0","0","86365","","444","","","75","87","k","","","","","","","","","","","","","","",""
"","S2","","html-keyboard-response","534","476139","0.0-1.0-787.0","0","0","86365","","null","","","null","87","","NaN","","","","","","","","","","","","","",""
"","response","","html-keyboard-response","535","476155","0.0-1.0-788.0-0.0","0","0","86365","","13","","","75","87","","","2","87","training","adjacent","CB","3","2","M.jpg","R.jpg","1","0","0","",""
"","feedback","","html-keyboard-response","536","477159","0.0-1.0-789.0-0.0","0","0","86365","","null","","","null","87","","","","","","","","","","","","","","","",""
"","time_out","","html-keyboard-response","537","479162","0.0-1.0-791.0-0.0","0","0","86365","","null","","","null","87","","","","","","","","","","","","","","","",""
"","ITI","","html-keyboard-response","538","480166","0.0-1.0-792.0","0","0","86365","","112","","","75","87","","","","","","","","","","","","","","","k",""
"","S1","","html-keyboard-response","539","480421","0.0-1.0-794.0","0","0","86365","","null","","","null","88","","","","","","","","","","","","","","","",""
"","ISI","","html-keyboard-response","540","481426","0.0-1.0-795.0","0","0","86365","","790","","","75","88","k","","","","","","","","","","","","","","",""
"","S2","","html-keyboard-response","541","481455","0.0-1.0-796.0","0","0","86365","","27","","","75","88","","k","2","88","training","adjacent","CB","3","2","M.jpg","R.jpg","1","0","0","",""
"","feedback","","html-keyboard-response","542","482460","0.0-1.0-798.0-0.0","0","0","86365","","null","","","null","88","","","","","","","","","","","","","","","",""
"","time_out","","html-keyboard-response","543","484472","0.0-1.0-800.0-0.0","0","0","86365","","null","","","null","88","","","","","","","","","","","","","","","",""
"","ITI","","html-keyboard-response","544","485484","0.0-1.0-801.0","0","0","86365","","450","","","75","88","","","","","","","","","","","","","","","k",""
"","S1","","html-keyboard-response","545","485740","0.0-1.0-803.0","0","0","86365","","null","","","null","89","","","","","","","","","","","","","","","",""
"","ISI","","html-keyboard-response","546","486744","0.0-1.0-804.0","0","0","86365","","14","","","68","89","d","","","","","","","","","","","","","","",""
"","S2","","html-keyboard-response","547","487000","0.0-1.0-805.0","0","0","86365","","null","","","null","89","","NaN","","","","","","","","","","","","","",""
"","response","","html-keyboard-response","548","487066","0.0-1.0-806.0-0.0","0","0","86365","","61","","","75","89","","","2","89","training","adjacent","BC","2","3","R.jpg","M.jpg","1","1","1","",""
"","feedback","","html-keyboard-response","549","488071","0.0-1.0-807.0-0.0","0","0","86365","","null","","","null","89","","","","","","","","","","","","","","","",""
"","ITI","","html-keyboard-response","550","489078","0.0-1.0-810.0","0","0","86365","","null","","","null","89","","","","","","","","","","","","","","","NaN",""
"","S1","","html-keyboard-response","551","489335","0.0-1.0-812.0","0","0","86365","","null","","","null","90","","","","","","","","","","","","","","","",""
"","ISI","","html-keyboard-response","552","490340","0.0-1.0-813.0","0","0","86365","","250","","","75","90","k","","","","","","","","","","","","","","",""
"","S2","","html-keyboard-response","553","490596","0.0-1.0-814.0","0","0","86365","","null","","","null","90","","NaN","","","","","","","","","","","","","",""
"","response","","html-keyboard-response","554","490756","0.0-1.0-815.0-0.0","0","0","86365","","158","","","75","90","","","2","90","training","adjacent","AB","1","2","O.jpg","R.jpg","1","1","1","",""
"","feedback","","html-keyboard-response","555","491761","0.0-1.0-816.0-0.0","0","0","86365","","null","","","null","90","","","","","","","","","","","","","","","",""
"","ITI","","html-keyboard-response","556","492766","0.0-1.0-819.0","0","0","86365","","null","","","null","90","","","","","","","","","","","","","","","NaN",""
"","S1","","html-keyboard-response","557","493023","0.0-1.0-821.0","0","0","86365","","null","","","null","91","","","","","","","","","","","","","","","",""
"","ISI","","html-keyboard-response","558","494028","0.0-1.0-822.0","0","0","86365","","null","","","null","91","NaN","","","","","","","","","","","","","","",""
"","S2","","html-keyboard-response","559","494283","0.0-1.0-823.0","0","0","86365","","null","","","null","91","","NaN","","","","","","","","","","","","","",""
"","response","","html-keyboard-response","560","496039","0.0-1.0-824.0-0.0","0","0","86365","","null","","","null","91","","","2","91","training","adjacent","AB","1","2","O.jpg","R.jpg","NaN","1","0","",""
"","too_slow_prompt","","html-keyboard-response","561","497045","0.0-1.0-826.0-0.0","1","0","86365","","null","","","null","","","","","","","","","","","","","","","","",""
"","time_out","","html-keyboard-response","562","499049","0.0-1.0-827.0-0.0","0","0","86365","","null","","","null","91","","","","","","","","","","","","","","","",""
"","ITI","","html-keyboard-response","563","500054","0.0-1.0-828.0","0","0","86365","","172","","","75","91","","","","","","","","","","","","","","","k",""
"","S1","","html-keyboard-response","564","500308","0.0-1.0-830.0","0","0","86365","","null","","","null","92","","","","","","","","","","","","","","","",""
"","ISI","","html-keyboard-response","565","501312","0.0-1.0-831.0","0","0","86365","","253","","","75","92","k","","","","","","","","","","","","","","",""
"","S2","","html-keyboard-response","566","501541","0.0-1.0-832.0","0","0","86365","","225","","","75","92","","k","2","92","training","adjacent","BC","2","3","R.jpg","M.jpg","1","1","1","",""
"","feedback","","html-keyboard-response","567","502546","0.0-1.0-834.0-0.0","0","0","86365","","null","","","null","92","","","","","","","","","","","","","","","",""
"","ITI","","html-keyboard-response","568","503551","0.0-1.0-837.0","0","0","86365","","null","","","null","92","","","","","","","","","","","","","","","NaN",""
"","S1","","html-keyboard-response","569","503807","0.0-1.0-839.0","0","0","86365","","null","","","null","93","","","","","","","","","","","","","","","",""
"","ISI","","html-keyboard-response","570","504812","0.0-1.0-840.0","0","0","86365","","null","","","null","93","NaN","","","","","","","","","","","","","","",""
"","S2","","html-keyboard-response","571","505067","0.0-1.0-841.0","0","0","86365","","null","","","null","93","","NaN","","","","","","","","","","","","","",""
"","response","","html-keyboard-response","572","505075","0.0-1.0-842.0-0.0","0","0","86365","","4","","","75","93","","","2","93","training","adjacent","ED","5","4","L.jpg","N.jpg","1","0","0","",""
"","feedback","","html-keyboard-response","573","506080","0.0-1.0-843.0-0.0","0","0","86365","","null","","","null","93","","","","","","","","","","","","","","","",""
"","time_out","","html-keyboard-response","574","508085","0.0-1.0-845.0-0.0","0","0","86365","","null","","","null","93","","","","","","","","","","","","","","","",""
"","ITI","","html-keyboard-response","575","509090","0.0-1.0-846.0","0","0","86365","","null","","","null","93","","","","","","","","","","","","","","","NaN",""
"","S1","","html-keyboard-response","576","509345","0.0-1.0-848.0","0","0","86365","","null","","","null","94","","","","","","","","","","","","","","","",""
"","ISI","","html-keyboard-response","577","510350","0.0-1.0-849.0","0","0","86365","","319","","","68","94","d","","","","","","","","","","","","","","",""
"","S2","","html-keyboard-response","578","510488","0.0-1.0-850.0","0","0","86365","","132","","","68","94","","d","2","94","training","adjacent","GF","7","6","P.jpg","Q.jpg","0","0","1","",""
"","feedback","","html-keyboard-response","579","511494","0.0-1.0-852.0-0.0","0","0","86365","","null","","","null","94","","","","","","","","","","","","","","","",""
"","ITI","","html-keyboard-response","580","512500","0.0-1.0-855.0","0","0","86365","","134","","","68","94","","","","","","","","","","","","","","","d",""
"","S1","","html-keyboard-response","581","512756","0.0-1.0-857.0","0","0","86365","","null","","","null","95","","","","","","","","","","","","","","","",""
"","ISI","","html-keyboard-response","582","513761","0.0-1.0-858.0","0","0","86365","","45","","","75","95","k","","","","","","","","","","","","","","",""
