"success","ttype","start_time","trial_type","trial_index","time_elapsed","internal_node_id","warning","missed_checkup","PID","view_history","rt","responses","repeat_instructions","key_press","index","keypress_isi","keypress_S2","block","trial_num","phase","group_type","pair_type","S1_stim","S2_stim","S1_img","S2_img","S1_chosen","S1_higher","accuracy","keypress_iti","total_bonus_tally"
"true","full_screen","d08052022hr1705","fullscreen","0","4147","0.0-0.0","0","0","82516","","","","","","","","","","","","","","","","","","","","","",""
"","instructions","","instructions","1","24886","0.0-1.0-0.0-0.0","0","0","82516","[{""page_index"":0,""viewing_time"":6507},{""page_index"":1,""viewing_time"":8063},{""page_index"":2,""viewing_time"":3849},{""page_index"":3,""viewing_time"":2318}]","20737","","","","","","","","","","","","","","","","","","","",""
"","comprehension_check","","survey-multi-choice","2","36356","0.0-1.0-0.0-1.0","0","0","82516","","11467","{""Q0"":""True"",""Q1"":""D"",""Q2"":""Only when the screen 'MAKE A CHOICE' is shown"",""Q3"":""Green mark"",""Q4"":""either D or K""}","1","","","","","","","","","","","","","","","","","",""
"","missed_instruction_checkup","","html-keyboard-response","3","38542","0.0-1.0-0.0-2.0-0.0","0","1","82516","","2184","","","32","","","","","","","","","","","","","","","","",""
"","instructions","","instructions","4","63761","0.0-1.0-0.1-0.1","0","0","82516","[{""page_index"":0,""viewing_time"":5453},{""page_index"":1,""viewing_time"":12057},{""page_index"":2,""viewing_time"":6648},{""page_index"":3,""viewing_time"":1060}]","25218","","","","","","","","","","","","","","","","","","","",""
"","comprehension_check","","survey-multi-choice","5","75854","0.0-1.0-0.1-1.1","0","0","82516","","12088","{""Q0"":""True"",""Q1"":""D"",""Q2"":""Once the second image appears and while the screen 'MAKE A CHOICE' is shown"",""Q3"":""Green mark"",""Q4"":""either D or K""}","0","","","","","","","","","","","","","","","","","",""
"","start_exp","","html-keyboard-response","6","77710","0.0-1.0-1.0","0","0","82516","","1855","","","32","","","","","","","","","","","","","","","","",""
"","S1","","html-keyboard-response","7","77962","0.0-1.0-2.0","0","0","82516","","null","","","null","0","","","","","","","","","","","","","","","",""
"","ISI","","html-keyboard-response","8","79964","0.0-1.0-3.0","0","0","82516","","null","","","null","0","NaN","","","","","","","","","","","","","","",""
"","S2","","html-keyboard-response","9","80216","0.0-1.0-4.0","0","0","82516","","null","","","null","0","","NaN","","","","","","","","","","","","","",""
"","response","","html-keyboard-response","10","80877","0.0-1.0-5.0-0.0","0","0","82516","","659","","","68","0","","","1","0","training","adjacent","EF","5","6","N.jpg","O.jpg","1","1","1","",""
"","feedback","","html-keyboard-response","11","81879","0.0-1.0-6.0-0.0","0","0","82516","","null","","","null","0","","","","","","","","","","","","","","","",""
"","ITI","","html-keyboard-response","12","82882","0.0-1.0-9.0","0","0","82516","","null","","","null","0","","","","","","","","","","","","","","","NaN",""
"","S1","","html-keyboard-response","13","83135","0.0-1.0-11.0","0","0","82516","","null","","","null","1","","","","","","","","","","","","","","","",""
"","ISI","","html-keyboard-response","14","85136","0.0-1.0-12.0","0","0","82516","","null","","","null","1","NaN","","","","","","","","","","","","","","",""
"","S2","","html-keyboard-response","15","85389","0.0-1.0-13.0","0","0","82516","","null","","","null","1","","NaN","","","","","","","","","","","","","",""
"","response","","html-keyboard-response","16","86006","0.0-1.0-14.0-0.0","0","0","82516","","616","","","68","1","","","1","1","training","adjacent","ED","5","4","N.jpg","L.jpg","1","0","0","",""
"","feedback","","html-keyboard-response","17","87007","0.0-1.0-15.0-0.0","0","0","82516","","null","","","null","1","","","","","","","","","","","","","","","",""
"","time_out","","html-keyboard-response","18","89009","0.0-1.0-17.0-0.0","0","0","82516","","null","","","null","1","","","","","","","","","","","","","","","",""
"","ITI","","html-keyboard-response","19","90011","0.0-1.0-18.0","0","0","82516","","null","","","null","1","","","","","","","","","","","","","","","NaN",""
"","S1","","html-keyboard-response","20","90263","0.0-1.0-20.0","0","0","82516","","null","","","null","2","","","","","","","","","","","","","","","",""
"","ISI","","html-keyboard-response","21","92265","0.0-1.0-21.0","0","0","82516","","null","","","null","2","NaN","","","","","","","","","","","","","","",""
"","S2","","html-keyboard-response","22","92517","0.0-1.0-22.0","0","0","82516","","null","","","null","2","","NaN","","","","","","","","","","","","","",""
"","response","","html-keyboard-response","23","93006","0.0-1.0-23.0-0.0","0","0","82516","","487","","","75","2","","","1","2","training","adjacent","CB","3","2","P.jpg","Q.jpg","0","0","1","",""
"","feedback","","html-keyboard-response","24","94008","0.0-1.0-24.0-0.0","0","0","82516","","null","","","null","2","","","","","","","","","","","","","","","",""
"","ITI","","html-keyboard-response","25","95010","0.0-1.0-27.0","0","0","82516","","null","","","null","2","","","","","","","","","","","","","","","NaN",""
"","S1","","html-keyboard-response","26","95262","0.0-1.0-29.0","0","0","82516","","null","","","null","3","","","","","","","","","","","","","","","",""
"","ISI","","html-keyboard-response","27","97263","0.0-1.0-30.0","0","0","82516","","null","","","null","3","NaN","","","","","","","","","","","","","","",""
"","S2","","html-keyboard-response","28","97520","0.0-1.0-31.0","0","0","82516","","null","","","null","3","","NaN","","","","","","","","","","","","","",""
"","response","","html-keyboard-response","29","98054","0.0-1.0-32.0-0.0","0","0","82516","","533","","","68","3","","","1","3","training","adjacent","EF","5","6","N.jpg","O.jpg","1","1","1","",""
"","feedback","","html-keyboard-response","30","99055","0.0-1.0-33.0-0.0","0","0","82516","","null","","","null","3","","","","","","","","","","","","","","","",""
"","ITI","","html-keyboard-response","31","100057","0.0-1.0-36.0","0","0","82516","","null","","","null","3","","","","","","","","","","","","","","","NaN",""
"","S1","","html-keyboard-response","32","100309","0.0-1.0-38.0","0","0","82516","","null","","","null","4","","","","","","","","","","","","","","","",""
"","ISI","","html-keyboard-response","33","102311","0.0-1.0-39.0","0","0","82516","","null","","","null","4","NaN","","","","","","","","","","","","","","",""
"","S2","","html-keyboard-response","34","102563","0.0-1.0-40.0","0","0","82516","","null","","","null","4","","NaN","","","","","","","","","","","","","",""
"","response","","html-keyboard-response","35","102981","0.0-1.0-41.0-0.0","0","0","82516","","417","","","75","4","","","1","4","training","adjacent","FG","6","7","O.jpg","M.jpg","0","1","0","",""
"","feedback","","html-keyboard-response","36","103984","0.0-1.0-42.0-0.0","0","0","82516","","null","","","null","4","","","","","","","","","","","","","","","",""
"","time_out","","html-keyboard-response","37","105987","0.0-1.0-44.0-0.0","0","0","82516","","null","","","null","4","","","","","","","","","","","","","","","",""
"","ITI","","html-keyboard-response","38","106989","0.0-1.0-45.0","0","0","82516","","null","","","null","4","","","","","","","","","","","","","","","NaN",""
"","S1","","html-keyboard-response","39","107240","0.0-1.0-47.0","0","0","82516","","null","","","null","5","","","","","","","","","","","","","","","",""
"","ISI","","html-keyboard-response","40","109242","0.0-1.0-48.0","0","0","82516","","null","","","null","5","NaN","","","","","","","","","","","","","","",""
"","S2","","html-keyboard-response","41","109494","0.0-1.0-49.0","0","0","82516","","null","","","null","5","","NaN","","","","","","","","","","","","","",""
"","response","","html-keyboard-response","42","109806","0.0-1.0-50.0-0.0","0","0","82516","","311","","","75","5","","","1","5","training","adjacent","GF","7","6","M.jpg","O.jpg","0","0","1","",""
"","feedback","","html-keyboard-response","43","110808","0.0-1.0-51.0-0.0","0","0","82516","","null","","","null","5","","","","","","","","","","","","","","","",""
"","ITI","","html-keyboard-response","44","111810","0.0-1.0-54.0","0","0","82516","","null","","","null","5","","","","","","","","","","","","","","","NaN",""
"","S1","","html-keyboard-response","45","112063","0.0-1.0-56.0","0","0","82516","","null","","","null","6","","","","","","","","","","","","","","","",""
"","ISI","","html-keyboard-response","46","114065","0.0-1.0-57.0","0","0","82516","","null","","","null","6","NaN","","","","","","","","","","","","","","",""
"","S2","","html-keyboard-response","47","114318","0.0-1.0-58.0","0","0","82516","","null","","","null","6","","NaN","","","","","","","","","","","","","",""
"","response","","html-keyboard-response","48","114973","0.0-1.0-59.0-0.0","0","0","82516","","654","","","68","6","","","1","6","training","adjacent","CD","3","4","P.jpg","L.jpg","1","1","1","",""
"","feedback","","html-keyboard-response","49","115976","0.0-1.0-60.0-0.0","0","0","82516","","null","","","null","6","","","","","","","","","","","","","","","",""
"","ITI","","html-keyboard-response","50","116978","0.0-1.0-63.0","0","0","82516","","null","","","null","6","","","","","","","","","","","","","","","NaN",""
"","S1","","html-keyboard-response","51","117230","0.0-1.0-65.0","0","0","82516","","null","","","null","7","","","","","","","","","","","","","","","",""
"","ISI","","html-keyboard-response","52","119232","0.0-1.0-66.0","0","0","82516","","null","","","null","7","NaN","","","","","","","","","","","","","","",""
"","S2","","html-keyboard-response","53","119484","0.0-1.0-67.0","0","0","82516","","null","","","null","7","","NaN","","","","","","","","","","","","","",""
"","response","","html-keyboard-response","54","120046","0.0-1.0-68.0-0.0","0","0","82516","","561","","","68","7","","","1","7","training","adjacent","CD","3","4","P.jpg","L.jpg","1","1","1","",""
"","feedback","","html-keyboard-response","55","121047","0.0-1.0-69.0-0.0","0","0","82516","","null","","","null","7","","","","","","","","","","","","","","","",""
"","ITI","","html-keyboard-response","56","122054","0.0-1.0-72.0","0","0","82516","","null","","","null","7","","","","","","","","","","","","","","","NaN",""
"","S1","","html-keyboard-response","57","122306","0.0-1.0-74.0","0","0","82516","","null","","","null","8","","","","","","","","","","","","","","","",""
"","ISI","","html-keyboard-response","58","124307","0.0-1.0-75.0","0","0","82516","","null","","","null","8","NaN","","","","","","","","","","","","","","",""
"","S2","","html-keyboard-response","59","124559","0.0-1.0-76.0","0","0","82516","","null","","","null","8","","NaN","","","","","","","","","","","","","",""
"","response","","html-keyboard-response","60","125037","0.0-1.0-77.0-0.0","0","0","82516","","476","","","68","8","","","1","8","training","adjacent","DE","4","5","L.jpg","N.jpg","1","1","1","",""
"","feedback","","html-keyboard-response","61","126039","0.0-1.0-78.0-0.0","0","0","82516","","null","","","null","8","","","","","","","","","","","","","","","",""
"","ITI","","html-keyboard-response","62","127041","0.0-1.0-81.0","0","0","82516","","null","","","null","8","","","","","","","","","","","","","","","NaN",""
"","S1","","html-keyboard-response","63","127294","0.0-1.0-83.0","0","0","82516","","null","","","null","9","","","","","","","","","","","","","","","",""
"","ISI","","html-keyboard-response","64","129296","0.0-1.0-84.0","0","0","82516","","null","","","null","9","NaN","","","","","","","","","","","","","","",""
"","S2","","html-keyboard-response","65","129548","0.0-1.0-85.0","0","0","82516","","null","","","null","9","","NaN","","","","","","","","","","","","","",""
"","response","","html-keyboard-response","66","129758","0.0-1.0-86.0-0.0","0","0","82516","","208","","","68","9","","","1","9","training","adjacent","FG","6","7","O.jpg","M.jpg","1","1","1","",""
"","feedback","","html-keyboard-response","67","130760","0.0-1.0-87.0-0.0","0","0","82516","","null","","","null","9","","","","","","","","","","","","","","","",""
"","ITI","","html-keyboard-response","68","131761","0.0-1.0-90.0","0","0","82516","","null","","","null","9","","","","","","","","","","","","","","","NaN",""
"","S1","","html-keyboard-response","69","132013","0.0-1.0-92.0","0","0","82516","","null","","","null","10","","","","","","","","","","","","","","","",""
"","ISI","","html-keyboard-response","70","134015","0.0-1.0-93.0","0","0","82516","","null","","","null","10","NaN","","","","","","","","","","","","","","",""
"","S2","","html-keyboard-response","71","134267","0.0-1.0-94.0","0","0","82516","","null","","","null","10","","NaN","","","","","","","","","","","","","",""
"","response","","html-keyboard-response","72","134925","0.0-1.0-95.0-0.0","0","0","82516","","657","","","68","10","","","1","10","training","adjacent","AB","1","2","R.jpg","Q.jpg","1","1","1","",""
"","feedback","","html-keyboard-response","73","135928","0.0-1.0-96.0-0.0","0","0","82516","","null","","","null","10","","","","","","","","","","","","","","","",""
"","ITI","","html-keyboard-response","74","136931","0.0-1.0-99.0","0","0","82516","","null","","","null","10","","","","","","","","","","","","","","","NaN",""
"","S1","","html-keyboard-response","75","137183","0.0-1.0-101.0","0","0","82516","","null","","","null","11","","","","","","","","","","","","","","","",""
"","ISI","","html-keyboard-response","76","139185","0.0-1.0-102.0","0","0","82516","","null","","","null","11","NaN","","","","","","","","","","","","","","",""
"","S2","","html-keyboard-response","77","139437","0.0-1.0-103.0","0","0","82516","","null","","","null","11","","NaN","","","","","","","","","","","","","",""
"","response","","html-keyboard-response","78","139878","0.0-1.0-104.0-0.0","0","0","82516","","439","","","68","11","","","1","11","training","adjacent","CD","3","4","P.jpg","L.jpg","1","1","1","",""
"","feedback","","html-keyboard-response","79","140879","0.0-1.0-105.0-0.0","0","0","82516","","null","","","null","11","","","","","","","","","","","","","","","",""
"","ITI","","html-keyboard-response","80","141882","0.0-1.0-108.0","0","0","82516","","null","","","null","11","","","","","","","","","","","","","","","NaN",""
"","S1","","html-keyboard-response","81","142134","0.0-1.0-110.0","0","0","82516","","null","","","null","12","","","","","","","","","","","","","","","",""
"","ISI","","html-keyboard-response","82","144136","0.0-1.0-111.0","0","0","82516","","null","","","null","12","NaN","","","","","","","","","","","","","","",""
"","S2","","html-keyboard-response","83","144388","0.0-1.0-112.0","0","0","82516","","null","","","null","12","","NaN","","","","","","","","","","","","","",""
"","response","","html-keyboard-response","84","144989","0.0-1.0-113.0-0.0","0","0","82516","","600","","","75","12","","","1","12","training","adjacent","BA","2","1","Q.jpg","R.jpg","0","0","1","",""
"","feedback","","html-keyboard-response","85","145992","0.0-1.0-114.0-0.0","0","0","82516","","null","","","null","12","","","","","","","","","","","","","","","",""
"","ITI","","html-keyboard-response","86","146994","0.0-1.0-117.0","0","0","82516","","null","","","null","12","","","","","","","","","","","","","","","NaN",""
"","S1","","html-keyboard-response","87","147247","0.0-1.0-119.0","0","0","82516","","null","","","null","13","","","","","","","","","","","","","","","",""
"","ISI","","html-keyboard-response","88","149249","0.0-1.0-120.0","0","0","82516","","null","","","null","13","NaN","","","","","","","","","","","","","","",""
"","S2","","html-keyboard-response","89","149500","0.0-1.0-121.0","0","0","82516","","null","","","null","13","","NaN","","","","","","","","","","","","","",""
"","response","","html-keyboard-response","90","150557","0.0-1.0-122.0-0.0","0","0","82516","","1055","","","68","13","","","1","13","training","adjacent","ED","5","4","N.jpg","L.jpg","1","0","0","",""
"","feedback","","html-keyboard-response","91","151559","0.0-1.0-123.0-0.0","0","0","82516","","null","","","null","13","","","","","","","","","","","","","","","",""
"","time_out","","html-keyboard-response","92","153562","0.0-1.0-125.0-0.0","0","0","82516","","null","","","null","13","","","","","","","","","","","","","","","",""
"","ITI","","html-keyboard-response","93","154563","0.0-1.0-126.0","0","0","82516","","null","","","null","13","","","","","","","","","","","","","","","NaN",""
"","S1","","html-keyboard-response","94","154815","0.0-1.0-128.0","0","0","82516","","null","","","null","14","","","","","","","","","","","","","","","",""
"","ISI","","html-keyboard-response","95","156817","0.0-1.0-129.0","0","0","82516","","null","","","null","14","NaN","","","","","","","","","","","","","","",""
"","S2","","html-keyboard-response","96","157070","0.0-1.0-130.0","0","0","82516","","null","","","null","14","","NaN","","","","","","","","","","","","","",""
"","response","","html-keyboard-response","97","157501","0.0-1.0-131.0-0.0","0","0","82516","","430","","","68","14","","","1","14","training","adjacent","FE","6","5","O.jpg","N.jpg","1","0","0","",""
"","feedback","","html-keyboard-response","98","158503","0.0-1.0-132.0-0.0","0","0","82516","","null","","","null","14","","","","","","","","","","","","","","","",""
"","time_out","","html-keyboard-response","99","160506","0.0-1.0-134.0-0.0","0","0","82516","","null","","","null","14","","","","","","","","","","","","","","","",""
"","ITI","","html-keyboard-response","100","161508","0.0-1.0-135.0","0","0","82516","","null","","","null","14","","","","","","","","","","","","","","","NaN",""
"","S1","","html-keyboard-response","101","161760","0.0-1.0-137.0","0","0","82516","","null","","","null","15","","","","","","","","","","","","","","","",""
"","ISI","","html-keyboard-response","102","163762","0.0-1.0-138.0","0","0","82516","","null","","","null","15","NaN","","","","","","","","","","","","","","",""
"","S2","","html-keyboard-response","103","164014","0.0-1.0-139.0","0","0","82516","","null","","","null","15","","NaN","","","","","","","","","","","","","",""
"","response","","html-keyboard-response","104","164677","0.0-1.0-140.0-0.0","0","0","82516","","661","","","68","15","","","1","15","training","adjacent","ED","5","4","N.jpg","L.jpg","1","0","0","",""
"","feedback","","html-keyboard-response","105","165680","0.0-1.0-141.0-0.0","0","0","82516","","null","","","null","15","","","","","","","","","","","","","","","",""
"","time_out","","html-keyboard-response","106","167681","0.0-1.0-143.0-0.0","0","0","82516","","null","","","null","15","","","","","","","","","","","","","","","",""
"","ITI","","html-keyboard-response","107","168683","0.0-1.0-144.0","0","0","82516","","null","","","null","15","","","","","","","","","","","","","","","NaN",""
"","S1","","html-keyboard-response","108","168936","0.0-1.0-146.0","0","0","82516","","null","","","null","16","","","","","","","","","","","","","","","",""
"","ISI","","html-keyboard-response","109","170938","0.0-1.0-147.0","0","0","82516","","null","","","null","16","NaN","","","","","","","","","","","","","","",""
"","S2","","html-keyboard-response","110","171190","0.0-1.0-148.0","0","0","82516","","null","","","null","16","","NaN","","","","","","","","","","","","","",""
"","response","","html-keyboard-response","111","171934","0.0-1.0-149.0-0.0","0","0","82516","","743","","","75","16","","","1","16","training","adjacent","EF","5","6","N.jpg","O.jpg","0","1","0","",""
"","feedback","","html-keyboard-response","112","172936","0.0-1.0-150.0-0.0","0","0","82516","","null","","","null","16","","","","","","","","","","","","","","","",""
"","time_out","","html-keyboard-response","113","174938","0.0-1.0-152.0-0.0","0","0","82516","","null","","","null","16","","","","","","","","","","","","","","","",""
"","ITI","","html-keyboard-response","114","175941","0.0-1.0-153.0","0","0","82516","","null","","","null","16","","","","","","","","","","","","","","","NaN",""
"","S1","","html-keyboard-response","115","176194","0.0-1.0-155.0","0","0","82516","","null","","","null","17","","","","","","","","","","","","","","","",""
"","ISI","","html-keyboard-response","116","178197","0.0-1.0-156.0","0","0","82516","","null","","","null","17","NaN","","","","","","","","","","","","","","",""
"","S2","","html-keyboard-response","117","178449","0.0-1.0-157.0","0","0","82516","","null","","","null","17","","NaN","","","","","","","","","","","","","",""
"","response","","html-keyboard-response","118","178965","0.0-1.0-158.0-0.0","0","0","82516","","515","","","68","17","","","1","17","training","adjacent","DE","4","5","L.jpg","N.jpg","1","1","1","",""
"","feedback","","html-keyboard-response","119","179967","0.0-1.0-159.0-0.0","0","0","82516","","null","","","null","17","","","","","","","","","","","","","","","",""
"","ITI","","html-keyboard-response","120","180969","0.0-1.0-162.0","0","0","82516","","null","","","null","17","","","","","","","","","","","","","","","NaN",""
"","S1","","html-keyboard-response","121","181221","0.0-1.0-164.0","0","0","82516","","null","","","null","18","","","","","","","","","","","","","","","",""
"","ISI","","html-keyboard-response","122","183223","0.0-1.0-165.0","0","0","82516","","null","","","null","18","NaN","","","","","","","","","","","","","","",""
"","S2","","html-keyboard-response","123","183475","0.0-1.0-166.0","0","0","82516","","null","","","null","18","","NaN","","","","","","","","","","","","","",""
"","response","","html-keyboard-response","124","183749","0.0-1.0-167.0-0.0","0","0","82516","","272","","","75","18","","","1","18","training","adjacent","GF","7","6","M.jpg","O.jpg","0","0","1","",""
"","feedback","","html-keyboard-response","125","184751","0.0-1.0-168.0-0.0","0","0","82516","","null","","","null","18","","","","","","","","","","","","","","","",""
"","ITI","","html-keyboard-response","126","185753","0.0-1.0-171.0","0","0","82516","","null","","","null","18","","","","","","","","","","","","","","","NaN",""
"","S1","","html-keyboard-response","127","186008","0.0-1.0-173.0","0","0","82516","","null","","","null","19","","","","","","","","","","","","","","","",""
"","ISI","","html-keyboard-response","128","188010","0.0-1.0-174.0","0","0","82516","","null","","","null","19","NaN","","","","","","","","","","","","","","",""
"","S2","","html-keyboard-response","129","188262","0.0-1.0-175.0","0","0","82516","","null","","","null","19","","NaN","","","","","","","","","","","","","",""
"","response","","html-keyboard-response","130","188677","0.0-1.0-176.0-0.0","0","0","82516","","413","","","75","19","","","1","19","training","adjacent","BC","2","3","Q.jpg","P.jpg","0","1","0","",""
"","feedback","","html-keyboard-response","131","189679","0.0-1.0-177.0-0.0","0","0","82516","","null","","","null","19","","","","","","","","","","","","","","","",""
"","time_out","","html-keyboard-response","132","191681","0.0-1.0-179.0-0.0","0","0","82516","","null","","","null","19","","","","","","","","","","","","","","","",""
"","ITI","","html-keyboard-response","133","192683","0.0-1.0-180.0","0","0","82516","","null","","","null","19","","","","","","","","","","","","","","","NaN",""
"","S1","","html-keyboard-response","134","192936","0.0-1.0-182.0","0","0","82516","","null","","","null","20","","","","","","","","","","","","","","","",""
"","ISI","","html-keyboard-response","135","194938","0.0-1.0-183.0","0","0","82516","","null","","","null","20","NaN","","","","","","","","","","","","","","",""
"","S2","","html-keyboard-response","136","195190","0.0-1.0-184.0","0","0","82516","","null","","","null","20","","NaN","","","","","","","","","","","","","",""
"","response","","html-keyboard-response","137","195662","0.0-1.0-185.0-0.0","0","0","82516","","471","","","68","20","","","1","20","training","adjacent","CD","3","4","P.jpg","L.jpg","1","1","1","",""
"","feedback","","html-keyboard-response","138","196664","0.0-1.0-186.0-0.0","0","0","82516","","null","","","null","20","","","","","","","","","","","","","","","",""
"","ITI","","html-keyboard-response","139","197667","0.0-1.0-189.0","0","0","82516","","null","","","null","20","","","","","","","","","","","","","","","NaN",""
"","S1","","html-keyboard-response","140","197918","0.0-1.0-191.0","0","0","82516","","null","","","null","21","","","","","","","","","","","","","","","",""
"","ISI","","html-keyboard-response","141","199920","0.0-1.0-192.0","0","0","82516","","null","","","null","21","NaN","","","","","","","","","","","","","","",""
"","S2","","html-keyboard-response","142","200173","0.0-1.0-193.0","0","0","82516","","null","","","null","21","","NaN","","","","","","","","","","","","","",""
"","response","","html-keyboard-response","143","200693","0.0-1.0-194.0-0.0","0","0","82516","","519","","","68","21","","","1","21","training","adjacent","FE","6","5","O.jpg","N.jpg","1","0","0","",""
"","feedback","","html-keyboard-response","144","201695","0.0-1.0-195.0-0.0","0","0","82516","","null","","","null","21","","","","","","","","","","","","","","","",""
"","time_out","","html-keyboard-response","145","203698","0.0-1.0-197.0-0.0","0","0","82516","","null","","","null","21","","","","","","","","","","","","","","","",""
"","ITI","","html-keyboard-response","146","204700","0.0-1.0-198.0","0","0","82516","","null","","","null","21","","","","","","","","","","","","","","","NaN",""
"","S1","","html-keyboard-response","147","204952","0.0-1.0-200.0","0","0","82516","","null","","","null","22","","","","","","","","","","","","","","","",""
"","ISI","","html-keyboard-response","148","206954","0.0-1.0-201.0","0","0","82516","","null","","","null","22","NaN","","","","","","","","","","","","","","",""
"","S2","","html-keyboard-response","149","207207","0.0-1.0-202.0","0","0","82516","","null","","","null","22","","NaN","","","","","","","","","","","","","",""
"","response","","html-keyboard-response","150","207653","0.0-1.0-203.0-0.0","0","0","82516","","445","","","75","22","","","1","22","training","adjacent","DC","4","3","L.jpg","P.jpg","0","0","1","",""
"","feedback","","html-keyboard-response","151","208655","0.0-1.0-204.0-0.0","0","0","82516","","null","","","null","22","","","","","","","","","","","","","","","",""
"","ITI","","html-keyboard-response","152","209657","0.0-1.0-207.0","0","0","82516","","null","","","null","22","","","","","","","","","","","","","","","NaN",""
"","S1","","html-keyboard-response","153","209909","0.0-1.0-209.0","0","0","82516","","null","","","null","23","","","","","","","","","","","","","","","",""
"","ISI","","html-keyboard-response","154","211910","0.0-1.0-210.0","0","0","82516","","null","","","null","23","NaN","","","","","","","","","","","","","","",""
"","S2","","html-keyboard-response","155","212162","0.0-1.0-211.0","0","0","82516","","null","","","null","23","","NaN","","","","","","","","","","","","","",""
"","response","","html-keyboard-response","156","212406","0.0-1.0-212.0-0.0","0","0","82516","","243","","","75","23","","","1","23","training","adjacent","GF","7","6","M.jpg","O.jpg","0","0","1","",""
"","feedback","","html-keyboard-response","157","213408","0.0-1.0-213.0-0.0","0","0","82516","","null","","","null","23","","","","","","","","","","","","","","","",""
"","ITI","","html-keyboard-response","158","214410","0.0-1.0-216.0","0","0","82516","","null","","","null","23","","","","","","","","","","","","","","","NaN",""
"","S1","","html-keyboard-response","159","214662","0.0-1.0-218.0","0","0","82516","","null","","","null","24","","","","","","","","","","","","","","","",""
"","ISI","","html-keyboard-response","160","216664","0.0-1.0-219.0","0","0","82516","","null","","","null","24","NaN","","","","","","","","","","","","","","",""
"","S2","","html-keyboard-response","161","216916","0.0-1.0-220.0","0","0","82516","","null","","","null","24","","NaN","","","","","","","","","","","","","",""
"","response","","html-keyboard-response","162","217117","0.0-1.0-221.0-0.0","0","0","82516","","199","","","68","24","","","1","24","training","adjacent","CB","3","2","P.jpg","Q.jpg","1","0","0","",""
"","feedback","","html-keyboard-response","163","218119","0.0-1.0-222.0-0.0","0","0","82516","","null","","","null","24","","","","","","","","","","","","","","","",""
"","time_out","","html-keyboard-response","164","220121","0.0-1.0-224.0-0.0","0","0","82516","","null","","","null","24","","","","","","","","","","","","","","","",""
"","ITI","","html-keyboard-response","165","221122","0.0-1.0-225.0","0","0","82516","","null","","","null","24","","","","","","","","","","","","","","","NaN",""
"","S1","","html-keyboard-response","166","221375","0.0-1.0-227.0","0","0","82516","","null","","","null","25","","","","","","","","","","","","","","","",""
"","ISI","","html-keyboard-response","167","223377","0.0-1.0-228.0","0","0","82516","","null","","","null","25","NaN","","","","","","","","","","","","","","",""
"","S2","","html-keyboard-response","168","223629","0.0-1.0-229.0","0","0","82516","","null","","","null","25","","NaN","","","","","","","","","","","","","",""
"","response","","html-keyboard-response","169","223725","0.0-1.0-230.0-0.0","0","0","82516","","94","","","75","25","","","1","25","training","adjacent","EF","5","6","N.jpg","O.jpg","0","1","0","",""
"","feedback","","html-keyboard-response","170","224727","0.0-1.0-231.0-0.0","0","0","82516","","null","","","null","25","","","","","","","","","","","","","","","",""
"","time_out","","html-keyboard-response","171","226728","0.0-1.0-233.0-0.0","0","0","82516","","null","","","null","25","","","","","","","","","","","","","","","",""
"","ITI","","html-keyboard-response","172","227730","0.0-1.0-234.0","0","0","82516","","null","","","null","25","","","","","","","","","","","","","","","NaN",""
"","S1","","html-keyboard-response","173","227983","0.0-1.0-236.0","0","0","82516","","null","","","null","26","","","","","","","","","","","","","","","",""
"","ISI","","html-keyboard-response","174","229985","0.0-1.0-237.0","0","0","82516","","null","","","null","26","NaN","","","","","","","","","","","","","","",""
"","S2","","html-keyboard-response","175","230238","0.0-1.0-238.0","0","0","82516","","null","","","null","26","","NaN","","","","","","","","","","","","","",""
"","response","","html-keyboard-response","176","230581","0.0-1.0-239.0-0.0","0","0","82516","","342","","","68","26","","","1","26","training","adjacent","BA","2","1","Q.jpg","R.jpg","1","0","0","",""
"","feedback","","html-keyboard-response","177","231583","0.0-1.0-240.0-0.0","0","0","82516","","null","","","null","26","","","","","","","","","","","","","","","",""
"","time_out","","html-keyboard-response","178","233585","0.0-1.0-242.0-0.0","0","0","82516","","null","","","null","26","","","","","","","","","","","","","","","",""
"","ITI","","html-keyboard-response","179","234587","0.0-1.0-243.0","0","0","82516","","null","","","null","26","","","","","","","","","","","","","","","NaN",""
"","S1","","html-keyboard-response","180","234839","0.0-1.0-245.0","0","0","82516","","null","","","null","27","","","","","","","","","","","","","","","",""
"","ISI","","html-keyboard-response","181","236842","0.0-1.0-246.0","0","0","82516","","null","","","null","27","NaN","","","","","","","","","","","","","","",""
"","S2","","html-keyboard-response","182","237094","0.0-1.0-247.0","0","0","82516","","null","","","null","27","","NaN","","","","","","","","","","","","","",""
"","response","","html-keyboard-response","183","237237","0.0-1.0-248.0-0.0","0","0","82516","","141","","","75","27","","","1","27","training","adjacent","BA","2","1","Q.jpg","R.jpg","0","0","1","",""
"","feedback","","html-keyboard-response","184","238243","0.0-1.0-249.0-0.0","0","0","82516","","null","","","null","27","","","","","","","","","","","","","","","",""
"","ITI","","html-keyboard-response","185","239245","0.0-1.0-252.0","0","0","82516","","null","","","null","27","","","","","","","","","","","","","","","NaN",""
"","S1","","html-keyboard-response","186","239498","0.0-1.0-254.0","0","0","82516","","null","","","null","28","","","","","","","","","","","","","","","",""
"","ISI","","html-keyboard-response","187","241500","0.0-1.0-255.0","0","0","82516","","null","","","null","28","NaN","","","","","","","","","","","","","","",""
"","S2","","html-keyboard-response","188","241753","0.0-1.0-256.0","0","0","82516","","null","","","null","28","","NaN","","","","","","","","","","","","","",""
"","response","","html-keyboard-response","189","242117","0.0-1.0-257.0-0.0","0","0","82516","","363","","","68","28","","","1","28","training","adjacent","CB","3","2","P.jpg","Q.jpg","1","0","0","",""
"","feedback","","html-keyboard-response","190","243120","0.0-1.0-258.0-0.0","0","0","82516","","null","","","null","28","","","","","","","","","","","","","","","",""
"","time_out","","html-keyboard-response","191","245122","0.0-1.0-260.0-0.0","0","0","82516","","null","","","null","28","","","","","","","","","","","","","","","",""
"","ITI","","html-keyboard-response","192","246124","0.0-1.0-261.0","0","0","82516","","null","","","null","28","","","","","","","","","","","","","","","NaN",""
"","S1","","html-keyboard-response","193","246384","0.0-1.0-263.0","0","0","82516","","null","","","null","29","","","","","","","","","","","","","","","",""
"","ISI","","html-keyboard-response","194","248386","0.0-1.0-264.0","0","0","82516","","null","","","null","29","NaN","","","","","","","","","","","","","","",""
"","S2","","html-keyboard-response","195","248639","0.0-1.0-265.0","0","0","82516","","null","","","null","29","","NaN","","","","","","","","","","","","","",""
"","response","","html-keyboard-response","196","249133","0.0-1.0-266.0-0.0","0","0","82516","","493","","","68","29","","","1","29","training","adjacent","ED","5","4","N.jpg","L.jpg","1","0","0","",""
"","feedback","","html-keyboard-response","197","250136","0.0-1.0-267.0-0.0","0","0","82516","","null","","","null","29","","","","","","","","","","","","","","","",""
"","time_out","","html-keyboard-response","198","252139","0.0-1.0-269.0-0.0","0","0","82516","","null","","","null","29","","","","","","","","","","","","","","","",""
"","ITI","","html-keyboard-response","199","253141","0.0-1.0-270.0","0","0","82516","","null","","","null","29","","","","","","","","","","","","","","","NaN",""
"","S1","","html-keyboard-response","200","253393","0.0-1.0-272.0","0","0","82516","","null","","","null","30","","","","","","","","","","","","","","","",""
"","ISI","","html-keyboard-response","201","255395","0.0-1.0-273.0","0","0","82516","","null","","","null","30","NaN","","","","","","","","","","","","","","",""
"","S2","","html-keyboard-response","202","255647","0.0-1.0-274.0","0","0","82516","","null","","","null","30","","NaN","","","","","","","","","","","","","",""
"","response","","html-keyboard-response","203","255725","0.0-1.0-275.0-0.0","0","0","82516","","77","","","68","30","","","1","30","training","adjacent","CB","3","2","P.jpg","Q.jpg","1","0","0","",""
"","feedback","","html-keyboard-response","204","256727","0.0-1.0-276.0-0.0","0","0","82516","","null","","","null","30","","","","","","","","","","","","","","","",""
"","time_out","","html-keyboard-response","205","258730","0.0-1.0-278.0-0.0","0","0","82516","","null","","","null","30","","","","","","","","","","","","","","","",""
"","ITI","","html-keyboard-response","206","259732","0.0-1.0-279.0","0","0","82516","","null","","","null","30","","","","","","","","","","","","","","","NaN",""
"","S1","","html-keyboard-response","207","259984","0.0-1.0-281.0","0","0","82516","","null","","","null","31","","","","","","","","","","","","","","","",""
"","ISI","","html-keyboard-response","208","261986","0.0-1.0-282.0","0","0","82516","","null","","","null","31","NaN","","","","","","","","","","","","","","",""
"","S2","","html-keyboard-response","209","262238","0.0-1.0-283.0","0","0","82516","","null","","","null","31","","NaN","","","","","","","","","","","","","",""
"","response","","html-keyboard-response","210","262517","0.0-1.0-284.0-0.0","0","0","82516","","278","","","75","31","","","1","31","training","adjacent","DC","4","3","L.jpg","P.jpg","0","0","1","",""
"","feedback","","html-keyboard-response","211","263519","0.0-1.0-285.0-0.0","0","0","82516","","null","","","null","31","","","","","","","","","","","","","","","",""
"","ITI","","html-keyboard-response","212","264521","0.0-1.0-288.0","0","0","82516","","null","","","null","31","","","","","","","","","","","","","","","NaN",""
"","S1","","html-keyboard-response","213","264774","0.0-1.0-290.0","0","0","82516","","null","","","null","32","","","","","","","","","","","","","","","",""
"","ISI","","html-keyboard-response","214","266777","0.0-1.0-291.0","0","0","82516","","null","","","null","32","NaN","","","","","","","","","","","","","","",""
"","S2","","html-keyboard-response","215","267029","0.0-1.0-292.0","0","0","82516","","null","","","null","32","","NaN","","","","","","","","","","","","","",""
"","response","","html-keyboard-response","216","267221","0.0-1.0-293.0-0.0","0","0","82516","","190","","","75","32","","","1","32","training","adjacent","BC","2","3","Q.jpg","P.jpg","0","1","0","",""
"","feedback","","html-keyboard-response","217","268223","0.0-1.0-294.0-0.0","0","0","82516","","null","","","null","32","","","","","","","","","","","","","","","",""
"","time_out","","html-keyboard-response","218","270227","0.0-1.0-296.0-0.0","0","0","82516","","null","","","null","32","","","","","","","","","","","","","","","",""
"","ITI","","html-keyboard-response","219","271228","0.0-1.0-297.0","0","0","82516","","null","","","null","32","","","","","","","","","","","","","","","NaN",""
"","S1","","html-keyboard-response","220","271481","0.0-1.0-299.0","0","0","82516","","null","","","null","33","","","","","","","","","","","","","","","",""
"","ISI","","html-keyboard-response","221","273482","0.0-1.0-300.0","0","0","82516","","null","","","null","33","NaN","","","","","","","","","","","","","","",""
"","S2","","html-keyboard-response","222","273734","0.0-1.0-301.0","0","0","82516","","null","","","null","33","","NaN","","","","","","","","","","","","","",""
"","response","","html-keyboard-response","223","274069","0.0-1.0-302.0-0.0","0","0","82516","","333","","","75","33","","","1","33","training","adjacent","BA","2","1","Q.jpg","R.jpg","0","0","1","",""
"","feedback","","html-keyboard-response","224","275071","0.0-1.0-303.0-0.0","0","0","82516","","null","","","null","33","","","","","","","","","","","","","","","",""
"","ITI","","html-keyboard-response","225","276073","0.0-1.0-306.0","0","0","82516","","null","","","null","33","","","","","","","","","","","","","","","NaN",""
"","S1","","html-keyboard-response","226","276326","0.0-1.0-308.0","0","0","82516","","null","","","null","34","","","","","","","","","","","","","","","",""
"","ISI","","html-keyboard-response","227","278327","0.0-1.0-309.0","0","0","82516","","null","","","null","34","NaN","","","","","","","","","","","","","","",""
"","S2","","html-keyboard-response","228","278580","0.0-1.0-310.0","0","0","82516","","null","","","null","34","","NaN","","","","","","","","","","","","","",""
"","response","","html-keyboard-response","229","278725","0.0-1.0-311.0-0.0","0","0","82516","","145","","","68","34","","","1","34","training","adjacent","DC","4","3","L.jpg","P.jpg","1","0","0","",""
"","feedback","","html-keyboard-response","230","279727","0.0-1.0-312.0-0.0","0","0","82516","","null","","","null","34","","","","","","","","","","","","","","","",""
"","time_out","","html-keyboard-response","231","281729","0.0-1.0-314.0-0.0","0","0","82516","","null","","","null","34","","","","","","","","","","","","","","","",""
"","ITI","","html-keyboard-response","232","282731","0.0-1.0-315.0","0","0","82516","","null","","","null","34","","","","","","","","","","","","","","","NaN",""
"","S1","","html-keyboard-response","233","282984","0.0-1.0-317.0","0","0","82516","","null","","","null","35","","","","","","","","","","","","","","","",""
"","ISI","","html-keyboard-response","234","284987","0.0-1.0-318.0","0","0","82516","","null","","","null","35","NaN","","","","","","","","","","","","","","",""
"","S2","","html-keyboard-response","235","285240","0.0-1.0-319.0","0","0","82516","","null","","","null","35","","NaN","","","","","","","","","","","","","",""
"","response","","html-keyboard-response","236","285277","0.0-1.0-320.0-0.0","0","0","82516","","36","","","75","35","","","1","35","training","adjacent","AB","1","2","R.jpg","Q.jpg","0","1","0","",""
"","feedback","","html-keyboard-response","237","286280","0.0-1.0-321.0-0.0","0","0","82516","","null","","","null","35","","","","","","","","","","","","","","","",""
"","time_out","","html-keyboard-response","238","288282","0.0-1.0-323.0-0.0","0","0","82516","","null","","","null","35","","","","","","","","","","","","","","","",""
"","ITI","","html-keyboard-response","239","289285","0.0-1.0-324.0","0","0","82516","","null","","","null","35","","","","","","","","","","","","","","","NaN",""
"","S1","","html-keyboard-response","240","289537","0.0-1.0-326.0","0","0","82516","","null","","","null","36","","","","","","","","","","","","","","","",""
"","ISI","","html-keyboard-response","241","291539","0.0-1.0-327.0","0","0","82516","","null","","","null","36","NaN","","","","","","","","","","","","","","",""
"","S2","","html-keyboard-response","242","291791","0.0-1.0-328.0","0","0","82516","","null","","","null","36","","NaN","","","","","","","","","","","","","",""
"","response","","html-keyboard-response","243","291877","0.0-1.0-329.0-0.0","0","0","82516","","84","","","68","36","","","1","36","training","adjacent","BC","2","3","Q.jpg","P.jpg","1","1","1","",""
"","feedback","","html-keyboard-response","244","292880","0.0-1.0-330.0-0.0","0","0","82516","","null","","","null","36","","","","","","","","","","","","","","","",""
"","ITI","","html-keyboard-response","245","293881","0.0-1.0-333.0","0","0","82516","","null","","","null","36","","","","","","","","","","","","","","","NaN",""
"","S1","","html-keyboard-response","246","294134","0.0-1.0-335.0","0","0","82516","","null","","","null","37","","","","","","","","","","","","","","","",""
"","ISI","","html-keyboard-response","247","296137","0.0-1.0-336.0","0","0","82516","","null","","","null","37","NaN","","","","","","","","","","","","","","",""
"","S2","","html-keyboard-response","248","296388","0.0-1.0-337.0","0","0","82516","","null","","","null","37","","NaN","","","","","","","","","","","","","",""
"","response","","html-keyboard-response","249","296837","0.0-1.0-338.0-0.0","0","0","82516","","447","","","68","37","","","1","37","training","adjacent","AB","1","2","R.jpg","Q.jpg","1","1","1","",""
"","feedback","","html-keyboard-response","250","297841","0.0-1.0-339.0-0.0","0","0","82516","","null","","","null","37","","","","","","","","","","","","","","","",""
"","ITI","","html-keyboard-response","251","298843","0.0-1.0-342.0","0","0","82516","","null","","","null","37","","","","","","","","","","","","","","","NaN",""
"","S1","","html-keyboard-response","252","299094","0.0-1.0-344.0","0","0","82516","","null","","","null","38","","","","","","","","","","","","","","","",""
"","ISI","","html-keyboard-response","253","301097","0.0-1.0-345.0","0","0","82516","","null","","","null","38","NaN","","","","","","","","","","","","","","",""
"","S2","","html-keyboard-response","254","301348","0.0-1.0-346.0","0","0","82516","","null","","","null","38","","NaN","","","","","","","","","","","","","",""
"","response","","html-keyboard-response","255","301558","0.0-1.0-347.0-0.0","0","0","82516","","208","","","68","38","","","1","38","training","adjacent","DE","4","5","L.jpg","N.jpg","1","1","1","",""
"","feedback","","html-keyboard-response","256","302560","0.0-1.0-348.0-0.0","0","0","82516","","null","","","null","38","","","","","","","","","","","","","","","",""
"","ITI","","html-keyboard-response","257","303562","0.0-1.0-351.0","0","0","82516","","null","","","null","38","","","","","","","","","","","","","","","NaN",""
"","S1","","html-keyboard-response","258","303814","0.0-1.0-353.0","0","0","82516","","null","","","null","39","","","","","","","","","","","","","","","",""
"","ISI","","html-keyboard-response","259","305816","0.0-1.0-354.0","0","0","82516","","null","","","null","39","NaN","","","","","","","","","","","","","","",""
"","S2","","html-keyboard-response","260","306068","0.0-1.0-355.0","0","0","82516","","null","","","null","39","","NaN","","","","","","","","","","","","","",""
"","response","","html-keyboard-response","261","306165","0.0-1.0-356.0-0.0","0","0","82516","","97","","","68","39","","","1","39","training","adjacent","FG","6","7","O.jpg","M.jpg","1","1","1","",""
"","feedback","","html-keyboard-response","262","307167","0.0-1.0-357.0-0.0","0","0","82516","","null","","","null","39","","","","","","","","","","","","","","","",""
"","ITI","","html-keyboard-response","263","308169","0.0-1.0-360.0","0","0","82516","","null","","","null","39","","","","","","","","","","","","","","","NaN",""
"","S1","","html-keyboard-response","264","308421","0.0-1.0-362.0","0","0","82516","","null","","","null","40","","","","","","","","","","","","","","","",""
"","ISI","","html-keyboard-response","265","310423","0.0-1.0-363.0","0","0","82516","","null","","","null","40","NaN","","","","","","","","","","","","","","",""
"","S2","","html-keyboard-response","266","310675","0.0-1.0-364.0","0","0","82516","","null","","","null","40","","NaN","","","","","","","","","","","","","",""
"","response","","html-keyboard-response","267","310830","0.0-1.0-365.0-0.0","0","0","82516","","154","","","68","40","","","1","40","training","adjacent","AB","1","2","R.jpg","Q.jpg","1","1","1","",""
"","feedback","","html-keyboard-response","268","311832","0.0-1.0-366.0-0.0","0","0","82516","","null","","","null","40","","","","","","","","","","","","","","","",""
"","ITI","","html-keyboard-response","269","312835","0.0-1.0-369.0","0","0","82516","","null","","","null","40","","","","","","","","","","","","","","","NaN",""
"","S1","","html-keyboard-response","270","313087","0.0-1.0-371.0","0","0","82516","","null","","","null","41","","","","","","","","","","","","","","","",""
"","ISI","","html-keyboard-response","271","315088","0.0-1.0-372.0","0","0","82516","","null","","","null","41","NaN","","","","","","","","","","","","","","",""
"","S2","","html-keyboard-response","272","315341","0.0-1.0-373.0","0","0","82516","","null","","","null","41","","NaN","","","","","","","","","","","","","",""
"","response","","html-keyboard-response","273","315421","0.0-1.0-374.0-0.0","0","0","82516","","79","","","75","41","","","1","41","training","adjacent","BC","2","3","Q.jpg","P.jpg","0","1","0","",""
"","feedback","","html-keyboard-response","274","316424","0.0-1.0-375.0-0.0","0","0","82516","","null","","","null","41","","","","","","","","","","","","","","","",""
"","time_out","","html-keyboard-response","275","318426","0.0-1.0-377.0-0.0","0","0","82516","","null","","","null","41","","","","","","","","","","","","","","","",""
"","ITI","","html-keyboard-response","276","319428","0.0-1.0-378.0","0","0","82516","","null","","","null","41","","","","","","","","","","","","","","","NaN",""
"","S1","","html-keyboard-response","277","319679","0.0-1.0-380.0","0","0","82516","","null","","","null","42","","","","","","","","","","","","","","","",""
"","ISI","","html-keyboard-response","278","321681","0.0-1.0-381.0","0","0","82516","","null","","","null","42","NaN","","","","","","","","","","","","","","",""
"","S2","","html-keyboard-response","279","321933","0.0-1.0-382.0","0","0","82516","","null","","","null","42","","NaN","","","","","","","","","","","","","",""
"","response","","html-keyboard-response","280","322013","0.0-1.0-383.0-0.0","0","0","82516","","79","","","68","42","","","1","42","training","adjacent","FE","6","5","O.jpg","N.jpg","1","0","0","",""
"","feedback","","html-keyboard-response","281","323017","0.0-1.0-384.0-0.0","0","0","82516","","null","","","null","42","","","","","","","","","","","","","","","",""
"","time_out","","html-keyboard-response","282","325019","0.0-1.0-386.0-0.0","0","0","82516","","null","","","null","42","","","","","","","","","","","","","","","",""
"","ITI","","html-keyboard-response","283","326020","0.0-1.0-387.0","0","0","82516","","null","","","null","42","","","","","","","","","","","","","","","NaN",""
"","S1","","html-keyboard-response","284","326273","0.0-1.0-389.0","0","0","82516","","null","","","null","43","","","","","","","","","","","","","","","",""
"","ISI","","html-keyboard-response","285","328275","0.0-1.0-390.0","0","0","82516","","null","","","null","43","NaN","","","","","","","","","","","","","","",""
"","S2","","html-keyboard-response","286","328528","0.0-1.0-391.0","0","0","82516","","null","","","null","43","","NaN","","","","","","","","","","","","","",""
"","response","","html-keyboard-response","287","328685","0.0-1.0-392.0-0.0","0","0","82516","","156","","","75","43","","","1","43","training","adjacent","DC","4","3","L.jpg","P.jpg","0","0","1","",""
"","feedback","","html-keyboard-response","288","329688","0.0-1.0-393.0-0.0","0","0","82516","","null","","","null","43","","","","","","","","","","","","","","","",""
"","ITI","","html-keyboard-response","289","330691","0.0-1.0-396.0","0","0","82516","","null","","","null","43","","","","","","","","","","","","","","","NaN",""
"","S1","","html-keyboard-response","290","330943","0.0-1.0-398.0","0","0","82516","","null","","","null","44","","","","","","","","","","","","","","","",""
"","ISI","","html-keyboard-response","291","332945","0.0-1.0-399.0","0","0","82516","","null","","","null","44","NaN","","","","","","","","","","","","","","",""
"","S2","","html-keyboard-response","292","333197","0.0-1.0-400.0","0","0","82516","","null","","","null","44","","NaN","","","","","","","","","","","","","",""
"","response","","html-keyboard-response","293","333325","0.0-1.0-401.0-0.0","0","0","82516","","126","","","75","44","","","1","44","training","adjacent","GF","7","6","M.jpg","O.jpg","0","0","1","",""
"","feedback","","html-keyboard-response","294","334328","0.0-1.0-402.0-0.0","0","0","82516","","null","","","null","44","","","","","","","","","","","","","","","",""
"","ITI","","html-keyboard-response","295","335330","0.0-1.0-405.0","0","0","82516","","null","","","null","44","","","","","","","","","","","","","","","NaN",""
"","S1","","html-keyboard-response","296","335582","0.0-1.0-407.0","0","0","82516","","null","","","null","45","","","","","","","","","","","","","","","",""
"","ISI","","html-keyboard-response","297","337584","0.0-1.0-408.0","0","0","82516","","null","","","null","45","NaN","","","","","","","","","","","","","","",""
"","S2","","html-keyboard-response","298","337837","0.0-1.0-409.0","0","0","82516","","null","","","null","45","","NaN","","","","","","","","","","","","","",""
"","response","","html-keyboard-response","299","338157","0.0-1.0-410.0-0.0","0","0","82516","","318","","","68","45","","","1","45","training","adjacent","FE","6","5","O.jpg","N.jpg","1","0","0","",""
"","feedback","","html-keyboard-response","300","339160","0.0-1.0-411.0-0.0","0","0","82516","","null","","","null","45","","","","","","","","","","","","","","","",""
"","time_out","","html-keyboard-response","301","341162","0.0-1.0-413.0-0.0","0","0","82516","","null","","","null","45","","","","","","","","","","","","","","","",""
"","ITI","","html-keyboard-response","302","342164","0.0-1.0-414.0","0","0","82516","","null","","","null","45","","","","","","","","","","","","","","","NaN",""
"","S1","","html-keyboard-response","303","342422","0.0-1.0-416.0","0","0","82516","","null","","","null","46","","","","","","","","","","","","","","","",""
"","ISI","","html-keyboard-response","304","344424","0.0-1.0-417.0","0","0","82516","","null","","","null","46","NaN","","","","","","","","","","","","","","",""
"","S2","","html-keyboard-response","305","344676","0.0-1.0-418.0","0","0","82516","","null","","","null","46","","NaN","","","","","","","","","","","","","",""
"","response","","html-keyboard-response","306","345022","0.0-1.0-419.0-0.0","0","0","82516","","345","","","75","46","","","1","46","training","adjacent","DE","4","5","L.jpg","N.jpg","0","1","0","",""
"","feedback","","html-keyboard-response","307","346025","0.0-1.0-420.0-0.0","0","0","82516","","null","","","null","46","","","","","","","","","","","","","","","",""
"","time_out","","html-keyboard-response","308","348028","0.0-1.0-422.0-0.0","0","0","82516","","null","","","null","46","","","","","","","","","","","","","","","",""
"","ITI","","html-keyboard-response","309","349029","0.0-1.0-423.0","0","0","82516","","null","","","null","46","","","","","","","","","","","","","","","NaN",""
"","S1","","html-keyboard-response","310","349281","0.0-1.0-425.0","0","0","82516","","null","","","null","47","","","","","","","","","","","","","","","",""
"","ISI","","html-keyboard-response","311","351283","0.0-1.0-426.0","0","0","82516","","null","","","null","47","NaN","","","","","","","","","","","","","","",""
"","S2","","html-keyboard-response","312","351536","0.0-1.0-427.0","0","0","82516","","null","","","null","47","","NaN","","","","","","","","","","","","","",""
"","response","","html-keyboard-response","313","353237","0.0-1.0-428.0-0.0","0","0","82516","","1699","","","68","47","","","1","47","training","adjacent","FG","6","7","O.jpg","M.jpg","1","1","1","",""
"","feedback","","html-keyboard-response","314","354240","0.0-1.0-429.0-0.0","0","0","82516","","null","","","null","47","","","","","","","","","","","","","","","",""
"","ITI","","html-keyboard-response","315","355243","0.0-1.0-432.0","0","0","82516","","null","","","null","47","","","","","","","","","","","","","","","NaN",""
"","block_over","","html-keyboard-response","316","435350","0.0-1.0-433.0-0.0","0","0","82516","","80105","","","32","47","","","","","","","","","","","","","","","",""
"","S1","","html-keyboard-response","317","435602","0.0-1.0-434.0","0","0","82516","","null","","","null","48","","","","","","","","","","","","","","","",""
"","ISI","","html-keyboard-response","318","437604","0.0-1.0-435.0","0","0","82516","","null","","","null","48","NaN","","","","","","","","","","","","","","",""
"","S2","","html-keyboard-response","319","437856","0.0-1.0-436.0","0","0","82516","","null","","","null","48","","NaN","","","","","","","","","","","","","",""
"","response","","html-keyboard-response","320","438669","0.0-1.0-437.0-0.0","0","0","82516","","811","","","68","48","","","2","48","training","adjacent","DE","4","5","L.jpg","N.jpg","1","1","1","",""
"","feedback","","html-keyboard-response","321","439672","0.0-1.0-438.0-0.0","0","0","82516","","null","","","null","48","","","","","","","","","","","","","","","",""
"","ITI","","html-keyboard-response","322","440674","0.0-1.0-441.0","0","0","82516","","null","","","null","48","","","","","","","","","","","","","","","NaN",""
"","S1","","html-keyboard-response","323","440927","0.0-1.0-443.0","0","0","82516","","null","","","null","49","","","","","","","","","","","","","","","",""
"","ISI","","html-keyboard-response","324","442929","0.0-1.0-444.0","0","0","82516","","null","","","null","49","NaN","","","","","","","","","","","","","","",""
"","S2","","html-keyboard-response","325","443181","0.0-1.0-445.0","0","0","82516","","null","","","null","49","","NaN","","","","","","","","","","","","","",""
"","response","","html-keyboard-response","326","443301","0.0-1.0-446.0-0.0","0","0","82516","","119","","","68","49","","","2","49","training","adjacent","GF","7","6","M.jpg","O.jpg","1","0","0","",""
"","feedback","","html-keyboard-response","327","444304","0.0-1.0-447.0-0.0","0","0","82516","","null","","","null","49","","","","","","","","","","","","","","","",""
"","time_out","","html-keyboard-response","328","446306","0.0-1.0-449.0-0.0","0","0","82516","","null","","","null","49","","","","","","","","","","","","","","","",""
"","ITI","","html-keyboard-response","329","447308","0.0-1.0-450.0","0","0","82516","","null","","","null","49","","","","","","","","","","","","","","","NaN",""
"","S1","","html-keyboard-response","330","447560","0.0-1.0-452.0","0","0","82516","","null","","","null","50","","","","","","","","","","","","","","","",""
"","ISI","","html-keyboard-response","331","449562","0.0-1.0-453.0","0","0","82516","","null","","","null","50","NaN","","","","","","","","","","","","","","",""
"","S2","","html-keyboard-response","332","449814","0.0-1.0-454.0","0","0","82516","","null","","","null","50","","NaN","","","","","","","","","","","","","",""
"","response","","html-keyboard-response","333","450270","0.0-1.0-455.0-0.0","0","0","82516","","454","","","68","50","","","2","50","training","adjacent","CB","3","2","P.jpg","Q.jpg","1","0","0","",""
"","feedback","","html-keyboard-response","334","451273","0.0-1.0-456.0-0.0","0","0","82516","","null","","","null","50","","","","","","","","","","","","","","","",""
"","time_out","","html-keyboard-response","335","453274","0.0-1.0-458.0-0.0","0","0","82516","","null","","","null","50","","","","","","","","","","","","","","","",""
"","ITI","","html-keyboard-response","336","454277","0.0-1.0-459.0","0","0","82516","","null","","","null","50","","","","","","","","","","","","","","","NaN",""
"","S1","","html-keyboard-response","337","454529","0.0-1.0-461.0","0","0","82516","","null","","","null","51","","","","","","","","","","","","","","","",""
"","ISI","","html-keyboard-response","338","456531","0.0-1.0-462.0","0","0","82516","","null","","","null","51","NaN","","","","","","","","","","","","","","",""
"","S2","","html-keyboard-response","339","456784","0.0-1.0-463.0","0","0","82516","","null","","","null","51","","NaN","","","","","","","","","","","","","",""
"","response","","html-keyboard-response","340","456885","0.0-1.0-464.0-0.0","0","0","82516","","101","","","68","51","","","2","51","training","adjacent","FG","6","7","O.jpg","M.jpg","1","1","1","",""
"","feedback","","html-keyboard-response","341","457888","0.0-1.0-465.0-0.0","0","0","82516","","null","","","null","51","","","","","","","","","","","","","","","",""
"","ITI","","html-keyboard-response","342","458890","0.0-1.0-468.0","0","0","82516","","null","","","null","51","","","","","","","","","","","","","","","NaN",""
"","S1","","html-keyboard-response","343","459142","0.0-1.0-470.0","0","0","82516","","null","","","null","52","","","","","","","","","","","","","","","",""
"","ISI","","html-keyboard-response","344","461145","0.0-1.0-471.0","0","0","82516","","null","","","null","52","NaN","","","","","","","","","","","","","","",""
"","S2","","html-keyboard-response","345","461397","0.0-1.0-472.0","0","0","82516","","null","","","null","52","","NaN","","","","","","","","","","","","","",""
"","response","","html-keyboard-response","346","461558","0.0-1.0-473.0-0.0","0","0","82516","","159","","","68","52","","","2","52","training","adjacent","AB","1","2","R.jpg","Q.jpg","1","1","1","",""
"","feedback","","html-keyboard-response","347","462559","0.0-1.0-474.0-0.0","0","0","82516","","null","","","null","52","","","","","","","","","","","","","","","",""
"","ITI","","html-keyboard-response","348","463561","0.0-1.0-477.0","0","0","82516","","null","","","null","52","","","","","","","","","","","","","","","NaN",""
"","S1","","html-keyboard-response","349","463814","0.0-1.0-479.0","0","0","82516","","null","","","null","53","","","","","","","","","","","","","","","",""
"","ISI","","html-keyboard-response","350","465815","0.0-1.0-480.0","0","0","82516","","null","","","null","53","NaN","","","","","","","","","","","","","","",""
"","S2","","html-keyboard-response","351","466067","0.0-1.0-481.0","0","0","82516","","null","","","null","53","","NaN","","","","","","","","","","","","","",""
"","response","","html-keyboard-response","352","466437","0.0-1.0-482.0-0.0","0","0","82516","","368","","","75","53","","","2","53","training","adjacent","ED","5","4","N.jpg","L.jpg","0","0","1","",""
"","feedback","","html-keyboard-response","353","467440","0.0-1.0-483.0-0.0","0","0","82516","","null","","","null","53","","","","","","","","","","","","","","","",""
"","ITI","","html-keyboard-response","354","468442","0.0-1.0-486.0","0","0","82516","","null","","","null","53","","","","","","","","","","","","","","","NaN",""
"","S1","","html-keyboard-response","355","468693","0.0-1.0-488.0","0","0","82516","","null","","","null","54","","","","","","","","","","","","","","","",""
"","ISI","","html-keyboard-response","356","470695","0.0-1.0-489.0","0","0","82516","","null","","","null","54","NaN","","","","","","","","","","","","","","",""
"","S2","","html-keyboard-response","357","470947","0.0-1.0-490.0","0","0","82516","","null","","","null","54","","NaN","","","","","","","","","","","","","",""
"","response","","html-keyboard-response","358","472070","0.0-1.0-491.0-0.0","0","0","82516","","1121","","","68","54","","","2","54","training","adjacent","FE","6","5","O.jpg","N.jpg","1","0","0","",""
"","feedback","","html-keyboard-response","359","473072","0.0-1.0-492.0-0.0","0","0","82516","","null","","","null","54","","","","","","","","","","","","","","","",""
"","time_out","","html-keyboard-response","360","475075","0.0-1.0-494.0-0.0","0","0","82516","","null","","","null","54","","","","","","","","","","","","","","","",""
"","ITI","","html-keyboard-response","361","476077","0.0-1.0-495.0","0","0","82516","","null","","","null","54","","","","","","","","","","","","","","","NaN",""
"","S1","","html-keyboard-response","362","476330","0.0-1.0-497.0","0","0","82516","","null","","","null","55","","","","","","","","","","","","","","","",""
"","ISI","","html-keyboard-response","363","478332","0.0-1.0-498.0","0","0","82516","","null","","","null","55","NaN","","","","","","","","","","","","","","",""
"","S2","","html-keyboard-response","364","478584","0.0-1.0-499.0","0","0","82516","","null","","","null","55","","NaN","","","","","","","","","","","","","",""
"","response","","html-keyboard-response","365","478973","0.0-1.0-500.0-0.0","0","0","82516","","388","","","68","55","","","2","55","training","adjacent","FE","6","5","O.jpg","N.jpg","1","0","0","",""
"","feedback","","html-keyboard-response","366","479975","0.0-1.0-501.0-0.0","0","0","82516","","null","","","null","55","","","","","","","","","","","","","","","",""
"","time_out","","html-keyboard-response","367","481977","0.0-1.0-503.0-0.0","0","0","82516","","null","","","null","55","","","","","","","","","","","","","","","",""
"","ITI","","html-keyboard-response","368","482979","0.0-1.0-504.0","0","0","82516","","null","","","null","55","","","","","","","","","","","","","","","NaN",""
"","S1","","html-keyboard-response","369","483231","0.0-1.0-506.0","0","0","82516","","null","","","null","56","","","","","","","","","","","","","","","",""
"","ISI","","html-keyboard-response","370","485233","0.0-1.0-507.0","0","0","82516","","null","","","null","56","NaN","","","","","","","","","","","","","","",""
"","S2","","html-keyboard-response","371","485486","0.0-1.0-508.0","0","0","82516","","null","","","null","56","","NaN","","","","","","","","","","","","","",""
"","response","","html-keyboard-response","372","487094","0.0-1.0-509.0-0.0","0","0","82516","","1607","","","75","56","","","2","56","training","adjacent","BC","2","3","Q.jpg","P.jpg","0","1","0","",""
"","feedback","","html-keyboard-response","373","488096","0.0-1.0-510.0-0.0","0","0","82516","","null","","","null","56","","","","","","","","","","","","","","","",""
"","time_out","","html-keyboard-response","374","490098","0.0-1.0-512.0-0.0","0","0","82516","","null","","","null","56","","","","","","","","","","","","","","","",""
"","ITI","","html-keyboard-response","375","491101","0.0-1.0-513.0","0","0","82516","","null","","","null","56","","","","","","","","","","","","","","","NaN",""
"","S1","","html-keyboard-response","376","491353","0.0-1.0-515.0","0","0","82516","","null","","","null","57","","","","","","","","","","","","","","","",""
"","ISI","","html-keyboard-response","377","493355","0.0-1.0-516.0","0","0","82516","","null","","","null","57","NaN","","","","","","","","","","","","","","",""
"","S2","","html-keyboard-response","378","493607","0.0-1.0-517.0","0","0","82516","","null","","","null","57","","NaN","","","","","","","","","","","","","",""
"","response","","html-keyboard-response","379","493701","0.0-1.0-518.0-0.0","0","0","82516","","93","","","68","57","","","2","57","training","adjacent","BA","2","1","Q.jpg","R.jpg","1","0","0","",""
"","feedback","","html-keyboard-response","380","494704","0.0-1.0-519.0-0.0","0","0","82516","","null","","","null","57","","","","","","","","","","","","","","","",""
"","time_out","","html-keyboard-response","381","497466","0.0-1.0-521.0-0.0","0","0","82516","","null","","","null","57","","","","","","","","","","","","","","","",""
"","ITI","","html-keyboard-response","382","498469","0.0-1.0-522.0","0","0","82516","","null","","","null","57","","","","","","","","","","","","","","","NaN",""
"","S1","","html-keyboard-response","383","499467","0.0-1.0-524.0","0","0","82516","","null","","","null","58","","","","","","","","","","","","","","","",""
"","ISI","","html-keyboard-response","384","501469","0.0-1.0-525.0","0","0","82516","","null","","","null","58","NaN","","","","","","","","","","","","","","",""
"","S2","","html-keyboard-response","385","502466","0.0-1.0-526.0","0","0","82516","","null","","","null","58","","NaN","","","","","","","","","","","","","",""
"","response","","html-keyboard-response","386","503454","0.0-1.0-527.0-0.0","0","0","82516","","987","","","68","58","","","2","58","training","adjacent","BA","2","1","Q.jpg","R.jpg","1","0","0","",""
"","feedback","","html-keyboard-response","387","504457","0.0-1.0-528.0-0.0","0","0","82516","","null","","","null","58","","","","","","","","","","","","","","","",""
"","time_out","","html-keyboard-response","388","506459","0.0-1.0-530.0-0.0","0","0","82516","","null","","","null","58","","","","","","","","","","","","","","","",""
"","ITI","","html-keyboard-response","389","507461","0.0-1.0-531.0","0","0","82516","","null","","","null","58","","","","","","","","","","","","","","","NaN",""
"","S1","","html-keyboard-response","390","507713","0.0-1.0-533.0","0","0","82516","","null","","","null","59","","","","","","","","","","","","","","","",""
"","ISI","","html-keyboard-response","391","509715","0.0-1.0-534.0","0","0","82516","","null","","","null","59","NaN","","","","","","","","","","","","","","",""
"","S2","","html-keyboard-response","392","509968","0.0-1.0-535.0","0","0","82516","","null","","","null","59","","NaN","","","","","","","","","","","","","",""
"","response","","html-keyboard-response","393","510294","0.0-1.0-536.0-0.0","0","0","82516","","325","","","68","59","","","2","59","training","adjacent","FG","6","7","O.jpg","M.jpg","1","1","1","",""
"","feedback","","html-keyboard-response","394","511297","0.0-1.0-537.0-0.0","0","0","82516","","null","","","null","59","","","","","","","","","","","","","","","",""
"","ITI","","html-keyboard-response","395","512299","0.0-1.0-540.0","0","0","82516","","null","","","null","59","","","","","","","","","","","","","","","NaN",""
"","S1","","html-keyboard-response","396","512550","0.0-1.0-542.0","0","0","82516","","null","","","null","60","","","","","","","","","","","","","","","",""
"","ISI","","html-keyboard-response","397","514552","0.0-1.0-543.0","0","0","82516","","null","","","null","60","NaN","","","","","","","","","","","","","","",""
"","S2","","html-keyboard-response","398","514804","0.0-1.0-544.0","0","0","82516","","null","","","null","60","","NaN","","","","","","","","","","","","","",""
"","response","","html-keyboard-response","399","515046","0.0-1.0-545.0-0.0","0","0","82516","","240","","","75","60","","","2","60","training","adjacent","CD","3","4","P.jpg","L.jpg","0","1","0","",""
"","feedback","","html-keyboard-response","400","516048","0.0-1.0-546.0-0.0","0","0","82516","","null","","","null","60","","","","","","","","","","","","","","","",""
"","time_out","","html-keyboard-response","401","518050","0.0-1.0-548.0-0.0","0","0","82516","","null","","","null","60","","","","","","","","","","","","","","","",""
"","ITI","","html-keyboard-response","402","519052","0.0-1.0-549.0","0","0","82516","","null","","","null","60","","","","","","","","","","","","","","","NaN",""
"","S1","","html-keyboard-response","403","519303","0.0-1.0-551.0","0","0","82516","","null","","","null","61","","","","","","","","","","","","","","","",""
"","ISI","","html-keyboard-response","404","521305","0.0-1.0-552.0","0","0","82516","","null","","","null","61","NaN","","","","","","","","","","","","","","",""
"","S2","","html-keyboard-response","405","521558","0.0-1.0-553.0","0","0","82516","","null","","","null","61","","NaN","","","","","","","","","","","","","",""
"","response","","html-keyboard-response","406","523278","0.0-1.0-554.0-0.0","0","0","82516","","1719","","","68","61","","","2","61","training","adjacent","CB","3","2","P.jpg","Q.jpg","1","0","0","",""
"","feedback","","html-keyboard-response","407","524281","0.0-1.0-555.0-0.0","0","0","82516","","null","","","null","61","","","","","","","","","","","","","","","",""
"","time_out","","html-keyboard-response","408","526283","0.0-1.0-557.0-0.0","0","0","82516","","null","","","null","61","","","","","","","","","","","","","","","",""
"","ITI","","html-keyboard-response","409","527285","0.0-1.0-558.0","0","0","82516","","null","","","null","61","","","","","","","","","","","","","","","NaN",""
"","S1","","html-keyboard-response","410","527537","0.0-1.0-560.0","0","0","82516","","null","","","null","62","","","","","","","","","","","","","","","",""
"","ISI","","html-keyboard-response","411","529538","0.0-1.0-561.0","0","0","82516","","null","","","null","62","NaN","","","","","","","","","","","","","","",""
"","S2","","html-keyboard-response","412","529790","0.0-1.0-562.0","0","0","82516","","null","","","null","62","","NaN","","","","","","","","","","","","","",""
"","response","","html-keyboard-response","413","530446","0.0-1.0-563.0-0.0","0","0","82516","","655","","","75","62","","","2","62","training","adjacent","ED","5","4","N.jpg","L.jpg","0","0","1","",""
"","feedback","","html-keyboard-response","414","531449","0.0-1.0-564.0-0.0","0","0","82516","","null","","","null","62","","","","","","","","","","","","","","","",""
"","ITI","","html-keyboard-response","415","532450","0.0-1.0-567.0","0","0","82516","","null","","","null","62","","","","","","","","","","","","","","","NaN",""
"","S1","","html-keyboard-response","416","532702","0.0-1.0-569.0","0","0","82516","","null","","","null","63","","","","","","","","","","","","","","","",""
"","ISI","","html-keyboard-response","417","534704","0.0-1.0-570.0","0","0","82516","","null","","","null","63","NaN","","","","","","","","","","","","","","",""
"","S2","","html-keyboard-response","418","534967","0.0-1.0-571.0","0","0","82516","","null","","","null","63","","NaN","","","","","","","","","","","","","",""
"","response","","html-keyboard-response","419","535734","0.0-1.0-572.0-0.0","0","0","82516","","765","","","68","63","","","2","63","training","adjacent","CB","3","2","P.jpg","Q.jpg","1","0","0","",""
"","feedback","","html-keyboard-response","420","536737","0.0-1.0-573.0-0.0","0","0","82516","","null","","","null","63","","","","","","","","","","","","","","","",""
"","time_out","","html-keyboard-response","421","538740","0.0-1.0-575.0-0.0","0","0","82516","","null","","","null","63","","","","","","","","","","","","","","","",""
"","ITI","","html-keyboard-response","422","539741","0.0-1.0-576.0","0","0","82516","","null","","","null","63","","","","","","","","","","","","","","","NaN",""
"","S1","","html-keyboard-response","423","539993","0.0-1.0-578.0","0","0","82516","","null","","","null","64","","","","","","","","","","","","","","","",""
"","ISI","","html-keyboard-response","424","541995","0.0-1.0-579.0","0","0","82516","","null","","","null","64","NaN","","","","","","","","","","","","","","",""
"","S2","","html-keyboard-response","425","542248","0.0-1.0-580.0","0","0","82516","","null","","","null","64","","NaN","","","","","","","","","","","","","",""
"","response","","html-keyboard-response","426","543518","0.0-1.0-581.0-0.0","0","0","82516","","1269","","","75","64","","","2","64","training","adjacent","GF","7","6","M.jpg","O.jpg","0","0","1","",""
"","feedback","","html-keyboard-response","427","544519","0.0-1.0-582.0-0.0","0","0","82516","","null","","","null","64","","","","","","","","","","","","","","","",""
"","ITI","","html-keyboard-response","428","545522","0.0-1.0-585.0","0","0","82516","","null","","","null","64","","","","","","","","","","","","","","","NaN",""
"","S1","","html-keyboard-response","429","545774","0.0-1.0-587.0","0","0","82516","","null","","","null","65","","","","","","","","","","","","","","","",""
"","ISI","","html-keyboard-response","430","547776","0.0-1.0-588.0","0","0","82516","","null","","","null","65","NaN","","","","","","","","","","","","","","",""
"","S2","","html-keyboard-response","431","548028","0.0-1.0-589.0","0","0","82516","","null","","","null","65","","NaN","","","","","","","","","","","","","",""
"","response","","html-keyboard-response","432","548518","0.0-1.0-590.0-0.0","0","0","82516","","488","","","75","65","","","2","65","training","adjacent","BC","2","3","Q.jpg","P.jpg","0","1","0","",""
"","feedback","","html-keyboard-response","433","549521","0.0-1.0-591.0-0.0","0","0","82516","","null","","","null","65","","","","","","","","","","","","","","","",""
"","time_out","","html-keyboard-response","434","551523","0.0-1.0-593.0-0.0","0","0","82516","","null","","","null","65","","","","","","","","","","","","","","","",""
"","ITI","","html-keyboard-response","435","552525","0.0-1.0-594.0","0","0","82516","","null","","","null","65","","","","","","","","","","","","","","","NaN",""
"","S1","","html-keyboard-response","436","552777","0.0-1.0-596.0","0","0","82516","","null","","","null","66","","","","","","","","","","","","","","","",""
"","ISI","","html-keyboard-response","437","554778","0.0-1.0-597.0","0","0","82516","","null","","","null","66","NaN","","","","","","","","","","","","","","",""
"","S2","","html-keyboard-response","438","555031","0.0-1.0-598.0","0","0","82516","","null","","","null","66","","NaN","","","","","","","","","","","","","",""
"","response","","html-keyboard-response","439","555262","0.0-1.0-599.0-0.0","0","0","82516","","230","","","68","66","","","2","66","training","adjacent","EF","5","6","N.jpg","O.jpg","1","1","1","",""
"","feedback","","html-keyboard-response","440","556264","0.0-1.0-600.0-0.0","0","0","82516","","null","","","null","66","","","","","","","","","","","","","","","",""
"","ITI","","html-keyboard-response","441","557267","0.0-1.0-603.0","0","0","82516","","null","","","null","66","","","","","","","","","","","","","","","NaN",""
"","S1","","html-keyboard-response","442","557519","0.0-1.0-605.0","0","0","82516","","null","","","null","67","","","","","","","","","","","","","","","",""
"","ISI","","html-keyboard-response","443","559521","0.0-1.0-606.0","0","0","82516","","null","","","null","67","NaN","","","","","","","","","","","","","","",""
"","S2","","html-keyboard-response","444","559773","0.0-1.0-607.0","0","0","82516","","null","","","null","67","","NaN","","","","","","","","","","","","","",""
"","response","","html-keyboard-response","445","561526","0.0-1.0-608.0-0.0","0","0","82516","","null","","","null","67","","","2","67","training","adjacent","EF","5","6","N.jpg","O.jpg","NaN","1","0","",""
"","too_slow_prompt","","html-keyboard-response","446","562528","0.0-1.0-610.0-0.0","1","0","82516","","null","","","null","","","","","","","","","","","","","","","","",""
"","time_out","","html-keyboard-response","447","564530","0.0-1.0-611.0-0.0","0","0","82516","","null","","","null","67","","","","","","","","","","","","","","","",""
"","ITI","","html-keyboard-response","448","565532","0.0-1.0-612.0","0","0","82516","","null","","","null","67","","","","","","","","","","","","","","","NaN",""
"","S1","","html-keyboard-response","449","565784","0.0-1.0-614.0","0","0","82516","","null","","","null","68","","","","","","","","","","","","","","","",""
"","ISI","","html-keyboard-response","450","567786","0.0-1.0-615.0","0","0","82516","","141","","","75","68","k","","","","","","","","","","","","","","",""
"","S2","","html-keyboard-response","451","568039","0.0-1.0-616.0","0","0","82516","","null","","","null","68","","NaN","","","","","","","","","","","","","",""
"","response","","html-keyboard-response","452","568542","0.0-1.0-617.0-0.0","0","0","82516","","502","","","68","68","","","2","68","training","adjacent","FG","6","7","O.jpg","M.jpg","1","1","1","",""
"","feedback","","html-keyboard-response","453","569545","0.0-1.0-618.0-0.0","0","0","82516","","null","","","null","68","","","","","","","","","","","","","","","",""
"","ITI","","html-keyboard-response","454","570548","0.0-1.0-621.0","0","0","82516","","null","","","null","68","","","","","","","","","","","","","","","NaN",""
"","S1","","html-keyboard-response","455","570800","0.0-1.0-623.0","0","0","82516","","null","","","null","69","","","","","","","","","","","","","","","",""
"","ISI","","html-keyboard-response","456","572802","0.0-1.0-624.0","0","0","82516","","null","","","null","69","NaN","","","","","","","","","","","","","","",""
"","S2","","html-keyboard-response","457","573054","0.0-1.0-625.0","0","0","82516","","null","","","null","69","","NaN","","","","","","","","","","","","","",""
"","response","","html-keyboard-response","458","573342","0.0-1.0-626.0-0.0","0","0","82516","","286","","","68","69","","","2","69","training","adjacent","DC","4","3","L.jpg","P.jpg","1","0","0","",""
"","feedback","","html-keyboard-response","459","574343","0.0-1.0-627.0-0.0","0","0","82516","","null","","","null","69","","","","","","","","","","","","","","","",""
"","time_out","","html-keyboard-response","460","576345","0.0-1.0-629.0-0.0","0","0","82516","","null","","","null","69","","","","","","","","","","","","","","","",""
"","ITI","","html-keyboard-response","461","577346","0.0-1.0-630.0","0","0","82516","","null","","","null","69","","","","","","","","","","","","","","","NaN",""
"","S1","","html-keyboard-response","462","577598","0.0-1.0-632.0","0","0","82516","","null","","","null","70","","","","","","","","","","","","","","","",""
"","ISI","","html-keyboard-response","463","579600","0.0-1.0-633.0","0","0","82516","","null","","","null","70","NaN","","","","","","","","","","","","","","",""
"","S2","","html-keyboard-response","464","579851","0.0-1.0-634.0","0","0","82516","","null","","","null","70","","NaN","","","","","","","","","","","","","",""
"","response","","html-keyboard-response","465","580382","0.0-1.0-635.0-0.0","0","0","82516","","530","","","75","70","","","2","70","training","adjacent","BA","2","1","Q.jpg","R.jpg","0","0","1","",""
"","feedback","","html-keyboard-response","466","581385","0.0-1.0-636.0-0.0","0","0","82516","","null","","","null","70","","","","","","","","","","","","","","","",""
"","ITI","","html-keyboard-response","467","582387","0.0-1.0-639.0","0","0","82516","","null","","","null","70","","","","","","","","","","","","","","","NaN",""
"","S1","","html-keyboard-response","468","582639","0.0-1.0-641.0","0","0","82516","","null","","","null","71","","","","","","","","","","","","","","","",""
"","ISI","","html-keyboard-response","469","584640","0.0-1.0-642.0","0","0","82516","","null","","","null","71","NaN","","","","","","","","","","","","","","",""
"","S2","","html-keyboard-response","470","584892","0.0-1.0-643.0","0","0","82516","","null","","","null","71","","NaN","","","","","","","","","","","","","",""
"","response","","html-keyboard-response","471","585366","0.0-1.0-644.0-0.0","0","0","82516","","473","","","68","71","","","2","71","training","adjacent","DE","4","5","L.jpg","N.jpg","1","1","1","",""
"","feedback","","html-keyboard-response","472","586367","0.0-1.0-645.0-0.0","0","0","82516","","null","","","null","71","","","","","","","","","","","","","","","",""
"","ITI","","html-keyboard-response","473","587369","0.0-1.0-648.0","0","0","82516","","null","","","null","71","","","","","","","","","","","","","","","NaN",""
"","S1","","html-keyboard-response","474","587622","0.0-1.0-650.0","0","0","82516","","null","","","null","72","","","","","","","","","","","","","","","",""
"","ISI","","html-keyboard-response","475","589624","0.0-1.0-651.0","0","0","82516","","null","","","null","72","NaN","","","","","","","","","","","","","","",""
"","S2","","html-keyboard-response","476","589876","0.0-1.0-652.0","0","0","82516","","null","","","null","72","","NaN","","","","","","","","","","","","","",""
"","response","","html-keyboard-response","477","590493","0.0-1.0-653.0-0.0","0","0","82516","","615","","","75","72","","","2","72","training","adjacent","DC","4","3","L.jpg","P.jpg","0","0","1","",""
"","feedback","","html-keyboard-response","478","591497","0.0-1.0-654.0-0.0","0","0","82516","","null","","","null","72","","","","","","","","","","","","","","","",""
"","ITI","","html-keyboard-response","479","592498","0.0-1.0-657.0","0","0","82516","","null","","","null","72","","","","","","","","","","","","","","","NaN",""
"","S1","","html-keyboard-response","480","592750","0.0-1.0-659.0","0","0","82516","","null","","","null","73","","","","","","","","","","","","","","","",""
"","ISI","","html-keyboard-response","481","594752","0.0-1.0-660.0","0","0","82516","","null","","","null","73","NaN","","","","","","","","","","","","","","",""
"","S2","","html-keyboard-response","482","595004","0.0-1.0-661.0","0","0","82516","","null","","","null","73","","NaN","","","","","","","","","","","","","",""
"","response","","html-keyboard-response","483","596013","0.0-1.0-662.0-0.0","0","0","82516","","1008","","","68","73","","","2","73","training","adjacent","CD","3","4","P.jpg","L.jpg","1","1","1","",""
"","feedback","","html-keyboard-response","484","597015","0.0-1.0-663.0-0.0","0","0","82516","","null","","","null","73","","","","","","","","","","","","","","","",""
"","ITI","","html-keyboard-response","485","598018","0.0-1.0-666.0","0","0","82516","","null","","","null","73","","","","","","","","","","","","","","","NaN",""
"","S1","","html-keyboard-response","486","598271","0.0-1.0-668.0","0","0","82516","","null","","","null","74","","","","","","","","","","","","","","","",""
"","ISI","","html-keyboard-response","487","600272","0.0-1.0-669.0","0","0","82516","","null","","","null","74","NaN","","","","","","","","","","","","","","",""
"","S2","","html-keyboard-response","488","600524","0.0-1.0-670.0","0","0","82516","","null","","","null","74","","NaN","","","","","","","","","","","","","",""
"","response","","html-keyboard-response","489","600838","0.0-1.0-671.0-0.0","0","0","82516","","312","","","75","74","","","2","74","training","adjacent","EF","5","6","N.jpg","O.jpg","0","1","0","",""
"","feedback","","html-keyboard-response","490","601840","0.0-1.0-672.0-0.0","0","0","82516","","null","","","null","74","","","","","","","","","","","","","","","",""
"","time_out","","html-keyboard-response","491","603843","0.0-1.0-674.0-0.0","0","0","82516","","null","","","null","74","","","","","","","","","","","","","","","",""
"","ITI","","html-keyboard-response","492","604844","0.0-1.0-675.0","0","0","82516","","null","","","null","74","","","","","","","","","","","","","","","NaN",""
"","S1","","html-keyboard-response","493","605097","0.0-1.0-677.0","0","0","82516","","null","","","null","75","","","","","","","","","","","","","","","",""
"","ISI","","html-keyboard-response","494","607098","0.0-1.0-678.0","0","0","82516","","null","","","null","75","NaN","","","","","","","","","","","","","","",""
"","S2","","html-keyboard-response","495","607350","0.0-1.0-679.0","0","0","82516","","null","","","null","75","","NaN","","","","","","","","","","","","","",""
"","response","","html-keyboard-response","496","607638","0.0-1.0-680.0-0.0","0","0","82516","","287","","","68","75","","","2","75","training","adjacent","BA","2","1","Q.jpg","R.jpg","1","0","0","",""
"","feedback","","html-keyboard-response","497","608640","0.0-1.0-681.0-0.0","0","0","82516","","null","","","null","75","","","","","","","","","","","","","","","",""
"","time_out","","html-keyboard-response","498","610641","0.0-1.0-683.0-0.0","0","0","82516","","null","","","null","75","","","","","","","","","","","","","","","",""
"","ITI","","html-keyboard-response","499","611643","0.0-1.0-684.0","0","0","82516","","null","","","null","75","","","","","","","","","","","","","","","NaN",""
"","S1","","html-keyboard-response","500","611896","0.0-1.0-686.0","0","0","82516","","null","","","null","76","","","","","","","","","","","","","","","",""
"","ISI","","html-keyboard-response","501","613898","0.0-1.0-687.0","0","0","82516","","485","","","75","76","k","","","","","","","","","","","","","","",""
"","S2","","html-keyboard-response","502","614150","0.0-1.0-688.0","0","0","82516","","null","","","null","76","","NaN","","","","","","","","","","","","","",""
"","response","","html-keyboard-response","503","614237","0.0-1.0-689.0-0.0","0","0","82516","","87","","","75","76","","","2","76","training","adjacent","AB","1","2","R.jpg","Q.jpg","0","1","0","",""
"","feedback","","html-keyboard-response","504","615240","0.0-1.0-690.0-0.0","0","0","82516","","null","","","null","76","","","","","","","","","","","","","","","",""
"","time_out","","html-keyboard-response","505","617242","0.0-1.0-692.0-0.0","0","0","82516","","null","","","null","76","","","","","","","","","","","","","","","",""
"","ITI","","html-keyboard-response","506","618246","0.0-1.0-693.0","0","0","82516","","null","","","null","76","","","","","","","","","","","","","","","NaN",""
"","S1","","html-keyboard-response","507","618497","0.0-1.0-695.0","0","0","82516","","null","","","null","77","","","","","","","","","","","","","","","",""
"","ISI","","html-keyboard-response","508","620499","0.0-1.0-696.0","0","0","82516","","null","","","null","77","NaN","","","","","","","","","","","","","","",""
"","S2","","html-keyboard-response","509","620751","0.0-1.0-697.0","0","0","82516","","null","","","null","77","","NaN","","","","","","","","","","","","","",""
"","response","","html-keyboard-response","510","621317","0.0-1.0-698.0-0.0","0","0","82516","","566","","","75","77","","","2","77","training","adjacent","AB","1","2","R.jpg","Q.jpg","0","1","0","",""
"","feedback","","html-keyboard-response","511","622320","0.0-1.0-699.0-0.0","0","0","82516","","null","","","null","77","","","","","","","","","","","","","","","",""
"","time_out","","html-keyboard-response","512","624322","0.0-1.0-701.0-0.0","0","0","82516","","null","","","null","77","","","","","","","","","","","","","","","",""
"","ITI","","html-keyboard-response","513","625324","0.0-1.0-702.0","0","0","82516","","null","","","null","77","","","","","","","","","","","","","","","NaN",""
"","S1","","html-keyboard-response","514","625576","0.0-1.0-704.0","0","0","82516","","null","","","null","78","","","","","","","","","","","","","","","",""
"","ISI","","html-keyboard-response","515","627578","0.0-1.0-705.0","0","0","82516","","null","","","null","78","NaN","","","","","","","","","","","","","","",""
"","S2","","html-keyboard-response","516","627830","0.0-1.0-706.0","0","0","82516","","null","","","null","78","","NaN","","","","","","","","","","","","","",""
"","response","","html-keyboard-response","517","627934","0.0-1.0-707.0-0.0","0","0","82516","","103","","","68","78","","","2","78","training","adjacent","ED","5","4","N.jpg","L.jpg","1","0","0","",""
"","feedback","","html-keyboard-response","518","628937","0.0-1.0-708.0-0.0","0","0","82516","","null","","","null","78","","","","","","","","","","","","","","","",""
"","time_out","","html-keyboard-response","519","630939","0.0-1.0-710.0-0.0","0","0","82516","","null","","","null","78","","","","","","","","","","","","","","","",""
"","ITI","","html-keyboard-response","520","631941","0.0-1.0-711.0","0","0","82516","","null","","","null","78","","","","","","","","","","","","","","","NaN",""
"","S1","","html-keyboard-response","521","632194","0.0-1.0-713.0","0","0","82516","","null","","","null","79","","","","","","","","","","","","","","","",""
"","ISI","","html-keyboard-response","522","634196","0.0-1.0-714.0","0","0","82516","","null","","","null","79","NaN","","","","","","","","","","","","","","",""
"","S2","","html-keyboard-response","523","634449","0.0-1.0-715.0","0","0","82516","","null","","","null","79","","NaN","","","","","","","","","","","","","",""
"","response","","html-keyboard-response","524","635142","0.0-1.0-716.0-0.0","0","0","82516","","692","","","68","79","","","2","79","training","adjacent","GF","7","6","M.jpg","O.jpg","1","0","0","",""
"","feedback","","html-keyboard-response","525","636145","0.0-1.0-717.0-0.0","0","0","82516","","null","","","null","79","","","","","","","","","","","","","","","",""
"","time_out","","html-keyboard-response","526","638147","0.0-1.0-719.0-0.0","0","0","82516","","null","","","null","79","","","","","","","","","","","","","","","",""
"","ITI","","html-keyboard-response","527","639149","0.0-1.0-720.0","0","0","82516","","null","","","null","79","","","","","","","","","","","","","","","NaN",""
"","S1","","html-keyboard-response","528","639402","0.0-1.0-722.0","0","0","82516","","null","","","null","80","","","","","","","","","","","","","","","",""
"","ISI","","html-keyboard-response","529","641404","0.0-1.0-723.0","0","0","82516","","null","","","null","80","NaN","","","","","","","","","","","","","","",""
"","S2","","html-keyboard-response","530","641661","0.0-1.0-724.0","0","0","82516","","null","","","null","80","","NaN","","","","","","","","","","","","","",""
"","response","","html-keyboard-response","531","641742","0.0-1.0-725.0-0.0","0","0","82516","","79","","","75","80","","","2","80","training","adjacent","EF","5","6","N.jpg","O.jpg","0","1","0","",""
"","feedback","","html-keyboard-response","532","642745","0.0-1.0-726.0-0.0","0","0","82516","","null","","","null","80","","","","","","","","","","","","","","","",""
"","time_out","","html-keyboard-response","533","644747","0.0-1.0-728.0-0.0","0","0","82516","","null","","","null","80","","","","","","","","","","","","","","","",""
"","ITI","","html-keyboard-response","534","645749","0.0-1.0-729.0","0","0","82516","","null","","","null","80","","","","","","","","","","","","","","","NaN",""
"","S1","","html-keyboard-response","535","646001","0.0-1.0-731.0","0","0","82516","","null","","","null","81","","","","","","","","","","","","","","","",""
"","ISI","","html-keyboard-response","536","648003","0.0-1.0-732.0","0","0","82516","","null","","","null","81","NaN","","","","","","","","","","","","","","",""
"","S2","","html-keyboard-response","537","648269","0.0-1.0-733.0","0","0","82516","","null","","","null","81","","NaN","","","","","","","","","","","","","",""
"","response","","html-keyboard-response","538","648566","0.0-1.0-734.0-0.0","0","0","82516","","295","","","68","81","","","2","81","training","adjacent","FG","6","7","O.jpg","M.jpg","1","1","1","",""
"","feedback","","html-keyboard-response","539","649569","0.0-1.0-735.0-0.0","0","0","82516","","null","","","null","81","","","","","","","","","","","","","","","",""
"","ITI","","html-keyboard-response","540","650570","0.0-1.0-738.0","0","0","82516","","null","","","null","81","","","","","","","","","","","","","","","NaN",""
"","S1","","html-keyboard-response","541","650823","0.0-1.0-740.0","0","0","82516","","null","","","null","82","","","","","","","","","","","","","","","",""
"","ISI","","html-keyboard-response","542","652825","0.0-1.0-741.0","0","0","82516","","null","","","null","82","NaN","","","","","","","","","","","","","","",""
"","S2","","html-keyboard-response","543","653077","0.0-1.0-742.0","0","0","82516","","null","","","null","82","","NaN","","","","","","","","","","","","","",""
"","response","","html-keyboard-response","544","653518","0.0-1.0-743.0-0.0","0","0","82516","","439","","","75","82","","","2","82","training","adjacent","DC","4","3","L.jpg","P.jpg","0","0","1","",""
"","feedback","","html-keyboard-response","545","654521","0.0-1.0-744.0-0.0","0","0","82516","","null","","","null","82","","","","","","","","","","","","","","","",""
"","ITI","","html-keyboard-response","546","655523","0.0-1.0-747.0","0","0","82516","","null","","","null","82","","","","","","","","","","","","","","","NaN",""
"","S1","","html-keyboard-response","547","655776","0.0-1.0-749.0","0","0","82516","","null","","","null","83","","","","","","","","","","","","","","","",""
"","ISI","","html-keyboard-response","548","657778","0.0-1.0-750.0","0","0","82516","","null","","","null","83","NaN","","","","","","","","","","","","","","",""
"","S2","","html-keyboard-response","549","658030","0.0-1.0-751.0","0","0","82516","","null","","","null","83","","NaN","","","","","","","","","","","","","",""
"","response","","html-keyboard-response","550","658110","0.0-1.0-752.0-0.0","0","0","82516","","78","","","75","83","","","2","83","training","adjacent","CD","3","4","P.jpg","L.jpg","0","1","0","",""
"","feedback","","html-keyboard-response","551","659112","0.0-1.0-753.0-0.0","0","0","82516","","null","","","null","83","","","","","","","","","","","","","","","",""
"","time_out","","html-keyboard-response","552","661115","0.0-1.0-755.0-0.0","0","0","82516","","null","","","null","83","","","","","","","","","","","","","","","",""
"","ITI","","html-keyboard-response","553","662117","0.0-1.0-756.0","0","0","82516","","null","","","null","83","","","","","","","","","","","","","","","NaN",""
"","S1","","html-keyboard-response","554","662369","0.0-1.0-758.0","0","0","82516","","null","","","null","84","","","","","","","","","","","","","","","",""
"","ISI","","html-keyboard-response","555","664370","0.0-1.0-759.0","0","0","82516","","null","","","null","84","NaN","","","","","","","","","","","","","","",""
"","S2","","html-keyboard-response","556","664623","0.0-1.0-760.0","0","0","82516","","null","","","null","84","","NaN","","","","","","","","","","","","","",""
"","response","","html-keyboard-response","557","664806","0.0-1.0-761.0-0.0","0","0","82516","","182","","","68","84","","","2","84","training","adjacent","CD","3","4","P.jpg","L.jpg","1","1","1","",""
"","feedback","","html-keyboard-response","558","665809","0.0-1.0-762.0-0.0","0","0","82516","","null","","","null","84","","","","","","","","","","","","","","","",""
"","ITI","","html-keyboard-response","559","666811","0.0-1.0-765.0","0","0","82516","","null","","","null","84","","","","","","","","","","","","","","","NaN",""
"","S1","","html-keyboard-response","560","667063","0.0-1.0-767.0","0","0","82516","","null","","","null","85","","","","","","","","","","","","","","","",""
"","ISI","","html-keyboard-response","561","669065","0.0-1.0-768.0","0","0","82516","","null","","","null","85","NaN","","","","","","","","","","","","","","",""
"","S2","","html-keyboard-response","562","669317","0.0-1.0-769.0","0","0","82516","","null","","","null","85","","NaN","","","","","","","","","","","","","",""
"","response","","html-keyboard-response","563","669614","0.0-1.0-770.0-0.0","0","0","82516","","296","","","68","85","","","2","85","training","adjacent","FE","6","5","O.jpg","N.jpg","1","0","0","",""
"","feedback","","html-keyboard-response","564","670617","0.0-1.0-771.0-0.0","0","0","82516","","null","","","null","85","","","","","","","","","","","","","","","",""
"","time_out","","html-keyboard-response","565","672618","0.0-1.0-773.0-0.0","0","0","82516","","null","","","null","85","","","","","","","","","","","","","","","",""
"","ITI","","html-keyboard-response","566","673620","0.0-1.0-774.0","0","0","82516","","null","","","null","85","","","","","","","","","","","","","","","NaN",""
"","S1","","html-keyboard-response","567","673872","0.0-1.0-776.0","0","0","82516","","null","","","null","86","","","","","","","","","","","","","","","",""
"","ISI","","html-keyboard-response","568","675874","0.0-1.0-777.0","0","0","82516","","300","","","75","86","k","","","","","","","","","","","","","","",""
"","S2","","html-keyboard-response","569","676126","0.0-1.0-778.0","0","0","82516","","null","","","null","86","","NaN","","","","","","","","","","","","","",""
"","response","","html-keyboard-response","570","676254","0.0-1.0-779.0-0.0","0","0","82516","","127","","","68","86","","","2","86","training","adjacent","CB","3","2","P.jpg","Q.jpg","1","0","0","",""
"","feedback","","html-keyboard-response","571","677257","0.0-1.0-780.0-0.0","0","0","82516","","null","","","null","86","","","","","","","","","","","","","","","",""
"","time_out","","html-keyboard-response","572","679259","0.0-1.0-782.0-0.0","0","0","82516","","null","","","null","86","","","","","","","","","","","","","","","",""
"","ITI","","html-keyboard-response","573","680261","0.0-1.0-783.0","0","0","82516","","null","","","null","86","","","","","","","","","","","","","","","NaN",""
"","S1","","html-keyboard-response","574","680514","0.0-1.0-785.0","0","0","82516","","null","","","null","87","","","","","","","","","","","","","","","",""
"","ISI","","html-keyboard-response","575","682515","0.0-1.0-786.0","0","0","82516","","null","","","null","87","NaN","","","","","","","","","","","","","","",""
"","S2","","html-keyboard-response","576","682767","0.0-1.0-787.0","0","0","82516","","null","","","null","87","","NaN","","","","","","","","","","","","","",""
"","response","","html-keyboard-response","577","682774","0.0-1.0-788.0-0.0","0","0","82516","","6","","","75","87","","","2","87","training","adjacent","BC","2","3","Q.jpg","P.jpg","0","1","0","",""
"","feedback","","html-keyboard-response","578","683776","0.0-1.0-789.0-0.0","0","0","82516","","null","","","null","87","","","","","","","","","","","","","","","",""
"","time_out","","html-keyboard-response","579","685778","0.0-1.0-791.0-0.0","0","0","82516","","null","","","null","87","","","","","","","","","","","","","","","",""
"","ITI","","html-keyboard-response","580","686779","0.0-1.0-792.0","0","0","82516","","null","","","null","87","","","","","","","","","","","","","","","NaN",""
"","S1","","html-keyboard-response","581","687032","0.0-1.0-794.0","0","0","82516","","null","","","null","88","","","","","","","","","","","","","","","",""
