"success","ttype","start_time","trial_type","trial_index","time_elapsed","internal_node_id","warning","missed_checkup","PID","view_history","rt","responses","repeat_instructions","key_press","index","keypress_isi","keypress_S2","block","trial_num","phase","group_type","pair_type","S1_stim","S2_stim","S1_img","S2_img","S1_chosen","S1_higher","accuracy","keypress_iti","total_bonus_tally"
"true","full_screen","d03082023hr1525","fullscreen","0","12680","0.0-0.0","0","0","94080","","","","","","","","","","","","","","","","","","","","","",""
"","instructions","","instructions","1","50761","0.0-1.0-0.0-0.0","0","0","94080","[{""page_index"":0,""viewing_time"":6112},{""page_index"":1,""viewing_time"":22142},{""page_index"":2,""viewing_time"":8126},{""page_index"":3,""viewing_time"":1697}]","38077","","","","","","","","","","","","","","","","","","","",""
"","comprehension_check","","survey-multi-choice","2","109793","0.0-1.0-0.0-1.0","0","0","94080","","59025","{""Q0"":""True"",""Q1"":""D"",""Q2"":""Only when the screen 'MAKE A CHOICE' is shown"",""Q3"":""Green mark"",""Q4"":""either D or K""}","1","","","","","","","","","","","","","","","","","",""
"","missed_instruction_checkup","","html-keyboard-response","3","112403","0.0-1.0-0.0-2.0-0.0","0","1","94080","","2605","","","32","","","","","","","","","","","","","","","","",""
"","instructions","","instructions","4","141606","0.0-1.0-0.1-0.1","0","0","94080","[{""page_index"":0,""viewing_time"":3542},{""page_index"":1,""viewing_time"":17018},{""page_index"":2,""viewing_time"":7608},{""page_index"":3,""viewing_time"":1032}]","29201","","","","","","","","","","","","","","","","","","","",""
"","comprehension_check","","survey-multi-choice","5","190957","0.0-1.0-0.1-1.1","0","0","94080","","49344","{""Q0"":""False"",""Q1"":""D"",""Q2"":""Once the second image appears and while the screen 'MAKE A CHOICE' is shown"",""Q3"":""Green mark"",""Q4"":""either D or K""}","1","","","","","","","","","","","","","","","","","",""
"","missed_instruction_checkup","","html-keyboard-response","6","194419","0.0-1.0-0.1-2.1-0.1","0","1","94080","","3459","","","32","","","","","","","","","","","","","","","","",""
"","instructions","","instructions","7","205735","0.0-1.0-0.2-0.2","0","0","94080","[{""page_index"":0,""viewing_time"":1487},{""page_index"":1,""viewing_time"":7857},{""page_index"":2,""viewing_time"":850},{""page_index"":3,""viewing_time"":1119}]","11314","","","","","","","","","","","","","","","","","","","",""
"","comprehension_check","","survey-multi-choice","8","237706","0.0-1.0-0.2-1.2","0","0","94080","","31965","{""Q0"":""True"",""Q1"":""D"",""Q2"":""Once the second image appears and while the screen 'MAKE A CHOICE' is shown"",""Q3"":""Green mark"",""Q4"":""either D or K""}","0","","","","","","","","","","","","","","","","","",""
"","start_exp","","html-keyboard-response","9","243577","0.0-1.0-1.0","0","0","94080","","5868","","","32","","","","","","","","","","","","","","","","",""
"","S1","","html-keyboard-response","10","243839","0.0-1.0-2.0","0","0","94080","","null","","","null","0","","","","","","","","","","","","","","","",""
"","ISI","","html-keyboard-response","11","243995","0.0-1.0-3.0","0","0","94080","","null","","","null","0","NaN","","","","","","","","","","","","","","",""
"","S2","","html-keyboard-response","12","244251","0.0-1.0-4.0","0","0","94080","","null","","","null","0","","NaN","","","","","","","","","","","","","",""
"","response","","html-keyboard-response","13","245267","0.0-1.0-5.0-0.0","0","0","94080","","1013","","","75","0","","","1","0","training","adjacent","FE","6","5","N.jpg","L.jpg","0","0","1","",""
"","feedback","","html-keyboard-response","14","246276","0.0-1.0-6.0-0.0","0","0","94080","","null","","","null","0","","","","","","","","","","","","","","","",""
"","ITI","","html-keyboard-response","15","247287","0.0-1.0-9.0","0","0","94080","","null","","","null","0","","","","","","","","","","","","","","","NaN",""
"","S1","","html-keyboard-response","16","247548","0.0-1.0-11.0","0","0","94080","","null","","","null","1","","","","","","","","","","","","","","","",""
"","ISI","","html-keyboard-response","17","247710","0.0-1.0-12.0","0","0","94080","","null","","","null","1","NaN","","","","","","","","","","","","","","",""
"","S2","","html-keyboard-response","18","247972","0.0-1.0-13.0","0","0","94080","","null","","","null","1","","NaN","","","","","","","","","","","","","",""
"","response","","html-keyboard-response","19","248620","0.0-1.0-14.0-0.0","0","0","94080","","646","","","75","1","","","1","1","training","adjacent","FE","6","5","N.jpg","L.jpg","0","0","1","",""
"","feedback","","html-keyboard-response","20","249632","0.0-1.0-15.0-0.0","0","0","94080","","null","","","null","1","","","","","","","","","","","","","","","",""
"","ITI","","html-keyboard-response","21","250636","0.0-1.0-18.0","0","0","94080","","null","","","null","1","","","","","","","","","","","","","","","NaN",""
"","S1","","html-keyboard-response","22","250892","0.0-1.0-20.0","0","0","94080","","null","","","null","2","","","","","","","","","","","","","","","",""
"","ISI","","html-keyboard-response","23","251054","0.0-1.0-21.0","0","0","94080","","null","","","null","2","NaN","","","","","","","","","","","","","","",""
"","S2","","html-keyboard-response","24","251316","0.0-1.0-22.0","0","0","94080","","null","","","null","2","","NaN","","","","","","","","","","","","","",""
"","response","","html-keyboard-response","25","251714","0.0-1.0-23.0-0.0","0","0","94080","","395","","","68","2","","","1","2","training","adjacent","AB","1","2","R.jpg","P.jpg","1","1","1","",""
"","feedback","","html-keyboard-response","26","252726","0.0-1.0-24.0-0.0","0","0","94080","","null","","","null","2","","","","","","","","","","","","","","","",""
"","ITI","","html-keyboard-response","27","253733","0.0-1.0-27.0","0","0","94080","","null","","","null","2","","","","","","","","","","","","","","","NaN",""
"","S1","","html-keyboard-response","28","253992","0.0-1.0-29.0","0","0","94080","","null","","","null","3","","","","","","","","","","","","","","","",""
"","ISI","","html-keyboard-response","29","254148","0.0-1.0-30.0","0","0","94080","","null","","","null","3","NaN","","","","","","","","","","","","","","",""
"","S2","","html-keyboard-response","30","254404","0.0-1.0-31.0","0","0","94080","","null","","","null","3","","NaN","","","","","","","","","","","","","",""
"","response","","html-keyboard-response","31","255040","0.0-1.0-32.0-0.0","0","0","94080","","635","","","75","3","","","1","3","training","adjacent","CB","3","2","M.jpg","P.jpg","0","0","1","",""
"","feedback","","html-keyboard-response","32","256046","0.0-1.0-33.0-0.0","0","0","94080","","null","","","null","3","","","","","","","","","","","","","","","",""
"","ITI","","html-keyboard-response","33","257054","0.0-1.0-36.0","0","0","94080","","null","","","null","3","","","","","","","","","","","","","","","NaN",""
"","S1","","html-keyboard-response","34","257312","0.0-1.0-38.0","0","0","94080","","null","","","null","4","","","","","","","","","","","","","","","",""
"","ISI","","html-keyboard-response","35","257469","0.0-1.0-39.0","0","0","94080","","null","","","null","4","NaN","","","","","","","","","","","","","","",""
"","S2","","html-keyboard-response","36","257724","0.0-1.0-40.0","0","0","94080","","null","","","null","4","","NaN","","","","","","","","","","","","","",""
"","response","","html-keyboard-response","37","258357","0.0-1.0-41.0-0.0","0","0","94080","","630","","","75","4","","","1","4","training","adjacent","DC","4","3","Q.jpg","M.jpg","0","0","1","",""
"","feedback","","html-keyboard-response","38","259367","0.0-1.0-42.0-0.0","0","0","94080","","null","","","null","4","","","","","","","","","","","","","","","",""
"","ITI","","html-keyboard-response","39","260375","0.0-1.0-45.0","0","0","94080","","null","","","null","4","","","","","","","","","","","","","","","NaN",""
"","S1","","html-keyboard-response","40","260638","0.0-1.0-47.0","0","0","94080","","null","","","null","5","","","","","","","","","","","","","","","",""
"","ISI","","html-keyboard-response","41","260795","0.0-1.0-48.0","0","0","94080","","null","","","null","5","NaN","","","","","","","","","","","","","","",""
"","S2","","html-keyboard-response","42","261057","0.0-1.0-49.0","0","0","94080","","null","","","null","5","","NaN","","","","","","","","","","","","","",""
"","response","","html-keyboard-response","43","261399","0.0-1.0-50.0-0.0","0","0","94080","","341","","","75","5","","","1","5","training","adjacent","DC","4","3","Q.jpg","M.jpg","0","0","1","",""
"","feedback","","html-keyboard-response","44","262405","0.0-1.0-51.0-0.0","0","0","94080","","null","","","null","5","","","","","","","","","","","","","","","",""
"","ITI","","html-keyboard-response","45","263413","0.0-1.0-54.0","0","0","94080","","null","","","null","5","","","","","","","","","","","","","","","NaN",""
"","S1","","html-keyboard-response","46","263669","0.0-1.0-56.0","0","0","94080","","null","","","null","6","","","","","","","","","","","","","","","",""
"","ISI","","html-keyboard-response","47","263831","0.0-1.0-57.0","0","0","94080","","null","","","null","6","NaN","","","","","","","","","","","","","","",""
"","S2","","html-keyboard-response","48","264092","0.0-1.0-58.0","0","0","94080","","null","","","null","6","","NaN","","","","","","","","","","","","","",""
"","response","","html-keyboard-response","49","264574","0.0-1.0-59.0-0.0","0","0","94080","","479","","","75","6","","","1","6","training","adjacent","BA","2","1","P.jpg","R.jpg","0","0","1","",""
"","feedback","","html-keyboard-response","50","265585","0.0-1.0-60.0-0.0","0","0","94080","","null","","","null","6","","","","","","","","","","","","","","","",""
"","ITI","","html-keyboard-response","51","266600","0.0-1.0-63.0","0","0","94080","","null","","","null","6","","","","","","","","","","","","","","","NaN",""
"","S1","","html-keyboard-response","52","266861","0.0-1.0-65.0","0","0","94080","","null","","","null","7","","","","","","","","","","","","","","","",""
"","ISI","","html-keyboard-response","53","267024","0.0-1.0-66.0","0","0","94080","","null","","","null","7","NaN","","","","","","","","","","","","","","",""
"","S2","","html-keyboard-response","54","267285","0.0-1.0-67.0","0","0","94080","","null","","","null","7","","NaN","","","","","","","","","","","","","",""
"","response","","html-keyboard-response","55","267769","0.0-1.0-68.0-0.0","0","0","94080","","481","","","68","7","","","1","7","training","adjacent","BC","2","3","P.jpg","M.jpg","1","1","1","",""
"","feedback","","html-keyboard-response","56","268783","0.0-1.0-69.0-0.0","0","0","94080","","null","","","null","7","","","","","","","","","","","","","","","",""
"","ITI","","html-keyboard-response","57","269787","0.0-1.0-72.0","0","0","94080","","null","","","null","7","","","","","","","","","","","","","","","NaN",""
"","S1","","html-keyboard-response","58","270048","0.0-1.0-74.0","0","0","94080","","null","","","null","8","","","","","","","","","","","","","","","",""
"","ISI","","html-keyboard-response","59","270205","0.0-1.0-75.0","0","0","94080","","null","","","null","8","NaN","","","","","","","","","","","","","","",""
"","S2","","html-keyboard-response","60","270461","0.0-1.0-76.0","0","0","94080","","null","","","null","8","","NaN","","","","","","","","","","","","","",""
"","response","","html-keyboard-response","61","270883","0.0-1.0-77.0-0.0","0","0","94080","","420","","","68","8","","","1","8","training","adjacent","EF","5","6","L.jpg","N.jpg","1","1","1","",""
"","feedback","","html-keyboard-response","62","271895","0.0-1.0-78.0-0.0","0","0","94080","","null","","","null","8","","","","","","","","","","","","","","","",""
"","ITI","","html-keyboard-response","63","272903","0.0-1.0-81.0","0","0","94080","","null","","","null","8","","","","","","","","","","","","","","","NaN",""
"","S1","","html-keyboard-response","64","273166","0.0-1.0-83.0","0","0","94080","","null","","","null","9","","","","","","","","","","","","","","","",""
"","ISI","","html-keyboard-response","65","273328","0.0-1.0-84.0","0","0","94080","","null","","","null","9","NaN","","","","","","","","","","","","","","",""
"","S2","","html-keyboard-response","66","273590","0.0-1.0-85.0","0","0","94080","","null","","","null","9","","NaN","","","","","","","","","","","","","",""
"","response","","html-keyboard-response","67","274018","0.0-1.0-86.0-0.0","0","0","94080","","426","","","68","9","","","1","9","training","adjacent","EF","5","6","L.jpg","N.jpg","1","1","1","",""
"","feedback","","html-keyboard-response","68","275030","0.0-1.0-87.0-0.0","0","0","94080","","null","","","null","9","","","","","","","","","","","","","","","",""
"","ITI","","html-keyboard-response","69","276039","0.0-1.0-90.0","0","0","94080","","null","","","null","9","","","","","","","","","","","","","","","NaN",""
"","S1","","html-keyboard-response","70","276301","0.0-1.0-92.0","0","0","94080","","null","","","null","10","","","","","","","","","","","","","","","",""
"","ISI","","html-keyboard-response","71","276462","0.0-1.0-93.0","0","0","94080","","null","","","null","10","NaN","","","","","","","","","","","","","","",""
"","S2","","html-keyboard-response","72","276717","0.0-1.0-94.0","0","0","94080","","null","","","null","10","","NaN","","","","","","","","","","","","","",""
"","response","","html-keyboard-response","73","277300","0.0-1.0-95.0-0.0","0","0","94080","","581","","","75","10","","","1","10","training","adjacent","GF","7","6","O.jpg","N.jpg","0","0","1","",""
"","feedback","","html-keyboard-response","74","278309","0.0-1.0-96.0-0.0","0","0","94080","","null","","","null","10","","","","","","","","","","","","","","","",""
"","ITI","","html-keyboard-response","75","279319","0.0-1.0-99.0","0","0","94080","","null","","","null","10","","","","","","","","","","","","","","","NaN",""
"","S1","","html-keyboard-response","76","279580","0.0-1.0-101.0","0","0","94080","","null","","","null","11","","","","","","","","","","","","","","","",""
"","ISI","","html-keyboard-response","77","279743","0.0-1.0-102.0","0","0","94080","","null","","","null","11","NaN","","","","","","","","","","","","","","",""
"","S2","","html-keyboard-response","78","280004","0.0-1.0-103.0","0","0","94080","","null","","","null","11","","NaN","","","","","","","","","","","","","",""
"","response","","html-keyboard-response","79","280341","0.0-1.0-104.0-0.0","0","0","94080","","334","","","68","11","","","1","11","training","adjacent","BC","2","3","P.jpg","M.jpg","1","1","1","",""
"","feedback","","html-keyboard-response","80","281351","0.0-1.0-105.0-0.0","0","0","94080","","null","","","null","11","","","","","","","","","","","","","","","",""
"","ITI","","html-keyboard-response","81","282358","0.0-1.0-108.0","0","0","94080","","null","","","null","11","","","","","","","","","","","","","","","NaN",""
"","S1","","html-keyboard-response","82","282616","0.0-1.0-110.0","0","0","94080","","null","","","null","12","","","","","","","","","","","","","","","",""
"","ISI","","html-keyboard-response","83","282773","0.0-1.0-111.0","0","0","94080","","null","","","null","12","NaN","","","","","","","","","","","","","","",""
"","S2","","html-keyboard-response","84","283029","0.0-1.0-112.0","0","0","94080","","null","","","null","12","","NaN","","","","","","","","","","","","","",""
"","response","","html-keyboard-response","85","283358","0.0-1.0-113.0-0.0","0","0","94080","","327","","","68","12","","","1","12","training","adjacent","BC","2","3","P.jpg","M.jpg","1","1","1","",""
"","feedback","","html-keyboard-response","86","284364","0.0-1.0-114.0-0.0","0","0","94080","","null","","","null","12","","","","","","","","","","","","","","","",""
"","ITI","","html-keyboard-response","87","285374","0.0-1.0-117.0","0","0","94080","","null","","","null","12","","","","","","","","","","","","","","","NaN",""
"","S1","","html-keyboard-response","88","285629","0.0-1.0-119.0","0","0","94080","","null","","","null","13","","","","","","","","","","","","","","","",""
"","ISI","","html-keyboard-response","89","285792","0.0-1.0-120.0","0","0","94080","","null","","","null","13","NaN","","","","","","","","","","","","","","",""
"","S2","","html-keyboard-response","90","286053","0.0-1.0-121.0","0","0","94080","","null","","","null","13","","NaN","","","","","","","","","","","","","",""
"","response","","html-keyboard-response","91","286373","0.0-1.0-122.0-0.0","0","0","94080","","317","","","68","13","","","1","13","training","adjacent","ED","5","4","L.jpg","Q.jpg","1","0","0","",""
"","feedback","","html-keyboard-response","92","287383","0.0-1.0-123.0-0.0","0","0","94080","","null","","","null","13","","","","","","","","","","","","","","","",""
"","time_out","","html-keyboard-response","93","289391","0.0-1.0-125.0-0.0","0","0","94080","","null","","","null","13","","","","","","","","","","","","","","","",""
"","ITI","","html-keyboard-response","94","290396","0.0-1.0-126.0","0","0","94080","","null","","","null","13","","","","","","","","","","","","","","","NaN",""
"","S1","","html-keyboard-response","95","290657","0.0-1.0-128.0","0","0","94080","","null","","","null","14","","","","","","","","","","","","","","","",""
"","ISI","","html-keyboard-response","96","290813","0.0-1.0-129.0","0","0","94080","","null","","","null","14","NaN","","","","","","","","","","","","","","",""
"","S2","","html-keyboard-response","97","291069","0.0-1.0-130.0","0","0","94080","","null","","","null","14","","NaN","","","","","","","","","","","","","",""
"","response","","html-keyboard-response","98","291443","0.0-1.0-131.0-0.0","0","0","94080","","371","","","68","14","","","1","14","training","adjacent","FG","6","7","N.jpg","O.jpg","1","1","1","",""
"","feedback","","html-keyboard-response","99","292456","0.0-1.0-132.0-0.0","0","0","94080","","null","","","null","14","","","","","","","","","","","","","","","",""
"","ITI","","html-keyboard-response","100","293460","0.0-1.0-135.0","0","0","94080","","null","","","null","14","","","","","","","","","","","","","","","NaN",""
"","S1","","html-keyboard-response","101","293716","0.0-1.0-137.0","0","0","94080","","null","","","null","15","","","","","","","","","","","","","","","",""
"","ISI","","html-keyboard-response","102","293878","0.0-1.0-138.0","0","0","94080","","null","","","null","15","NaN","","","","","","","","","","","","","","",""
"","S2","","html-keyboard-response","103","294134","0.0-1.0-139.0","0","0","94080","","null","","","null","15","","NaN","","","","","","","","","","","","","",""
"","response","","html-keyboard-response","104","294955","0.0-1.0-140.0-0.0","0","0","94080","","820","","","75","15","","","1","15","training","adjacent","DC","4","3","Q.jpg","M.jpg","0","0","1","",""
"","feedback","","html-keyboard-response","105","295968","0.0-1.0-141.0-0.0","0","0","94080","","null","","","null","15","","","","","","","","","","","","","","","",""
"","ITI","","html-keyboard-response","106","296973","0.0-1.0-144.0","0","0","94080","","null","","","null","15","","","","","","","","","","","","","","","NaN",""
"","S1","","html-keyboard-response","107","297228","0.0-1.0-146.0","0","0","94080","","null","","","null","16","","","","","","","","","","","","","","","",""
"","ISI","","html-keyboard-response","108","297391","0.0-1.0-147.0","0","0","94080","","null","","","null","16","NaN","","","","","","","","","","","","","","",""
"","S2","","html-keyboard-response","109","297646","0.0-1.0-148.0","0","0","94080","","null","","","null","16","","NaN","","","","","","","","","","","","","",""
"","response","","html-keyboard-response","110","298194","0.0-1.0-149.0-0.0","0","0","94080","","546","","","68","16","","","1","16","training","adjacent","AB","1","2","R.jpg","P.jpg","1","1","1","",""
"","feedback","","html-keyboard-response","111","299207","0.0-1.0-150.0-0.0","0","0","94080","","null","","","null","16","","","","","","","","","","","","","","","",""
"","ITI","","html-keyboard-response","112","300215","0.0-1.0-153.0","0","0","94080","","null","","","null","16","","","","","","","","","","","","","","","NaN",""
"","S1","","html-keyboard-response","113","300473","0.0-1.0-155.0","0","0","94080","","null","","","null","17","","","","","","","","","","","","","","","",""
"","ISI","","html-keyboard-response","114","300629","0.0-1.0-156.0","0","0","94080","","null","","","null","17","NaN","","","","","","","","","","","","","","",""
"","S2","","html-keyboard-response","115","300885","0.0-1.0-157.0","0","0","94080","","null","","","null","17","","NaN","","","","","","","","","","","","","",""
"","response","","html-keyboard-response","116","301575","0.0-1.0-158.0-0.0","0","0","94080","","687","","","75","17","","","1","17","training","adjacent","CB","3","2","M.jpg","P.jpg","0","0","1","",""
"","feedback","","html-keyboard-response","117","302580","0.0-1.0-159.0-0.0","0","0","94080","","null","","","null","17","","","","","","","","","","","","","","","",""
"","ITI","","html-keyboard-response","118","303590","0.0-1.0-162.0","0","0","94080","","null","","","null","17","","","","","","","","","","","","","","","NaN",""
"","S1","","html-keyboard-response","119","303846","0.0-1.0-164.0","0","0","94080","","null","","","null","18","","","","","","","","","","","","","","","",""
"","ISI","","html-keyboard-response","120","304008","0.0-1.0-165.0","0","0","94080","","null","","","null","18","NaN","","","","","","","","","","","","","","",""
"","S2","","html-keyboard-response","121","304270","0.0-1.0-166.0","0","0","94080","","null","","","null","18","","NaN","","","","","","","","","","","","","",""
"","response","","html-keyboard-response","122","304849","0.0-1.0-167.0-0.0","0","0","94080","","577","","","68","18","","","1","18","training","adjacent","CD","3","4","M.jpg","Q.jpg","1","1","1","",""
"","feedback","","html-keyboard-response","123","305855","0.0-1.0-168.0-0.0","0","0","94080","","null","","","null","18","","","","","","","","","","","","","","","",""
"","ITI","","html-keyboard-response","124","306864","0.0-1.0-171.0","0","0","94080","","null","","","null","18","","","","","","","","","","","","","","","NaN",""
"","S1","","html-keyboard-response","125","307126","0.0-1.0-173.0","0","0","94080","","null","","","null","19","","","","","","","","","","","","","","","",""
"","ISI","","html-keyboard-response","126","307288","0.0-1.0-174.0","0","0","94080","","null","","","null","19","NaN","","","","","","","","","","","","","","",""
"","S2","","html-keyboard-response","127","307549","0.0-1.0-175.0","0","0","94080","","null","","","null","19","","NaN","","","","","","","","","","","","","",""
"","response","","html-keyboard-response","128","308209","0.0-1.0-176.0-0.0","0","0","94080","","657","","","75","19","","","1","19","training","adjacent","BA","2","1","P.jpg","R.jpg","0","0","1","",""
"","feedback","","html-keyboard-response","129","309215","0.0-1.0-177.0-0.0","0","0","94080","","null","","","null","19","","","","","","","","","","","","","","","",""
"","ITI","","html-keyboard-response","130","310223","0.0-1.0-180.0","0","0","94080","","null","","","null","19","","","","","","","","","","","","","","","NaN",""
"","S1","","html-keyboard-response","131","310481","0.0-1.0-182.0","0","0","94080","","null","","","null","20","","","","","","","","","","","","","","","",""
"","ISI","","html-keyboard-response","132","310638","0.0-1.0-183.0","0","0","94080","","null","","","null","20","NaN","","","","","","","","","","","","","","",""
"","S2","","html-keyboard-response","133","310893","0.0-1.0-184.0","0","0","94080","","null","","","null","20","","NaN","","","","","","","","","","","","","",""
"","response","","html-keyboard-response","134","311404","0.0-1.0-185.0-0.0","0","0","94080","","508","","","68","20","","","1","20","training","adjacent","CD","3","4","M.jpg","Q.jpg","1","1","1","",""
"","feedback","","html-keyboard-response","135","312414","0.0-1.0-186.0-0.0","0","0","94080","","null","","","null","20","","","","","","","","","","","","","","","",""
"","ITI","","html-keyboard-response","136","313424","0.0-1.0-189.0","0","0","94080","","null","","","null","20","","","","","","","","","","","","","","","NaN",""
"","S1","","html-keyboard-response","137","313685","0.0-1.0-191.0","0","0","94080","","null","","","null","21","","","","","","","","","","","","","","","",""
"","ISI","","html-keyboard-response","138","313848","0.0-1.0-192.0","0","0","94080","","null","","","null","21","NaN","","","","","","","","","","","","","","",""
"","S2","","html-keyboard-response","139","314109","0.0-1.0-193.0","0","0","94080","","null","","","null","21","","NaN","","","","","","","","","","","","","",""
"","response","","html-keyboard-response","140","314632","0.0-1.0-194.0-0.0","0","0","94080","","520","","","68","21","","","1","21","training","adjacent","FE","6","5","N.jpg","L.jpg","1","0","0","",""
"","feedback","","html-keyboard-response","141","315639","0.0-1.0-195.0-0.0","0","0","94080","","null","","","null","21","","","","","","","","","","","","","","","",""
"","time_out","","html-keyboard-response","142","317644","0.0-1.0-197.0-0.0","0","0","94080","","null","","","null","21","","","","","","","","","","","","","","","",""
"","ITI","","html-keyboard-response","143","318655","0.0-1.0-198.0","0","0","94080","","null","","","null","21","","","","","","","","","","","","","","","NaN",""
"","S1","","html-keyboard-response","144","318910","0.0-1.0-200.0","0","0","94080","","null","","","null","22","","","","","","","","","","","","","","","",""
"","ISI","","html-keyboard-response","145","319073","0.0-1.0-201.0","0","0","94080","","null","","","null","22","NaN","","","","","","","","","","","","","","",""
"","S2","","html-keyboard-response","146","319334","0.0-1.0-202.0","0","0","94080","","null","","","null","22","","NaN","","","","","","","","","","","","","",""
"","response","","html-keyboard-response","147","319809","0.0-1.0-203.0-0.0","0","0","94080","","473","","","68","22","","","1","22","training","adjacent","ED","5","4","L.jpg","Q.jpg","1","0","0","",""
"","feedback","","html-keyboard-response","148","320814","0.0-1.0-204.0-0.0","0","0","94080","","null","","","null","22","","","","","","","","","","","","","","","",""
"","time_out","","html-keyboard-response","149","322823","0.0-1.0-206.0-0.0","0","0","94080","","null","","","null","22","","","","","","","","","","","","","","","",""
"","ITI","","html-keyboard-response","150","323833","0.0-1.0-207.0","0","0","94080","","null","","","null","22","","","","","","","","","","","","","","","NaN",""
"","S1","","html-keyboard-response","151","324093","0.0-1.0-209.0","0","0","94080","","null","","","null","23","","","","","","","","","","","","","","","",""
"","ISI","","html-keyboard-response","152","324257","0.0-1.0-210.0","0","0","94080","","null","","","null","23","NaN","","","","","","","","","","","","","","",""
"","S2","","html-keyboard-response","153","324518","0.0-1.0-211.0","0","0","94080","","null","","","null","23","","NaN","","","","","","","","","","","","","",""
"","response","","html-keyboard-response","154","325116","0.0-1.0-212.0-0.0","0","0","94080","","596","","","68","23","","","1","23","training","adjacent","FG","6","7","N.jpg","O.jpg","1","1","1","",""
"","feedback","","html-keyboard-response","155","326126","0.0-1.0-213.0-0.0","0","0","94080","","null","","","null","23","","","","","","","","","","","","","","","",""
"","ITI","","html-keyboard-response","156","327136","0.0-1.0-216.0","0","0","94080","","null","","","null","23","","","","","","","","","","","","","","","NaN",""
"","S1","","html-keyboard-response","157","327397","0.0-1.0-218.0","0","0","94080","","null","","","null","24","","","","","","","","","","","","","","","",""
"","ISI","","html-keyboard-response","158","327560","0.0-1.0-219.0","0","0","94080","","null","","","null","24","NaN","","","","","","","","","","","","","","",""
"","S2","","html-keyboard-response","159","327815","0.0-1.0-220.0","0","0","94080","","null","","","null","24","","NaN","","","","","","","","","","","","","",""
"","response","","html-keyboard-response","160","328313","0.0-1.0-221.0-0.0","0","0","94080","","496","","","75","24","","","1","24","training","adjacent","BA","2","1","P.jpg","R.jpg","0","0","1","",""
"","feedback","","html-keyboard-response","161","329319","0.0-1.0-222.0-0.0","0","0","94080","","null","","","null","24","","","","","","","","","","","","","","","",""
"","ITI","","html-keyboard-response","162","330329","0.0-1.0-225.0","0","0","94080","","null","","","null","24","","","","","","","","","","","","","","","NaN",""
"","S1","","html-keyboard-response","163","330590","0.0-1.0-227.0","0","0","94080","","null","","","null","25","","","","","","","","","","","","","","","",""
"","ISI","","html-keyboard-response","164","330752","0.0-1.0-228.0","0","0","94080","","null","","","null","25","NaN","","","","","","","","","","","","","","",""
"","S2","","html-keyboard-response","165","331014","0.0-1.0-229.0","0","0","94080","","null","","","null","25","","NaN","","","","","","","","","","","","","",""
"","response","","html-keyboard-response","166","331523","0.0-1.0-230.0-0.0","0","0","94080","","508","","","75","25","","","1","25","training","adjacent","GF","7","6","O.jpg","N.jpg","0","0","1","",""
"","feedback","","html-keyboard-response","167","332535","0.0-1.0-231.0-0.0","0","0","94080","","null","","","null","25","","","","","","","","","","","","","","","",""
"","ITI","","html-keyboard-response","168","333545","0.0-1.0-234.0","0","0","94080","","null","","","null","25","","","","","","","","","","","","","","","NaN",""
"","S1","","html-keyboard-response","169","333806","0.0-1.0-236.0","0","0","94080","","null","","","null","26","","","","","","","","","","","","","","","",""
"","ISI","","html-keyboard-response","170","333968","0.0-1.0-237.0","0","0","94080","","null","","","null","26","NaN","","","","","","","","","","","","","","",""
"","S2","","html-keyboard-response","171","334230","0.0-1.0-238.0","0","0","94080","","null","","","null","26","","NaN","","","","","","","","","","","","","",""
"","response","","html-keyboard-response","172","334608","0.0-1.0-239.0-0.0","0","0","94080","","376","","","68","26","","","1","26","training","adjacent","FG","6","7","N.jpg","O.jpg","1","1","1","",""
"","feedback","","html-keyboard-response","173","335617","0.0-1.0-240.0-0.0","0","0","94080","","null","","","null","26","","","","","","","","","","","","","","","",""
"","ITI","","html-keyboard-response","174","336621","0.0-1.0-243.0","0","0","94080","","null","","","null","26","","","","","","","","","","","","","","","NaN",""
"","S1","","html-keyboard-response","175","336877","0.0-1.0-245.0","0","0","94080","","null","","","null","27","","","","","","","","","","","","","","","",""
"","ISI","","html-keyboard-response","176","337039","0.0-1.0-246.0","0","0","94080","","null","","","null","27","NaN","","","","","","","","","","","","","","",""
"","S2","","html-keyboard-response","177","337295","0.0-1.0-247.0","0","0","94080","","null","","","null","27","","NaN","","","","","","","","","","","","","",""
"","response","","html-keyboard-response","178","337781","0.0-1.0-248.0-0.0","0","0","94080","","484","","","75","27","","","1","27","training","adjacent","FE","6","5","N.jpg","L.jpg","0","0","1","",""
"","feedback","","html-keyboard-response","179","338793","0.0-1.0-249.0-0.0","0","0","94080","","null","","","null","27","","","","","","","","","","","","","","","",""
"","ITI","","html-keyboard-response","180","339800","0.0-1.0-252.0","0","0","94080","","null","","","null","27","","","","","","","","","","","","","","","NaN",""
"","S1","","html-keyboard-response","181","340064","0.0-1.0-254.0","0","0","94080","","null","","","null","28","","","","","","","","","","","","","","","",""
"","ISI","","html-keyboard-response","182","340221","0.0-1.0-255.0","0","0","94080","","null","","","null","28","NaN","","","","","","","","","","","","","","",""
"","S2","","html-keyboard-response","183","340478","0.0-1.0-256.0","0","0","94080","","null","","","null","28","","NaN","","","","","","","","","","","","","",""
"","response","","html-keyboard-response","184","340815","0.0-1.0-257.0-0.0","0","0","94080","","335","","","68","28","","","1","28","training","adjacent","FG","6","7","N.jpg","O.jpg","1","1","1","",""
"","feedback","","html-keyboard-response","185","341823","0.0-1.0-258.0-0.0","0","0","94080","","null","","","null","28","","","","","","","","","","","","","","","",""
"","ITI","","html-keyboard-response","186","342833","0.0-1.0-261.0","0","0","94080","","null","","","null","28","","","","","","","","","","","","","","","NaN",""
"","S1","","html-keyboard-response","187","343094","0.0-1.0-263.0","0","0","94080","","null","","","null","29","","","","","","","","","","","","","","","",""
"","ISI","","html-keyboard-response","188","343257","0.0-1.0-264.0","0","0","94080","","null","","","null","29","NaN","","","","","","","","","","","","","","",""
"","S2","","html-keyboard-response","189","343518","0.0-1.0-265.0","0","0","94080","","null","","","null","29","","NaN","","","","","","","","","","","","","",""
"","response","","html-keyboard-response","190","343909","0.0-1.0-266.0-0.0","0","0","94080","","388","","","75","29","","","1","29","training","adjacent","BA","2","1","P.jpg","R.jpg","0","0","1","",""
"","feedback","","html-keyboard-response","191","344917","0.0-1.0-267.0-0.0","0","0","94080","","null","","","null","29","","","","","","","","","","","","","","","",""
"","ITI","","html-keyboard-response","192","345927","0.0-1.0-270.0","0","0","94080","","null","","","null","29","","","","","","","","","","","","","","","NaN",""
"","S1","","html-keyboard-response","193","346182","0.0-1.0-272.0","0","0","94080","","null","","","null","30","","","","","","","","","","","","","","","",""
"","ISI","","html-keyboard-response","194","346345","0.0-1.0-273.0","0","0","94080","","null","","","null","30","NaN","","","","","","","","","","","","","","",""
"","S2","","html-keyboard-response","195","346606","0.0-1.0-274.0","0","0","94080","","null","","","null","30","","NaN","","","","","","","","","","","","","",""
"","response","","html-keyboard-response","196","347081","0.0-1.0-275.0-0.0","0","0","94080","","472","","","75","30","","","1","30","training","adjacent","GF","7","6","O.jpg","N.jpg","0","0","1","",""
"","feedback","","html-keyboard-response","197","348087","0.0-1.0-276.0-0.0","0","0","94080","","null","","","null","30","","","","","","","","","","","","","","","",""
"","ITI","","html-keyboard-response","198","349097","0.0-1.0-279.0","0","0","94080","","null","","","null","30","","","","","","","","","","","","","","","NaN",""
"","S1","","html-keyboard-response","199","349358","0.0-1.0-281.0","0","0","94080","","null","","","null","31","","","","","","","","","","","","","","","",""
"","ISI","","html-keyboard-response","200","349520","0.0-1.0-282.0","0","0","94080","","null","","","null","31","NaN","","","","","","","","","","","","","","",""
"","S2","","html-keyboard-response","201","349781","0.0-1.0-283.0","0","0","94080","","null","","","null","31","","NaN","","","","","","","","","","","","","",""
"","response","","html-keyboard-response","202","350258","0.0-1.0-284.0-0.0","0","0","94080","","474","","","75","31","","","1","31","training","adjacent","DC","4","3","Q.jpg","M.jpg","0","0","1","",""
"","feedback","","html-keyboard-response","203","351273","0.0-1.0-285.0-0.0","0","0","94080","","null","","","null","31","","","","","","","","","","","","","","","",""
"","ITI","","html-keyboard-response","204","352278","0.0-1.0-288.0","0","0","94080","","null","","","null","31","","","","","","","","","","","","","","","NaN",""
"","S1","","html-keyboard-response","205","352533","0.0-1.0-290.0","0","0","94080","","null","","","null","32","","","","","","","","","","","","","","","",""
"","ISI","","html-keyboard-response","206","352696","0.0-1.0-291.0","0","0","94080","","null","","","null","32","NaN","","","","","","","","","","","","","","",""
"","S2","","html-keyboard-response","207","352951","0.0-1.0-292.0","0","0","94080","","null","","","null","32","","NaN","","","","","","","","","","","","","",""
"","response","","html-keyboard-response","208","353452","0.0-1.0-293.0-0.0","0","0","94080","","499","","","75","32","","","1","32","training","adjacent","GF","7","6","O.jpg","N.jpg","0","0","1","",""
"","feedback","","html-keyboard-response","209","354462","0.0-1.0-294.0-0.0","0","0","94080","","null","","","null","32","","","","","","","","","","","","","","","",""
"","ITI","","html-keyboard-response","210","355470","0.0-1.0-297.0","0","0","94080","","null","","","null","32","","","","","","","","","","","","","","","NaN",""
"","S1","","html-keyboard-response","211","355726","0.0-1.0-299.0","0","0","94080","","null","","","null","33","","","","","","","","","","","","","","","",""
"","ISI","","html-keyboard-response","212","355888","0.0-1.0-300.0","0","0","94080","","null","","","null","33","NaN","","","","","","","","","","","","","","",""
"","S2","","html-keyboard-response","213","356150","0.0-1.0-301.0","0","0","94080","","null","","","null","33","","NaN","","","","","","","","","","","","","",""
"","response","","html-keyboard-response","214","356665","0.0-1.0-302.0-0.0","0","0","94080","","513","","","75","33","","","1","33","training","adjacent","CB","3","2","M.jpg","P.jpg","0","0","1","",""
"","feedback","","html-keyboard-response","215","357671","0.0-1.0-303.0-0.0","0","0","94080","","null","","","null","33","","","","","","","","","","","","","","","",""
"","ITI","","html-keyboard-response","216","358681","0.0-1.0-306.0","0","0","94080","","null","","","null","33","","","","","","","","","","","","","","","NaN",""
"","S1","","html-keyboard-response","217","358942","0.0-1.0-308.0","0","0","94080","","null","","","null","34","","","","","","","","","","","","","","","",""
"","ISI","","html-keyboard-response","218","359105","0.0-1.0-309.0","0","0","94080","","null","","","null","34","NaN","","","","","","","","","","","","","","",""
"","S2","","html-keyboard-response","219","359366","0.0-1.0-310.0","0","0","94080","","null","","","null","34","","NaN","","","","","","","","","","","","","",""
"","response","","html-keyboard-response","220","359854","0.0-1.0-311.0-0.0","0","0","94080","","487","","","75","34","","","1","34","training","adjacent","EF","5","6","L.jpg","N.jpg","0","1","0","",""
"","feedback","","html-keyboard-response","221","360863","0.0-1.0-312.0-0.0","0","0","94080","","null","","","null","34","","","","","","","","","","","","","","","",""
"","time_out","","html-keyboard-response","222","362874","0.0-1.0-314.0-0.0","0","0","94080","","null","","","null","34","","","","","","","","","","","","","","","",""
"","ITI","","html-keyboard-response","223","363881","0.0-1.0-315.0","0","0","94080","","null","","","null","34","","","","","","","","","","","","","","","NaN",""
"","S1","","html-keyboard-response","224","364143","0.0-1.0-317.0","0","0","94080","","null","","","null","35","","","","","","","","","","","","","","","",""
"","ISI","","html-keyboard-response","225","364306","0.0-1.0-318.0","0","0","94080","","null","","","null","35","NaN","","","","","","","","","","","","","","",""
"","S2","","html-keyboard-response","226","364567","0.0-1.0-319.0","0","0","94080","","null","","","null","35","","NaN","","","","","","","","","","","","","",""
"","response","","html-keyboard-response","227","364927","0.0-1.0-320.0-0.0","0","0","94080","","358","","","68","35","","","1","35","training","adjacent","CD","3","4","M.jpg","Q.jpg","1","1","1","",""
"","feedback","","html-keyboard-response","228","365937","0.0-1.0-321.0-0.0","0","0","94080","","null","","","null","35","","","","","","","","","","","","","","","",""
"","ITI","","html-keyboard-response","229","366941","0.0-1.0-324.0","0","0","94080","","null","","","null","35","","","","","","","","","","","","","","","NaN",""
"","S1","","html-keyboard-response","230","367197","0.0-1.0-326.0","0","0","94080","","null","","","null","36","","","","","","","","","","","","","","","",""
"","ISI","","html-keyboard-response","231","367359","0.0-1.0-327.0","0","0","94080","","null","","","null","36","NaN","","","","","","","","","","","","","","",""
"","S2","","html-keyboard-response","232","367614","0.0-1.0-328.0","0","0","94080","","null","","","null","36","","NaN","","","","","","","","","","","","","",""
"","response","","html-keyboard-response","233","367931","0.0-1.0-329.0-0.0","0","0","94080","","314","","","75","36","","","1","36","training","adjacent","DE","4","5","Q.jpg","L.jpg","0","1","0","",""
"","feedback","","html-keyboard-response","234","368944","0.0-1.0-330.0-0.0","0","0","94080","","null","","","null","36","","","","","","","","","","","","","","","",""
"","time_out","","html-keyboard-response","235","370952","0.0-1.0-332.0-0.0","0","0","94080","","null","","","null","36","","","","","","","","","","","","","","","",""
"","ITI","","html-keyboard-response","236","371961","0.0-1.0-333.0","0","0","94080","","null","","","null","36","","","","","","","","","","","","","","","NaN",""
"","S1","","html-keyboard-response","237","372224","0.0-1.0-335.0","0","0","94080","","null","","","null","37","","","","","","","","","","","","","","","",""
"","ISI","","html-keyboard-response","238","372386","0.0-1.0-336.0","0","0","94080","","null","","","null","37","NaN","","","","","","","","","","","","","","",""
"","S2","","html-keyboard-response","239","372648","0.0-1.0-337.0","0","0","94080","","null","","","null","37","","NaN","","","","","","","","","","","","","",""
"","response","","html-keyboard-response","240","373177","0.0-1.0-338.0-0.0","0","0","94080","","527","","","75","37","","","1","37","training","adjacent","CB","3","2","M.jpg","P.jpg","0","0","1","",""
"","feedback","","html-keyboard-response","241","374186","0.0-1.0-339.0-0.0","0","0","94080","","null","","","null","37","","","","","","","","","","","","","","","",""
"","ITI","","html-keyboard-response","242","375190","0.0-1.0-342.0","0","0","94080","","null","","","null","37","","","","","","","","","","","","","","","NaN",""
"","S1","","html-keyboard-response","243","375446","0.0-1.0-344.0","0","0","94080","","null","","","null","38","","","","","","","","","","","","","","","",""
"","ISI","","html-keyboard-response","244","375608","0.0-1.0-345.0","0","0","94080","","null","","","null","38","NaN","","","","","","","","","","","","","","",""
"","S2","","html-keyboard-response","245","375864","0.0-1.0-346.0","0","0","94080","","null","","","null","38","","NaN","","","","","","","","","","","","","",""
"","response","","html-keyboard-response","246","376424","0.0-1.0-347.0-0.0","0","0","94080","","558","","","75","38","","","1","38","training","adjacent","DE","4","5","Q.jpg","L.jpg","0","1","0","",""
"","feedback","","html-keyboard-response","247","377431","0.0-1.0-348.0-0.0","0","0","94080","","null","","","null","38","","","","","","","","","","","","","","","",""
"","time_out","","html-keyboard-response","248","379440","0.0-1.0-350.0-0.0","0","0","94080","","null","","","null","38","","","","","","","","","","","","","","","",""
"","ITI","","html-keyboard-response","249","380450","0.0-1.0-351.0","0","0","94080","","null","","","null","38","","","","","","","","","","","","","","","NaN",""
"","S1","","html-keyboard-response","250","380711","0.0-1.0-353.0","0","0","94080","","null","","","null","39","","","","","","","","","","","","","","","",""
"","ISI","","html-keyboard-response","251","380874","0.0-1.0-354.0","0","0","94080","","null","","","null","39","NaN","","","","","","","","","","","","","","",""
"","S2","","html-keyboard-response","252","381135","0.0-1.0-355.0","0","0","94080","","null","","","null","39","","NaN","","","","","","","","","","","","","",""
"","response","","html-keyboard-response","253","381669","0.0-1.0-356.0-0.0","0","0","94080","","531","","","75","39","","","1","39","training","adjacent","AB","1","2","R.jpg","P.jpg","0","1","0","",""
"","feedback","","html-keyboard-response","254","382679","0.0-1.0-357.0-0.0","0","0","94080","","null","","","null","39","","","","","","","","","","","","","","","",""
"","time_out","","html-keyboard-response","255","384687","0.0-1.0-359.0-0.0","0","0","94080","","null","","","null","39","","","","","","","","","","","","","","","",""
"","ITI","","html-keyboard-response","256","385698","0.0-1.0-360.0","0","0","94080","","null","","","null","39","","","","","","","","","","","","","","","NaN",""
"","S1","","html-keyboard-response","257","385959","0.0-1.0-362.0","0","0","94080","","null","","","null","40","","","","","","","","","","","","","","","",""
"","ISI","","html-keyboard-response","258","386121","0.0-1.0-363.0","0","0","94080","","null","","","null","40","NaN","","","","","","","","","","","","","","",""
"","S2","","html-keyboard-response","259","386383","0.0-1.0-364.0","0","0","94080","","null","","","null","40","","NaN","","","","","","","","","","","","","",""
"","response","","html-keyboard-response","260","386818","0.0-1.0-365.0-0.0","0","0","94080","","433","","","68","40","","","1","40","training","adjacent","AB","1","2","R.jpg","P.jpg","1","1","1","",""
"","feedback","","html-keyboard-response","261","387823","0.0-1.0-366.0-0.0","0","0","94080","","null","","","null","40","","","","","","","","","","","","","","","",""
"","ITI","","html-keyboard-response","262","388835","0.0-1.0-369.0","0","0","94080","","null","","","null","40","","","","","","","","","","","","","","","NaN",""
"","S1","","html-keyboard-response","263","389094","0.0-1.0-371.0","0","0","94080","","null","","","null","41","","","","","","","","","","","","","","","",""
"","ISI","","html-keyboard-response","264","389256","0.0-1.0-372.0","0","0","94080","","null","","","null","41","NaN","","","","","","","","","","","","","","",""
"","S2","","html-keyboard-response","265","389512","0.0-1.0-373.0","0","0","94080","","null","","","null","41","","NaN","","","","","","","","","","","","","",""
"","response","","html-keyboard-response","266","389909","0.0-1.0-374.0-0.0","0","0","94080","","395","","","68","41","","","1","41","training","adjacent","ED","5","4","L.jpg","Q.jpg","1","0","0","",""
"","feedback","","html-keyboard-response","267","390922","0.0-1.0-375.0-0.0","0","0","94080","","null","","","null","41","","","","","","","","","","","","","","","",""
"","time_out","","html-keyboard-response","268","392931","0.0-1.0-377.0-0.0","0","0","94080","","null","","","null","41","","","","","","","","","","","","","","","",""
"","ITI","","html-keyboard-response","269","393935","0.0-1.0-378.0","0","0","94080","","null","","","null","41","","","","","","","","","","","","","","","NaN",""
"","S1","","html-keyboard-response","270","394191","0.0-1.0-380.0","0","0","94080","","null","","","null","42","","","","","","","","","","","","","","","",""
"","ISI","","html-keyboard-response","271","394353","0.0-1.0-381.0","0","0","94080","","null","","","null","42","NaN","","","","","","","","","","","","","","",""
"","S2","","html-keyboard-response","272","394614","0.0-1.0-382.0","0","0","94080","","null","","","null","42","","NaN","","","","","","","","","","","","","",""
"","response","","html-keyboard-response","273","394959","0.0-1.0-383.0-0.0","0","0","94080","","343","","","75","42","","","1","42","training","adjacent","DE","4","5","Q.jpg","L.jpg","0","1","0","",""
"","feedback","","html-keyboard-response","274","395967","0.0-1.0-384.0-0.0","0","0","94080","","null","","","null","42","","","","","","","","","","","","","","","",""
"","time_out","","html-keyboard-response","275","397970","0.0-1.0-386.0-0.0","0","0","94080","","null","","","null","42","","","","","","","","","","","","","","","",""
"","ITI","","html-keyboard-response","276","398974","0.0-1.0-387.0","0","0","94080","","null","","","null","42","","","","","","","","","","","","","","","NaN",""
"","S1","","html-keyboard-response","277","399235","0.0-1.0-389.0","0","0","94080","","null","","","null","43","","","","","","","","","","","","","","","",""
"","ISI","","html-keyboard-response","278","399392","0.0-1.0-390.0","0","0","94080","","null","","","null","43","NaN","","","","","","","","","","","","","","",""
"","S2","","html-keyboard-response","279","399647","0.0-1.0-391.0","0","0","94080","","null","","","null","43","","NaN","","","","","","","","","","","","","",""
"","response","","html-keyboard-response","280","399983","0.0-1.0-392.0-0.0","0","0","94080","","334","","","75","43","","","1","43","training","adjacent","DE","4","5","Q.jpg","L.jpg","0","1","0","",""
"","feedback","","html-keyboard-response","281","400994","0.0-1.0-393.0-0.0","0","0","94080","","null","","","null","43","","","","","","","","","","","","","","","",""
"","time_out","","html-keyboard-response","282","403003","0.0-1.0-395.0-0.0","0","0","94080","","null","","","null","43","","","","","","","","","","","","","","","",""
"","ITI","","html-keyboard-response","283","404007","0.0-1.0-396.0","0","0","94080","","null","","","null","43","","","","","","","","","","","","","","","NaN",""
"","S1","","html-keyboard-response","284","404262","0.0-1.0-398.0","0","0","94080","","null","","","null","44","","","","","","","","","","","","","","","",""
"","ISI","","html-keyboard-response","285","404425","0.0-1.0-399.0","0","0","94080","","null","","","null","44","NaN","","","","","","","","","","","","","","",""
"","S2","","html-keyboard-response","286","404680","0.0-1.0-400.0","0","0","94080","","null","","","null","44","","NaN","","","","","","","","","","","","","",""
"","response","","html-keyboard-response","287","405177","0.0-1.0-401.0-0.0","0","0","94080","","494","","","75","44","","","1","44","training","adjacent","ED","5","4","L.jpg","Q.jpg","0","0","1","",""
"","feedback","","html-keyboard-response","288","406184","0.0-1.0-402.0-0.0","0","0","94080","","null","","","null","44","","","","","","","","","","","","","","","",""
"","ITI","","html-keyboard-response","289","407194","0.0-1.0-405.0","0","0","94080","","null","","","null","44","","","","","","","","","","","","","","","NaN",""
"","S1","","html-keyboard-response","290","407455","0.0-1.0-407.0","0","0","94080","","null","","","null","45","","","","","","","","","","","","","","","",""
"","ISI","","html-keyboard-response","291","407618","0.0-1.0-408.0","0","0","94080","","null","","","null","45","NaN","","","","","","","","","","","","","","",""
"","S2","","html-keyboard-response","292","407879","0.0-1.0-409.0","0","0","94080","","null","","","null","45","","NaN","","","","","","","","","","","","","",""
"","response","","html-keyboard-response","293","408354","0.0-1.0-410.0-0.0","0","0","94080","","473","","","75","45","","","1","45","training","adjacent","BC","2","3","P.jpg","M.jpg","0","1","0","",""
"","feedback","","html-keyboard-response","294","409359","0.0-1.0-411.0-0.0","0","0","94080","","null","","","null","45","","","","","","","","","","","","","","","",""
"","time_out","","html-keyboard-response","295","411368","0.0-1.0-413.0-0.0","0","0","94080","","null","","","null","45","","","","","","","","","","","","","","","",""
"","ITI","","html-keyboard-response","296","412378","0.0-1.0-414.0","0","0","94080","","null","","","null","45","","","","","","","","","","","","","","","NaN",""
"","S1","","html-keyboard-response","297","412639","0.0-1.0-416.0","0","0","94080","","null","","","null","46","","","","","","","","","","","","","","","",""
"","ISI","","html-keyboard-response","298","412802","0.0-1.0-417.0","0","0","94080","","null","","","null","46","NaN","","","","","","","","","","","","","","",""
"","S2","","html-keyboard-response","299","413063","0.0-1.0-418.0","0","0","94080","","null","","","null","46","","NaN","","","","","","","","","","","","","",""
"","response","","html-keyboard-response","300","413346","0.0-1.0-419.0-0.0","0","0","94080","","281","","","68","46","","","1","46","training","adjacent","CD","3","4","M.jpg","Q.jpg","1","1","1","",""
"","feedback","","html-keyboard-response","301","414351","0.0-1.0-420.0-0.0","0","0","94080","","null","","","null","46","","","","","","","","","","","","","","","",""
"","ITI","","html-keyboard-response","302","415362","0.0-1.0-423.0","0","0","94080","","null","","","null","46","","","","","","","","","","","","","","","NaN",""
"","S1","","html-keyboard-response","303","415623","0.0-1.0-425.0","0","0","94080","","null","","","null","47","","","","","","","","","","","","","","","",""
"","ISI","","html-keyboard-response","304","415785","0.0-1.0-426.0","0","0","94080","","null","","","null","47","NaN","","","","","","","","","","","","","","",""
"","S2","","html-keyboard-response","305","416047","0.0-1.0-427.0","0","0","94080","","null","","","null","47","","NaN","","","","","","","","","","","","","",""
"","response","","html-keyboard-response","306","416604","0.0-1.0-428.0-0.0","0","0","94080","","554","","","75","47","","","1","47","training","adjacent","EF","5","6","L.jpg","N.jpg","0","1","0","",""
"","feedback","","html-keyboard-response","307","417614","0.0-1.0-429.0-0.0","0","0","94080","","null","","","null","47","","","","","","","","","","","","","","","",""
"","time_out","","html-keyboard-response","308","419623","0.0-1.0-431.0-0.0","0","0","94080","","null","","","null","47","","","","","","","","","","","","","","","",""
"","ITI","","html-keyboard-response","309","420633","0.0-1.0-432.0","0","0","94080","","null","","","null","47","","","","","","","","","","","","","","","NaN",""
"","block_over","","html-keyboard-response","310","425921","0.0-1.0-433.0-0.0","0","0","94080","","5285","","","32","47","","","","","","","","","","","","","","","",""
"","S1","","html-keyboard-response","311","426176","0.0-1.0-434.0","0","0","94080","","null","","","null","48","","","","","","","","","","","","","","","",""
"","ISI","","html-keyboard-response","312","426339","0.0-1.0-435.0","0","0","94080","","null","","","null","48","NaN","","","","","","","","","","","","","","",""
"","S2","","html-keyboard-response","313","426600","0.0-1.0-436.0","0","0","94080","","null","","","null","48","","NaN","","","","","","","","","","","","","",""
"","response","","html-keyboard-response","314","427171","0.0-1.0-437.0-0.0","0","0","94080","","569","","","68","48","","","2","48","training","adjacent","EF","5","6","L.jpg","N.jpg","1","1","1","",""
"","feedback","","html-keyboard-response","315","428185","0.0-1.0-438.0-0.0","0","0","94080","","null","","","null","48","","","","","","","","","","","","","","","",""
"","ITI","","html-keyboard-response","316","429195","0.0-1.0-441.0","0","0","94080","","null","","","null","48","","","","","","","","","","","","","","","NaN",""
"","S1","","html-keyboard-response","317","429456","0.0-1.0-443.0","0","0","94080","","null","","","null","49","","","","","","","","","","","","","","","",""
"","ISI","","html-keyboard-response","318","429619","0.0-1.0-444.0","0","0","94080","","null","","","null","49","NaN","","","","","","","","","","","","","","",""
"","S2","","html-keyboard-response","319","429880","0.0-1.0-445.0","0","0","94080","","null","","","null","49","","NaN","","","","","","","","","","","","","",""
"","response","","html-keyboard-response","320","430449","0.0-1.0-446.0-0.0","0","0","94080","","567","","","75","49","","","2","49","training","adjacent","CD","3","4","M.jpg","Q.jpg","0","1","0","",""
"","feedback","","html-keyboard-response","321","431459","0.0-1.0-447.0-0.0","0","0","94080","","null","","","null","49","","","","","","","","","","","","","","","",""
"","time_out","","html-keyboard-response","322","433465","0.0-1.0-449.0-0.0","0","0","94080","","null","","","null","49","","","","","","","","","","","","","","","",""
"","ITI","","html-keyboard-response","323","434472","0.0-1.0-450.0","0","0","94080","","null","","","null","49","","","","","","","","","","","","","","","NaN",""
"","S1","","html-keyboard-response","324","434727","0.0-1.0-452.0","0","0","94080","","null","","","null","50","","","","","","","","","","","","","","","",""
"","ISI","","html-keyboard-response","325","434890","0.0-1.0-453.0","0","0","94080","","null","","","null","50","NaN","","","","","","","","","","","","","","",""
"","S2","","html-keyboard-response","326","435151","0.0-1.0-454.0","0","0","94080","","null","","","null","50","","NaN","","","","","","","","","","","","","",""
"","response","","html-keyboard-response","327","435605","0.0-1.0-455.0-0.0","0","0","94080","","452","","","75","50","","","2","50","training","adjacent","BC","2","3","P.jpg","M.jpg","0","1","0","",""
"","feedback","","html-keyboard-response","328","436616","0.0-1.0-456.0-0.0","0","0","94080","","null","","","null","50","","","","","","","","","","","","","","","",""
"","time_out","","html-keyboard-response","329","438623","0.0-1.0-458.0-0.0","0","0","94080","","null","","","null","50","","","","","","","","","","","","","","","",""
"","ITI","","html-keyboard-response","330","439633","0.0-1.0-459.0","0","0","94080","","null","","","null","50","","","","","","","","","","","","","","","NaN",""
"","S1","","html-keyboard-response","331","439888","0.0-1.0-461.0","0","0","94080","","null","","","null","51","","","","","","","","","","","","","","","",""
"","ISI","","html-keyboard-response","332","440051","0.0-1.0-462.0","0","0","94080","","null","","","null","51","NaN","","","","","","","","","","","","","","",""
"","S2","","html-keyboard-response","333","440312","0.0-1.0-463.0","0","0","94080","","null","","","null","51","","NaN","","","","","","","","","","","","","",""
"","response","","html-keyboard-response","334","440702","0.0-1.0-464.0-0.0","0","0","94080","","387","","","68","51","","","2","51","training","adjacent","FG","6","7","N.jpg","O.jpg","1","1","1","",""
"","feedback","","html-keyboard-response","335","441711","0.0-1.0-465.0-0.0","0","0","94080","","null","","","null","51","","","","","","","","","","","","","","","",""
"","ITI","","html-keyboard-response","336","442721","0.0-1.0-468.0","0","0","94080","","null","","","null","51","","","","","","","","","","","","","","","NaN",""
"","S1","","html-keyboard-response","337","442977","0.0-1.0-470.0","0","0","94080","","null","","","null","52","","","","","","","","","","","","","","","",""
"","ISI","","html-keyboard-response","338","443139","0.0-1.0-471.0","0","0","94080","","null","","","null","52","NaN","","","","","","","","","","","","","","",""
"","S2","","html-keyboard-response","339","443400","0.0-1.0-472.0","0","0","94080","","null","","","null","52","","NaN","","","","","","","","","","","","","",""
"","response","","html-keyboard-response","340","444068","0.0-1.0-473.0-0.0","0","0","94080","","666","","","68","52","","","2","52","training","adjacent","EF","5","6","L.jpg","N.jpg","1","1","1","",""
"","feedback","","html-keyboard-response","341","445084","0.0-1.0-474.0-0.0","0","0","94080","","null","","","null","52","","","","","","","","","","","","","","","",""
"","ITI","","html-keyboard-response","342","446088","0.0-1.0-477.0","0","0","94080","","null","","","null","52","","","","","","","","","","","","","","","NaN",""
"","S1","","html-keyboard-response","343","446343","0.0-1.0-479.0","0","0","94080","","null","","","null","53","","","","","","","","","","","","","","","",""
"","ISI","","html-keyboard-response","344","446506","0.0-1.0-480.0","0","0","94080","","null","","","null","53","NaN","","","","","","","","","","","","","","",""
"","S2","","html-keyboard-response","345","446767","0.0-1.0-481.0","0","0","94080","","null","","","null","53","","NaN","","","","","","","","","","","","","",""
"","response","","html-keyboard-response","346","447155","0.0-1.0-482.0-0.0","0","0","94080","","385","","","75","53","","","2","53","training","adjacent","GF","7","6","O.jpg","N.jpg","0","0","1","",""
"","feedback","","html-keyboard-response","347","448160","0.0-1.0-483.0-0.0","0","0","94080","","null","","","null","53","","","","","","","","","","","","","","","",""
"","ITI","","html-keyboard-response","348","449171","0.0-1.0-486.0","0","0","94080","","null","","","null","53","","","","","","","","","","","","","","","NaN",""
"","S1","","html-keyboard-response","349","449432","0.0-1.0-488.0","0","0","94080","","null","","","null","54","","","","","","","","","","","","","","","",""
"","ISI","","html-keyboard-response","350","449594","0.0-1.0-489.0","0","0","94080","","null","","","null","54","NaN","","","","","","","","","","","","","","",""
"","S2","","html-keyboard-response","351","449856","0.0-1.0-490.0","0","0","94080","","null","","","null","54","","NaN","","","","","","","","","","","","","",""
"","response","","html-keyboard-response","352","450215","0.0-1.0-491.0-0.0","0","0","94080","","357","","","75","54","","","2","54","training","adjacent","GF","7","6","O.jpg","N.jpg","0","0","1","",""
"","feedback","","html-keyboard-response","353","451225","0.0-1.0-492.0-0.0","0","0","94080","","null","","","null","54","","","","","","","","","","","","","","","",""
"","ITI","","html-keyboard-response","354","452236","0.0-1.0-495.0","0","0","94080","","null","","","null","54","","","","","","","","","","","","","","","NaN",""
"","S1","","html-keyboard-response","355","452497","0.0-1.0-497.0","0","0","94080","","null","","","null","55","","","","","","","","","","","","","","","",""
"","ISI","","html-keyboard-response","356","452660","0.0-1.0-498.0","0","0","94080","","null","","","null","55","NaN","","","","","","","","","","","","","","",""
"","S2","","html-keyboard-response","357","452920","0.0-1.0-499.0","0","0","94080","","null","","","null","55","","NaN","","","","","","","","","","","","","",""
"","response","","html-keyboard-response","358","453545","0.0-1.0-500.0-0.0","0","0","94080","","622","","","75","55","","","2","55","training","adjacent","CB","3","2","M.jpg","P.jpg","0","0","1","",""
"","feedback","","html-keyboard-response","359","454552","0.0-1.0-501.0-0.0","0","0","94080","","null","","","null","55","","","","","","","","","","","","","","","",""
"","ITI","","html-keyboard-response","360","455562","0.0-1.0-504.0","0","0","94080","","null","","","null","55","","","","","","","","","","","","","","","NaN",""
"","S1","","html-keyboard-response","361","455823","0.0-1.0-506.0","0","0","94080","","null","","","null","56","","","","","","","","","","","","","","","",""
"","ISI","","html-keyboard-response","362","455986","0.0-1.0-507.0","0","0","94080","","null","","","null","56","NaN","","","","","","","","","","","","","","",""
"","S2","","html-keyboard-response","363","456241","0.0-1.0-508.0","0","0","94080","","null","","","null","56","","NaN","","","","","","","","","","","","","",""
"","response","","html-keyboard-response","364","457061","0.0-1.0-509.0-0.0","0","0","94080","","817","","","68","56","","","2","56","training","adjacent","FE","6","5","N.jpg","L.jpg","1","0","0","",""
"","feedback","","html-keyboard-response","365","458076","0.0-1.0-510.0-0.0","0","0","94080","","null","","","null","56","","","","","","","","","","","","","","","",""
"","time_out","","html-keyboard-response","366","460085","0.0-1.0-512.0-0.0","0","0","94080","","null","","","null","56","","","","","","","","","","","","","","","",""
"","ITI","","html-keyboard-response","367","461100","0.0-1.0-513.0","0","0","94080","","null","","","null","56","","","","","","","","","","","","","","","NaN",""
"","S1","","html-keyboard-response","368","461361","0.0-1.0-515.0","0","0","94080","","null","","","null","57","","","","","","","","","","","","","","","",""
"","ISI","","html-keyboard-response","369","461524","0.0-1.0-516.0","0","0","94080","","null","","","null","57","NaN","","","","","","","","","","","","","","",""
"","S2","","html-keyboard-response","370","461785","0.0-1.0-517.0","0","0","94080","","null","","","null","57","","NaN","","","","","","","","","","","","","",""
"","response","","html-keyboard-response","371","462218","0.0-1.0-518.0-0.0","0","0","94080","","430","","","75","57","","","2","57","training","adjacent","BA","2","1","P.jpg","R.jpg","0","0","1","",""
"","feedback","","html-keyboard-response","372","463225","0.0-1.0-519.0-0.0","0","0","94080","","null","","","null","57","","","","","","","","","","","","","","","",""
"","ITI","","html-keyboard-response","373","464235","0.0-1.0-522.0","0","0","94080","","null","","","null","57","","","","","","","","","","","","","","","NaN",""
"","S1","","html-keyboard-response","374","464496","0.0-1.0-524.0","0","0","94080","","null","","","null","58","","","","","","","","","","","","","","","",""
"","ISI","","html-keyboard-response","375","464659","0.0-1.0-525.0","0","0","94080","","null","","","null","58","NaN","","","","","","","","","","","","","","",""
"","S2","","html-keyboard-response","376","464920","0.0-1.0-526.0","0","0","94080","","null","","","null","58","","NaN","","","","","","","","","","","","","",""
"","response","","html-keyboard-response","377","465375","0.0-1.0-527.0-0.0","0","0","94080","","452","","","75","58","","","2","58","training","adjacent","EF","5","6","L.jpg","N.jpg","0","1","0","",""
"","feedback","","html-keyboard-response","378","466386","0.0-1.0-528.0-0.0","0","0","94080","","null","","","null","58","","","","","","","","","","","","","","","",""
"","time_out","","html-keyboard-response","379","468391","0.0-1.0-530.0-0.0","0","0","94080","","null","","","null","58","","","","","","","","","","","","","","","",""
"","ITI","","html-keyboard-response","380","469402","0.0-1.0-531.0","0","0","94080","","null","","","null","58","","","","","","","","","","","","","","","NaN",""
"","S1","","html-keyboard-response","381","469657","0.0-1.0-533.0","0","0","94080","","null","","","null","59","","","","","","","","","","","","","","","",""
"","ISI","","html-keyboard-response","382","469819","0.0-1.0-534.0","0","0","94080","","null","","","null","59","NaN","","","","","","","","","","","","","","",""
"","S2","","html-keyboard-response","383","470080","0.0-1.0-535.0","0","0","94080","","null","","","null","59","","NaN","","","","","","","","","","","","","",""
"","response","","html-keyboard-response","384","470635","0.0-1.0-536.0-0.0","0","0","94080","","553","","","68","59","","","2","59","training","adjacent","CB","3","2","M.jpg","P.jpg","1","0","0","",""
"","feedback","","html-keyboard-response","385","471642","0.0-1.0-537.0-0.0","0","0","94080","","null","","","null","59","","","","","","","","","","","","","","","",""
"","time_out","","html-keyboard-response","386","473650","0.0-1.0-539.0-0.0","0","0","94080","","null","","","null","59","","","","","","","","","","","","","","","",""
"","ITI","","html-keyboard-response","387","474659","0.0-1.0-540.0","0","0","94080","","null","","","null","59","","","","","","","","","","","","","","","NaN",""
"","S1","","html-keyboard-response","388","474922","0.0-1.0-542.0","0","0","94080","","null","","","null","60","","","","","","","","","","","","","","","",""
"","ISI","","html-keyboard-response","389","475084","0.0-1.0-543.0","0","0","94080","","null","","","null","60","NaN","","","","","","","","","","","","","","",""
"","S2","","html-keyboard-response","390","475346","0.0-1.0-544.0","0","0","94080","","null","","","null","60","","NaN","","","","","","","","","","","","","",""
"","response","","html-keyboard-response","391","475579","0.0-1.0-545.0-0.0","0","0","94080","","231","","","75","60","","","2","60","training","adjacent","DE","4","5","Q.jpg","L.jpg","0","1","0","",""
"","feedback","","html-keyboard-response","392","476588","0.0-1.0-546.0-0.0","0","0","94080","","null","","","null","60","","","","","","","","","","","","","","","",""
"","time_out","","html-keyboard-response","393","478595","0.0-1.0-548.0-0.0","0","0","94080","","null","","","null","60","","","","","","","","","","","","","","","",""
"","ITI","","html-keyboard-response","394","479601","0.0-1.0-549.0","0","0","94080","","null","","","null","60","","","","","","","","","","","","","","","NaN",""
"","S1","","html-keyboard-response","395","479856","0.0-1.0-551.0","0","0","94080","","null","","","null","61","","","","","","","","","","","","","","","",""
"","ISI","","html-keyboard-response","396","480019","0.0-1.0-552.0","0","0","94080","","null","","","null","61","NaN","","","","","","","","","","","","","","",""
"","S2","","html-keyboard-response","397","480280","0.0-1.0-553.0","0","0","94080","","null","","","null","61","","NaN","","","","","","","","","","","","","",""
"","response","","html-keyboard-response","398","480543","0.0-1.0-554.0-0.0","0","0","94080","","260","","","68","61","","","2","61","training","adjacent","FG","6","7","N.jpg","O.jpg","1","1","1","",""
"","feedback","","html-keyboard-response","399","481551","0.0-1.0-555.0-0.0","0","0","94080","","null","","","null","61","","","","","","","","","","","","","","","",""
"","ITI","","html-keyboard-response","400","482561","0.0-1.0-558.0","0","0","94080","","null","","","null","61","","","","","","","","","","","","","","","NaN",""
"","S1","","html-keyboard-response","401","482817","0.0-1.0-560.0","0","0","94080","","null","","","null","62","","","","","","","","","","","","","","","",""
"","ISI","","html-keyboard-response","402","482979","0.0-1.0-561.0","0","0","94080","","null","","","null","62","NaN","","","","","","","","","","","","","","",""
"","S2","","html-keyboard-response","403","483241","0.0-1.0-562.0","0","0","94080","","null","","","null","62","","NaN","","","","","","","","","","","","","",""
"","response","","html-keyboard-response","404","483747","0.0-1.0-563.0-0.0","0","0","94080","","504","","","75","62","","","2","62","training","adjacent","ED","5","4","L.jpg","Q.jpg","0","0","1","",""
"","feedback","","html-keyboard-response","405","484756","0.0-1.0-564.0-0.0","0","0","94080","","null","","","null","62","","","","","","","","","","","","","","","",""
"","ITI","","html-keyboard-response","406","485760","0.0-1.0-567.0","0","0","94080","","null","","","null","62","","","","","","","","","","","","","","","NaN",""
"","S1","","html-keyboard-response","407","486015","0.0-1.0-569.0","0","0","94080","","null","","","null","63","","","","","","","","","","","","","","","",""
"","ISI","","html-keyboard-response","408","486178","0.0-1.0-570.0","0","0","94080","","null","","","null","63","NaN","","","","","","","","","","","","","","",""
"","S2","","html-keyboard-response","409","486434","0.0-1.0-571.0","0","0","94080","","null","","","null","63","","NaN","","","","","","","","","","","","","",""
"","response","","html-keyboard-response","410","486915","0.0-1.0-572.0-0.0","0","0","94080","","479","","","75","63","","","2","63","training","adjacent","EF","5","6","L.jpg","N.jpg","0","1","0","",""
"","feedback","","html-keyboard-response","411","487920","0.0-1.0-573.0-0.0","0","0","94080","","null","","","null","63","","","","","","","","","","","","","","","",""
"","time_out","","html-keyboard-response","412","489928","0.0-1.0-575.0-0.0","0","0","94080","","null","","","null","63","","","","","","","","","","","","","","","",""
"","ITI","","html-keyboard-response","413","490938","0.0-1.0-576.0","0","0","94080","","null","","","null","63","","","","","","","","","","","","","","","NaN",""
"","S1","","html-keyboard-response","414","491194","0.0-1.0-578.0","0","0","94080","","null","","","null","64","","","","","","","","","","","","","","","",""
"","ISI","","html-keyboard-response","415","491356","0.0-1.0-579.0","0","0","94080","","null","","","null","64","NaN","","","","","","","","","","","","","","",""
"","S2","","html-keyboard-response","416","491617","0.0-1.0-580.0","0","0","94080","","null","","","null","64","","NaN","","","","","","","","","","","","","",""
"","response","","html-keyboard-response","417","492061","0.0-1.0-581.0-0.0","0","0","94080","","441","","","75","64","","","2","64","training","adjacent","GF","7","6","O.jpg","N.jpg","0","0","1","",""
"","feedback","","html-keyboard-response","418","493075","0.0-1.0-582.0-0.0","0","0","94080","","null","","","null","64","","","","","","","","","","","","","","","",""
"","ITI","","html-keyboard-response","419","494085","0.0-1.0-585.0","0","0","94080","","null","","","null","64","","","","","","","","","","","","","","","NaN",""
"","S1","","html-keyboard-response","420","494346","0.0-1.0-587.0","0","0","94080","","null","","","null","65","","","","","","","","","","","","","","","",""
"","ISI","","html-keyboard-response","421","494508","0.0-1.0-588.0","0","0","94080","","null","","","null","65","NaN","","","","","","","","","","","","","","",""
"","S2","","html-keyboard-response","422","494770","0.0-1.0-589.0","0","0","94080","","null","","","null","65","","NaN","","","","","","","","","","","","","",""
"","response","","html-keyboard-response","423","495249","0.0-1.0-590.0-0.0","0","0","94080","","477","","","68","65","","","2","65","training","adjacent","DC","4","3","Q.jpg","M.jpg","1","0","0","",""
"","feedback","","html-keyboard-response","424","496258","0.0-1.0-591.0-0.0","0","0","94080","","null","","","null","65","","","","","","","","","","","","","","","",""
"","time_out","","html-keyboard-response","425","498270","0.0-1.0-593.0-0.0","0","0","94080","","null","","","null","65","","","","","","","","","","","","","","","",""
"","ITI","","html-keyboard-response","426","499282","0.0-1.0-594.0","0","0","94080","","null","","","null","65","","","","","","","","","","","","","","","NaN",""
"","S1","","html-keyboard-response","427","499537","0.0-1.0-596.0","0","0","94080","","null","","","null","66","","","","","","","","","","","","","","","",""
"","ISI","","html-keyboard-response","428","499701","0.0-1.0-597.0","0","0","94080","","null","","","null","66","NaN","","","","","","","","","","","","","","",""
"","S2","","html-keyboard-response","429","499962","0.0-1.0-598.0","0","0","94080","","null","","","null","66","","NaN","","","","","","","","","","","","","",""
"","response","","html-keyboard-response","430","500376","0.0-1.0-599.0-0.0","0","0","94080","","412","","","75","66","","","2","66","training","adjacent","BC","2","3","P.jpg","M.jpg","0","1","0","",""
"","feedback","","html-keyboard-response","431","501387","0.0-1.0-600.0-0.0","0","0","94080","","null","","","null","66","","","","","","","","","","","","","","","",""
"","time_out","","html-keyboard-response","432","503398","0.0-1.0-602.0-0.0","0","0","94080","","null","","","null","66","","","","","","","","","","","","","","","",""
"","ITI","","html-keyboard-response","433","504409","0.0-1.0-603.0","0","0","94080","","null","","","null","66","","","","","","","","","","","","","","","NaN",""
"","S1","","html-keyboard-response","434","504664","0.0-1.0-605.0","0","0","94080","","null","","","null","67","","","","","","","","","","","","","","","",""
"","ISI","","html-keyboard-response","435","504828","0.0-1.0-606.0","0","0","94080","","null","","","null","67","NaN","","","","","","","","","","","","","","",""
"","S2","","html-keyboard-response","436","505089","0.0-1.0-607.0","0","0","94080","","null","","","null","67","","NaN","","","","","","","","","","","","","",""
"","response","","html-keyboard-response","437","505461","0.0-1.0-608.0-0.0","0","0","94080","","369","","","75","67","","","2","67","training","adjacent","DE","4","5","Q.jpg","L.jpg","0","1","0","",""
"","feedback","","html-keyboard-response","438","506467","0.0-1.0-609.0-0.0","0","0","94080","","null","","","null","67","","","","","","","","","","","","","","","",""
"","time_out","","html-keyboard-response","439","508477","0.0-1.0-611.0-0.0","0","0","94080","","null","","","null","67","","","","","","","","","","","","","","","",""
"","ITI","","html-keyboard-response","440","509488","0.0-1.0-612.0","0","0","94080","","null","","","null","67","","","","","","","","","","","","","","","NaN",""
"","S1","","html-keyboard-response","441","509750","0.0-1.0-614.0","0","0","94080","","null","","","null","68","","","","","","","","","","","","","","","",""
"","ISI","","html-keyboard-response","442","509913","0.0-1.0-615.0","0","0","94080","","null","","","null","68","NaN","","","","","","","","","","","","","","",""
"","S2","","html-keyboard-response","443","510174","0.0-1.0-616.0","0","0","94080","","null","","","null","68","","NaN","","","","","","","","","","","","","",""
"","response","","html-keyboard-response","444","510539","0.0-1.0-617.0-0.0","0","0","94080","","362","","","75","68","","","2","68","training","adjacent","BA","2","1","P.jpg","R.jpg","0","0","1","",""
"","feedback","","html-keyboard-response","445","511551","0.0-1.0-618.0-0.0","0","0","94080","","null","","","null","68","","","","","","","","","","","","","","","",""
"","ITI","","html-keyboard-response","446","512562","0.0-1.0-621.0","0","0","94080","","null","","","null","68","","","","","","","","","","","","","","","NaN",""
"","S1","","html-keyboard-response","447","512826","0.0-1.0-623.0","0","0","94080","","null","","","null","69","","","","","","","","","","","","","","","",""
"","ISI","","html-keyboard-response","448","512986","0.0-1.0-624.0","0","0","94080","","null","","","null","69","NaN","","","","","","","","","","","","","","",""
"","S2","","html-keyboard-response","449","513241","0.0-1.0-625.0","0","0","94080","","null","","","null","69","","NaN","","","","","","","","","","","","","",""
"","response","","html-keyboard-response","450","513606","0.0-1.0-626.0-0.0","0","0","94080","","362","","","68","69","","","2","69","training","adjacent","DC","4","3","Q.jpg","M.jpg","1","0","0","",""
"","feedback","","html-keyboard-response","451","514618","0.0-1.0-627.0-0.0","0","0","94080","","null","","","null","69","","","","","","","","","","","","","","","",""
"","time_out","","html-keyboard-response","452","516628","0.0-1.0-629.0-0.0","0","0","94080","","null","","","null","69","","","","","","","","","","","","","","","",""
"","ITI","","html-keyboard-response","453","517639","0.0-1.0-630.0","0","0","94080","","null","","","null","69","","","","","","","","","","","","","","","NaN",""
"","S1","","html-keyboard-response","454","517900","0.0-1.0-632.0","0","0","94080","","null","","","null","70","","","","","","","","","","","","","","","",""
"","ISI","","html-keyboard-response","455","518063","0.0-1.0-633.0","0","0","94080","","null","","","null","70","NaN","","","","","","","","","","","","","","",""
"","S2","","html-keyboard-response","456","518324","0.0-1.0-634.0","0","0","94080","","null","","","null","70","","NaN","","","","","","","","","","","","","",""
"","response","","html-keyboard-response","457","518884","0.0-1.0-635.0-0.0","0","0","94080","","557","","","75","70","","","2","70","training","adjacent","FE","6","5","N.jpg","L.jpg","0","0","1","",""
"","feedback","","html-keyboard-response","458","519892","0.0-1.0-636.0-0.0","0","0","94080","","null","","","null","70","","","","","","","","","","","","","","","",""
"","ITI","","html-keyboard-response","459","520903","0.0-1.0-639.0","0","0","94080","","null","","","null","70","","","","","","","","","","","","","","","NaN",""
"","S1","","html-keyboard-response","460","521158","0.0-1.0-641.0","0","0","94080","","null","","","null","71","","","","","","","","","","","","","","","",""
"","ISI","","html-keyboard-response","461","521321","0.0-1.0-642.0","0","0","94080","","null","","","null","71","NaN","","","","","","","","","","","","","","",""
"","S2","","html-keyboard-response","462","521582","0.0-1.0-643.0","0","0","94080","","null","","","null","71","","NaN","","","","","","","","","","","","","",""
"","response","","html-keyboard-response","463","522171","0.0-1.0-644.0-0.0","0","0","94080","","586","","","75","71","","","2","71","training","adjacent","ED","5","4","L.jpg","Q.jpg","0","0","1","",""
"","feedback","","html-keyboard-response","464","523185","0.0-1.0-645.0-0.0","0","0","94080","","null","","","null","71","","","","","","","","","","","","","","","",""
"","ITI","","html-keyboard-response","465","524189","0.0-1.0-648.0","0","0","94080","","null","","","null","71","","","","","","","","","","","","","","","NaN",""
"","S1","","html-keyboard-response","466","524445","0.0-1.0-650.0","0","0","94080","","null","","","null","72","","","","","","","","","","","","","","","",""
"","ISI","","html-keyboard-response","467","524608","0.0-1.0-651.0","0","0","94080","","null","","","null","72","NaN","","","","","","","","","","","","","","",""
"","S2","","html-keyboard-response","468","524866","0.0-1.0-652.0","0","0","94080","","null","","","null","72","","NaN","","","","","","","","","","","","","",""
"","response","","html-keyboard-response","469","525317","0.0-1.0-653.0-0.0","0","0","94080","","448","","","75","72","","","2","72","training","adjacent","BC","2","3","P.jpg","M.jpg","0","1","0","",""
"","feedback","","html-keyboard-response","470","526327","0.0-1.0-654.0-0.0","0","0","94080","","null","","","null","72","","","","","","","","","","","","","","","",""
"","time_out","","html-keyboard-response","471","528336","0.0-1.0-656.0-0.0","0","0","94080","","null","","","null","72","","","","","","","","","","","","","","","",""
"","ITI","","html-keyboard-response","472","529346","0.0-1.0-657.0","0","0","94080","","null","","","null","72","","","","","","","","","","","","","","","NaN",""
"","S1","","html-keyboard-response","473","529608","0.0-1.0-659.0","0","0","94080","","null","","","null","73","","","","","","","","","","","","","","","",""
"","ISI","","html-keyboard-response","474","529770","0.0-1.0-660.0","0","0","94080","","null","","","null","73","NaN","","","","","","","","","","","","","","",""
"","S2","","html-keyboard-response","475","530034","0.0-1.0-661.0","0","0","94080","","null","","","null","73","","NaN","","","","","","","","","","","","","",""
"","response","","html-keyboard-response","476","530557","0.0-1.0-662.0-0.0","0","0","94080","","521","","","75","73","","","2","73","training","adjacent","AB","1","2","R.jpg","P.jpg","0","1","0","",""
"","feedback","","html-keyboard-response","477","531570","0.0-1.0-663.0-0.0","0","0","94080","","null","","","null","73","","","","","","","","","","","","","","","",""
"","time_out","","html-keyboard-response","478","533579","0.0-1.0-665.0-0.0","0","0","94080","","null","","","null","73","","","","","","","","","","","","","","","",""
"","ITI","","html-keyboard-response","479","534585","0.0-1.0-666.0","0","0","94080","","null","","","null","73","","","","","","","","","","","","","","","NaN",""
"","S1","","html-keyboard-response","480","534845","0.0-1.0-668.0","0","0","94080","","null","","","null","74","","","","","","","","","","","","","","","",""
"","ISI","","html-keyboard-response","481","535001","0.0-1.0-669.0","0","0","94080","","null","","","null","74","NaN","","","","","","","","","","","","","","",""
"","S2","","html-keyboard-response","482","535257","0.0-1.0-670.0","0","0","94080","","null","","","null","74","","NaN","","","","","","","","","","","","","",""
"","response","","html-keyboard-response","483","535664","0.0-1.0-671.0-0.0","0","0","94080","","404","","","68","74","","","2","74","training","adjacent","ED","5","4","L.jpg","Q.jpg","1","0","0","",""
"","feedback","","html-keyboard-response","484","536674","0.0-1.0-672.0-0.0","0","0","94080","","null","","","null","74","","","","","","","","","","","","","","","",""
"","time_out","","html-keyboard-response","485","538682","0.0-1.0-674.0-0.0","0","0","94080","","null","","","null","74","","","","","","","","","","","","","","","",""
"","ITI","","html-keyboard-response","486","539693","0.0-1.0-675.0","0","0","94080","","null","","","null","74","","","","","","","","","","","","","","","NaN",""
"","S1","","html-keyboard-response","487","539954","0.0-1.0-677.0","0","0","94080","","null","","","null","75","","","","","","","","","","","","","","","",""
"","ISI","","html-keyboard-response","488","540116","0.0-1.0-678.0","0","0","94080","","null","","","null","75","NaN","","","","","","","","","","","","","","",""
"","S2","","html-keyboard-response","489","540381","0.0-1.0-679.0","0","0","94080","","null","","","null","75","","NaN","","","","","","","","","","","","","",""
"","response","","html-keyboard-response","490","540710","0.0-1.0-680.0-0.0","0","0","94080","","326","","","75","75","","","2","75","training","adjacent","CB","3","2","M.jpg","P.jpg","0","0","1","",""
"","feedback","","html-keyboard-response","491","541713","0.0-1.0-681.0-0.0","0","0","94080","","null","","","null","75","","","","","","","","","","","","","","","",""
"","ITI","","html-keyboard-response","492","542726","0.0-1.0-684.0","0","0","94080","","null","","","null","75","","","","","","","","","","","","","","","NaN",""
"","S1","","html-keyboard-response","493","542991","0.0-1.0-686.0","0","0","94080","","null","","","null","76","","","","","","","","","","","","","","","",""
"","ISI","","html-keyboard-response","494","543147","0.0-1.0-687.0","0","0","94080","","null","","","null","76","NaN","","","","","","","","","","","","","","",""
"","S2","","html-keyboard-response","495","543403","0.0-1.0-688.0","0","0","94080","","null","","","null","76","","NaN","","","","","","","","","","","","","",""
"","response","","html-keyboard-response","496","543947","0.0-1.0-689.0-0.0","0","0","94080","","542","","","75","76","","","2","76","training","adjacent","BC","2","3","P.jpg","M.jpg","0","1","0","",""
"","feedback","","html-keyboard-response","497","544958","0.0-1.0-690.0-0.0","0","0","94080","","null","","","null","76","","","","","","","","","","","","","","","",""
"","time_out","","html-keyboard-response","498","546961","0.0-1.0-692.0-0.0","0","0","94080","","null","","","null","76","","","","","","","","","","","","","","","",""
"","ITI","","html-keyboard-response","499","547972","0.0-1.0-693.0","0","0","94080","","null","","","null","76","","","","","","","","","","","","","","","NaN",""
"","S1","","html-keyboard-response","500","548227","0.0-1.0-695.0","0","0","94080","","null","","","null","77","","","","","","","","","","","","","","","",""
"","ISI","","html-keyboard-response","501","548390","0.0-1.0-696.0","0","0","94080","","null","","","null","77","NaN","","","","","","","","","","","","","","",""
"","S2","","html-keyboard-response","502","548651","0.0-1.0-697.0","0","0","94080","","null","","","null","77","","NaN","","","","","","","","","","","","","",""
"","response","","html-keyboard-response","503","548971","0.0-1.0-698.0-0.0","0","0","94080","","317","","","68","77","","","2","77","training","adjacent","FG","6","7","N.jpg","O.jpg","1","1","1","",""
"","feedback","","html-keyboard-response","504","549980","0.0-1.0-699.0-0.0","0","0","94080","","null","","","null","77","","","","","","","","","","","","","","","",""
"","ITI","","html-keyboard-response","505","550991","0.0-1.0-702.0","0","0","94080","","null","","","null","77","","","","","","","","","","","","","","","NaN",""
"","S1","","html-keyboard-response","506","551252","0.0-1.0-704.0","0","0","94080","","null","","","null","78","","","","","","","","","","","","","","","",""
"","ISI","","html-keyboard-response","507","551414","0.0-1.0-705.0","0","0","94080","","null","","","null","78","NaN","","","","","","","","","","","","","","",""
"","S2","","html-keyboard-response","508","551675","0.0-1.0-706.0","0","0","94080","","null","","","null","78","","NaN","","","","","","","","","","","","","",""
"","response","","html-keyboard-response","509","551983","0.0-1.0-707.0-0.0","0","0","94080","","306","","","75","78","","","2","78","training","adjacent","BA","2","1","P.jpg","R.jpg","0","0","1","",""
"","feedback","","html-keyboard-response","510","552995","0.0-1.0-708.0-0.0","0","0","94080","","null","","","null","78","","","","","","","","","","","","","","","",""
"","ITI","","html-keyboard-response","511","554003","0.0-1.0-711.0","0","0","94080","","null","","","null","78","","","","","","","","","","","","","","","NaN",""
"","S1","","html-keyboard-response","512","554259","0.0-1.0-713.0","0","0","94080","","null","","","null","79","","","","","","","","","","","","","","","",""
"","ISI","","html-keyboard-response","513","554421","0.0-1.0-714.0","0","0","94080","","null","","","null","79","NaN","","","","","","","","","","","","","","",""
"","S2","","html-keyboard-response","514","554683","0.0-1.0-715.0","0","0","94080","","null","","","null","79","","NaN","","","","","","","","","","","","","",""
"","response","","html-keyboard-response","515","555014","0.0-1.0-716.0-0.0","0","0","94080","","328","","","68","79","","","2","79","training","adjacent","AB","1","2","R.jpg","P.jpg","1","1","1","",""
"","feedback","","html-keyboard-response","516","556021","0.0-1.0-717.0-0.0","0","0","94080","","null","","","null","79","","","","","","","","","","","","","","","",""
"","ITI","","html-keyboard-response","517","557028","0.0-1.0-720.0","0","0","94080","","null","","","null","79","","","","","","","","","","","","","","","NaN",""
"","S1","","html-keyboard-response","518","557284","0.0-1.0-722.0","0","0","94080","","null","","","null","80","","","","","","","","","","","","","","","",""
"","ISI","","html-keyboard-response","519","557446","0.0-1.0-723.0","0","0","94080","","null","","","null","80","NaN","","","","","","","","","","","","","","",""
"","S2","","html-keyboard-response","520","557707","0.0-1.0-724.0","0","0","94080","","null","","","null","80","","NaN","","","","","","","","","","","","","",""
"","response","","html-keyboard-response","521","558019","0.0-1.0-725.0-0.0","0","0","94080","","310","","","68","80","","","2","80","training","adjacent","AB","1","2","R.jpg","P.jpg","1","1","1","",""
"","feedback","","html-keyboard-response","522","559031","0.0-1.0-726.0-0.0","0","0","94080","","null","","","null","80","","","","","","","","","","","","","","","",""
"","ITI","","html-keyboard-response","523","560035","0.0-1.0-729.0","0","0","94080","","null","","","null","80","","","","","","","","","","","","","","","NaN",""
"","S1","","html-keyboard-response","524","560291","0.0-1.0-731.0","0","0","94080","","null","","","null","81","","","","","","","","","","","","","","","",""
"","ISI","","html-keyboard-response","525","560453","0.0-1.0-732.0","0","0","94080","","null","","","null","81","NaN","","","","","","","","","","","","","","",""
"","S2","","html-keyboard-response","526","560709","0.0-1.0-733.0","0","0","94080","","null","","","null","81","","NaN","","","","","","","","","","","","","",""
"","response","","html-keyboard-response","527","560978","0.0-1.0-734.0-0.0","0","0","94080","","266","","","75","81","","","2","81","training","adjacent","GF","7","6","O.jpg","N.jpg","0","0","1","",""
"","feedback","","html-keyboard-response","528","561991","0.0-1.0-735.0-0.0","0","0","94080","","null","","","null","81","","","","","","","","","","","","","","","",""
"","ITI","","html-keyboard-response","529","562996","0.0-1.0-738.0","0","0","94080","","null","","","null","81","","","","","","","","","","","","","","","NaN",""
"","S1","","html-keyboard-response","530","563251","0.0-1.0-740.0","0","0","94080","","null","","","null","82","","","","","","","","","","","","","","","",""
"","ISI","","html-keyboard-response","531","563414","0.0-1.0-741.0","0","0","94080","","null","","","null","82","NaN","","","","","","","","","","","","","","",""
"","S2","","html-keyboard-response","532","563675","0.0-1.0-742.0","0","0","94080","","null","","","null","82","","NaN","","","","","","","","","","","","","",""
"","response","","html-keyboard-response","533","564015","0.0-1.0-743.0-0.0","0","0","94080","","337","","","68","82","","","2","82","training","adjacent","FG","6","7","N.jpg","O.jpg","1","1","1","",""
"","feedback","","html-keyboard-response","534","565022","0.0-1.0-744.0-0.0","0","0","94080","","null","","","null","82","","","","","","","","","","","","","","","",""
"","ITI","","html-keyboard-response","535","566031","0.0-1.0-747.0","0","0","94080","","null","","","null","82","","","","","","","","","","","","","","","NaN",""
"","S1","","html-keyboard-response","536","566293","0.0-1.0-749.0","0","0","94080","","null","","","null","83","","","","","","","","","","","","","","","",""
"","ISI","","html-keyboard-response","537","566456","0.0-1.0-750.0","0","0","94080","","null","","","null","83","NaN","","","","","","","","","","","","","","",""
"","S2","","html-keyboard-response","538","566717","0.0-1.0-751.0","0","0","94080","","null","","","null","83","","NaN","","","","","","","","","","","","","",""
"","response","","html-keyboard-response","539","567036","0.0-1.0-752.0-0.0","0","0","94080","","316","","","75","83","","","2","83","training","adjacent","ED","5","4","L.jpg","Q.jpg","0","0","1","",""
"","feedback","","html-keyboard-response","540","568047","0.0-1.0-753.0-0.0","0","0","94080","","null","","","null","83","","","","","","","","","","","","","","","",""
"","ITI","","html-keyboard-response","541","569053","0.0-1.0-756.0","0","0","94080","","null","","","null","83","","","","","","","","","","","","","","","NaN",""
"","S1","","html-keyboard-response","542","569312","0.0-1.0-758.0","0","0","94080","","null","","","null","84","","","","","","","","","","","","","","","",""
"","ISI","","html-keyboard-response","543","569469","0.0-1.0-759.0","0","0","94080","","null","","","null","84","NaN","","","","","","","","","","","","","","",""
"","S2","","html-keyboard-response","544","569725","0.0-1.0-760.0","0","0","94080","","null","","","null","84","","NaN","","","","","","","","","","","","","",""
"","response","","html-keyboard-response","545","570243","0.0-1.0-761.0-0.0","0","0","94080","","516","","","75","84","","","2","84","training","adjacent","CD","3","4","M.jpg","Q.jpg","0","1","0","",""
"","feedback","","html-keyboard-response","546","571251","0.0-1.0-762.0-0.0","0","0","94080","","null","","","null","84","","","","","","","","","","","","","","","",""
"","time_out","","html-keyboard-response","547","573260","0.0-1.0-764.0-0.0","0","0","94080","","null","","","null","84","","","","","","","","","","","","","","","",""
"","ITI","","html-keyboard-response","548","574270","0.0-1.0-765.0","0","0","94080","","null","","","null","84","","","","","","","","","","","","","","","NaN",""
"","S1","","html-keyboard-response","549","574525","0.0-1.0-767.0","0","0","94080","","null","","","null","85","","","","","","","","","","","","","","","",""
"","ISI","","html-keyboard-response","550","574688","0.0-1.0-768.0","0","0","94080","","null","","","null","85","NaN","","","","","","","","","","","","","","",""
"","S2","","html-keyboard-response","551","574949","0.0-1.0-769.0","0","0","94080","","null","","","null","85","","NaN","","","","","","","","","","","","","",""
"","response","","html-keyboard-response","552","575260","0.0-1.0-770.0-0.0","0","0","94080","","308","","","75","85","","","2","85","training","adjacent","BA","2","1","P.jpg","R.jpg","0","0","1","",""
"","feedback","","html-keyboard-response","553","576272","0.0-1.0-771.0-0.0","0","0","94080","","null","","","null","85","","","","","","","","","","","","","","","",""
"","ITI","","html-keyboard-response","554","577279","0.0-1.0-774.0","0","0","94080","","null","","","null","85","","","","","","","","","","","","","","","NaN",""
"","S1","","html-keyboard-response","555","577532","0.0-1.0-776.0","0","0","94080","","null","","","null","86","","","","","","","","","","","","","","","",""
"","ISI","","html-keyboard-response","556","577695","0.0-1.0-777.0","0","0","94080","","null","","","null","86","NaN","","","","","","","","","","","","","","",""
"","S2","","html-keyboard-response","557","577956","0.0-1.0-778.0","0","0","94080","","null","","","null","86","","NaN","","","","","","","","","","","","","",""
"","response","","html-keyboard-response","558","578335","0.0-1.0-779.0-0.0","0","0","94080","","376","","","68","86","","","2","86","training","adjacent","CD","3","4","M.jpg","Q.jpg","1","1","1","",""
"","feedback","","html-keyboard-response","559","579344","0.0-1.0-780.0-0.0","0","0","94080","","null","","","null","86","","","","","","","","","","","","","","","",""
"","ITI","","html-keyboard-response","560","580348","0.0-1.0-783.0","0","0","94080","","null","","","null","86","","","","","","","","","","","","","","","NaN",""
"","S1","","html-keyboard-response","561","580603","0.0-1.0-785.0","0","0","94080","","null","","","null","87","","","","","","","","","","","","","","","",""
"","ISI","","html-keyboard-response","562","580766","0.0-1.0-786.0","0","0","94080","","null","","","null","87","NaN","","","","","","","","","","","","","","",""
"","S2","","html-keyboard-response","563","581021","0.0-1.0-787.0","0","0","94080","","null","","","null","87","","NaN","","","","","","","","","","","","","",""
"","response","","html-keyboard-response","564","581525","0.0-1.0-788.0-0.0","0","0","94080","","501","","","75","87","","","2","87","training","adjacent","FE","6","5","N.jpg","L.jpg","0","0","1","",""
"","feedback","","html-keyboard-response","565","582537","0.0-1.0-789.0-0.0","0","0","94080","","null","","","null","87","","","","","","","","","","","","","","","",""
"","ITI","","html-keyboard-response","566","583541","0.0-1.0-792.0","0","0","94080","","null","","","null","87","","","","","","","","","","","","","","","NaN",""
"","S1","","html-keyboard-response","567","583796","0.0-1.0-794.0","0","0","94080","","null","","","null","88","","","","","","","","","","","","","","","",""
"","ISI","","html-keyboard-response","568","583959","0.0-1.0-795.0","0","0","94080","","null","","","null","88","NaN","","","","","","","","","","","","","","",""
"","S2","","html-keyboard-response","569","584214","0.0-1.0-796.0","0","0","94080","","null","","","null","88","","NaN","","","","","","","","","","","","","",""
"","response","","html-keyboard-response","570","584427","0.0-1.0-797.0-0.0","0","0","94080","","211","","","75","88","","","2","88","training","adjacent","FE","6","5","N.jpg","L.jpg","0","0","1","",""
"","feedback","","html-keyboard-response","571","585439","0.0-1.0-798.0-0.0","0","0","94080","","null","","","null","88","","","","","","","","","","","","","","","",""
"","ITI","","html-keyboard-response","572","586447","0.0-1.0-801.0","0","0","94080","","null","","","null","88","","","","","","","","","","","","","","","NaN",""
"","S1","","html-keyboard-response","573","586710","0.0-1.0-803.0","0","0","94080","","null","","","null","89","","","","","","","","","","","","","","","",""
"","ISI","","html-keyboard-response","574","586872","0.0-1.0-804.0","0","0","94080","","null","","","null","89","NaN","","","","","","","","","","","","","","",""
"","S2","","html-keyboard-response","575","587134","0.0-1.0-805.0","0","0","94080","","null","","","null","89","","NaN","","","","","","","","","","","","","",""
"","response","","html-keyboard-response","576","587400","0.0-1.0-806.0-0.0","0","0","94080","","263","","","68","89","","","2","89","training","adjacent","CD","3","4","M.jpg","Q.jpg","1","1","1","",""
"","feedback","","html-keyboard-response","577","588406","0.0-1.0-807.0-0.0","0","0","94080","","null","","","null","89","","","","","","","","","","","","","","","",""
"","ITI","","html-keyboard-response","578","589416","0.0-1.0-810.0","0","0","94080","","null","","","null","89","","","","","","","","","","","","","","","NaN",""
