"success","ttype","start_time","trial_type","trial_index","time_elapsed","internal_node_id","warning","missed_checkup","PID","view_history","rt","responses","repeat_instructions","key_press","index","keypress_isi","keypress_S2","block","trial_num","phase","group_type","pair_type","S1_stim","S2_stim","S1_img","S2_img","S1_chosen","S1_higher","accuracy","keypress_iti","total_bonus_tally"
"true","full_screen","d03072023hr1759","fullscreen","0","23769","0.0-0.0","0","0","60219","","","","","","","","","","","","","","","","","","","","","",""
"","instructions","","instructions","1","71686","0.0-1.0-0.0-0.0","0","0","60219","[{""page_index"":0,""viewing_time"":10179},{""page_index"":1,""viewing_time"":22853},{""page_index"":2,""viewing_time"":12305},{""page_index"":3,""viewing_time"":2578}]","47915","","","","","","","","","","","","","","","","","","","",""
"","comprehension_check","","survey-multi-choice","2","130595","0.0-1.0-0.0-1.0","0","0","60219","","58906","{""Q0"":""True"",""Q1"":""K"",""Q2"":""Once the second image appears and while the screen 'MAKE A CHOICE' is shown"",""Q3"":""Green mark"",""Q4"":""either D or K""}","0","","","","","","","","","","","","","","","","","",""
"","start_exp","","html-keyboard-response","3","136773","0.0-1.0-1.0","0","0","60219","","6173","","","32","","","","","","","","","","","","","","","","",""
"","S1","","html-keyboard-response","4","137026","0.0-1.0-2.0","0","0","60219","","null","","","null","0","","","","","","","","","","","","","","","",""
"","ISI","","html-keyboard-response","5","138028","0.0-1.0-3.0","0","0","60219","","null","","","null","0","NaN","","","","","","","","","","","","","","",""
"","S2","","html-keyboard-response","6","138279","0.0-1.0-4.0","0","0","60219","","null","","","null","0","","NaN","","","","","","","","","","","","","",""
"","response","","html-keyboard-response","7","139701","0.0-1.0-5.0-0.0","0","0","60219","","1420","","","75","0","","","1","0","training","adjacent","DC","4","3","L.jpg","N.jpg","1","0","0","",""
"","feedback","","html-keyboard-response","8","140702","0.0-1.0-6.0-0.0","0","0","60219","","null","","","null","0","","","","","","","","","","","","","","","",""
"","time_out","","html-keyboard-response","9","142704","0.0-1.0-8.0-0.0","0","0","60219","","null","","","null","0","","","","","","","","","","","","","","","",""
"","ITI","","html-keyboard-response","10","143706","0.0-1.0-9.0","0","0","60219","","null","","","null","0","","","","","","","","","","","","","","","NaN",""
"","S1","","html-keyboard-response","11","143958","0.0-1.0-11.0","0","0","60219","","null","","","null","1","","","","","","","","","","","","","","","",""
"","ISI","","html-keyboard-response","12","144959","0.0-1.0-12.0","0","0","60219","","null","","","null","1","NaN","","","","","","","","","","","","","","",""
"","S2","","html-keyboard-response","13","145211","0.0-1.0-13.0","0","0","60219","","null","","","null","1","","NaN","","","","","","","","","","","","","",""
"","response","","html-keyboard-response","14","146461","0.0-1.0-14.0-0.0","0","0","60219","","1248","","","68","1","","","1","1","training","adjacent","FE","6","5","M.jpg","R.jpg","0","0","1","",""
"","feedback","","html-keyboard-response","15","147462","0.0-1.0-15.0-0.0","0","0","60219","","null","","","null","1","","","","","","","","","","","","","","","",""
"","ITI","","html-keyboard-response","16","148464","0.0-1.0-18.0","0","0","60219","","null","","","null","1","","","","","","","","","","","","","","","NaN",""
"","S1","","html-keyboard-response","17","148716","0.0-1.0-20.0","0","0","60219","","null","","","null","2","","","","","","","","","","","","","","","",""
"","ISI","","html-keyboard-response","18","149719","0.0-1.0-21.0","0","0","60219","","null","","","null","2","NaN","","","","","","","","","","","","","","",""
"","S2","","html-keyboard-response","19","149970","0.0-1.0-22.0","0","0","60219","","null","","","null","2","","NaN","","","","","","","","","","","","","",""
"","response","","html-keyboard-response","20","151030","0.0-1.0-23.0-0.0","0","0","60219","","1059","","","75","2","","","1","2","training","adjacent","BA","2","1","P.jpg","O.jpg","1","0","0","",""
"","feedback","","html-keyboard-response","21","152032","0.0-1.0-24.0-0.0","0","0","60219","","null","","","null","2","","","","","","","","","","","","","","","",""
"","time_out","","html-keyboard-response","22","154035","0.0-1.0-26.0-0.0","0","0","60219","","null","","","null","2","","","","","","","","","","","","","","","",""
"","ITI","","html-keyboard-response","23","155036","0.0-1.0-27.0","0","0","60219","","null","","","null","2","","","","","","","","","","","","","","","NaN",""
"","S1","","html-keyboard-response","24","155288","0.0-1.0-29.0","0","0","60219","","null","","","null","3","","","","","","","","","","","","","","","",""
"","ISI","","html-keyboard-response","25","156290","0.0-1.0-30.0","0","0","60219","","null","","","null","3","NaN","","","","","","","","","","","","","","",""
"","S2","","html-keyboard-response","26","156542","0.0-1.0-31.0","0","0","60219","","null","","","null","3","","NaN","","","","","","","","","","","","","",""
"","response","","html-keyboard-response","27","158012","0.0-1.0-32.0-0.0","0","0","60219","","1469","","","68","3","","","1","3","training","adjacent","ED","5","4","R.jpg","L.jpg","0","0","1","",""
"","feedback","","html-keyboard-response","28","159014","0.0-1.0-33.0-0.0","0","0","60219","","null","","","null","3","","","","","","","","","","","","","","","",""
"","ITI","","html-keyboard-response","29","160016","0.0-1.0-36.0","0","0","60219","","null","","","null","3","","","","","","","","","","","","","","","NaN",""
"","S1","","html-keyboard-response","30","160268","0.0-1.0-38.0","0","0","60219","","null","","","null","4","","","","","","","","","","","","","","","",""
"","ISI","","html-keyboard-response","31","161270","0.0-1.0-39.0","0","0","60219","","null","","","null","4","NaN","","","","","","","","","","","","","","",""
"","S2","","html-keyboard-response","32","161532","0.0-1.0-40.0","0","0","60219","","null","","","null","4","","NaN","","","","","","","","","","","","","",""
"","response","","html-keyboard-response","33","162120","0.0-1.0-41.0-0.0","0","0","60219","","587","","","68","4","","","1","4","training","adjacent","CD","3","4","N.jpg","L.jpg","0","1","0","",""
"","feedback","","html-keyboard-response","34","163122","0.0-1.0-42.0-0.0","0","0","60219","","null","","","null","4","","","","","","","","","","","","","","","",""
"","time_out","","html-keyboard-response","35","165125","0.0-1.0-44.0-0.0","0","0","60219","","null","","","null","4","","","","","","","","","","","","","","","",""
"","ITI","","html-keyboard-response","36","166128","0.0-1.0-45.0","0","0","60219","","null","","","null","4","","","","","","","","","","","","","","","NaN",""
"","S1","","html-keyboard-response","37","166380","0.0-1.0-47.0","0","0","60219","","null","","","null","5","","","","","","","","","","","","","","","",""
"","ISI","","html-keyboard-response","38","167382","0.0-1.0-48.0","0","0","60219","","null","","","null","5","NaN","","","","","","","","","","","","","","",""
"","S2","","html-keyboard-response","39","167633","0.0-1.0-49.0","0","0","60219","","null","","","null","5","","NaN","","","","","","","","","","","","","",""
"","response","","html-keyboard-response","40","168356","0.0-1.0-50.0-0.0","0","0","60219","","722","","","75","5","","","1","5","training","adjacent","AB","1","2","O.jpg","P.jpg","1","1","1","",""
"","feedback","","html-keyboard-response","41","169358","0.0-1.0-51.0-0.0","0","0","60219","","null","","","null","5","","","","","","","","","","","","","","","",""
"","ITI","","html-keyboard-response","42","170361","0.0-1.0-54.0","0","0","60219","","null","","","null","5","","","","","","","","","","","","","","","NaN",""
"","S1","","html-keyboard-response","43","170614","0.0-1.0-56.0","0","0","60219","","null","","","null","6","","","","","","","","","","","","","","","",""
"","ISI","","html-keyboard-response","44","171616","0.0-1.0-57.0","0","0","60219","","null","","","null","6","NaN","","","","","","","","","","","","","","",""
"","S2","","html-keyboard-response","45","171868","0.0-1.0-58.0","0","0","60219","","null","","","null","6","","NaN","","","","","","","","","","","","","",""
"","response","","html-keyboard-response","46","172741","0.0-1.0-59.0-0.0","0","0","60219","","872","","","75","6","","","1","6","training","adjacent","CB","3","2","N.jpg","P.jpg","1","0","0","",""
"","feedback","","html-keyboard-response","47","173743","0.0-1.0-60.0-0.0","0","0","60219","","null","","","null","6","","","","","","","","","","","","","","","",""
"","time_out","","html-keyboard-response","48","175746","0.0-1.0-62.0-0.0","0","0","60219","","null","","","null","6","","","","","","","","","","","","","","","",""
"","ITI","","html-keyboard-response","49","176748","0.0-1.0-63.0","0","0","60219","","null","","","null","6","","","","","","","","","","","","","","","NaN",""
"","S1","","html-keyboard-response","50","177000","0.0-1.0-65.0","0","0","60219","","null","","","null","7","","","","","","","","","","","","","","","",""
"","ISI","","html-keyboard-response","51","178002","0.0-1.0-66.0","0","0","60219","","null","","","null","7","NaN","","","","","","","","","","","","","","",""
"","S2","","html-keyboard-response","52","178254","0.0-1.0-67.0","0","0","60219","","null","","","null","7","","NaN","","","","","","","","","","","","","",""
"","response","","html-keyboard-response","53","178723","0.0-1.0-68.0-0.0","0","0","60219","","468","","","75","7","","","1","7","training","adjacent","BC","2","3","P.jpg","N.jpg","1","1","1","",""
"","feedback","","html-keyboard-response","54","179726","0.0-1.0-69.0-0.0","0","0","60219","","null","","","null","7","","","","","","","","","","","","","","","",""
"","ITI","","html-keyboard-response","55","180728","0.0-1.0-72.0","0","0","60219","","null","","","null","7","","","","","","","","","","","","","","","NaN",""
"","S1","","html-keyboard-response","56","180980","0.0-1.0-74.0","0","0","60219","","null","","","null","8","","","","","","","","","","","","","","","",""
"","ISI","","html-keyboard-response","57","181984","0.0-1.0-75.0","0","0","60219","","null","","","null","8","NaN","","","","","","","","","","","","","","",""
"","S2","","html-keyboard-response","58","182236","0.0-1.0-76.0","0","0","60219","","null","","","null","8","","NaN","","","","","","","","","","","","","",""
"","response","","html-keyboard-response","59","182684","0.0-1.0-77.0-0.0","0","0","60219","","447","","","68","8","","","1","8","training","adjacent","FE","6","5","M.jpg","R.jpg","0","0","1","",""
"","feedback","","html-keyboard-response","60","183687","0.0-1.0-78.0-0.0","0","0","60219","","null","","","null","8","","","","","","","","","","","","","","","",""
"","ITI","","html-keyboard-response","61","184689","0.0-1.0-81.0","0","0","60219","","null","","","null","8","","","","","","","","","","","","","","","NaN",""
"","S1","","html-keyboard-response","62","184942","0.0-1.0-83.0","0","0","60219","","null","","","null","9","","","","","","","","","","","","","","","",""
"","ISI","","html-keyboard-response","63","185943","0.0-1.0-84.0","0","0","60219","","null","","","null","9","NaN","","","","","","","","","","","","","","",""
"","S2","","html-keyboard-response","64","186195","0.0-1.0-85.0","0","0","60219","","null","","","null","9","","NaN","","","","","","","","","","","","","",""
"","response","","html-keyboard-response","65","186583","0.0-1.0-86.0-0.0","0","0","60219","","387","","","75","9","","","1","9","training","adjacent","CB","3","2","N.jpg","P.jpg","1","0","0","",""
"","feedback","","html-keyboard-response","66","187584","0.0-1.0-87.0-0.0","0","0","60219","","null","","","null","9","","","","","","","","","","","","","","","",""
"","time_out","","html-keyboard-response","67","189586","0.0-1.0-89.0-0.0","0","0","60219","","null","","","null","9","","","","","","","","","","","","","","","",""
"","ITI","","html-keyboard-response","68","190588","0.0-1.0-90.0","0","0","60219","","null","","","null","9","","","","","","","","","","","","","","","NaN",""
"","S1","","html-keyboard-response","69","190839","0.0-1.0-92.0","0","0","60219","","null","","","null","10","","","","","","","","","","","","","","","",""
"","ISI","","html-keyboard-response","70","191840","0.0-1.0-93.0","0","0","60219","","null","","","null","10","NaN","","","","","","","","","","","","","","",""
"","S2","","html-keyboard-response","71","192092","0.0-1.0-94.0","0","0","60219","","null","","","null","10","","NaN","","","","","","","","","","","","","",""
"","response","","html-keyboard-response","72","193333","0.0-1.0-95.0-0.0","0","0","60219","","1240","","","68","10","","","1","10","training","adjacent","AB","1","2","O.jpg","P.jpg","0","1","0","",""
"","feedback","","html-keyboard-response","73","194335","0.0-1.0-96.0-0.0","0","0","60219","","null","","","null","10","","","","","","","","","","","","","","","",""
"","time_out","","html-keyboard-response","74","196338","0.0-1.0-98.0-0.0","0","0","60219","","null","","","null","10","","","","","","","","","","","","","","","",""
"","ITI","","html-keyboard-response","75","197340","0.0-1.0-99.0","0","0","60219","","null","","","null","10","","","","","","","","","","","","","","","NaN",""
"","S1","","html-keyboard-response","76","197591","0.0-1.0-101.0","0","0","60219","","null","","","null","11","","","","","","","","","","","","","","","",""
"","ISI","","html-keyboard-response","77","198593","0.0-1.0-102.0","0","0","60219","","null","","","null","11","NaN","","","","","","","","","","","","","","",""
"","S2","","html-keyboard-response","78","198845","0.0-1.0-103.0","0","0","60219","","null","","","null","11","","NaN","","","","","","","","","","","","","",""
"","response","","html-keyboard-response","79","200125","0.0-1.0-104.0-0.0","0","0","60219","","1279","","","68","11","","","1","11","training","adjacent","CD","3","4","N.jpg","L.jpg","0","1","0","",""
"","feedback","","html-keyboard-response","80","201127","0.0-1.0-105.0-0.0","0","0","60219","","null","","","null","11","","","","","","","","","","","","","","","",""
"","time_out","","html-keyboard-response","81","203129","0.0-1.0-107.0-0.0","0","0","60219","","null","","","null","11","","","","","","","","","","","","","","","",""
"","ITI","","html-keyboard-response","82","204131","0.0-1.0-108.0","0","0","60219","","null","","","null","11","","","","","","","","","","","","","","","NaN",""
"","S1","","html-keyboard-response","83","204383","0.0-1.0-110.0","0","0","60219","","null","","","null","12","","","","","","","","","","","","","","","",""
"","ISI","","html-keyboard-response","84","205384","0.0-1.0-111.0","0","0","60219","","null","","","null","12","NaN","","","","","","","","","","","","","","",""
"","S2","","html-keyboard-response","85","205636","0.0-1.0-112.0","0","0","60219","","null","","","null","12","","NaN","","","","","","","","","","","","","",""
"","response","","html-keyboard-response","86","206139","0.0-1.0-113.0-0.0","0","0","60219","","503","","","68","12","","","1","12","training","adjacent","DE","4","5","L.jpg","R.jpg","0","1","0","",""
"","feedback","","html-keyboard-response","87","207141","0.0-1.0-114.0-0.0","0","0","60219","","null","","","null","12","","","","","","","","","","","","","","","",""
"","time_out","","html-keyboard-response","88","209143","0.0-1.0-116.0-0.0","0","0","60219","","null","","","null","12","","","","","","","","","","","","","","","",""
"","ITI","","html-keyboard-response","89","210145","0.0-1.0-117.0","0","0","60219","","null","","","null","12","","","","","","","","","","","","","","","NaN",""
"","S1","","html-keyboard-response","90","210398","0.0-1.0-119.0","0","0","60219","","null","","","null","13","","","","","","","","","","","","","","","",""
"","ISI","","html-keyboard-response","91","211400","0.0-1.0-120.0","0","0","60219","","null","","","null","13","NaN","","","","","","","","","","","","","","",""
"","S2","","html-keyboard-response","92","211652","0.0-1.0-121.0","0","0","60219","","null","","","null","13","","NaN","","","","","","","","","","","","","",""
"","response","","html-keyboard-response","93","212885","0.0-1.0-122.0-0.0","0","0","60219","","1232","","","68","13","","","1","13","training","adjacent","GF","7","6","Q.jpg","M.jpg","0","0","1","",""
"","feedback","","html-keyboard-response","94","213887","0.0-1.0-123.0-0.0","0","0","60219","","null","","","null","13","","","","","","","","","","","","","","","",""
"","ITI","","html-keyboard-response","95","214889","0.0-1.0-126.0","0","0","60219","","null","","","null","13","","","","","","","","","","","","","","","NaN",""
"","S1","","html-keyboard-response","96","215141","0.0-1.0-128.0","0","0","60219","","null","","","null","14","","","","","","","","","","","","","","","",""
"","ISI","","html-keyboard-response","97","216143","0.0-1.0-129.0","0","0","60219","","null","","","null","14","NaN","","","","","","","","","","","","","","",""
"","S2","","html-keyboard-response","98","216396","0.0-1.0-130.0","0","0","60219","","null","","","null","14","","NaN","","","","","","","","","","","","","",""
"","response","","html-keyboard-response","99","217517","0.0-1.0-131.0-0.0","0","0","60219","","1120","","","75","14","","","1","14","training","adjacent","CD","3","4","N.jpg","L.jpg","1","1","1","",""
"","feedback","","html-keyboard-response","100","218519","0.0-1.0-132.0-0.0","0","0","60219","","null","","","null","14","","","","","","","","","","","","","","","",""
"","ITI","","html-keyboard-response","101","219522","0.0-1.0-135.0","0","0","60219","","null","","","null","14","","","","","","","","","","","","","","","NaN",""
"","S1","","html-keyboard-response","102","219773","0.0-1.0-137.0","0","0","60219","","null","","","null","15","","","","","","","","","","","","","","","",""
"","ISI","","html-keyboard-response","103","220776","0.0-1.0-138.0","0","0","60219","","null","","","null","15","NaN","","","","","","","","","","","","","","",""
"","S2","","html-keyboard-response","104","221028","0.0-1.0-139.0","0","0","60219","","null","","","null","15","","NaN","","","","","","","","","","","","","",""
"","response","","html-keyboard-response","105","222150","0.0-1.0-140.0-0.0","0","0","60219","","1121","","","68","15","","","1","15","training","adjacent","GF","7","6","Q.jpg","M.jpg","0","0","1","",""
"","feedback","","html-keyboard-response","106","223151","0.0-1.0-141.0-0.0","0","0","60219","","null","","","null","15","","","","","","","","","","","","","","","",""
"","ITI","","html-keyboard-response","107","224154","0.0-1.0-144.0","0","0","60219","","null","","","null","15","","","","","","","","","","","","","","","NaN",""
"","S1","","html-keyboard-response","108","224406","0.0-1.0-146.0","0","0","60219","","null","","","null","16","","","","","","","","","","","","","","","",""
"","ISI","","html-keyboard-response","109","225407","0.0-1.0-147.0","0","0","60219","","null","","","null","16","NaN","","","","","","","","","","","","","","",""
"","S2","","html-keyboard-response","110","225659","0.0-1.0-148.0","0","0","60219","","null","","","null","16","","NaN","","","","","","","","","","","","","",""
"","response","","html-keyboard-response","111","226535","0.0-1.0-149.0-0.0","0","0","60219","","875","","","75","16","","","1","16","training","adjacent","FG","6","7","M.jpg","Q.jpg","1","1","1","",""
"","feedback","","html-keyboard-response","112","227537","0.0-1.0-150.0-0.0","0","0","60219","","null","","","null","16","","","","","","","","","","","","","","","",""
"","ITI","","html-keyboard-response","113","228548","0.0-1.0-153.0","0","0","60219","","null","","","null","16","","","","","","","","","","","","","","","NaN",""
"","S1","","html-keyboard-response","114","228800","0.0-1.0-155.0","0","0","60219","","null","","","null","17","","","","","","","","","","","","","","","",""
"","ISI","","html-keyboard-response","115","229803","0.0-1.0-156.0","0","0","60219","","null","","","null","17","NaN","","","","","","","","","","","","","","",""
"","S2","","html-keyboard-response","116","230054","0.0-1.0-157.0","0","0","60219","","null","","","null","17","","NaN","","","","","","","","","","","","","",""
"","response","","html-keyboard-response","117","231154","0.0-1.0-158.0-0.0","0","0","60219","","1099","","","75","17","","","1","17","training","adjacent","CB","3","2","N.jpg","P.jpg","1","0","0","",""
"","feedback","","html-keyboard-response","118","232156","0.0-1.0-159.0-0.0","0","0","60219","","null","","","null","17","","","","","","","","","","","","","","","",""
"","time_out","","html-keyboard-response","119","234158","0.0-1.0-161.0-0.0","0","0","60219","","null","","","null","17","","","","","","","","","","","","","","","",""
"","ITI","","html-keyboard-response","120","235159","0.0-1.0-162.0","0","0","60219","","null","","","null","17","","","","","","","","","","","","","","","NaN",""
"","S1","","html-keyboard-response","121","235412","0.0-1.0-164.0","0","0","60219","","null","","","null","18","","","","","","","","","","","","","","","",""
"","ISI","","html-keyboard-response","122","236414","0.0-1.0-165.0","0","0","60219","","null","","","null","18","NaN","","","","","","","","","","","","","","",""
"","S2","","html-keyboard-response","123","236667","0.0-1.0-166.0","0","0","60219","","null","","","null","18","","NaN","","","","","","","","","","","","","",""
"","response","","html-keyboard-response","124","238183","0.0-1.0-167.0-0.0","0","0","60219","","1516","","","75","18","","","1","18","training","adjacent","FG","6","7","M.jpg","Q.jpg","1","1","1","",""
"","feedback","","html-keyboard-response","125","239185","0.0-1.0-168.0-0.0","0","0","60219","","null","","","null","18","","","","","","","","","","","","","","","",""
"","ITI","","html-keyboard-response","126","240187","0.0-1.0-171.0","0","0","60219","","null","","","null","18","","","","","","","","","","","","","","","NaN",""
"","S1","","html-keyboard-response","127","240439","0.0-1.0-173.0","0","0","60219","","null","","","null","19","","","","","","","","","","","","","","","",""
"","ISI","","html-keyboard-response","128","241441","0.0-1.0-174.0","0","0","60219","","null","","","null","19","NaN","","","","","","","","","","","","","","",""
"","S2","","html-keyboard-response","129","241693","0.0-1.0-175.0","0","0","60219","","null","","","null","19","","NaN","","","","","","","","","","","","","",""
"","response","","html-keyboard-response","130","242587","0.0-1.0-176.0-0.0","0","0","60219","","893","","","68","19","","","1","19","training","adjacent","AB","1","2","O.jpg","P.jpg","0","1","0","",""
"","feedback","","html-keyboard-response","131","243590","0.0-1.0-177.0-0.0","0","0","60219","","null","","","null","19","","","","","","","","","","","","","","","",""
"","time_out","","html-keyboard-response","132","245593","0.0-1.0-179.0-0.0","0","0","60219","","null","","","null","19","","","","","","","","","","","","","","","",""
"","ITI","","html-keyboard-response","133","246594","0.0-1.0-180.0","0","0","60219","","null","","","null","19","","","","","","","","","","","","","","","NaN",""
"","S1","","html-keyboard-response","134","246847","0.0-1.0-182.0","0","0","60219","","null","","","null","20","","","","","","","","","","","","","","","",""
"","ISI","","html-keyboard-response","135","247848","0.0-1.0-183.0","0","0","60219","","null","","","null","20","NaN","","","","","","","","","","","","","","",""
"","S2","","html-keyboard-response","136","248100","0.0-1.0-184.0","0","0","60219","","null","","","null","20","","NaN","","","","","","","","","","","","","",""
"","response","","html-keyboard-response","137","249677","0.0-1.0-185.0-0.0","0","0","60219","","1576","","","68","20","","","1","20","training","adjacent","AB","1","2","O.jpg","P.jpg","0","1","0","",""
"","feedback","","html-keyboard-response","138","250679","0.0-1.0-186.0-0.0","0","0","60219","","null","","","null","20","","","","","","","","","","","","","","","",""
"","time_out","","html-keyboard-response","139","252681","0.0-1.0-188.0-0.0","0","0","60219","","null","","","null","20","","","","","","","","","","","","","","","",""
"","ITI","","html-keyboard-response","140","253683","0.0-1.0-189.0","0","0","60219","","null","","","null","20","","","","","","","","","","","","","","","NaN",""
"","S1","","html-keyboard-response","141","253935","0.0-1.0-191.0","0","0","60219","","null","","","null","21","","","","","","","","","","","","","","","",""
"","ISI","","html-keyboard-response","142","254937","0.0-1.0-192.0","0","0","60219","","null","","","null","21","NaN","","","","","","","","","","","","","","",""
"","S2","","html-keyboard-response","143","255190","0.0-1.0-193.0","0","0","60219","","null","","","null","21","","NaN","","","","","","","","","","","","","",""
"","response","","html-keyboard-response","144","256052","0.0-1.0-194.0-0.0","0","0","60219","","860","","","75","21","","","1","21","training","adjacent","CB","3","2","N.jpg","P.jpg","1","0","0","",""
"","feedback","","html-keyboard-response","145","257054","0.0-1.0-195.0-0.0","0","0","60219","","null","","","null","21","","","","","","","","","","","","","","","",""
"","time_out","","html-keyboard-response","146","259056","0.0-1.0-197.0-0.0","0","0","60219","","null","","","null","21","","","","","","","","","","","","","","","",""
"","ITI","","html-keyboard-response","147","260057","0.0-1.0-198.0","0","0","60219","","null","","","null","21","","","","","","","","","","","","","","","NaN",""
"","S1","","html-keyboard-response","148","260310","0.0-1.0-200.0","0","0","60219","","null","","","null","22","","","","","","","","","","","","","","","",""
"","ISI","","html-keyboard-response","149","261311","0.0-1.0-201.0","0","0","60219","","null","","","null","22","NaN","","","","","","","","","","","","","","",""
"","S2","","html-keyboard-response","150","261564","0.0-1.0-202.0","0","0","60219","","null","","","null","22","","NaN","","","","","","","","","","","","","",""
"","response","","html-keyboard-response","151","262142","0.0-1.0-203.0-0.0","0","0","60219","","577","","","68","22","","","1","22","training","adjacent","DC","4","3","L.jpg","N.jpg","0","0","1","",""
"","feedback","","html-keyboard-response","152","263144","0.0-1.0-204.0-0.0","0","0","60219","","null","","","null","22","","","","","","","","","","","","","","","",""
"","ITI","","html-keyboard-response","153","264146","0.0-1.0-207.0","0","0","60219","","null","","","null","22","","","","","","","","","","","","","","","NaN",""
"","S1","","html-keyboard-response","154","264398","0.0-1.0-209.0","0","0","60219","","null","","","null","23","","","","","","","","","","","","","","","",""
"","ISI","","html-keyboard-response","155","265400","0.0-1.0-210.0","0","0","60219","","null","","","null","23","NaN","","","","","","","","","","","","","","",""
"","S2","","html-keyboard-response","156","265652","0.0-1.0-211.0","0","0","60219","","null","","","null","23","","NaN","","","","","","","","","","","","","",""
"","response","","html-keyboard-response","157","267404","0.0-1.0-212.0-0.0","0","0","60219","","null","","","null","23","","","1","23","training","adjacent","GF","7","6","Q.jpg","M.jpg","NaN","0","0","",""
"","too_slow_prompt","","html-keyboard-response","158","268406","0.0-1.0-214.0-0.0","1","0","60219","","null","","","null","","","","","","","","","","","","","","","","",""
"","time_out","","html-keyboard-response","159","270407","0.0-1.0-215.0-0.0","0","0","60219","","null","","","null","23","","","","","","","","","","","","","","","",""
"","ITI","","html-keyboard-response","160","271410","0.0-1.0-216.0","0","0","60219","","null","","","null","23","","","","","","","","","","","","","","","NaN",""
"","S1","","html-keyboard-response","161","271661","0.0-1.0-218.0","0","0","60219","","null","","","null","24","","","","","","","","","","","","","","","",""
"","ISI","","html-keyboard-response","162","272663","0.0-1.0-219.0","0","0","60219","","null","","","null","24","NaN","","","","","","","","","","","","","","",""
"","S2","","html-keyboard-response","163","272916","0.0-1.0-220.0","0","0","60219","","null","","","null","24","","NaN","","","","","","","","","","","","","",""
"","response","","html-keyboard-response","164","273292","0.0-1.0-221.0-0.0","0","0","60219","","375","","","75","24","","","1","24","training","adjacent","EF","5","6","R.jpg","M.jpg","1","1","1","",""
"","feedback","","html-keyboard-response","165","274294","0.0-1.0-222.0-0.0","0","0","60219","","null","","","null","24","","","","","","","","","","","","","","","",""
"","ITI","","html-keyboard-response","166","275296","0.0-1.0-225.0","0","0","60219","","null","","","null","24","","","","","","","","","","","","","","","NaN",""
"","S1","","html-keyboard-response","167","275548","0.0-1.0-227.0","0","0","60219","","null","","","null","25","","","","","","","","","","","","","","","",""
"","ISI","","html-keyboard-response","168","276550","0.0-1.0-228.0","0","0","60219","","null","","","null","25","NaN","","","","","","","","","","","","","","",""
"","S2","","html-keyboard-response","169","276802","0.0-1.0-229.0","0","0","60219","","null","","","null","25","","NaN","","","","","","","","","","","","","",""
"","response","","html-keyboard-response","170","277196","0.0-1.0-230.0-0.0","0","0","60219","","393","","","75","25","","","1","25","training","adjacent","EF","5","6","R.jpg","M.jpg","1","1","1","",""
"","feedback","","html-keyboard-response","171","278198","0.0-1.0-231.0-0.0","0","0","60219","","null","","","null","25","","","","","","","","","","","","","","","",""
"","ITI","","html-keyboard-response","172","279199","0.0-1.0-234.0","0","0","60219","","null","","","null","25","","","","","","","","","","","","","","","NaN",""
"","S1","","html-keyboard-response","173","279452","0.0-1.0-236.0","0","0","60219","","null","","","null","26","","","","","","","","","","","","","","","",""
"","ISI","","html-keyboard-response","174","280454","0.0-1.0-237.0","0","0","60219","","null","","","null","26","NaN","","","","","","","","","","","","","","",""
"","S2","","html-keyboard-response","175","280706","0.0-1.0-238.0","0","0","60219","","null","","","null","26","","NaN","","","","","","","","","","","","","",""
"","response","","html-keyboard-response","176","281550","0.0-1.0-239.0-0.0","0","0","60219","","844","","","75","26","","","1","26","training","adjacent","GF","7","6","Q.jpg","M.jpg","1","0","0","",""
"","feedback","","html-keyboard-response","177","282552","0.0-1.0-240.0-0.0","0","0","60219","","null","","","null","26","","","","","","","","","","","","","","","",""
"","time_out","","html-keyboard-response","178","284553","0.0-1.0-242.0-0.0","0","0","60219","","null","","","null","26","","","","","","","","","","","","","","","",""
"","ITI","","html-keyboard-response","179","285555","0.0-1.0-243.0","0","0","60219","","null","","","null","26","","","","","","","","","","","","","","","NaN",""
"","S1","","html-keyboard-response","180","285807","0.0-1.0-245.0","0","0","60219","","null","","","null","27","","","","","","","","","","","","","","","",""
"","ISI","","html-keyboard-response","181","286808","0.0-1.0-246.0","0","0","60219","","null","","","null","27","NaN","","","","","","","","","","","","","","",""
"","S2","","html-keyboard-response","182","287060","0.0-1.0-247.0","0","0","60219","","null","","","null","27","","NaN","","","","","","","","","","","","","",""
"","response","","html-keyboard-response","183","288269","0.0-1.0-248.0-0.0","0","0","60219","","1209","","","68","27","","","1","27","training","adjacent","DE","4","5","L.jpg","R.jpg","0","1","0","",""
"","feedback","","html-keyboard-response","184","289271","0.0-1.0-249.0-0.0","0","0","60219","","null","","","null","27","","","","","","","","","","","","","","","",""
"","time_out","","html-keyboard-response","185","291273","0.0-1.0-251.0-0.0","0","0","60219","","null","","","null","27","","","","","","","","","","","","","","","",""
"","ITI","","html-keyboard-response","186","292275","0.0-1.0-252.0","0","0","60219","","null","","","null","27","","","","","","","","","","","","","","","NaN",""
"","S1","","html-keyboard-response","187","292527","0.0-1.0-254.0","0","0","60219","","null","","","null","28","","","","","","","","","","","","","","","",""
"","ISI","","html-keyboard-response","188","293528","0.0-1.0-255.0","0","0","60219","","null","","","null","28","NaN","","","","","","","","","","","","","","",""
"","S2","","html-keyboard-response","189","293780","0.0-1.0-256.0","0","0","60219","","null","","","null","28","","NaN","","","","","","","","","","","","","",""
"","response","","html-keyboard-response","190","294660","0.0-1.0-257.0-0.0","0","0","60219","","878","","","68","28","","","1","28","training","adjacent","BA","2","1","P.jpg","O.jpg","0","0","1","",""
"","feedback","","html-keyboard-response","191","295662","0.0-1.0-258.0-0.0","0","0","60219","","null","","","null","28","","","","","","","","","","","","","","","",""
"","ITI","","html-keyboard-response","192","296675","0.0-1.0-261.0","0","0","60219","","null","","","null","28","","","","","","","","","","","","","","","NaN",""
"","S1","","html-keyboard-response","193","296927","0.0-1.0-263.0","0","0","60219","","null","","","null","29","","","","","","","","","","","","","","","",""
"","ISI","","html-keyboard-response","194","297929","0.0-1.0-264.0","0","0","60219","","null","","","null","29","NaN","","","","","","","","","","","","","","",""
"","S2","","html-keyboard-response","195","298181","0.0-1.0-265.0","0","0","60219","","null","","","null","29","","NaN","","","","","","","","","","","","","",""
"","response","","html-keyboard-response","196","299677","0.0-1.0-266.0-0.0","0","0","60219","","1496","","","68","29","","","1","29","training","adjacent","DE","4","5","L.jpg","R.jpg","0","1","0","",""
"","feedback","","html-keyboard-response","197","300680","0.0-1.0-267.0-0.0","0","0","60219","","null","","","null","29","","","","","","","","","","","","","","","",""
"","time_out","","html-keyboard-response","198","302681","0.0-1.0-269.0-0.0","0","0","60219","","null","","","null","29","","","","","","","","","","","","","","","",""
"","ITI","","html-keyboard-response","199","303683","0.0-1.0-270.0","0","0","60219","","null","","","null","29","","","","","","","","","","","","","","","NaN",""
"","S1","","html-keyboard-response","200","303934","0.0-1.0-272.0","0","0","60219","","null","","","null","30","","","","","","","","","","","","","","","",""
"","ISI","","html-keyboard-response","201","304936","0.0-1.0-273.0","0","0","60219","","null","","","null","30","NaN","","","","","","","","","","","","","","",""
"","S2","","html-keyboard-response","202","305187","0.0-1.0-274.0","0","0","60219","","null","","","null","30","","NaN","","","","","","","","","","","","","",""
"","response","","html-keyboard-response","203","305540","0.0-1.0-275.0-0.0","0","0","60219","","351","","","75","30","","","1","30","training","adjacent","FE","6","5","M.jpg","R.jpg","1","0","0","",""
"","feedback","","html-keyboard-response","204","306542","0.0-1.0-276.0-0.0","0","0","60219","","null","","","null","30","","","","","","","","","","","","","","","",""
"","time_out","","html-keyboard-response","205","308544","0.0-1.0-278.0-0.0","0","0","60219","","null","","","null","30","","","","","","","","","","","","","","","",""
"","ITI","","html-keyboard-response","206","309547","0.0-1.0-279.0","0","0","60219","","null","","","null","30","","","","","","","","","","","","","","","NaN",""
"","S1","","html-keyboard-response","207","309800","0.0-1.0-281.0","0","0","60219","","null","","","null","31","","","","","","","","","","","","","","","",""
"","ISI","","html-keyboard-response","208","310801","0.0-1.0-282.0","0","0","60219","","null","","","null","31","NaN","","","","","","","","","","","","","","",""
"","S2","","html-keyboard-response","209","311053","0.0-1.0-283.0","0","0","60219","","null","","","null","31","","NaN","","","","","","","","","","","","","",""
"","response","","html-keyboard-response","210","311670","0.0-1.0-284.0-0.0","0","0","60219","","616","","","75","31","","","1","31","training","adjacent","FG","6","7","M.jpg","Q.jpg","1","1","1","",""
"","feedback","","html-keyboard-response","211","312672","0.0-1.0-285.0-0.0","0","0","60219","","null","","","null","31","","","","","","","","","","","","","","","",""
"","ITI","","html-keyboard-response","212","313674","0.0-1.0-288.0","0","0","60219","","null","","","null","31","","","","","","","","","","","","","","","NaN",""
"","S1","","html-keyboard-response","213","313926","0.0-1.0-290.0","0","0","60219","","null","","","null","32","","","","","","","","","","","","","","","",""
"","ISI","","html-keyboard-response","214","314927","0.0-1.0-291.0","0","0","60219","","null","","","null","32","NaN","","","","","","","","","","","","","","",""
"","S2","","html-keyboard-response","215","315181","0.0-1.0-292.0","0","0","60219","","null","","","null","32","","NaN","","","","","","","","","","","","","",""
"","response","","html-keyboard-response","216","316260","0.0-1.0-293.0-0.0","0","0","60219","","1078","","","75","32","","","1","32","training","adjacent","DE","4","5","L.jpg","R.jpg","1","1","1","",""
"","feedback","","html-keyboard-response","217","317262","0.0-1.0-294.0-0.0","0","0","60219","","null","","","null","32","","","","","","","","","","","","","","","",""
"","ITI","","html-keyboard-response","218","318264","0.0-1.0-297.0","0","0","60219","","null","","","null","32","","","","","","","","","","","","","","","NaN",""
"","S1","","html-keyboard-response","219","318516","0.0-1.0-299.0","0","0","60219","","null","","","null","33","","","","","","","","","","","","","","","",""
"","ISI","","html-keyboard-response","220","319517","0.0-1.0-300.0","0","0","60219","","null","","","null","33","NaN","","","","","","","","","","","","","","",""
"","S2","","html-keyboard-response","221","319769","0.0-1.0-301.0","0","0","60219","","null","","","null","33","","NaN","","","","","","","","","","","","","",""
"","response","","html-keyboard-response","222","320581","0.0-1.0-302.0-0.0","0","0","60219","","811","","","75","33","","","1","33","training","adjacent","DC","4","3","L.jpg","N.jpg","1","0","0","",""
"","feedback","","html-keyboard-response","223","321582","0.0-1.0-303.0-0.0","0","0","60219","","null","","","null","33","","","","","","","","","","","","","","","",""
"","time_out","","html-keyboard-response","224","323584","0.0-1.0-305.0-0.0","0","0","60219","","null","","","null","33","","","","","","","","","","","","","","","",""
"","ITI","","html-keyboard-response","225","324586","0.0-1.0-306.0","0","0","60219","","null","","","null","33","","","","","","","","","","","","","","","NaN",""
"","S1","","html-keyboard-response","226","324837","0.0-1.0-308.0","0","0","60219","","null","","","null","34","","","","","","","","","","","","","","","",""
"","ISI","","html-keyboard-response","227","325840","0.0-1.0-309.0","0","0","60219","","null","","","null","34","NaN","","","","","","","","","","","","","","",""
"","S2","","html-keyboard-response","228","326105","0.0-1.0-310.0","0","0","60219","","null","","","null","34","","NaN","","","","","","","","","","","","","",""
"","response","","html-keyboard-response","229","326536","0.0-1.0-311.0-0.0","0","0","60219","","430","","","75","34","","","1","34","training","adjacent","BC","2","3","P.jpg","N.jpg","1","1","1","",""
"","feedback","","html-keyboard-response","230","327537","0.0-1.0-312.0-0.0","0","0","60219","","null","","","null","34","","","","","","","","","","","","","","","",""
"","ITI","","html-keyboard-response","231","328539","0.0-1.0-315.0","0","0","60219","","null","","","null","34","","","","","","","","","","","","","","","NaN",""
"","S1","","html-keyboard-response","232","328791","0.0-1.0-317.0","0","0","60219","","null","","","null","35","","","","","","","","","","","","","","","",""
"","ISI","","html-keyboard-response","233","329792","0.0-1.0-318.0","0","0","60219","","null","","","null","35","NaN","","","","","","","","","","","","","","",""
"","S2","","html-keyboard-response","234","330044","0.0-1.0-319.0","0","0","60219","","null","","","null","35","","NaN","","","","","","","","","","","","","",""
"","response","","html-keyboard-response","235","330996","0.0-1.0-320.0-0.0","0","0","60219","","951","","","68","35","","","1","35","training","adjacent","BA","2","1","P.jpg","O.jpg","0","0","1","",""
"","feedback","","html-keyboard-response","236","331998","0.0-1.0-321.0-0.0","0","0","60219","","null","","","null","35","","","","","","","","","","","","","","","",""
"","ITI","","html-keyboard-response","237","333000","0.0-1.0-324.0","0","0","60219","","null","","","null","35","","","","","","","","","","","","","","","NaN",""
"","S1","","html-keyboard-response","238","333252","0.0-1.0-326.0","0","0","60219","","null","","","null","36","","","","","","","","","","","","","","","",""
"","ISI","","html-keyboard-response","239","334255","0.0-1.0-327.0","0","0","60219","","null","","","null","36","NaN","","","","","","","","","","","","","","",""
"","S2","","html-keyboard-response","240","334507","0.0-1.0-328.0","0","0","60219","","null","","","null","36","","NaN","","","","","","","","","","","","","",""
"","response","","html-keyboard-response","241","334876","0.0-1.0-329.0-0.0","0","0","60219","","369","","","75","36","","","1","36","training","adjacent","FE","6","5","M.jpg","R.jpg","1","0","0","",""
"","feedback","","html-keyboard-response","242","335878","0.0-1.0-330.0-0.0","0","0","60219","","null","","","null","36","","","","","","","","","","","","","","","",""
"","time_out","","html-keyboard-response","243","337881","0.0-1.0-332.0-0.0","0","0","60219","","null","","","null","36","","","","","","","","","","","","","","","",""
"","ITI","","html-keyboard-response","244","338882","0.0-1.0-333.0","0","0","60219","","null","","","null","36","","","","","","","","","","","","","","","NaN",""
"","S1","","html-keyboard-response","245","339134","0.0-1.0-335.0","0","0","60219","","null","","","null","37","","","","","","","","","","","","","","","",""
"","ISI","","html-keyboard-response","246","340135","0.0-1.0-336.0","0","0","60219","","null","","","null","37","NaN","","","","","","","","","","","","","","",""
"","S2","","html-keyboard-response","247","340387","0.0-1.0-337.0","0","0","60219","","null","","","null","37","","NaN","","","","","","","","","","","","","",""
"","response","","html-keyboard-response","248","341093","0.0-1.0-338.0-0.0","0","0","60219","","705","","","75","37","","","1","37","training","adjacent","EF","5","6","R.jpg","M.jpg","1","1","1","",""
"","feedback","","html-keyboard-response","249","342096","0.0-1.0-339.0-0.0","0","0","60219","","null","","","null","37","","","","","","","","","","","","","","","",""
"","ITI","","html-keyboard-response","250","343098","0.0-1.0-342.0","0","0","60219","","null","","","null","37","","","","","","","","","","","","","","","NaN",""
"","S1","","html-keyboard-response","251","343349","0.0-1.0-344.0","0","0","60219","","null","","","null","38","","","","","","","","","","","","","","","",""
"","ISI","","html-keyboard-response","252","344351","0.0-1.0-345.0","0","0","60219","","null","","","null","38","NaN","","","","","","","","","","","","","","",""
"","S2","","html-keyboard-response","253","344614","0.0-1.0-346.0","0","0","60219","","null","","","null","38","","NaN","","","","","","","","","","","","","",""
"","response","","html-keyboard-response","254","345244","0.0-1.0-347.0-0.0","0","0","60219","","628","","","75","38","","","1","38","training","adjacent","EF","5","6","R.jpg","M.jpg","1","1","1","",""
"","feedback","","html-keyboard-response","255","346246","0.0-1.0-348.0-0.0","0","0","60219","","null","","","null","38","","","","","","","","","","","","","","","",""
"","ITI","","html-keyboard-response","256","347248","0.0-1.0-351.0","0","0","60219","","null","","","null","38","","","","","","","","","","","","","","","NaN",""
"","S1","","html-keyboard-response","257","347500","0.0-1.0-353.0","0","0","60219","","null","","","null","39","","","","","","","","","","","","","","","",""
"","ISI","","html-keyboard-response","258","348501","0.0-1.0-354.0","0","0","60219","","null","","","null","39","NaN","","","","","","","","","","","","","","",""
"","S2","","html-keyboard-response","259","348753","0.0-1.0-355.0","0","0","60219","","null","","","null","39","","NaN","","","","","","","","","","","","","",""
"","response","","html-keyboard-response","260","349076","0.0-1.0-356.0-0.0","0","0","60219","","322","","","68","39","","","1","39","training","adjacent","FG","6","7","M.jpg","Q.jpg","0","1","0","",""
"","feedback","","html-keyboard-response","261","350078","0.0-1.0-357.0-0.0","0","0","60219","","null","","","null","39","","","","","","","","","","","","","","","",""
"","time_out","","html-keyboard-response","262","352081","0.0-1.0-359.0-0.0","0","0","60219","","null","","","null","39","","","","","","","","","","","","","","","",""
"","ITI","","html-keyboard-response","263","353083","0.0-1.0-360.0","0","0","60219","","null","","","null","39","","","","","","","","","","","","","","","NaN",""
"","S1","","html-keyboard-response","264","353335","0.0-1.0-362.0","0","0","60219","","null","","","null","40","","","","","","","","","","","","","","","",""
"","ISI","","html-keyboard-response","265","354337","0.0-1.0-363.0","0","0","60219","","null","","","null","40","NaN","","","","","","","","","","","","","","",""
"","S2","","html-keyboard-response","266","354588","0.0-1.0-364.0","0","0","60219","","null","","","null","40","","NaN","","","","","","","","","","","","","",""
"","response","","html-keyboard-response","267","354918","0.0-1.0-365.0-0.0","0","0","60219","","329","","","68","40","","","1","40","training","adjacent","BA","2","1","P.jpg","O.jpg","0","0","1","",""
"","feedback","","html-keyboard-response","268","355920","0.0-1.0-366.0-0.0","0","0","60219","","null","","","null","40","","","","","","","","","","","","","","","",""
"","ITI","","html-keyboard-response","269","356923","0.0-1.0-369.0","0","0","60219","","null","","","null","40","","","","","","","","","","","","","","","NaN",""
"","S1","","html-keyboard-response","270","357175","0.0-1.0-371.0","0","0","60219","","null","","","null","41","","","","","","","","","","","","","","","",""
"","ISI","","html-keyboard-response","271","358177","0.0-1.0-372.0","0","0","60219","","null","","","null","41","NaN","","","","","","","","","","","","","","",""
"","S2","","html-keyboard-response","272","358429","0.0-1.0-373.0","0","0","60219","","null","","","null","41","","NaN","","","","","","","","","","","","","",""
"","response","","html-keyboard-response","273","359188","0.0-1.0-374.0-0.0","0","0","60219","","758","","","68","41","","","1","41","training","adjacent","ED","5","4","R.jpg","L.jpg","0","0","1","",""
"","feedback","","html-keyboard-response","274","360190","0.0-1.0-375.0-0.0","0","0","60219","","null","","","null","41","","","","","","","","","","","","","","","",""
"","ITI","","html-keyboard-response","275","361192","0.0-1.0-378.0","0","0","60219","","null","","","null","41","","","","","","","","","","","","","","","NaN",""
"","S1","","html-keyboard-response","276","361444","0.0-1.0-380.0","0","0","60219","","null","","","null","42","","","","","","","","","","","","","","","",""
"","ISI","","html-keyboard-response","277","362445","0.0-1.0-381.0","0","0","60219","","null","","","null","42","NaN","","","","","","","","","","","","","","",""
"","S2","","html-keyboard-response","278","362697","0.0-1.0-382.0","0","0","60219","","null","","","null","42","","NaN","","","","","","","","","","","","","",""
"","response","","html-keyboard-response","279","363036","0.0-1.0-383.0-0.0","0","0","60219","","338","","","68","42","","","1","42","training","adjacent","ED","5","4","R.jpg","L.jpg","0","0","1","",""
"","feedback","","html-keyboard-response","280","364038","0.0-1.0-384.0-0.0","0","0","60219","","null","","","null","42","","","","","","","","","","","","","","","",""
"","ITI","","html-keyboard-response","281","365040","0.0-1.0-387.0","0","0","60219","","null","","","null","42","","","","","","","","","","","","","","","NaN",""
"","S1","","html-keyboard-response","282","365292","0.0-1.0-389.0","0","0","60219","","null","","","null","43","","","","","","","","","","","","","","","",""
"","ISI","","html-keyboard-response","283","366293","0.0-1.0-390.0","0","0","60219","","null","","","null","43","NaN","","","","","","","","","","","","","","",""
"","S2","","html-keyboard-response","284","366546","0.0-1.0-391.0","0","0","60219","","null","","","null","43","","NaN","","","","","","","","","","","","","",""
"","response","","html-keyboard-response","285","366637","0.0-1.0-392.0-0.0","0","0","60219","","91","","","68","43","","","1","43","training","adjacent","ED","5","4","R.jpg","L.jpg","0","0","1","",""
"","feedback","","html-keyboard-response","286","367640","0.0-1.0-393.0-0.0","0","0","60219","","null","","","null","43","","","","","","","","","","","","","","","",""
"","ITI","","html-keyboard-response","287","368642","0.0-1.0-396.0","0","0","60219","","null","","","null","43","","","","","","","","","","","","","","","NaN",""
"","S1","","html-keyboard-response","288","368893","0.0-1.0-398.0","0","0","60219","","null","","","null","44","","","","","","","","","","","","","","","",""
"","ISI","","html-keyboard-response","289","369895","0.0-1.0-399.0","0","0","60219","","null","","","null","44","NaN","","","","","","","","","","","","","","",""
"","S2","","html-keyboard-response","290","370148","0.0-1.0-400.0","0","0","60219","","null","","","null","44","","NaN","","","","","","","","","","","","","",""
"","response","","html-keyboard-response","291","370476","0.0-1.0-401.0-0.0","0","0","60219","","328","","","75","44","","","1","44","training","adjacent","BC","2","3","P.jpg","N.jpg","1","1","1","",""
"","feedback","","html-keyboard-response","292","371479","0.0-1.0-402.0-0.0","0","0","60219","","null","","","null","44","","","","","","","","","","","","","","","",""
"","ITI","","html-keyboard-response","293","372482","0.0-1.0-405.0","0","0","60219","","null","","","null","44","","","","","","","","","","","","","","","NaN",""
"","S1","","html-keyboard-response","294","372734","0.0-1.0-407.0","0","0","60219","","null","","","null","45","","","","","","","","","","","","","","","",""
"","ISI","","html-keyboard-response","295","373736","0.0-1.0-408.0","0","0","60219","","null","","","null","45","NaN","","","","","","","","","","","","","","",""
"","S2","","html-keyboard-response","296","373987","0.0-1.0-409.0","0","0","60219","","null","","","null","45","","NaN","","","","","","","","","","","","","",""
"","response","","html-keyboard-response","297","374180","0.0-1.0-410.0-0.0","0","0","60219","","191","","","68","45","","","1","45","training","adjacent","CD","3","4","N.jpg","L.jpg","0","1","0","",""
"","feedback","","html-keyboard-response","298","375182","0.0-1.0-411.0-0.0","0","0","60219","","null","","","null","45","","","","","","","","","","","","","","","",""
"","time_out","","html-keyboard-response","299","377184","0.0-1.0-413.0-0.0","0","0","60219","","null","","","null","45","","","","","","","","","","","","","","","",""
"","ITI","","html-keyboard-response","300","378185","0.0-1.0-414.0","0","0","60219","","null","","","null","45","","","","","","","","","","","","","","","NaN",""
"","S1","","html-keyboard-response","301","378438","0.0-1.0-416.0","0","0","60219","","null","","","null","46","","","","","","","","","","","","","","","",""
"","ISI","","html-keyboard-response","302","379440","0.0-1.0-417.0","0","0","60219","","null","","","null","46","NaN","","","","","","","","","","","","","","",""
"","S2","","html-keyboard-response","303","379691","0.0-1.0-418.0","0","0","60219","","null","","","null","46","","NaN","","","","","","","","","","","","","",""
"","response","","html-keyboard-response","304","379998","0.0-1.0-419.0-0.0","0","0","60219","","306","","","68","46","","","1","46","training","adjacent","DC","4","3","L.jpg","N.jpg","0","0","1","",""
"","feedback","","html-keyboard-response","305","381000","0.0-1.0-420.0-0.0","0","0","60219","","null","","","null","46","","","","","","","","","","","","","","","",""
"","ITI","","html-keyboard-response","306","382002","0.0-1.0-423.0","0","0","60219","","null","","","null","46","","","","","","","","","","","","","","","NaN",""
"","S1","","html-keyboard-response","307","382254","0.0-1.0-425.0","0","0","60219","","null","","","null","47","","","","","","","","","","","","","","","",""
"","ISI","","html-keyboard-response","308","383256","0.0-1.0-426.0","0","0","60219","","null","","","null","47","NaN","","","","","","","","","","","","","","",""
"","S2","","html-keyboard-response","309","383507","0.0-1.0-427.0","0","0","60219","","null","","","null","47","","NaN","","","","","","","","","","","","","",""
"","response","","html-keyboard-response","310","384419","0.0-1.0-428.0-0.0","0","0","60219","","912","","","75","47","","","1","47","training","adjacent","BC","2","3","P.jpg","N.jpg","1","1","1","",""
"","feedback","","html-keyboard-response","311","385422","0.0-1.0-429.0-0.0","0","0","60219","","null","","","null","47","","","","","","","","","","","","","","","",""
"","ITI","","html-keyboard-response","312","386424","0.0-1.0-432.0","0","0","60219","","null","","","null","47","","","","","","","","","","","","","","","NaN",""
"","block_over","","html-keyboard-response","313","395214","0.0-1.0-433.0-0.0","0","0","60219","","8788","","","32","47","","","","","","","","","","","","","","","",""
"","S1","","html-keyboard-response","314","395466","0.0-1.0-434.0","0","0","60219","","null","","","null","48","","","","","","","","","","","","","","","",""
"","ISI","","html-keyboard-response","315","396468","0.0-1.0-435.0","0","0","60219","","null","","","null","48","NaN","","","","","","","","","","","","","","",""
"","S2","","html-keyboard-response","316","396720","0.0-1.0-436.0","0","0","60219","","null","","","null","48","","NaN","","","","","","","","","","","","","",""
"","response","","html-keyboard-response","317","397236","0.0-1.0-437.0-0.0","0","0","60219","","515","","","75","48","","","2","48","training","adjacent","DC","4","3","L.jpg","N.jpg","1","0","0","",""
"","feedback","","html-keyboard-response","318","398238","0.0-1.0-438.0-0.0","0","0","60219","","null","","","null","48","","","","","","","","","","","","","","","",""
"","time_out","","html-keyboard-response","319","400240","0.0-1.0-440.0-0.0","0","0","60219","","null","","","null","48","","","","","","","","","","","","","","","",""
"","ITI","","html-keyboard-response","320","401242","0.0-1.0-441.0","0","0","60219","","null","","","null","48","","","","","","","","","","","","","","","NaN",""
"","S1","","html-keyboard-response","321","401493","0.0-1.0-443.0","0","0","60219","","null","","","null","49","","","","","","","","","","","","","","","",""
"","ISI","","html-keyboard-response","322","402496","0.0-1.0-444.0","0","0","60219","","null","","","null","49","NaN","","","","","","","","","","","","","","",""
"","S2","","html-keyboard-response","323","402749","0.0-1.0-445.0","0","0","60219","","null","","","null","49","","NaN","","","","","","","","","","","","","",""
"","response","","html-keyboard-response","324","403349","0.0-1.0-446.0-0.0","0","0","60219","","600","","","75","49","","","2","49","training","adjacent","BA","2","1","P.jpg","O.jpg","1","0","0","",""
"","feedback","","html-keyboard-response","325","404351","0.0-1.0-447.0-0.0","0","0","60219","","null","","","null","49","","","","","","","","","","","","","","","",""
"","time_out","","html-keyboard-response","326","406353","0.0-1.0-449.0-0.0","0","0","60219","","null","","","null","49","","","","","","","","","","","","","","","",""
"","ITI","","html-keyboard-response","327","407355","0.0-1.0-450.0","0","0","60219","","null","","","null","49","","","","","","","","","","","","","","","NaN",""
"","S1","","html-keyboard-response","328","407607","0.0-1.0-452.0","0","0","60219","","null","","","null","50","","","","","","","","","","","","","","","",""
"","ISI","","html-keyboard-response","329","408610","0.0-1.0-453.0","0","0","60219","","null","","","null","50","NaN","","","","","","","","","","","","","","",""
"","S2","","html-keyboard-response","330","408863","0.0-1.0-454.0","0","0","60219","","null","","","null","50","","NaN","","","","","","","","","","","","","",""
"","response","","html-keyboard-response","331","409862","0.0-1.0-455.0-0.0","0","0","60219","","998","","","68","50","","","2","50","training","adjacent","DE","4","5","L.jpg","R.jpg","0","1","0","",""
"","feedback","","html-keyboard-response","332","410865","0.0-1.0-456.0-0.0","0","0","60219","","null","","","null","50","","","","","","","","","","","","","","","",""
"","time_out","","html-keyboard-response","333","412866","0.0-1.0-458.0-0.0","0","0","60219","","null","","","null","50","","","","","","","","","","","","","","","",""
"","ITI","","html-keyboard-response","334","413868","0.0-1.0-459.0","0","0","60219","","null","","","null","50","","","","","","","","","","","","","","","NaN",""
"","S1","","html-keyboard-response","335","414120","0.0-1.0-461.0","0","0","60219","","null","","","null","51","","","","","","","","","","","","","","","",""
"","ISI","","html-keyboard-response","336","415121","0.0-1.0-462.0","0","0","60219","","null","","","null","51","NaN","","","","","","","","","","","","","","",""
"","S2","","html-keyboard-response","337","415373","0.0-1.0-463.0","0","0","60219","","null","","","null","51","","NaN","","","","","","","","","","","","","",""
"","response","","html-keyboard-response","338","416459","0.0-1.0-464.0-0.0","0","0","60219","","1086","","","75","51","","","2","51","training","adjacent","CB","3","2","N.jpg","P.jpg","1","0","0","",""
"","feedback","","html-keyboard-response","339","417461","0.0-1.0-465.0-0.0","0","0","60219","","null","","","null","51","","","","","","","","","","","","","","","",""
"","time_out","","html-keyboard-response","340","419464","0.0-1.0-467.0-0.0","0","0","60219","","null","","","null","51","","","","","","","","","","","","","","","",""
"","ITI","","html-keyboard-response","341","420467","0.0-1.0-468.0","0","0","60219","","null","","","null","51","","","","","","","","","","","","","","","NaN",""
"","S1","","html-keyboard-response","342","420719","0.0-1.0-470.0","0","0","60219","","null","","","null","52","","","","","","","","","","","","","","","",""
"","ISI","","html-keyboard-response","343","421721","0.0-1.0-471.0","0","0","60219","","null","","","null","52","NaN","","","","","","","","","","","","","","",""
"","S2","","html-keyboard-response","344","421973","0.0-1.0-472.0","0","0","60219","","null","","","null","52","","NaN","","","","","","","","","","","","","",""
"","response","","html-keyboard-response","345","422421","0.0-1.0-473.0-0.0","0","0","60219","","447","","","68","52","","","2","52","training","adjacent","BA","2","1","P.jpg","O.jpg","0","0","1","",""
"","feedback","","html-keyboard-response","346","423424","0.0-1.0-474.0-0.0","0","0","60219","","null","","","null","52","","","","","","","","","","","","","","","",""
"","ITI","","html-keyboard-response","347","424426","0.0-1.0-477.0","0","0","60219","","null","","","null","52","","","","","","","","","","","","","","","NaN",""
"","S1","","html-keyboard-response","348","424677","0.0-1.0-479.0","0","0","60219","","null","","","null","53","","","","","","","","","","","","","","","",""
"","ISI","","html-keyboard-response","349","425680","0.0-1.0-480.0","0","0","60219","","null","","","null","53","NaN","","","","","","","","","","","","","","",""
"","S2","","html-keyboard-response","350","425933","0.0-1.0-481.0","0","0","60219","","null","","","null","53","","NaN","","","","","","","","","","","","","",""
"","response","","html-keyboard-response","351","426428","0.0-1.0-482.0-0.0","0","0","60219","","494","","","68","53","","","2","53","training","adjacent","DC","4","3","L.jpg","N.jpg","0","0","1","",""
"","feedback","","html-keyboard-response","352","427430","0.0-1.0-483.0-0.0","0","0","60219","","null","","","null","53","","","","","","","","","","","","","","","",""
"","ITI","","html-keyboard-response","353","428432","0.0-1.0-486.0","0","0","60219","","null","","","null","53","","","","","","","","","","","","","","","NaN",""
"","S1","","html-keyboard-response","354","428684","0.0-1.0-488.0","0","0","60219","","null","","","null","54","","","","","","","","","","","","","","","",""
"","ISI","","html-keyboard-response","355","429686","0.0-1.0-489.0","0","0","60219","","null","","","null","54","NaN","","","","","","","","","","","","","","",""
"","S2","","html-keyboard-response","356","429937","0.0-1.0-490.0","0","0","60219","","null","","","null","54","","NaN","","","","","","","","","","","","","",""
"","response","","html-keyboard-response","357","430267","0.0-1.0-491.0-0.0","0","0","60219","","330","","","68","54","","","2","54","training","adjacent","CD","3","4","N.jpg","L.jpg","0","1","0","",""
"","feedback","","html-keyboard-response","358","431270","0.0-1.0-492.0-0.0","0","0","60219","","null","","","null","54","","","","","","","","","","","","","","","",""
"","time_out","","html-keyboard-response","359","433273","0.0-1.0-494.0-0.0","0","0","60219","","null","","","null","54","","","","","","","","","","","","","","","",""
"","ITI","","html-keyboard-response","360","434274","0.0-1.0-495.0","0","0","60219","","null","","","null","54","","","","","","","","","","","","","","","NaN",""
"","S1","","html-keyboard-response","361","434527","0.0-1.0-497.0","0","0","60219","","null","","","null","55","","","","","","","","","","","","","","","",""
"","ISI","","html-keyboard-response","362","435530","0.0-1.0-498.0","0","0","60219","","null","","","null","55","NaN","","","","","","","","","","","","","","",""
"","S2","","html-keyboard-response","363","435797","0.0-1.0-499.0","0","0","60219","","null","","","null","55","","NaN","","","","","","","","","","","","","",""
"","response","","html-keyboard-response","364","436830","0.0-1.0-500.0-0.0","0","0","60219","","1032","","","68","55","","","2","55","training","adjacent","BC","2","3","P.jpg","N.jpg","0","1","0","",""
"","feedback","","html-keyboard-response","365","437832","0.0-1.0-501.0-0.0","0","0","60219","","null","","","null","55","","","","","","","","","","","","","","","",""
"","time_out","","html-keyboard-response","366","439834","0.0-1.0-503.0-0.0","0","0","60219","","null","","","null","55","","","","","","","","","","","","","","","",""
"","ITI","","html-keyboard-response","367","440836","0.0-1.0-504.0","0","0","60219","","null","","","null","55","","","","","","","","","","","","","","","NaN",""
"","S1","","html-keyboard-response","368","441089","0.0-1.0-506.0","0","0","60219","","null","","","null","56","","","","","","","","","","","","","","","",""
"","ISI","","html-keyboard-response","369","442091","0.0-1.0-507.0","0","0","60219","","null","","","null","56","NaN","","","","","","","","","","","","","","",""
"","S2","","html-keyboard-response","370","442344","0.0-1.0-508.0","0","0","60219","","null","","","null","56","","NaN","","","","","","","","","","","","","",""
"","response","","html-keyboard-response","371","443460","0.0-1.0-509.0-0.0","0","0","60219","","1116","","","75","56","","","2","56","training","adjacent","AB","1","2","O.jpg","P.jpg","1","1","1","",""
"","feedback","","html-keyboard-response","372","444462","0.0-1.0-510.0-0.0","0","0","60219","","null","","","null","56","","","","","","","","","","","","","","","",""
"","ITI","","html-keyboard-response","373","445465","0.0-1.0-513.0","0","0","60219","","null","","","null","56","","","","","","","","","","","","","","","NaN",""
"","S1","","html-keyboard-response","374","445716","0.0-1.0-515.0","0","0","60219","","null","","","null","57","","","","","","","","","","","","","","","",""
"","ISI","","html-keyboard-response","375","446719","0.0-1.0-516.0","0","0","60219","","null","","","null","57","NaN","","","","","","","","","","","","","","",""
"","S2","","html-keyboard-response","376","446971","0.0-1.0-517.0","0","0","60219","","null","","","null","57","","NaN","","","","","","","","","","","","","",""
"","response","","html-keyboard-response","377","447686","0.0-1.0-518.0-0.0","0","0","60219","","714","","","68","57","","","2","57","training","adjacent","FE","6","5","M.jpg","R.jpg","0","0","1","",""
"","feedback","","html-keyboard-response","378","448688","0.0-1.0-519.0-0.0","0","0","60219","","null","","","null","57","","","","","","","","","","","","","","","",""
"","ITI","","html-keyboard-response","379","449690","0.0-1.0-522.0","0","0","60219","","null","","","null","57","","","","","","","","","","","","","","","NaN",""
"","S1","","html-keyboard-response","380","449942","0.0-1.0-524.0","0","0","60219","","null","","","null","58","","","","","","","","","","","","","","","",""
"","ISI","","html-keyboard-response","381","450944","0.0-1.0-525.0","0","0","60219","","null","","","null","58","NaN","","","","","","","","","","","","","","",""
"","S2","","html-keyboard-response","382","451196","0.0-1.0-526.0","0","0","60219","","null","","","null","58","","NaN","","","","","","","","","","","","","",""
"","response","","html-keyboard-response","383","452116","0.0-1.0-527.0-0.0","0","0","60219","","919","","","68","58","","","2","58","training","adjacent","CB","3","2","N.jpg","P.jpg","0","0","1","",""
"","feedback","","html-keyboard-response","384","453118","0.0-1.0-528.0-0.0","0","0","60219","","null","","","null","58","","","","","","","","","","","","","","","",""
"","ITI","","html-keyboard-response","385","454120","0.0-1.0-531.0","0","0","60219","","null","","","null","58","","","","","","","","","","","","","","","NaN",""
"","S1","","html-keyboard-response","386","454371","0.0-1.0-533.0","0","0","60219","","null","","","null","59","","","","","","","","","","","","","","","",""
"","ISI","","html-keyboard-response","387","455373","0.0-1.0-534.0","0","0","60219","","null","","","null","59","NaN","","","","","","","","","","","","","","",""
"","S2","","html-keyboard-response","388","455625","0.0-1.0-535.0","0","0","60219","","null","","","null","59","","NaN","","","","","","","","","","","","","",""
"","response","","html-keyboard-response","389","456779","0.0-1.0-536.0-0.0","0","0","60219","","1153","","","75","59","","","2","59","training","adjacent","EF","5","6","R.jpg","M.jpg","1","1","1","",""
"","feedback","","html-keyboard-response","390","457782","0.0-1.0-537.0-0.0","0","0","60219","","null","","","null","59","","","","","","","","","","","","","","","",""
"","ITI","","html-keyboard-response","391","458796","0.0-1.0-540.0","0","0","60219","","null","","","null","59","","","","","","","","","","","","","","","NaN",""
"","S1","","html-keyboard-response","392","459048","0.0-1.0-542.0","0","0","60219","","null","","","null","60","","","","","","","","","","","","","","","",""
"","ISI","","html-keyboard-response","393","460049","0.0-1.0-543.0","0","0","60219","","null","","","null","60","NaN","","","","","","","","","","","","","","",""
"","S2","","html-keyboard-response","394","460302","0.0-1.0-544.0","0","0","60219","","null","","","null","60","","NaN","","","","","","","","","","","","","",""
"","response","","html-keyboard-response","395","461135","0.0-1.0-545.0-0.0","0","0","60219","","832","","","75","60","","","2","60","training","adjacent","DC","4","3","L.jpg","N.jpg","1","0","0","",""
"","feedback","","html-keyboard-response","396","462137","0.0-1.0-546.0-0.0","0","0","60219","","null","","","null","60","","","","","","","","","","","","","","","",""
"","time_out","","html-keyboard-response","397","464138","0.0-1.0-548.0-0.0","0","0","60219","","null","","","null","60","","","","","","","","","","","","","","","",""
"","ITI","","html-keyboard-response","398","465140","0.0-1.0-549.0","0","0","60219","","null","","","null","60","","","","","","","","","","","","","","","NaN",""
"","S1","","html-keyboard-response","399","465392","0.0-1.0-551.0","0","0","60219","","null","","","null","61","","","","","","","","","","","","","","","",""
"","ISI","","html-keyboard-response","400","466394","0.0-1.0-552.0","0","0","60219","","null","","","null","61","NaN","","","","","","","","","","","","","","",""
"","S2","","html-keyboard-response","401","466646","0.0-1.0-553.0","0","0","60219","","null","","","null","61","","NaN","","","","","","","","","","","","","",""
"","response","","html-keyboard-response","402","467612","0.0-1.0-554.0-0.0","0","0","60219","","964","","","75","61","","","2","61","training","adjacent","EF","5","6","R.jpg","M.jpg","1","1","1","",""
"","feedback","","html-keyboard-response","403","468615","0.0-1.0-555.0-0.0","0","0","60219","","null","","","null","61","","","","","","","","","","","","","","","",""
"","ITI","","html-keyboard-response","404","469618","0.0-1.0-558.0","0","0","60219","","null","","","null","61","","","","","","","","","","","","","","","NaN",""
"","S1","","html-keyboard-response","405","469871","0.0-1.0-560.0","0","0","60219","","null","","","null","62","","","","","","","","","","","","","","","",""
"","ISI","","html-keyboard-response","406","470872","0.0-1.0-561.0","0","0","60219","","null","","","null","62","NaN","","","","","","","","","","","","","","",""
"","S2","","html-keyboard-response","407","471124","0.0-1.0-562.0","0","0","60219","","null","","","null","62","","NaN","","","","","","","","","","","","","",""
"","response","","html-keyboard-response","408","472477","0.0-1.0-563.0-0.0","0","0","60219","","1352","","","68","62","","","2","62","training","adjacent","CD","3","4","N.jpg","L.jpg","0","1","0","",""
"","feedback","","html-keyboard-response","409","473479","0.0-1.0-564.0-0.0","0","0","60219","","null","","","null","62","","","","","","","","","","","","","","","",""
"","time_out","","html-keyboard-response","410","475480","0.0-1.0-566.0-0.0","0","0","60219","","null","","","null","62","","","","","","","","","","","","","","","",""
"","ITI","","html-keyboard-response","411","476482","0.0-1.0-567.0","0","0","60219","","null","","","null","62","","","","","","","","","","","","","","","NaN",""
"","S1","","html-keyboard-response","412","476733","0.0-1.0-569.0","0","0","60219","","null","","","null","63","","","","","","","","","","","","","","","",""
"","ISI","","html-keyboard-response","413","477735","0.0-1.0-570.0","0","0","60219","","null","","","null","63","NaN","","","","","","","","","","","","","","",""
"","S2","","html-keyboard-response","414","477986","0.0-1.0-571.0","0","0","60219","","null","","","null","63","","NaN","","","","","","","","","","","","","",""
"","response","","html-keyboard-response","415","478339","0.0-1.0-572.0-0.0","0","0","60219","","351","","","68","63","","","2","63","training","adjacent","FE","6","5","M.jpg","R.jpg","0","0","1","",""
"","feedback","","html-keyboard-response","416","479341","0.0-1.0-573.0-0.0","0","0","60219","","null","","","null","63","","","","","","","","","","","","","","","",""
"","ITI","","html-keyboard-response","417","480343","0.0-1.0-576.0","0","0","60219","","null","","","null","63","","","","","","","","","","","","","","","NaN",""
"","S1","","html-keyboard-response","418","480596","0.0-1.0-578.0","0","0","60219","","null","","","null","64","","","","","","","","","","","","","","","",""
"","ISI","","html-keyboard-response","419","481598","0.0-1.0-579.0","0","0","60219","","null","","","null","64","NaN","","","","","","","","","","","","","","",""
"","S2","","html-keyboard-response","420","481850","0.0-1.0-580.0","0","0","60219","","null","","","null","64","","NaN","","","","","","","","","","","","","",""
"","response","","html-keyboard-response","421","481915","0.0-1.0-581.0-0.0","0","0","60219","","64","","","75","64","","","2","64","training","adjacent","EF","5","6","R.jpg","M.jpg","1","1","1","",""
"","feedback","","html-keyboard-response","422","482916","0.0-1.0-582.0-0.0","0","0","60219","","null","","","null","64","","","","","","","","","","","","","","","",""
"","ITI","","html-keyboard-response","423","483918","0.0-1.0-585.0","0","0","60219","","null","","","null","64","","","","","","","","","","","","","","","NaN",""
"","S1","","html-keyboard-response","424","484170","0.0-1.0-587.0","0","0","60219","","null","","","null","65","","","","","","","","","","","","","","","",""
"","ISI","","html-keyboard-response","425","485172","0.0-1.0-588.0","0","0","60219","","null","","","null","65","NaN","","","","","","","","","","","","","","",""
"","S2","","html-keyboard-response","426","485424","0.0-1.0-589.0","0","0","60219","","null","","","null","65","","NaN","","","","","","","","","","","","","",""
"","response","","html-keyboard-response","427","486421","0.0-1.0-590.0-0.0","0","0","60219","","997","","","75","65","","","2","65","training","adjacent","DE","4","5","L.jpg","R.jpg","1","1","1","",""
"","feedback","","html-keyboard-response","428","487437","0.0-1.0-591.0-0.0","0","0","60219","","null","","","null","65","","","","","","","","","","","","","","","",""
"","ITI","","html-keyboard-response","429","488440","0.0-1.0-594.0","0","0","60219","","null","","","null","65","","","","","","","","","","","","","","","NaN",""
"","S1","","html-keyboard-response","430","488692","0.0-1.0-596.0","0","0","60219","","null","","","null","66","","","","","","","","","","","","","","","",""
"","ISI","","html-keyboard-response","431","489693","0.0-1.0-597.0","0","0","60219","","null","","","null","66","NaN","","","","","","","","","","","","","","",""
"","S2","","html-keyboard-response","432","489946","0.0-1.0-598.0","0","0","60219","","null","","","null","66","","NaN","","","","","","","","","","","","","",""
"","response","","html-keyboard-response","433","490500","0.0-1.0-599.0-0.0","0","0","60219","","553","","","75","66","","","2","66","training","adjacent","DE","4","5","L.jpg","R.jpg","1","1","1","",""
"","feedback","","html-keyboard-response","434","491502","0.0-1.0-600.0-0.0","0","0","60219","","null","","","null","66","","","","","","","","","","","","","","","",""
"","ITI","","html-keyboard-response","435","492505","0.0-1.0-603.0","0","0","60219","","null","","","null","66","","","","","","","","","","","","","","","NaN",""
"","S1","","html-keyboard-response","436","492757","0.0-1.0-605.0","0","0","60219","","null","","","null","67","","","","","","","","","","","","","","","",""
"","ISI","","html-keyboard-response","437","493759","0.0-1.0-606.0","0","0","60219","","null","","","null","67","NaN","","","","","","","","","","","","","","",""
"","S2","","html-keyboard-response","438","494011","0.0-1.0-607.0","0","0","60219","","null","","","null","67","","NaN","","","","","","","","","","","","","",""
"","response","","html-keyboard-response","439","494732","0.0-1.0-608.0-0.0","0","0","60219","","721","","","68","67","","","2","67","training","adjacent","GF","7","6","Q.jpg","M.jpg","0","0","1","",""
"","feedback","","html-keyboard-response","440","495734","0.0-1.0-609.0-0.0","0","0","60219","","null","","","null","67","","","","","","","","","","","","","","","",""
"","ITI","","html-keyboard-response","441","496736","0.0-1.0-612.0","0","0","60219","","null","","","null","67","","","","","","","","","","","","","","","NaN",""
"","S1","","html-keyboard-response","442","496987","0.0-1.0-614.0","0","0","60219","","null","","","null","68","","","","","","","","","","","","","","","",""
"","ISI","","html-keyboard-response","443","497989","0.0-1.0-615.0","0","0","60219","","null","","","null","68","NaN","","","","","","","","","","","","","","",""
"","S2","","html-keyboard-response","444","498242","0.0-1.0-616.0","0","0","60219","","null","","","null","68","","NaN","","","","","","","","","","","","","",""
"","response","","html-keyboard-response","445","498957","0.0-1.0-617.0-0.0","0","0","60219","","714","","","68","68","","","2","68","training","adjacent","ED","5","4","R.jpg","L.jpg","0","0","1","",""
"","feedback","","html-keyboard-response","446","499959","0.0-1.0-618.0-0.0","0","0","60219","","null","","","null","68","","","","","","","","","","","","","","","",""
"","ITI","","html-keyboard-response","447","500961","0.0-1.0-621.0","0","0","60219","","null","","","null","68","","","","","","","","","","","","","","","NaN",""
"","S1","","html-keyboard-response","448","501213","0.0-1.0-623.0","0","0","60219","","null","","","null","69","","","","","","","","","","","","","","","",""
"","ISI","","html-keyboard-response","449","502215","0.0-1.0-624.0","0","0","60219","","null","","","null","69","NaN","","","","","","","","","","","","","","",""
"","S2","","html-keyboard-response","450","502467","0.0-1.0-625.0","0","0","60219","","null","","","null","69","","NaN","","","","","","","","","","","","","",""
"","response","","html-keyboard-response","451","503684","0.0-1.0-626.0-0.0","0","0","60219","","1216","","","75","69","","","2","69","training","adjacent","FE","6","5","M.jpg","R.jpg","1","0","0","",""
"","feedback","","html-keyboard-response","452","504686","0.0-1.0-627.0-0.0","0","0","60219","","null","","","null","69","","","","","","","","","","","","","","","",""
"","time_out","","html-keyboard-response","453","506689","0.0-1.0-629.0-0.0","0","0","60219","","null","","","null","69","","","","","","","","","","","","","","","",""
"","ITI","","html-keyboard-response","454","507691","0.0-1.0-630.0","0","0","60219","","null","","","null","69","","","","","","","","","","","","","","","NaN",""
"","S1","","html-keyboard-response","455","507942","0.0-1.0-632.0","0","0","60219","","null","","","null","70","","","","","","","","","","","","","","","",""
"","ISI","","html-keyboard-response","456","508944","0.0-1.0-633.0","0","0","60219","","null","","","null","70","NaN","","","","","","","","","","","","","","",""
"","S2","","html-keyboard-response","457","509196","0.0-1.0-634.0","0","0","60219","","null","","","null","70","","NaN","","","","","","","","","","","","","",""
"","response","","html-keyboard-response","458","510469","0.0-1.0-635.0-0.0","0","0","60219","","1273","","","68","70","","","2","70","training","adjacent","ED","5","4","R.jpg","L.jpg","0","0","1","",""
"","feedback","","html-keyboard-response","459","511472","0.0-1.0-636.0-0.0","0","0","60219","","null","","","null","70","","","","","","","","","","","","","","","",""
"","ITI","","html-keyboard-response","460","512474","0.0-1.0-639.0","0","0","60219","","null","","","null","70","","","","","","","","","","","","","","","NaN",""
"","S1","","html-keyboard-response","461","512726","0.0-1.0-641.0","0","0","60219","","null","","","null","71","","","","","","","","","","","","","","","",""
"","ISI","","html-keyboard-response","462","513729","0.0-1.0-642.0","0","0","60219","","null","","","null","71","NaN","","","","","","","","","","","","","","",""
"","S2","","html-keyboard-response","463","513981","0.0-1.0-643.0","0","0","60219","","null","","","null","71","","NaN","","","","","","","","","","","","","",""
"","response","","html-keyboard-response","464","514732","0.0-1.0-644.0-0.0","0","0","60219","","750","","","75","71","","","2","71","training","adjacent","FG","6","7","M.jpg","Q.jpg","1","1","1","",""
"","feedback","","html-keyboard-response","465","515733","0.0-1.0-645.0-0.0","0","0","60219","","null","","","null","71","","","","","","","","","","","","","","","",""
"","ITI","","html-keyboard-response","466","516735","0.0-1.0-648.0","0","0","60219","","null","","","null","71","","","","","","","","","","","","","","","NaN",""
"","S1","","html-keyboard-response","467","516987","0.0-1.0-650.0","0","0","60219","","null","","","null","72","","","","","","","","","","","","","","","",""
"","ISI","","html-keyboard-response","468","517989","0.0-1.0-651.0","0","0","60219","","null","","","null","72","NaN","","","","","","","","","","","","","","",""
"","S2","","html-keyboard-response","469","518240","0.0-1.0-652.0","0","0","60219","","null","","","null","72","","NaN","","","","","","","","","","","","","",""
"","response","","html-keyboard-response","470","519387","0.0-1.0-653.0-0.0","0","0","60219","","1146","","","75","72","","","2","72","training","adjacent","EF","5","6","R.jpg","M.jpg","1","1","1","",""
"","feedback","","html-keyboard-response","471","520390","0.0-1.0-654.0-0.0","0","0","60219","","null","","","null","72","","","","","","","","","","","","","","","",""
"","ITI","","html-keyboard-response","472","521392","0.0-1.0-657.0","0","0","60219","","null","","","null","72","","","","","","","","","","","","","","","NaN",""
"","S1","","html-keyboard-response","473","521644","0.0-1.0-659.0","0","0","60219","","null","","","null","73","","","","","","","","","","","","","","","",""
"","ISI","","html-keyboard-response","474","522646","0.0-1.0-660.0","0","0","60219","","null","","","null","73","NaN","","","","","","","","","","","","","","",""
"","S2","","html-keyboard-response","475","522898","0.0-1.0-661.0","0","0","60219","","null","","","null","73","","NaN","","","","","","","","","","","","","",""
"","response","","html-keyboard-response","476","523460","0.0-1.0-662.0-0.0","0","0","60219","","561","","","75","73","","","2","73","training","adjacent","FG","6","7","M.jpg","Q.jpg","1","1","1","",""
"","feedback","","html-keyboard-response","477","524462","0.0-1.0-663.0-0.0","0","0","60219","","null","","","null","73","","","","","","","","","","","","","","","",""
"","ITI","","html-keyboard-response","478","525475","0.0-1.0-666.0","0","0","60219","","null","","","null","73","","","","","","","","","","","","","","","NaN",""
"","S1","","html-keyboard-response","479","525727","0.0-1.0-668.0","0","0","60219","","null","","","null","74","","","","","","","","","","","","","","","",""
"","ISI","","html-keyboard-response","480","526730","0.0-1.0-669.0","0","0","60219","","null","","","null","74","NaN","","","","","","","","","","","","","","",""
"","S2","","html-keyboard-response","481","526982","0.0-1.0-670.0","0","0","60219","","null","","","null","74","","NaN","","","","","","","","","","","","","",""
"","response","","html-keyboard-response","482","527183","0.0-1.0-671.0-0.0","0","0","60219","","200","","","68","74","","","2","74","training","adjacent","GF","7","6","Q.jpg","M.jpg","0","0","1","",""
"","feedback","","html-keyboard-response","483","528184","0.0-1.0-672.0-0.0","0","0","60219","","null","","","null","74","","","","","","","","","","","","","","","",""
"","ITI","","html-keyboard-response","484","529185","0.0-1.0-675.0","0","0","60219","","null","","","null","74","","","","","","","","","","","","","","","NaN",""
"","S1","","html-keyboard-response","485","529438","0.0-1.0-677.0","0","0","60219","","null","","","null","75","","","","","","","","","","","","","","","",""
"","ISI","","html-keyboard-response","486","530439","0.0-1.0-678.0","0","0","60219","","null","","","null","75","NaN","","","","","","","","","","","","","","",""
"","S2","","html-keyboard-response","487","530691","0.0-1.0-679.0","0","0","60219","","null","","","null","75","","NaN","","","","","","","","","","","","","",""
"","response","","html-keyboard-response","488","531100","0.0-1.0-680.0-0.0","0","0","60219","","408","","","68","75","","","2","75","training","adjacent","ED","5","4","R.jpg","L.jpg","0","0","1","",""
"","feedback","","html-keyboard-response","489","532102","0.0-1.0-681.0-0.0","0","0","60219","","null","","","null","75","","","","","","","","","","","","","","","",""
"","ITI","","html-keyboard-response","490","533103","0.0-1.0-684.0","0","0","60219","","null","","","null","75","","","","","","","","","","","","","","","NaN",""
"","S1","","html-keyboard-response","491","533356","0.0-1.0-686.0","0","0","60219","","null","","","null","76","","","","","","","","","","","","","","","",""
"","ISI","","html-keyboard-response","492","534357","0.0-1.0-687.0","0","0","60219","","null","","","null","76","NaN","","","","","","","","","","","","","","",""
"","S2","","html-keyboard-response","493","534609","0.0-1.0-688.0","0","0","60219","","null","","","null","76","","NaN","","","","","","","","","","","","","",""
"","response","","html-keyboard-response","494","534661","0.0-1.0-689.0-0.0","0","0","60219","","51","","","68","76","","","2","76","training","adjacent","GF","7","6","Q.jpg","M.jpg","0","0","1","",""
"","feedback","","html-keyboard-response","495","535663","0.0-1.0-690.0-0.0","0","0","60219","","null","","","null","76","","","","","","","","","","","","","","","",""
"","ITI","","html-keyboard-response","496","536664","0.0-1.0-693.0","0","0","60219","","null","","","null","76","","","","","","","","","","","","","","","NaN",""
"","S1","","html-keyboard-response","497","536916","0.0-1.0-695.0","0","0","60219","","null","","","null","77","","","","","","","","","","","","","","","",""
"","ISI","","html-keyboard-response","498","537918","0.0-1.0-696.0","0","0","60219","","null","","","null","77","NaN","","","","","","","","","","","","","","",""
"","S2","","html-keyboard-response","499","538170","0.0-1.0-697.0","0","0","60219","","null","","","null","77","","NaN","","","","","","","","","","","","","",""
"","response","","html-keyboard-response","500","538636","0.0-1.0-698.0-0.0","0","0","60219","","465","","","75","77","","","2","77","training","adjacent","CB","3","2","N.jpg","P.jpg","1","0","0","",""
"","feedback","","html-keyboard-response","501","539639","0.0-1.0-699.0-0.0","0","0","60219","","null","","","null","77","","","","","","","","","","","","","","","",""
"","time_out","","html-keyboard-response","502","541641","0.0-1.0-701.0-0.0","0","0","60219","","null","","","null","77","","","","","","","","","","","","","","","",""
"","ITI","","html-keyboard-response","503","542643","0.0-1.0-702.0","0","0","60219","","null","","","null","77","","","","","","","","","","","","","","","NaN",""
"","S1","","html-keyboard-response","504","542896","0.0-1.0-704.0","0","0","60219","","null","","","null","78","","","","","","","","","","","","","","","",""
"","ISI","","html-keyboard-response","505","543898","0.0-1.0-705.0","0","0","60219","","null","","","null","78","NaN","","","","","","","","","","","","","","",""
"","S2","","html-keyboard-response","506","544149","0.0-1.0-706.0","0","0","60219","","null","","","null","78","","NaN","","","","","","","","","","","","","",""
"","response","","html-keyboard-response","507","544701","0.0-1.0-707.0-0.0","0","0","60219","","551","","","68","78","","","2","78","training","adjacent","BA","2","1","P.jpg","O.jpg","0","0","1","",""
"","feedback","","html-keyboard-response","508","545703","0.0-1.0-708.0-0.0","0","0","60219","","null","","","null","78","","","","","","","","","","","","","","","",""
"","ITI","","html-keyboard-response","509","546704","0.0-1.0-711.0","0","0","60219","","null","","","null","78","","","","","","","","","","","","","","","NaN",""
"","S1","","html-keyboard-response","510","546956","0.0-1.0-713.0","0","0","60219","","null","","","null","79","","","","","","","","","","","","","","","",""
"","ISI","","html-keyboard-response","511","547957","0.0-1.0-714.0","0","0","60219","","null","","","null","79","NaN","","","","","","","","","","","","","","",""
"","S2","","html-keyboard-response","512","548209","0.0-1.0-715.0","0","0","60219","","null","","","null","79","","NaN","","","","","","","","","","","","","",""
"","response","","html-keyboard-response","513","548366","0.0-1.0-716.0-0.0","0","0","60219","","155","","","68","79","","","2","79","training","adjacent","BC","2","3","P.jpg","N.jpg","0","1","0","",""
"","feedback","","html-keyboard-response","514","549368","0.0-1.0-717.0-0.0","0","0","60219","","null","","","null","79","","","","","","","","","","","","","","","",""
"","time_out","","html-keyboard-response","515","551375","0.0-1.0-719.0-0.0","0","0","60219","","null","","","null","79","","","","","","","","","","","","","","","",""
"","ITI","","html-keyboard-response","516","552376","0.0-1.0-720.0","0","0","60219","","null","","","null","79","","","","","","","","","","","","","","","NaN",""
"","S1","","html-keyboard-response","517","552628","0.0-1.0-722.0","0","0","60219","","null","","","null","80","","","","","","","","","","","","","","","",""
"","ISI","","html-keyboard-response","518","553631","0.0-1.0-723.0","0","0","60219","","null","","","null","80","NaN","","","","","","","","","","","","","","",""
"","S2","","html-keyboard-response","519","553883","0.0-1.0-724.0","0","0","60219","","null","","","null","80","","NaN","","","","","","","","","","","","","",""
"","response","","html-keyboard-response","520","554100","0.0-1.0-725.0-0.0","0","0","60219","","215","","","75","80","","","2","80","training","adjacent","FG","6","7","M.jpg","Q.jpg","1","1","1","",""
"","feedback","","html-keyboard-response","521","555102","0.0-1.0-726.0-0.0","0","0","60219","","null","","","null","80","","","","","","","","","","","","","","","",""
"","ITI","","html-keyboard-response","522","556103","0.0-1.0-729.0","0","0","60219","","null","","","null","80","","","","","","","","","","","","","","","NaN",""
"","S1","","html-keyboard-response","523","556355","0.0-1.0-731.0","0","0","60219","","null","","","null","81","","","","","","","","","","","","","","","",""
"","ISI","","html-keyboard-response","524","557358","0.0-1.0-732.0","0","0","60219","","null","","","null","81","NaN","","","","","","","","","","","","","","",""
"","S2","","html-keyboard-response","525","557611","0.0-1.0-733.0","0","0","60219","","null","","","null","81","","NaN","","","","","","","","","","","","","",""
"","response","","html-keyboard-response","526","558246","0.0-1.0-734.0-0.0","0","0","60219","","633","","","68","81","","","2","81","training","adjacent","FE","6","5","M.jpg","R.jpg","0","0","1","",""
"","feedback","","html-keyboard-response","527","559248","0.0-1.0-735.0-0.0","0","0","60219","","null","","","null","81","","","","","","","","","","","","","","","",""
"","ITI","","html-keyboard-response","528","560249","0.0-1.0-738.0","0","0","60219","","null","","","null","81","","","","","","","","","","","","","","","NaN",""
"","S1","","html-keyboard-response","529","560501","0.0-1.0-740.0","0","0","60219","","null","","","null","82","","","","","","","","","","","","","","","",""
"","ISI","","html-keyboard-response","530","561502","0.0-1.0-741.0","0","0","60219","","null","","","null","82","NaN","","","","","","","","","","","","","","",""
"","S2","","html-keyboard-response","531","561754","0.0-1.0-742.0","0","0","60219","","null","","","null","82","","NaN","","","","","","","","","","","","","",""
"","response","","html-keyboard-response","532","561965","0.0-1.0-743.0-0.0","0","0","60219","","209","","","75","82","","","2","82","training","adjacent","AB","1","2","O.jpg","P.jpg","1","1","1","",""
"","feedback","","html-keyboard-response","533","562967","0.0-1.0-744.0-0.0","0","0","60219","","null","","","null","82","","","","","","","","","","","","","","","",""
"","ITI","","html-keyboard-response","534","563970","0.0-1.0-747.0","0","0","60219","","null","","","null","82","","","","","","","","","","","","","","","NaN",""
"","S1","","html-keyboard-response","535","564222","0.0-1.0-749.0","0","0","60219","","null","","","null","83","","","","","","","","","","","","","","","",""
"","ISI","","html-keyboard-response","536","565224","0.0-1.0-750.0","0","0","60219","","null","","","null","83","NaN","","","","","","","","","","","","","","",""
"","S2","","html-keyboard-response","537","565476","0.0-1.0-751.0","0","0","60219","","null","","","null","83","","NaN","","","","","","","","","","","","","",""
"","response","","html-keyboard-response","538","565684","0.0-1.0-752.0-0.0","0","0","60219","","206","","","68","83","","","2","83","training","adjacent","GF","7","6","Q.jpg","M.jpg","0","0","1","",""
"","feedback","","html-keyboard-response","539","566686","0.0-1.0-753.0-0.0","0","0","60219","","null","","","null","83","","","","","","","","","","","","","","","",""
"","ITI","","html-keyboard-response","540","567689","0.0-1.0-756.0","0","0","60219","","null","","","null","83","","","","","","","","","","","","","","","NaN",""
"","S1","","html-keyboard-response","541","567941","0.0-1.0-758.0","0","0","60219","","null","","","null","84","","","","","","","","","","","","","","","",""
"","ISI","","html-keyboard-response","542","568942","0.0-1.0-759.0","0","0","60219","","null","","","null","84","NaN","","","","","","","","","","","","","","",""
"","S2","","html-keyboard-response","543","569194","0.0-1.0-760.0","0","0","60219","","null","","","null","84","","NaN","","","","","","","","","","","","","",""
"","response","","html-keyboard-response","544","569389","0.0-1.0-761.0-0.0","0","0","60219","","195","","","75","84","","","2","84","training","adjacent","AB","1","2","O.jpg","P.jpg","1","1","1","",""
"","feedback","","html-keyboard-response","545","570392","0.0-1.0-762.0-0.0","0","0","60219","","null","","","null","84","","","","","","","","","","","","","","","",""
"","ITI","","html-keyboard-response","546","571394","0.0-1.0-765.0","0","0","60219","","null","","","null","84","","","","","","","","","","","","","","","NaN",""
"","S1","","html-keyboard-response","547","571645","0.0-1.0-767.0","0","0","60219","","null","","","null","85","","","","","","","","","","","","","","","",""
"","ISI","","html-keyboard-response","548","572647","0.0-1.0-768.0","0","0","60219","","null","","","null","85","NaN","","","","","","","","","","","","","","",""
"","S2","","html-keyboard-response","549","572898","0.0-1.0-769.0","0","0","60219","","null","","","null","85","","NaN","","","","","","","","","","","","","",""
"","response","","html-keyboard-response","550","573228","0.0-1.0-770.0-0.0","0","0","60219","","329","","","75","85","","","2","85","training","adjacent","BC","2","3","P.jpg","N.jpg","1","1","1","",""
"","feedback","","html-keyboard-response","551","574230","0.0-1.0-771.0-0.0","0","0","60219","","null","","","null","85","","","","","","","","","","","","","","","",""
"","ITI","","html-keyboard-response","552","575232","0.0-1.0-774.0","0","0","60219","","null","","","null","85","","","","","","","","","","","","","","","NaN",""
"","S1","","html-keyboard-response","553","575484","0.0-1.0-776.0","0","0","60219","","null","","","null","86","","","","","","","","","","","","","","","",""
"","ISI","","html-keyboard-response","554","576485","0.0-1.0-777.0","0","0","60219","","null","","","null","86","NaN","","","","","","","","","","","","","","",""
"","S2","","html-keyboard-response","555","576737","0.0-1.0-778.0","0","0","60219","","null","","","null","86","","NaN","","","","","","","","","","","","","",""
"","response","","html-keyboard-response","556","577156","0.0-1.0-779.0-0.0","0","0","60219","","418","","","75","86","","","2","86","training","adjacent","FG","6","7","M.jpg","Q.jpg","1","1","1","",""
"","feedback","","html-keyboard-response","557","578158","0.0-1.0-780.0-0.0","0","0","60219","","null","","","null","86","","","","","","","","","","","","","","","",""
"","ITI","","html-keyboard-response","558","579159","0.0-1.0-783.0","0","0","60219","","null","","","null","86","","","","","","","","","","","","","","","NaN",""
"","S1","","html-keyboard-response","559","579411","0.0-1.0-785.0","0","0","60219","","null","","","null","87","","","","","","","","","","","","","","","",""
"","ISI","","html-keyboard-response","560","580413","0.0-1.0-786.0","0","0","60219","","null","","","null","87","NaN","","","","","","","","","","","","","","",""
"","S2","","html-keyboard-response","561","580665","0.0-1.0-787.0","0","0","60219","","null","","","null","87","","NaN","","","","","","","","","","","","","",""
"","response","","html-keyboard-response","562","580790","0.0-1.0-788.0-0.0","0","0","60219","","124","","","75","87","","","2","87","training","adjacent","DE","4","5","L.jpg","R.jpg","1","1","1","",""
"","feedback","","html-keyboard-response","563","581792","0.0-1.0-789.0-0.0","0","0","60219","","null","","","null","87","","","","","","","","","","","","","","","",""
"","ITI","","html-keyboard-response","564","582793","0.0-1.0-792.0","0","0","60219","","null","","","null","87","","","","","","","","","","","","","","","NaN",""
"","S1","","html-keyboard-response","565","583046","0.0-1.0-794.0","0","0","60219","","null","","","null","88","","","","","","","","","","","","","","","",""
"","ISI","","html-keyboard-response","566","584048","0.0-1.0-795.0","0","0","60219","","null","","","null","88","NaN","","","","","","","","","","","","","","",""
"","S2","","html-keyboard-response","567","584300","0.0-1.0-796.0","0","0","60219","","null","","","null","88","","NaN","","","","","","","","","","","","","",""
"","response","","html-keyboard-response","568","584428","0.0-1.0-797.0-0.0","0","0","60219","","127","","","75","88","","","2","88","training","adjacent","AB","1","2","O.jpg","P.jpg","1","1","1","",""
"","feedback","","html-keyboard-response","569","585430","0.0-1.0-798.0-0.0","0","0","60219","","null","","","null","88","","","","","","","","","","","","","","","",""
"","ITI","","html-keyboard-response","570","586431","0.0-1.0-801.0","0","0","60219","","null","","","null","88","","","","","","","","","","","","","","","NaN",""
"","S1","","html-keyboard-response","571","586684","0.0-1.0-803.0","0","0","60219","","null","","","null","89","","","","","","","","","","","","","","","",""
"","ISI","","html-keyboard-response","572","587686","0.0-1.0-804.0","0","0","60219","","null","","","null","89","NaN","","","","","","","","","","","","","","",""
"","S2","","html-keyboard-response","573","587938","0.0-1.0-805.0","0","0","60219","","null","","","null","89","","NaN","","","","","","","","","","","","","",""
"","response","","html-keyboard-response","574","588427","0.0-1.0-806.0-0.0","0","0","60219","","488","","","68","89","","","2","89","training","adjacent","CD","3","4","N.jpg","L.jpg","0","1","0","",""
"","feedback","","html-keyboard-response","575","589430","0.0-1.0-807.0-0.0","0","0","60219","","null","","","null","89","","","","","","","","","","","","","","","",""
"","time_out","","html-keyboard-response","576","591438","0.0-1.0-809.0-0.0","0","0","60219","","null","","","null","89","","","","","","","","","","","","","","","",""
"","ITI","","html-keyboard-response","577","592439","0.0-1.0-810.0","0","0","60219","","null","","","null","89","","","","","","","","","","","","","","","NaN",""
"","S1","","html-keyboard-response","578","592692","0.0-1.0-812.0","0","0","60219","","null","","","null","90","","","","","","","","","","","","","","","",""
"","ISI","","html-keyboard-response","579","593694","0.0-1.0-813.0","0","0","60219","","null","","","null","90","NaN","","","","","","","","","","","","","","",""
"","S2","","html-keyboard-response","580","593947","0.0-1.0-814.0","0","0","60219","","null","","","null","90","","NaN","","","","","","","","","","","","","",""
"","response","","html-keyboard-response","581","594341","0.0-1.0-815.0-0.0","0","0","60219","","394","","","68","90","","","2","90","training","adjacent","BA","2","1","P.jpg","O.jpg","0","0","1","",""
"","feedback","","html-keyboard-response","582","595344","0.0-1.0-816.0-0.0","0","0","60219","","null","","","null","90","","","","","","","","","","","","","","","",""
