"success","ttype","start_time","trial_type","trial_index","time_elapsed","internal_node_id","warning","missed_checkup","PID","view_history","rt","responses","repeat_instructions","key_press","index","keypress_isi","keypress_S2","block","trial_num","phase","group_type","pair_type","S1_stim","S2_stim","S1_img","S2_img","S1_chosen","S1_higher","accuracy","keypress_iti","total_bonus_tally"
"true","full_screen","d04142023hr1737","fullscreen","0","149165","0.0-0.0","0","0","46676","","","","","","","","","","","","","","","","","","","","","",""
"","instructions","","instructions","1","350801","0.0-1.0-0.0-0.0","0","0","46676","[{""page_index"":0,""viewing_time"":7930},{""page_index"":1,""viewing_time"":18112},{""page_index"":2,""viewing_time"":172744},{""page_index"":3,""viewing_time"":2847}]","201634","","","","","","","","","","","","","","","","","","","",""
"","comprehension_check","","survey-multi-choice","2","379266","0.0-1.0-0.0-1.0","0","0","46676","","28462","{""Q0"":""True"",""Q1"":""D"",""Q2"":""Only when the screen 'MAKE A CHOICE' is shown"",""Q3"":""Green mark"",""Q4"":""either D or K""}","1","","","","","","","","","","","","","","","","","",""
"","missed_instruction_checkup","","html-keyboard-response","3","382307","0.0-1.0-0.0-2.0-0.0","0","1","46676","","3038","","","32","","","","","","","","","","","","","","","","",""
"","instructions","","instructions","4","443161","0.0-1.0-0.1-0.1","0","0","46676","[{""page_index"":0,""viewing_time"":22476},{""page_index"":1,""viewing_time"":29657},{""page_index"":2,""viewing_time"":7056},{""page_index"":3,""viewing_time"":1663}]","60852","","","","","","","","","","","","","","","","","","","",""
"","comprehension_check","","survey-multi-choice","5","464554","0.0-1.0-0.1-1.1","0","0","46676","","21390","{""Q0"":""True"",""Q1"":""D"",""Q2"":""Once the second image appears and while the screen 'MAKE A CHOICE' is shown"",""Q3"":""Green mark"",""Q4"":""either D or K""}","0","","","","","","","","","","","","","","","","","",""
"","start_exp","","html-keyboard-response","6","466819","0.0-1.0-1.0","0","0","46676","","2263","","","32","","","","","","","","","","","","","","","","",""
"","S1","","html-keyboard-response","7","467073","0.0-1.0-2.0","0","0","46676","","null","","","null","0","","","","","","","","","","","","","","","",""
"","ISI","","html-keyboard-response","8","468077","0.0-1.0-3.0","0","0","46676","","null","","","null","0","NaN","","","","","","","","","","","","","","",""
"","S2","","html-keyboard-response","9","468332","0.0-1.0-4.0","0","0","46676","","null","","","null","0","","NaN","","","","","","","","","","","","","",""
"","response","","html-keyboard-response","10","469721","0.0-1.0-5.0-0.0","0","0","46676","","1387","","","68","0","","","1","0","training","adjacent","DE","4","5","N.jpg","O.jpg","1","1","1","",""
"","feedback","","html-keyboard-response","11","470724","0.0-1.0-6.0-0.0","0","0","46676","","null","","","null","0","","","","","","","","","","","","","","","",""
"","ITI","","html-keyboard-response","12","471729","0.0-1.0-9.0","0","0","46676","","null","","","null","0","","","","","","","","","","","","","","","NaN",""
"","S1","","html-keyboard-response","13","471982","0.0-1.0-11.0","0","0","46676","","null","","","null","1","","","","","","","","","","","","","","","",""
"","ISI","","html-keyboard-response","14","472985","0.0-1.0-12.0","0","0","46676","","null","","","null","1","NaN","","","","","","","","","","","","","","",""
"","S2","","html-keyboard-response","15","473239","0.0-1.0-13.0","0","0","46676","","null","","","null","1","","NaN","","","","","","","","","","","","","",""
"","response","","html-keyboard-response","16","473811","0.0-1.0-14.0-0.0","0","0","46676","","569","","","75","1","","","1","1","training","adjacent","CD","3","4","Q.jpg","N.jpg","0","1","0","",""
"","feedback","","html-keyboard-response","17","474814","0.0-1.0-15.0-0.0","0","0","46676","","null","","","null","1","","","","","","","","","","","","","","","",""
"","time_out","","html-keyboard-response","18","476817","0.0-1.0-17.0-0.0","0","0","46676","","null","","","null","1","","","","","","","","","","","","","","","",""
"","ITI","","html-keyboard-response","19","477819","0.0-1.0-18.0","0","0","46676","","null","","","null","1","","","","","","","","","","","","","","","NaN",""
"","S1","","html-keyboard-response","20","478073","0.0-1.0-20.0","0","0","46676","","null","","","null","2","","","","","","","","","","","","","","","",""
"","ISI","","html-keyboard-response","21","479077","0.0-1.0-21.0","0","0","46676","","null","","","null","2","NaN","","","","","","","","","","","","","","",""
"","S2","","html-keyboard-response","22","479330","0.0-1.0-22.0","0","0","46676","","null","","","null","2","","NaN","","","","","","","","","","","","","",""
"","response","","html-keyboard-response","23","480579","0.0-1.0-23.0-0.0","0","0","46676","","1246","","","75","2","","","1","2","training","adjacent","BA","2","1","L.jpg","P.jpg","0","0","1","",""
"","feedback","","html-keyboard-response","24","481584","0.0-1.0-24.0-0.0","0","0","46676","","null","","","null","2","","","","","","","","","","","","","","","",""
"","ITI","","html-keyboard-response","25","482587","0.0-1.0-27.0","0","0","46676","","null","","","null","2","","","","","","","","","","","","","","","NaN",""
"","S1","","html-keyboard-response","26","482840","0.0-1.0-29.0","0","0","46676","","null","","","null","3","","","","","","","","","","","","","","","",""
"","ISI","","html-keyboard-response","27","483843","0.0-1.0-30.0","0","0","46676","","null","","","null","3","NaN","","","","","","","","","","","","","","",""
"","S2","","html-keyboard-response","28","484097","0.0-1.0-31.0","0","0","46676","","null","","","null","3","","NaN","","","","","","","","","","","","","",""
"","response","","html-keyboard-response","29","484667","0.0-1.0-32.0-0.0","0","0","46676","","568","","","68","3","","","1","3","training","adjacent","CB","3","2","Q.jpg","L.jpg","1","0","0","",""
"","feedback","","html-keyboard-response","30","485671","0.0-1.0-33.0-0.0","0","0","46676","","null","","","null","3","","","","","","","","","","","","","","","",""
"","time_out","","html-keyboard-response","31","487673","0.0-1.0-35.0-0.0","0","0","46676","","null","","","null","3","","","","","","","","","","","","","","","",""
"","ITI","","html-keyboard-response","32","488677","0.0-1.0-36.0","0","0","46676","","null","","","null","3","","","","","","","","","","","","","","","NaN",""
"","S1","","html-keyboard-response","33","488940","0.0-1.0-38.0","0","0","46676","","null","","","null","4","","","","","","","","","","","","","","","",""
"","ISI","","html-keyboard-response","34","489944","0.0-1.0-39.0","0","0","46676","","null","","","null","4","NaN","","","","","","","","","","","","","","",""
"","S2","","html-keyboard-response","35","490197","0.0-1.0-40.0","0","0","46676","","null","","","null","4","","NaN","","","","","","","","","","","","","",""
"","response","","html-keyboard-response","36","490723","0.0-1.0-41.0-0.0","0","0","46676","","523","","","75","4","","","1","4","training","adjacent","ED","5","4","O.jpg","N.jpg","0","0","1","",""
"","feedback","","html-keyboard-response","37","491727","0.0-1.0-42.0-0.0","0","0","46676","","null","","","null","4","","","","","","","","","","","","","","","",""
"","ITI","","html-keyboard-response","38","492730","0.0-1.0-45.0","0","0","46676","","null","","","null","4","","","","","","","","","","","","","","","NaN",""
"","S1","","html-keyboard-response","39","492984","0.0-1.0-47.0","0","0","46676","","null","","","null","5","","","","","","","","","","","","","","","",""
"","ISI","","html-keyboard-response","40","493986","0.0-1.0-48.0","0","0","46676","","null","","","null","5","NaN","","","","","","","","","","","","","","",""
"","S2","","html-keyboard-response","41","494240","0.0-1.0-49.0","0","0","46676","","null","","","null","5","","NaN","","","","","","","","","","","","","",""
"","response","","html-keyboard-response","42","494459","0.0-1.0-50.0-0.0","0","0","46676","","217","","","75","5","","","1","5","training","adjacent","FE","6","5","R.jpg","O.jpg","0","0","1","",""
"","feedback","","html-keyboard-response","43","495463","0.0-1.0-51.0-0.0","0","0","46676","","null","","","null","5","","","","","","","","","","","","","","","",""
"","ITI","","html-keyboard-response","44","496466","0.0-1.0-54.0","0","0","46676","","null","","","null","5","","","","","","","","","","","","","","","NaN",""
"","S1","","html-keyboard-response","45","496720","0.0-1.0-56.0","0","0","46676","","null","","","null","6","","","","","","","","","","","","","","","",""
"","ISI","","html-keyboard-response","46","497722","0.0-1.0-57.0","0","0","46676","","null","","","null","6","NaN","","","","","","","","","","","","","","",""
"","S2","","html-keyboard-response","47","497975","0.0-1.0-58.0","0","0","46676","","null","","","null","6","","NaN","","","","","","","","","","","","","",""
"","response","","html-keyboard-response","48","498860","0.0-1.0-59.0-0.0","0","0","46676","","882","","","68","6","","","1","6","training","adjacent","FG","6","7","R.jpg","M.jpg","1","1","1","",""
"","feedback","","html-keyboard-response","49","499863","0.0-1.0-60.0-0.0","0","0","46676","","null","","","null","6","","","","","","","","","","","","","","","",""
"","ITI","","html-keyboard-response","50","500866","0.0-1.0-63.0","0","0","46676","","null","","","null","6","","","","","","","","","","","","","","","NaN",""
"","S1","","html-keyboard-response","51","501121","0.0-1.0-65.0","0","0","46676","","null","","","null","7","","","","","","","","","","","","","","","",""
"","ISI","","html-keyboard-response","52","502123","0.0-1.0-66.0","0","0","46676","","null","","","null","7","NaN","","","","","","","","","","","","","","",""
"","S2","","html-keyboard-response","53","502376","0.0-1.0-67.0","0","0","46676","","null","","","null","7","","NaN","","","","","","","","","","","","","",""
"","response","","html-keyboard-response","54","504129","0.0-1.0-68.0-0.0","0","0","46676","","null","","","null","7","","","1","7","training","adjacent","BC","2","3","L.jpg","Q.jpg","NaN","1","0","",""
"","too_slow_prompt","","html-keyboard-response","55","505132","0.0-1.0-70.0-0.0","1","0","46676","","null","","","null","","","","","","","","","","","","","","","","",""
"","time_out","","html-keyboard-response","56","507135","0.0-1.0-71.0-0.0","0","0","46676","","null","","","null","7","","","","","","","","","","","","","","","",""
"","ITI","","html-keyboard-response","57","508139","0.0-1.0-72.0","0","0","46676","","null","","","null","7","","","","","","","","","","","","","","","NaN",""
"","S1","","html-keyboard-response","58","508392","0.0-1.0-74.0","0","0","46676","","null","","","null","8","","","","","","","","","","","","","","","",""
"","ISI","","html-keyboard-response","59","509394","0.0-1.0-75.0","0","0","46676","","null","","","null","8","NaN","","","","","","","","","","","","","","",""
"","S2","","html-keyboard-response","60","509661","0.0-1.0-76.0","0","0","46676","","null","","","null","8","","NaN","","","","","","","","","","","","","",""
"","response","","html-keyboard-response","61","510644","0.0-1.0-77.0-0.0","0","0","46676","","981","","","68","8","","","1","8","training","adjacent","AB","1","2","P.jpg","L.jpg","1","1","1","",""
"","feedback","","html-keyboard-response","62","511647","0.0-1.0-78.0-0.0","0","0","46676","","null","","","null","8","","","","","","","","","","","","","","","",""
"","ITI","","html-keyboard-response","63","512651","0.0-1.0-81.0","0","0","46676","","null","","","null","8","","","","","","","","","","","","","","","NaN",""
"","S1","","html-keyboard-response","64","512904","0.0-1.0-83.0","0","0","46676","","null","","","null","9","","","","","","","","","","","","","","","",""
"","ISI","","html-keyboard-response","65","513907","0.0-1.0-84.0","0","0","46676","","null","","","null","9","NaN","","","","","","","","","","","","","","",""
"","S2","","html-keyboard-response","66","514173","0.0-1.0-85.0","0","0","46676","","null","","","null","9","","NaN","","","","","","","","","","","","","",""
"","response","","html-keyboard-response","67","514939","0.0-1.0-86.0-0.0","0","0","46676","","763","","","75","9","","","1","9","training","adjacent","EF","5","6","O.jpg","R.jpg","0","1","0","",""
"","feedback","","html-keyboard-response","68","515942","0.0-1.0-87.0-0.0","0","0","46676","","null","","","null","9","","","","","","","","","","","","","","","",""
"","time_out","","html-keyboard-response","69","517945","0.0-1.0-89.0-0.0","0","0","46676","","null","","","null","9","","","","","","","","","","","","","","","",""
"","ITI","","html-keyboard-response","70","518948","0.0-1.0-90.0","0","0","46676","","null","","","null","9","","","","","","","","","","","","","","","NaN",""
"","S1","","html-keyboard-response","71","519202","0.0-1.0-92.0","0","0","46676","","null","","","null","10","","","","","","","","","","","","","","","",""
"","ISI","","html-keyboard-response","72","520205","0.0-1.0-93.0","0","0","46676","","null","","","null","10","NaN","","","","","","","","","","","","","","",""
"","S2","","html-keyboard-response","73","520459","0.0-1.0-94.0","0","0","46676","","null","","","null","10","","NaN","","","","","","","","","","","","","",""
"","response","","html-keyboard-response","74","521179","0.0-1.0-95.0-0.0","0","0","46676","","718","","","75","10","","","1","10","training","adjacent","FG","6","7","R.jpg","M.jpg","0","1","0","",""
"","feedback","","html-keyboard-response","75","522182","0.0-1.0-96.0-0.0","0","0","46676","","null","","","null","10","","","","","","","","","","","","","","","",""
"","time_out","","html-keyboard-response","76","524185","0.0-1.0-98.0-0.0","0","0","46676","","null","","","null","10","","","","","","","","","","","","","","","",""
"","ITI","","html-keyboard-response","77","525188","0.0-1.0-99.0","0","0","46676","","null","","","null","10","","","","","","","","","","","","","","","NaN",""
"","S1","","html-keyboard-response","78","525441","0.0-1.0-101.0","0","0","46676","","null","","","null","11","","","","","","","","","","","","","","","",""
"","ISI","","html-keyboard-response","79","526444","0.0-1.0-102.0","0","0","46676","","null","","","null","11","NaN","","","","","","","","","","","","","","",""
"","S2","","html-keyboard-response","80","526698","0.0-1.0-103.0","0","0","46676","","null","","","null","11","","NaN","","","","","","","","","","","","","",""
"","response","","html-keyboard-response","81","527130","0.0-1.0-104.0-0.0","0","0","46676","","430","","","68","11","","","1","11","training","adjacent","DC","4","3","N.jpg","Q.jpg","1","0","0","",""
"","feedback","","html-keyboard-response","82","528134","0.0-1.0-105.0-0.0","0","0","46676","","null","","","null","11","","","","","","","","","","","","","","","",""
"","time_out","","html-keyboard-response","83","530137","0.0-1.0-107.0-0.0","0","0","46676","","null","","","null","11","","","","","","","","","","","","","","","",""
"","ITI","","html-keyboard-response","84","531140","0.0-1.0-108.0","0","0","46676","","null","","","null","11","","","","","","","","","","","","","","","NaN",""
"","S1","","html-keyboard-response","85","531394","0.0-1.0-110.0","0","0","46676","","null","","","null","12","","","","","","","","","","","","","","","",""
"","ISI","","html-keyboard-response","86","532397","0.0-1.0-111.0","0","0","46676","","null","","","null","12","NaN","","","","","","","","","","","","","","",""
"","S2","","html-keyboard-response","87","532651","0.0-1.0-112.0","0","0","46676","","null","","","null","12","","NaN","","","","","","","","","","","","","",""
"","response","","html-keyboard-response","88","532795","0.0-1.0-113.0-0.0","0","0","46676","","141","","","75","12","","","1","12","training","adjacent","EF","5","6","O.jpg","R.jpg","0","1","0","",""
"","feedback","","html-keyboard-response","89","533800","0.0-1.0-114.0-0.0","0","0","46676","","null","","","null","12","","","","","","","","","","","","","","","",""
"","time_out","","html-keyboard-response","90","535803","0.0-1.0-116.0-0.0","0","0","46676","","null","","","null","12","","","","","","","","","","","","","","","",""
"","ITI","","html-keyboard-response","91","536805","0.0-1.0-117.0","0","0","46676","","null","","","null","12","","","","","","","","","","","","","","","NaN",""
"","S1","","html-keyboard-response","92","537058","0.0-1.0-119.0","0","0","46676","","null","","","null","13","","","","","","","","","","","","","","","",""
"","ISI","","html-keyboard-response","93","538060","0.0-1.0-120.0","0","0","46676","","870","","","75","13","k","","","","","","","","","","","","","","",""
"","S2","","html-keyboard-response","94","538313","0.0-1.0-121.0","0","0","46676","","null","","","null","13","","NaN","","","","","","","","","","","","","",""
"","response","","html-keyboard-response","95","539586","0.0-1.0-122.0-0.0","0","0","46676","","1271","","","75","13","","","1","13","training","adjacent","DC","4","3","N.jpg","Q.jpg","0","0","1","",""
"","feedback","","html-keyboard-response","96","540590","0.0-1.0-123.0-0.0","0","0","46676","","null","","","null","13","","","","","","","","","","","","","","","",""
"","ITI","","html-keyboard-response","97","541593","0.0-1.0-126.0","0","0","46676","","null","","","null","13","","","","","","","","","","","","","","","NaN",""
"","S1","","html-keyboard-response","98","541847","0.0-1.0-128.0","0","0","46676","","null","","","null","14","","","","","","","","","","","","","","","",""
"","ISI","","html-keyboard-response","99","542850","0.0-1.0-129.0","0","0","46676","","null","","","null","14","NaN","","","","","","","","","","","","","","",""
"","S2","","html-keyboard-response","100","543104","0.0-1.0-130.0","0","0","46676","","null","","","null","14","","NaN","","","","","","","","","","","","","",""
"","response","","html-keyboard-response","101","543795","0.0-1.0-131.0-0.0","0","0","46676","","690","","","68","14","","","1","14","training","adjacent","EF","5","6","O.jpg","R.jpg","1","1","1","",""
"","feedback","","html-keyboard-response","102","544798","0.0-1.0-132.0-0.0","0","0","46676","","null","","","null","14","","","","","","","","","","","","","","","",""
"","ITI","","html-keyboard-response","103","545801","0.0-1.0-135.0","0","0","46676","","null","","","null","14","","","","","","","","","","","","","","","NaN",""
"","S1","","html-keyboard-response","104","546054","0.0-1.0-137.0","0","0","46676","","null","","","null","15","","","","","","","","","","","","","","","",""
"","ISI","","html-keyboard-response","105","547058","0.0-1.0-138.0","0","0","46676","","null","","","null","15","NaN","","","","","","","","","","","","","","",""
"","S2","","html-keyboard-response","106","547311","0.0-1.0-139.0","0","0","46676","","null","","","null","15","","NaN","","","","","","","","","","","","","",""
"","response","","html-keyboard-response","107","547664","0.0-1.0-140.0-0.0","0","0","46676","","352","","","75","15","","","1","15","training","adjacent","BA","2","1","L.jpg","P.jpg","0","0","1","",""
"","feedback","","html-keyboard-response","108","548668","0.0-1.0-141.0-0.0","0","0","46676","","null","","","null","15","","","","","","","","","","","","","","","",""
"","ITI","","html-keyboard-response","109","549671","0.0-1.0-144.0","0","0","46676","","null","","","null","15","","","","","","","","","","","","","","","NaN",""
"","S1","","html-keyboard-response","110","549924","0.0-1.0-146.0","0","0","46676","","null","","","null","16","","","","","","","","","","","","","","","",""
"","ISI","","html-keyboard-response","111","550928","0.0-1.0-147.0","0","0","46676","","null","","","null","16","NaN","","","","","","","","","","","","","","",""
"","S2","","html-keyboard-response","112","551181","0.0-1.0-148.0","0","0","46676","","null","","","null","16","","NaN","","","","","","","","","","","","","",""
"","response","","html-keyboard-response","113","551890","0.0-1.0-149.0-0.0","0","0","46676","","707","","","68","16","","","1","16","training","adjacent","AB","1","2","P.jpg","L.jpg","1","1","1","",""
"","feedback","","html-keyboard-response","114","552895","0.0-1.0-150.0-0.0","0","0","46676","","null","","","null","16","","","","","","","","","","","","","","","",""
"","ITI","","html-keyboard-response","115","553898","0.0-1.0-153.0","0","0","46676","","null","","","null","16","","","","","","","","","","","","","","","NaN",""
"","S1","","html-keyboard-response","116","554150","0.0-1.0-155.0","0","0","46676","","null","","","null","17","","","","","","","","","","","","","","","",""
"","ISI","","html-keyboard-response","117","555153","0.0-1.0-156.0","0","0","46676","","null","","","null","17","NaN","","","","","","","","","","","","","","",""
"","S2","","html-keyboard-response","118","555406","0.0-1.0-157.0","0","0","46676","","null","","","null","17","","NaN","","","","","","","","","","","","","",""
"","response","","html-keyboard-response","119","556051","0.0-1.0-158.0-0.0","0","0","46676","","642","","","68","17","","","1","17","training","adjacent","ED","5","4","O.jpg","N.jpg","1","0","0","",""
"","feedback","","html-keyboard-response","120","557054","0.0-1.0-159.0-0.0","0","0","46676","","null","","","null","17","","","","","","","","","","","","","","","",""
"","time_out","","html-keyboard-response","121","559057","0.0-1.0-161.0-0.0","0","0","46676","","null","","","null","17","","","","","","","","","","","","","","","",""
"","ITI","","html-keyboard-response","122","560060","0.0-1.0-162.0","0","0","46676","","null","","","null","17","","","","","","","","","","","","","","","NaN",""
"","S1","","html-keyboard-response","123","560314","0.0-1.0-164.0","0","0","46676","","null","","","null","18","","","","","","","","","","","","","","","",""
"","ISI","","html-keyboard-response","124","561317","0.0-1.0-165.0","0","0","46676","","null","","","null","18","NaN","","","","","","","","","","","","","","",""
"","S2","","html-keyboard-response","125","561570","0.0-1.0-166.0","0","0","46676","","null","","","null","18","","NaN","","","","","","","","","","","","","",""
"","response","","html-keyboard-response","126","562219","0.0-1.0-167.0-0.0","0","0","46676","","646","","","75","18","","","1","18","training","adjacent","AB","1","2","P.jpg","L.jpg","0","1","0","",""
"","feedback","","html-keyboard-response","127","563223","0.0-1.0-168.0-0.0","0","0","46676","","null","","","null","18","","","","","","","","","","","","","","","",""
"","time_out","","html-keyboard-response","128","565226","0.0-1.0-170.0-0.0","0","0","46676","","null","","","null","18","","","","","","","","","","","","","","","",""
"","ITI","","html-keyboard-response","129","566230","0.0-1.0-171.0","0","0","46676","","null","","","null","18","","","","","","","","","","","","","","","NaN",""
"","S1","","html-keyboard-response","130","566483","0.0-1.0-173.0","0","0","46676","","null","","","null","19","","","","","","","","","","","","","","","",""
"","ISI","","html-keyboard-response","131","567486","0.0-1.0-174.0","0","0","46676","","null","","","null","19","NaN","","","","","","","","","","","","","","",""
"","S2","","html-keyboard-response","132","567740","0.0-1.0-175.0","0","0","46676","","null","","","null","19","","NaN","","","","","","","","","","","","","",""
"","response","","html-keyboard-response","133","568227","0.0-1.0-176.0-0.0","0","0","46676","","485","","","75","19","","","1","19","training","adjacent","DC","4","3","N.jpg","Q.jpg","0","0","1","",""
"","feedback","","html-keyboard-response","134","569231","0.0-1.0-177.0-0.0","0","0","46676","","null","","","null","19","","","","","","","","","","","","","","","",""
"","ITI","","html-keyboard-response","135","570235","0.0-1.0-180.0","0","0","46676","","null","","","null","19","","","","","","","","","","","","","","","NaN",""
"","S1","","html-keyboard-response","136","570502","0.0-1.0-182.0","0","0","46676","","null","","","null","20","","","","","","","","","","","","","","","",""
"","ISI","","html-keyboard-response","137","571505","0.0-1.0-183.0","0","0","46676","","null","","","null","20","NaN","","","","","","","","","","","","","","",""
"","S2","","html-keyboard-response","138","571760","0.0-1.0-184.0","0","0","46676","","null","","","null","20","","NaN","","","","","","","","","","","","","",""
"","response","","html-keyboard-response","139","572347","0.0-1.0-185.0-0.0","0","0","46676","","584","","","75","20","","","1","20","training","adjacent","ED","5","4","O.jpg","N.jpg","0","0","1","",""
"","feedback","","html-keyboard-response","140","573351","0.0-1.0-186.0-0.0","0","0","46676","","null","","","null","20","","","","","","","","","","","","","","","",""
"","ITI","","html-keyboard-response","141","574354","0.0-1.0-189.0","0","0","46676","","null","","","null","20","","","","","","","","","","","","","","","NaN",""
"","S1","","html-keyboard-response","142","574607","0.0-1.0-191.0","0","0","46676","","null","","","null","21","","","","","","","","","","","","","","","",""
"","ISI","","html-keyboard-response","143","575610","0.0-1.0-192.0","0","0","46676","","null","","","null","21","NaN","","","","","","","","","","","","","","",""
"","S2","","html-keyboard-response","144","575864","0.0-1.0-193.0","0","0","46676","","null","","","null","21","","NaN","","","","","","","","","","","","","",""
"","response","","html-keyboard-response","145","576770","0.0-1.0-194.0-0.0","0","0","46676","","904","","","68","21","","","1","21","training","adjacent","GF","7","6","M.jpg","R.jpg","1","0","0","",""
"","feedback","","html-keyboard-response","146","577775","0.0-1.0-195.0-0.0","0","0","46676","","null","","","null","21","","","","","","","","","","","","","","","",""
"","time_out","","html-keyboard-response","147","579779","0.0-1.0-197.0-0.0","0","0","46676","","null","","","null","21","","","","","","","","","","","","","","","",""
"","ITI","","html-keyboard-response","148","580782","0.0-1.0-198.0","0","0","46676","","null","","","null","21","","","","","","","","","","","","","","","NaN",""
"","S1","","html-keyboard-response","149","581035","0.0-1.0-200.0","0","0","46676","","null","","","null","22","","","","","","","","","","","","","","","",""
"","ISI","","html-keyboard-response","150","582037","0.0-1.0-201.0","0","0","46676","","926","","","75","22","k","","","","","","","","","","","","","","",""
"","S2","","html-keyboard-response","151","582291","0.0-1.0-202.0","0","0","46676","","null","","","null","22","","NaN","","","","","","","","","","","","","",""
"","response","","html-keyboard-response","152","582987","0.0-1.0-203.0-0.0","0","0","46676","","693","","","75","22","","","1","22","training","adjacent","FG","6","7","R.jpg","M.jpg","0","1","0","",""
"","feedback","","html-keyboard-response","153","583991","0.0-1.0-204.0-0.0","0","0","46676","","null","","","null","22","","","","","","","","","","","","","","","",""
"","time_out","","html-keyboard-response","154","585994","0.0-1.0-206.0-0.0","0","0","46676","","null","","","null","22","","","","","","","","","","","","","","","",""
"","ITI","","html-keyboard-response","155","586996","0.0-1.0-207.0","0","0","46676","","null","","","null","22","","","","","","","","","","","","","","","NaN",""
"","S1","","html-keyboard-response","156","587250","0.0-1.0-209.0","0","0","46676","","null","","","null","23","","","","","","","","","","","","","","","",""
"","ISI","","html-keyboard-response","157","588253","0.0-1.0-210.0","0","0","46676","","null","","","null","23","NaN","","","","","","","","","","","","","","",""
"","S2","","html-keyboard-response","158","588507","0.0-1.0-211.0","0","0","46676","","null","","","null","23","","NaN","","","","","","","","","","","","","",""
"","response","","html-keyboard-response","159","588738","0.0-1.0-212.0-0.0","0","0","46676","","229","","","75","23","","","1","23","training","adjacent","CD","3","4","Q.jpg","N.jpg","0","1","0","",""
"","feedback","","html-keyboard-response","160","589742","0.0-1.0-213.0-0.0","0","0","46676","","null","","","null","23","","","","","","","","","","","","","","","",""
"","time_out","","html-keyboard-response","161","591745","0.0-1.0-215.0-0.0","0","0","46676","","null","","","null","23","","","","","","","","","","","","","","","",""
"","ITI","","html-keyboard-response","162","592749","0.0-1.0-216.0","0","0","46676","","null","","","null","23","","","","","","","","","","","","","","","NaN",""
"","S1","","html-keyboard-response","163","593001","0.0-1.0-218.0","0","0","46676","","null","","","null","24","","","","","","","","","","","","","","","",""
"","ISI","","html-keyboard-response","164","594004","0.0-1.0-219.0","0","0","46676","","null","","","null","24","NaN","","","","","","","","","","","","","","",""
"","S2","","html-keyboard-response","165","594257","0.0-1.0-220.0","0","0","46676","","null","","","null","24","","NaN","","","","","","","","","","","","","",""
"","response","","html-keyboard-response","166","594722","0.0-1.0-221.0-0.0","0","0","46676","","464","","","75","24","","","1","24","training","adjacent","DE","4","5","N.jpg","O.jpg","0","1","0","",""
"","feedback","","html-keyboard-response","167","595726","0.0-1.0-222.0-0.0","0","0","46676","","null","","","null","24","","","","","","","","","","","","","","","",""
"","time_out","","html-keyboard-response","168","597729","0.0-1.0-224.0-0.0","0","0","46676","","null","","","null","24","","","","","","","","","","","","","","","",""
"","ITI","","html-keyboard-response","169","598732","0.0-1.0-225.0","0","0","46676","","null","","","null","24","","","","","","","","","","","","","","","NaN",""
"","S1","","html-keyboard-response","170","598985","0.0-1.0-227.0","0","0","46676","","null","","","null","25","","","","","","","","","","","","","","","",""
"","ISI","","html-keyboard-response","171","599988","0.0-1.0-228.0","0","0","46676","","null","","","null","25","NaN","","","","","","","","","","","","","","",""
"","S2","","html-keyboard-response","172","600241","0.0-1.0-229.0","0","0","46676","","null","","","null","25","","NaN","","","","","","","","","","","","","",""
"","response","","html-keyboard-response","173","600290","0.0-1.0-230.0-0.0","0","0","46676","","47","","","68","25","","","1","25","training","adjacent","CB","3","2","Q.jpg","L.jpg","1","0","0","",""
"","feedback","","html-keyboard-response","174","601294","0.0-1.0-231.0-0.0","0","0","46676","","null","","","null","25","","","","","","","","","","","","","","","",""
"","time_out","","html-keyboard-response","175","603298","0.0-1.0-233.0-0.0","0","0","46676","","null","","","null","25","","","","","","","","","","","","","","","",""
"","ITI","","html-keyboard-response","176","604302","0.0-1.0-234.0","0","0","46676","","null","","","null","25","","","","","","","","","","","","","","","NaN",""
"","S1","","html-keyboard-response","177","604556","0.0-1.0-236.0","0","0","46676","","null","","","null","26","","","","","","","","","","","","","","","",""
"","ISI","","html-keyboard-response","178","605560","0.0-1.0-237.0","0","0","46676","","null","","","null","26","NaN","","","","","","","","","","","","","","",""
"","S2","","html-keyboard-response","179","605813","0.0-1.0-238.0","0","0","46676","","null","","","null","26","","NaN","","","","","","","","","","","","","",""
"","response","","html-keyboard-response","180","605850","0.0-1.0-239.0-0.0","0","0","46676","","35","","","75","26","","","1","26","training","adjacent","EF","5","6","O.jpg","R.jpg","0","1","0","",""
"","feedback","","html-keyboard-response","181","606854","0.0-1.0-240.0-0.0","0","0","46676","","null","","","null","26","","","","","","","","","","","","","","","",""
"","time_out","","html-keyboard-response","182","608857","0.0-1.0-242.0-0.0","0","0","46676","","null","","","null","26","","","","","","","","","","","","","","","",""
"","ITI","","html-keyboard-response","183","609860","0.0-1.0-243.0","0","0","46676","","null","","","null","26","","","","","","","","","","","","","","","NaN",""
"","S1","","html-keyboard-response","184","610113","0.0-1.0-245.0","0","0","46676","","null","","","null","27","","","","","","","","","","","","","","","",""
"","ISI","","html-keyboard-response","185","611116","0.0-1.0-246.0","0","0","46676","","640","","","75","27","k","","","","","","","","","","","","","","",""
"","S2","","html-keyboard-response","186","611370","0.0-1.0-247.0","0","0","46676","","null","","","null","27","","NaN","","","","","","","","","","","","","",""
"","response","","html-keyboard-response","187","611795","0.0-1.0-248.0-0.0","0","0","46676","","422","","","75","27","","","1","27","training","adjacent","DE","4","5","N.jpg","O.jpg","0","1","0","",""
"","feedback","","html-keyboard-response","188","612798","0.0-1.0-249.0-0.0","0","0","46676","","null","","","null","27","","","","","","","","","","","","","","","",""
"","time_out","","html-keyboard-response","189","614802","0.0-1.0-251.0-0.0","0","0","46676","","null","","","null","27","","","","","","","","","","","","","","","",""
"","ITI","","html-keyboard-response","190","615805","0.0-1.0-252.0","0","0","46676","","null","","","null","27","","","","","","","","","","","","","","","NaN",""
"","S1","","html-keyboard-response","191","616060","0.0-1.0-254.0","0","0","46676","","null","","","null","28","","","","","","","","","","","","","","","",""
"","ISI","","html-keyboard-response","192","617063","0.0-1.0-255.0","0","0","46676","","468","","","75","28","k","","","","","","","","","","","","","","",""
"","S2","","html-keyboard-response","193","617317","0.0-1.0-256.0","0","0","46676","","null","","","null","28","","NaN","","","","","","","","","","","","","",""
"","response","","html-keyboard-response","194","617659","0.0-1.0-257.0-0.0","0","0","46676","","340","","","75","28","","","1","28","training","adjacent","BC","2","3","L.jpg","Q.jpg","0","1","0","",""
"","feedback","","html-keyboard-response","195","618667","0.0-1.0-258.0-0.0","0","0","46676","","null","","","null","28","","","","","","","","","","","","","","","",""
"","time_out","","html-keyboard-response","196","620670","0.0-1.0-260.0-0.0","0","0","46676","","null","","","null","28","","","","","","","","","","","","","","","",""
"","ITI","","html-keyboard-response","197","621673","0.0-1.0-261.0","0","0","46676","","null","","","null","28","","","","","","","","","","","","","","","NaN",""
"","S1","","html-keyboard-response","198","621927","0.0-1.0-263.0","0","0","46676","","null","","","null","29","","","","","","","","","","","","","","","",""
"","ISI","","html-keyboard-response","199","622930","0.0-1.0-264.0","0","0","46676","","null","","","null","29","NaN","","","","","","","","","","","","","","",""
"","S2","","html-keyboard-response","200","623107","0.0-1.0-265.0","0","0","46676","","174","","","68","29","","d","1","29","training","adjacent","FE","6","5","R.jpg","O.jpg","1","0","0","",""
"","feedback","","html-keyboard-response","201","624111","0.0-1.0-267.0-0.0","0","0","46676","","null","","","null","29","","","","","","","","","","","","","","","",""
"","time_out","","html-keyboard-response","202","626114","0.0-1.0-269.0-0.0","0","0","46676","","null","","","null","29","","","","","","","","","","","","","","","",""
"","ITI","","html-keyboard-response","203","627117","0.0-1.0-270.0","0","0","46676","","null","","","null","29","","","","","","","","","","","","","","","NaN",""
"","S1","","html-keyboard-response","204","627370","0.0-1.0-272.0","0","0","46676","","null","","","null","30","","","","","","","","","","","","","","","",""
"","ISI","","html-keyboard-response","205","628373","0.0-1.0-273.0","0","0","46676","","590","","","75","30","k","","","","","","","","","","","","","","",""
"","S2","","html-keyboard-response","206","628627","0.0-1.0-274.0","0","0","46676","","null","","","null","30","","NaN","","","","","","","","","","","","","",""
"","response","","html-keyboard-response","207","629043","0.0-1.0-275.0-0.0","0","0","46676","","413","","","75","30","","","1","30","training","adjacent","GF","7","6","M.jpg","R.jpg","0","0","1","",""
"","feedback","","html-keyboard-response","208","630047","0.0-1.0-276.0-0.0","0","0","46676","","null","","","null","30","","","","","","","","","","","","","","","",""
"","ITI","","html-keyboard-response","209","631050","0.0-1.0-279.0","0","0","46676","","null","","","null","30","","","","","","","","","","","","","","","NaN",""
"","S1","","html-keyboard-response","210","631306","0.0-1.0-281.0","0","0","46676","","null","","","null","31","","","","","","","","","","","","","","","",""
"","ISI","","html-keyboard-response","211","632309","0.0-1.0-282.0","0","0","46676","","null","","","null","31","NaN","","","","","","","","","","","","","","",""
"","S2","","html-keyboard-response","212","632562","0.0-1.0-283.0","0","0","46676","","null","","","null","31","","NaN","","","","","","","","","","","","","",""
"","response","","html-keyboard-response","213","633027","0.0-1.0-284.0-0.0","0","0","46676","","462","","","75","31","","","1","31","training","adjacent","DE","4","5","N.jpg","O.jpg","0","1","0","",""
"","feedback","","html-keyboard-response","214","634031","0.0-1.0-285.0-0.0","0","0","46676","","null","","","null","31","","","","","","","","","","","","","","","",""
"","time_out","","html-keyboard-response","215","636034","0.0-1.0-287.0-0.0","0","0","46676","","null","","","null","31","","","","","","","","","","","","","","","",""
"","ITI","","html-keyboard-response","216","637038","0.0-1.0-288.0","0","0","46676","","null","","","null","31","","","","","","","","","","","","","","","NaN",""
"","S1","","html-keyboard-response","217","637291","0.0-1.0-290.0","0","0","46676","","null","","","null","32","","","","","","","","","","","","","","","",""
"","ISI","","html-keyboard-response","218","638294","0.0-1.0-291.0","0","0","46676","","null","","","null","32","NaN","","","","","","","","","","","","","","",""
"","S2","","html-keyboard-response","219","638547","0.0-1.0-292.0","0","0","46676","","null","","","null","32","","NaN","","","","","","","","","","","","","",""
"","response","","html-keyboard-response","220","638603","0.0-1.0-293.0-0.0","0","0","46676","","53","","","68","32","","","1","32","training","adjacent","CD","3","4","Q.jpg","N.jpg","1","1","1","",""
"","feedback","","html-keyboard-response","221","639605","0.0-1.0-294.0-0.0","0","0","46676","","null","","","null","32","","","","","","","","","","","","","","","",""
"","ITI","","html-keyboard-response","222","640608","0.0-1.0-297.0","0","0","46676","","null","","","null","32","","","","","","","","","","","","","","","NaN",""
"","S1","","html-keyboard-response","223","640861","0.0-1.0-299.0","0","0","46676","","null","","","null","33","","","","","","","","","","","","","","","",""
"","ISI","","html-keyboard-response","224","641865","0.0-1.0-300.0","0","0","46676","","null","","","null","33","NaN","","","","","","","","","","","","","","",""
"","S2","","html-keyboard-response","225","642119","0.0-1.0-301.0","0","0","46676","","null","","","null","33","","NaN","","","","","","","","","","","","","",""
"","response","","html-keyboard-response","226","642707","0.0-1.0-302.0-0.0","0","0","46676","","586","","","75","33","","","1","33","training","adjacent","GF","7","6","M.jpg","R.jpg","0","0","1","",""
"","feedback","","html-keyboard-response","227","643711","0.0-1.0-303.0-0.0","0","0","46676","","null","","","null","33","","","","","","","","","","","","","","","",""
"","ITI","","html-keyboard-response","228","644713","0.0-1.0-306.0","0","0","46676","","null","","","null","33","","","","","","","","","","","","","","","NaN",""
"","S1","","html-keyboard-response","229","644967","0.0-1.0-308.0","0","0","46676","","null","","","null","34","","","","","","","","","","","","","","","",""
"","ISI","","html-keyboard-response","230","645971","0.0-1.0-309.0","0","0","46676","","null","","","null","34","NaN","","","","","","","","","","","","","","",""
"","S2","","html-keyboard-response","231","646224","0.0-1.0-310.0","0","0","46676","","null","","","null","34","","NaN","","","","","","","","","","","","","",""
"","response","","html-keyboard-response","232","647130","0.0-1.0-311.0-0.0","0","0","46676","","905","","","68","34","","","1","34","training","adjacent","GF","7","6","M.jpg","R.jpg","1","0","0","",""
"","feedback","","html-keyboard-response","233","648134","0.0-1.0-312.0-0.0","0","0","46676","","null","","","null","34","","","","","","","","","","","","","","","",""
"","time_out","","html-keyboard-response","234","650137","0.0-1.0-314.0-0.0","0","0","46676","","null","","","null","34","","","","","","","","","","","","","","","",""
"","ITI","","html-keyboard-response","235","651140","0.0-1.0-315.0","0","0","46676","","null","","","null","34","","","","","","","","","","","","","","","NaN",""
"","S1","","html-keyboard-response","236","651393","0.0-1.0-317.0","0","0","46676","","null","","","null","35","","","","","","","","","","","","","","","",""
"","ISI","","html-keyboard-response","237","652396","0.0-1.0-318.0","0","0","46676","","null","","","null","35","NaN","","","","","","","","","","","","","","",""
"","S2","","html-keyboard-response","238","652650","0.0-1.0-319.0","0","0","46676","","null","","","null","35","","NaN","","","","","","","","","","","","","",""
"","response","","html-keyboard-response","239","653507","0.0-1.0-320.0-0.0","0","0","46676","","855","","","75","35","","","1","35","training","adjacent","DC","4","3","N.jpg","Q.jpg","0","0","1","",""
"","feedback","","html-keyboard-response","240","654511","0.0-1.0-321.0-0.0","0","0","46676","","null","","","null","35","","","","","","","","","","","","","","","",""
"","ITI","","html-keyboard-response","241","655515","0.0-1.0-324.0","0","0","46676","","null","","","null","35","","","","","","","","","","","","","","","NaN",""
"","S1","","html-keyboard-response","242","655768","0.0-1.0-326.0","0","0","46676","","null","","","null","36","","","","","","","","","","","","","","","",""
"","ISI","","html-keyboard-response","243","656770","0.0-1.0-327.0","0","0","46676","","null","","","null","36","NaN","","","","","","","","","","","","","","",""
"","S2","","html-keyboard-response","244","657023","0.0-1.0-328.0","0","0","46676","","null","","","null","36","","NaN","","","","","","","","","","","","","",""
"","response","","html-keyboard-response","245","657691","0.0-1.0-329.0-0.0","0","0","46676","","666","","","75","36","","","1","36","training","adjacent","BA","2","1","L.jpg","P.jpg","0","0","1","",""
"","feedback","","html-keyboard-response","246","658694","0.0-1.0-330.0-0.0","0","0","46676","","null","","","null","36","","","","","","","","","","","","","","","",""
"","ITI","","html-keyboard-response","247","659697","0.0-1.0-333.0","0","0","46676","","null","","","null","36","","","","","","","","","","","","","","","NaN",""
"","S1","","html-keyboard-response","248","659951","0.0-1.0-335.0","0","0","46676","","null","","","null","37","","","","","","","","","","","","","","","",""
"","ISI","","html-keyboard-response","249","660954","0.0-1.0-336.0","0","0","46676","","null","","","null","37","NaN","","","","","","","","","","","","","","",""
"","S2","","html-keyboard-response","250","661208","0.0-1.0-337.0","0","0","46676","","null","","","null","37","","NaN","","","","","","","","","","","","","",""
"","response","","html-keyboard-response","251","661875","0.0-1.0-338.0-0.0","0","0","46676","","666","","","68","37","","","1","37","training","adjacent","AB","1","2","P.jpg","L.jpg","1","1","1","",""
"","feedback","","html-keyboard-response","252","662880","0.0-1.0-339.0-0.0","0","0","46676","","null","","","null","37","","","","","","","","","","","","","","","",""
"","ITI","","html-keyboard-response","253","663883","0.0-1.0-342.0","0","0","46676","","null","","","null","37","","","","","","","","","","","","","","","NaN",""
"","S1","","html-keyboard-response","254","664137","0.0-1.0-344.0","0","0","46676","","null","","","null","38","","","","","","","","","","","","","","","",""
"","ISI","","html-keyboard-response","255","665140","0.0-1.0-345.0","0","0","46676","","null","","","null","38","NaN","","","","","","","","","","","","","","",""
"","S2","","html-keyboard-response","256","665393","0.0-1.0-346.0","0","0","46676","","null","","","null","38","","NaN","","","","","","","","","","","","","",""
"","response","","html-keyboard-response","257","666267","0.0-1.0-347.0-0.0","0","0","46676","","871","","","75","38","","","1","38","training","adjacent","FE","6","5","R.jpg","O.jpg","0","0","1","",""
"","feedback","","html-keyboard-response","258","667271","0.0-1.0-348.0-0.0","0","0","46676","","null","","","null","38","","","","","","","","","","","","","","","",""
"","ITI","","html-keyboard-response","259","668274","0.0-1.0-351.0","0","0","46676","","null","","","null","38","","","","","","","","","","","","","","","NaN",""
"","S1","","html-keyboard-response","260","668527","0.0-1.0-353.0","0","0","46676","","null","","","null","39","","","","","","","","","","","","","","","",""
"","ISI","","html-keyboard-response","261","669531","0.0-1.0-354.0","0","0","46676","","null","","","null","39","NaN","","","","","","","","","","","","","","",""
"","S2","","html-keyboard-response","262","669785","0.0-1.0-355.0","0","0","46676","","null","","","null","39","","NaN","","","","","","","","","","","","","",""
"","response","","html-keyboard-response","263","671275","0.0-1.0-356.0-0.0","0","0","46676","","1487","","","68","39","","","1","39","training","adjacent","BC","2","3","L.jpg","Q.jpg","1","1","1","",""
"","feedback","","html-keyboard-response","264","672278","0.0-1.0-357.0-0.0","0","0","46676","","null","","","null","39","","","","","","","","","","","","","","","",""
"","ITI","","html-keyboard-response","265","673282","0.0-1.0-360.0","0","0","46676","","null","","","null","39","","","","","","","","","","","","","","","NaN",""
"","S1","","html-keyboard-response","266","673535","0.0-1.0-362.0","0","0","46676","","null","","","null","40","","","","","","","","","","","","","","","",""
"","ISI","","html-keyboard-response","267","674538","0.0-1.0-363.0","0","0","46676","","null","","","null","40","NaN","","","","","","","","","","","","","","",""
"","S2","","html-keyboard-response","268","674791","0.0-1.0-364.0","0","0","46676","","null","","","null","40","","NaN","","","","","","","","","","","","","",""
"","response","","html-keyboard-response","269","675827","0.0-1.0-365.0-0.0","0","0","46676","","1033","","","75","40","","","1","40","training","adjacent","BC","2","3","L.jpg","Q.jpg","0","1","0","",""
"","feedback","","html-keyboard-response","270","676831","0.0-1.0-366.0-0.0","0","0","46676","","null","","","null","40","","","","","","","","","","","","","","","",""
"","time_out","","html-keyboard-response","271","678834","0.0-1.0-368.0-0.0","0","0","46676","","null","","","null","40","","","","","","","","","","","","","","","",""
"","ITI","","html-keyboard-response","272","679851","0.0-1.0-369.0","0","0","46676","","null","","","null","40","","","","","","","","","","","","","","","NaN",""
"","S1","","html-keyboard-response","273","680105","0.0-1.0-371.0","0","0","46676","","null","","","null","41","","","","","","","","","","","","","","","",""
"","ISI","","html-keyboard-response","274","681108","0.0-1.0-372.0","0","0","46676","","null","","","null","41","NaN","","","","","","","","","","","","","","",""
"","S2","","html-keyboard-response","275","681361","0.0-1.0-373.0","0","0","46676","","null","","","null","41","","NaN","","","","","","","","","","","","","",""
"","response","","html-keyboard-response","276","681483","0.0-1.0-374.0-0.0","0","0","46676","","119","","","68","41","","","1","41","training","adjacent","FE","6","5","R.jpg","O.jpg","1","0","0","",""
"","feedback","","html-keyboard-response","277","682488","0.0-1.0-375.0-0.0","0","0","46676","","null","","","null","41","","","","","","","","","","","","","","","",""
"","time_out","","html-keyboard-response","278","684490","0.0-1.0-377.0-0.0","0","0","46676","","null","","","null","41","","","","","","","","","","","","","","","",""
"","ITI","","html-keyboard-response","279","685493","0.0-1.0-378.0","0","0","46676","","null","","","null","41","","","","","","","","","","","","","","","NaN",""
"","S1","","html-keyboard-response","280","685747","0.0-1.0-380.0","0","0","46676","","null","","","null","42","","","","","","","","","","","","","","","",""
"","ISI","","html-keyboard-response","281","686750","0.0-1.0-381.0","0","0","46676","","206","","","75","42","k","","","","","","","","","","","","","","",""
"","S2","","html-keyboard-response","282","687004","0.0-1.0-382.0","0","0","46676","","null","","","null","42","","NaN","","","","","","","","","","","","","",""
"","response","","html-keyboard-response","283","687059","0.0-1.0-383.0-0.0","0","0","46676","","52","","","75","42","","","1","42","training","adjacent","CD","3","4","Q.jpg","N.jpg","0","1","0","",""
"","feedback","","html-keyboard-response","284","688074","0.0-1.0-384.0-0.0","0","0","46676","","null","","","null","42","","","","","","","","","","","","","","","",""
"","time_out","","html-keyboard-response","285","690078","0.0-1.0-386.0-0.0","0","0","46676","","null","","","null","42","","","","","","","","","","","","","","","",""
"","ITI","","html-keyboard-response","286","691083","0.0-1.0-387.0","0","0","46676","","null","","","null","42","","","","","","","","","","","","","","","NaN",""
"","S1","","html-keyboard-response","287","691337","0.0-1.0-389.0","0","0","46676","","null","","","null","43","","","","","","","","","","","","","","","",""
"","ISI","","html-keyboard-response","288","692341","0.0-1.0-390.0","0","0","46676","","null","","","null","43","NaN","","","","","","","","","","","","","","",""
"","S2","","html-keyboard-response","289","692594","0.0-1.0-391.0","0","0","46676","","null","","","null","43","","NaN","","","","","","","","","","","","","",""
"","response","","html-keyboard-response","290","692907","0.0-1.0-392.0-0.0","0","0","46676","","311","","","75","43","","","1","43","training","adjacent","ED","5","4","O.jpg","N.jpg","0","0","1","",""
"","feedback","","html-keyboard-response","291","693910","0.0-1.0-393.0-0.0","0","0","46676","","null","","","null","43","","","","","","","","","","","","","","","",""
"","ITI","","html-keyboard-response","292","694913","0.0-1.0-396.0","0","0","46676","","null","","","null","43","","","","","","","","","","","","","","","NaN",""
"","S1","","html-keyboard-response","293","695166","0.0-1.0-398.0","0","0","46676","","null","","","null","44","","","","","","","","","","","","","","","",""
"","ISI","","html-keyboard-response","294","696169","0.0-1.0-399.0","0","0","46676","","null","","","null","44","NaN","","","","","","","","","","","","","","",""
"","S2","","html-keyboard-response","295","696423","0.0-1.0-400.0","0","0","46676","","null","","","null","44","","NaN","","","","","","","","","","","","","",""
"","response","","html-keyboard-response","296","696891","0.0-1.0-401.0-0.0","0","0","46676","","466","","","75","44","","","1","44","training","adjacent","CB","3","2","Q.jpg","L.jpg","0","0","1","",""
"","feedback","","html-keyboard-response","297","697895","0.0-1.0-402.0-0.0","0","0","46676","","null","","","null","44","","","","","","","","","","","","","","","",""
"","ITI","","html-keyboard-response","298","698898","0.0-1.0-405.0","0","0","46676","","null","","","null","44","","","","","","","","","","","","","","","NaN",""
"","S1","","html-keyboard-response","299","699151","0.0-1.0-407.0","0","0","46676","","null","","","null","45","","","","","","","","","","","","","","","",""
"","ISI","","html-keyboard-response","300","700155","0.0-1.0-408.0","0","0","46676","","null","","","null","45","NaN","","","","","","","","","","","","","","",""
"","S2","","html-keyboard-response","301","700409","0.0-1.0-409.0","0","0","46676","","null","","","null","45","","NaN","","","","","","","","","","","","","",""
"","response","","html-keyboard-response","302","701139","0.0-1.0-410.0-0.0","0","0","46676","","727","","","75","45","","","1","45","training","adjacent","BA","2","1","L.jpg","P.jpg","0","0","1","",""
"","feedback","","html-keyboard-response","303","702142","0.0-1.0-411.0-0.0","0","0","46676","","null","","","null","45","","","","","","","","","","","","","","","",""
"","ITI","","html-keyboard-response","304","703146","0.0-1.0-414.0","0","0","46676","","null","","","null","45","","","","","","","","","","","","","","","NaN",""
"","S1","","html-keyboard-response","305","703400","0.0-1.0-416.0","0","0","46676","","null","","","null","46","","","","","","","","","","","","","","","",""
"","ISI","","html-keyboard-response","306","704403","0.0-1.0-417.0","0","0","46676","","null","","","null","46","NaN","","","","","","","","","","","","","","",""
"","S2","","html-keyboard-response","307","704657","0.0-1.0-418.0","0","0","46676","","null","","","null","46","","NaN","","","","","","","","","","","","","",""
"","response","","html-keyboard-response","308","705539","0.0-1.0-419.0-0.0","0","0","46676","","879","","","68","46","","","1","46","training","adjacent","FG","6","7","R.jpg","M.jpg","1","1","1","",""
"","feedback","","html-keyboard-response","309","706543","0.0-1.0-420.0-0.0","0","0","46676","","null","","","null","46","","","","","","","","","","","","","","","",""
"","ITI","","html-keyboard-response","310","707547","0.0-1.0-423.0","0","0","46676","","null","","","null","46","","","","","","","","","","","","","","","NaN",""
"","S1","","html-keyboard-response","311","707800","0.0-1.0-425.0","0","0","46676","","null","","","null","47","","","","","","","","","","","","","","","",""
"","ISI","","html-keyboard-response","312","708813","0.0-1.0-426.0","0","0","46676","","null","","","null","47","NaN","","","","","","","","","","","","","","",""
"","S2","","html-keyboard-response","313","709066","0.0-1.0-427.0","0","0","46676","","null","","","null","47","","NaN","","","","","","","","","","","","","",""
"","response","","html-keyboard-response","314","709755","0.0-1.0-428.0-0.0","0","0","46676","","686","","","75","47","","","1","47","training","adjacent","CB","3","2","Q.jpg","L.jpg","0","0","1","",""
"","feedback","","html-keyboard-response","315","710758","0.0-1.0-429.0-0.0","0","0","46676","","null","","","null","47","","","","","","","","","","","","","","","",""
"","ITI","","html-keyboard-response","316","711761","0.0-1.0-432.0","0","0","46676","","null","","","null","47","","","","","","","","","","","","","","","NaN",""
"","block_over","","html-keyboard-response","317","730723","0.0-1.0-433.0-0.0","0","0","46676","","18959","","","32","47","","","","","","","","","","","","","","","",""
"","S1","","html-keyboard-response","318","730977","0.0-1.0-434.0","0","0","46676","","null","","","null","48","","","","","","","","","","","","","","","",""
"","ISI","","html-keyboard-response","319","731980","0.0-1.0-435.0","0","0","46676","","null","","","null","48","NaN","","","","","","","","","","","","","","",""
"","S2","","html-keyboard-response","320","732234","0.0-1.0-436.0","0","0","46676","","null","","","null","48","","NaN","","","","","","","","","","","","","",""
"","response","","html-keyboard-response","321","732915","0.0-1.0-437.0-0.0","0","0","46676","","679","","","75","48","","","2","48","training","adjacent","FE","6","5","R.jpg","O.jpg","0","0","1","",""
"","feedback","","html-keyboard-response","322","733918","0.0-1.0-438.0-0.0","0","0","46676","","null","","","null","48","","","","","","","","","","","","","","","",""
"","ITI","","html-keyboard-response","323","734922","0.0-1.0-441.0","0","0","46676","","null","","","null","48","","","","","","","","","","","","","","","NaN",""
"","S1","","html-keyboard-response","324","735175","0.0-1.0-443.0","0","0","46676","","null","","","null","49","","","","","","","","","","","","","","","",""
"","ISI","","html-keyboard-response","325","736178","0.0-1.0-444.0","0","0","46676","","null","","","null","49","NaN","","","","","","","","","","","","","","",""
"","S2","","html-keyboard-response","326","736431","0.0-1.0-445.0","0","0","46676","","null","","","null","49","","NaN","","","","","","","","","","","","","",""
"","response","","html-keyboard-response","327","737339","0.0-1.0-446.0-0.0","0","0","46676","","905","","","68","49","","","2","49","training","adjacent","DC","4","3","N.jpg","Q.jpg","1","0","0","",""
"","feedback","","html-keyboard-response","328","738343","0.0-1.0-447.0-0.0","0","0","46676","","null","","","null","49","","","","","","","","","","","","","","","",""
"","time_out","","html-keyboard-response","329","740346","0.0-1.0-449.0-0.0","0","0","46676","","null","","","null","49","","","","","","","","","","","","","","","",""
"","ITI","","html-keyboard-response","330","741350","0.0-1.0-450.0","0","0","46676","","null","","","null","49","","","","","","","","","","","","","","","NaN",""
"","S1","","html-keyboard-response","331","741603","0.0-1.0-452.0","0","0","46676","","null","","","null","50","","","","","","","","","","","","","","","",""
"","ISI","","html-keyboard-response","332","742606","0.0-1.0-453.0","0","0","46676","","null","","","null","50","NaN","","","","","","","","","","","","","","",""
"","S2","","html-keyboard-response","333","742859","0.0-1.0-454.0","0","0","46676","","null","","","null","50","","NaN","","","","","","","","","","","","","",""
"","response","","html-keyboard-response","334","744059","0.0-1.0-455.0-0.0","0","0","46676","","1198","","","68","50","","","2","50","training","adjacent","BA","2","1","L.jpg","P.jpg","1","0","0","",""
"","feedback","","html-keyboard-response","335","745063","0.0-1.0-456.0-0.0","0","0","46676","","null","","","null","50","","","","","","","","","","","","","","","",""
"","time_out","","html-keyboard-response","336","747065","0.0-1.0-458.0-0.0","0","0","46676","","null","","","null","50","","","","","","","","","","","","","","","",""
"","ITI","","html-keyboard-response","337","748068","0.0-1.0-459.0","0","0","46676","","null","","","null","50","","","","","","","","","","","","","","","NaN",""
"","S1","","html-keyboard-response","338","748322","0.0-1.0-461.0","0","0","46676","","null","","","null","51","","","","","","","","","","","","","","","",""
"","ISI","","html-keyboard-response","339","749325","0.0-1.0-462.0","0","0","46676","","null","","","null","51","NaN","","","","","","","","","","","","","","",""
"","S2","","html-keyboard-response","340","749577","0.0-1.0-463.0","0","0","46676","","null","","","null","51","","NaN","","","","","","","","","","","","","",""
"","response","","html-keyboard-response","341","750603","0.0-1.0-464.0-0.0","0","0","46676","","1023","","","68","51","","","2","51","training","adjacent","DE","4","5","N.jpg","O.jpg","1","1","1","",""
"","feedback","","html-keyboard-response","342","751606","0.0-1.0-465.0-0.0","0","0","46676","","null","","","null","51","","","","","","","","","","","","","","","",""
"","ITI","","html-keyboard-response","343","752610","0.0-1.0-468.0","0","0","46676","","null","","","null","51","","","","","","","","","","","","","","","NaN",""
"","S1","","html-keyboard-response","344","752863","0.0-1.0-470.0","0","0","46676","","null","","","null","52","","","","","","","","","","","","","","","",""
"","ISI","","html-keyboard-response","345","753866","0.0-1.0-471.0","0","0","46676","","null","","","null","52","NaN","","","","","","","","","","","","","","",""
"","S2","","html-keyboard-response","346","754120","0.0-1.0-472.0","0","0","46676","","null","","","null","52","","NaN","","","","","","","","","","","","","",""
"","response","","html-keyboard-response","347","754787","0.0-1.0-473.0-0.0","0","0","46676","","664","","","75","52","","","2","52","training","adjacent","GF","7","6","M.jpg","R.jpg","0","0","1","",""
"","feedback","","html-keyboard-response","348","755791","0.0-1.0-474.0-0.0","0","0","46676","","null","","","null","52","","","","","","","","","","","","","","","",""
"","ITI","","html-keyboard-response","349","756794","0.0-1.0-477.0","0","0","46676","","null","","","null","52","","","","","","","","","","","","","","","NaN",""
"","S1","","html-keyboard-response","350","757048","0.0-1.0-479.0","0","0","46676","","null","","","null","53","","","","","","","","","","","","","","","",""
"","ISI","","html-keyboard-response","351","758051","0.0-1.0-480.0","0","0","46676","","null","","","null","53","NaN","","","","","","","","","","","","","","",""
"","S2","","html-keyboard-response","352","758305","0.0-1.0-481.0","0","0","46676","","null","","","null","53","","NaN","","","","","","","","","","","","","",""
"","response","","html-keyboard-response","353","758451","0.0-1.0-482.0-0.0","0","0","46676","","143","","","75","53","","","2","53","training","adjacent","BA","2","1","L.jpg","P.jpg","0","0","1","",""
"","feedback","","html-keyboard-response","354","759455","0.0-1.0-483.0-0.0","0","0","46676","","null","","","null","53","","","","","","","","","","","","","","","",""
"","ITI","","html-keyboard-response","355","760458","0.0-1.0-486.0","0","0","46676","","null","","","null","53","","","","","","","","","","","","","","","NaN",""
"","S1","","html-keyboard-response","356","760712","0.0-1.0-488.0","0","0","46676","","null","","","null","54","","","","","","","","","","","","","","","",""
"","ISI","","html-keyboard-response","357","761715","0.0-1.0-489.0","0","0","46676","","null","","","null","54","NaN","","","","","","","","","","","","","","",""
"","S2","","html-keyboard-response","358","761968","0.0-1.0-490.0","0","0","46676","","null","","","null","54","","NaN","","","","","","","","","","","","","",""
"","response","","html-keyboard-response","359","762570","0.0-1.0-491.0-0.0","0","0","46676","","601","","","68","54","","","2","54","training","adjacent","AB","1","2","P.jpg","L.jpg","1","1","1","",""
"","feedback","","html-keyboard-response","360","763573","0.0-1.0-492.0-0.0","0","0","46676","","null","","","null","54","","","","","","","","","","","","","","","",""
"","ITI","","html-keyboard-response","361","764576","0.0-1.0-495.0","0","0","46676","","null","","","null","54","","","","","","","","","","","","","","","NaN",""
"","S1","","html-keyboard-response","362","764830","0.0-1.0-497.0","0","0","46676","","null","","","null","55","","","","","","","","","","","","","","","",""
"","ISI","","html-keyboard-response","363","765832","0.0-1.0-498.0","0","0","46676","","null","","","null","55","NaN","","","","","","","","","","","","","","",""
"","S2","","html-keyboard-response","364","766086","0.0-1.0-499.0","0","0","46676","","null","","","null","55","","NaN","","","","","","","","","","","","","",""
"","response","","html-keyboard-response","365","766836","0.0-1.0-500.0-0.0","0","0","46676","","748","","","75","55","","","2","55","training","adjacent","GF","7","6","M.jpg","R.jpg","0","0","1","",""
"","feedback","","html-keyboard-response","366","767839","0.0-1.0-501.0-0.0","0","0","46676","","null","","","null","55","","","","","","","","","","","","","","","",""
"","ITI","","html-keyboard-response","367","768843","0.0-1.0-504.0","0","0","46676","","null","","","null","55","","","","","","","","","","","","","","","NaN",""
"","S1","","html-keyboard-response","368","769096","0.0-1.0-506.0","0","0","46676","","null","","","null","56","","","","","","","","","","","","","","","",""
"","ISI","","html-keyboard-response","369","770100","0.0-1.0-507.0","0","0","46676","","null","","","null","56","NaN","","","","","","","","","","","","","","",""
"","S2","","html-keyboard-response","370","770353","0.0-1.0-508.0","0","0","46676","","null","","","null","56","","NaN","","","","","","","","","","","","","",""
"","response","","html-keyboard-response","371","771188","0.0-1.0-509.0-0.0","0","0","46676","","832","","","68","56","","","2","56","training","adjacent","CB","3","2","Q.jpg","L.jpg","1","0","0","",""
"","feedback","","html-keyboard-response","372","772191","0.0-1.0-510.0-0.0","0","0","46676","","null","","","null","56","","","","","","","","","","","","","","","",""
"","time_out","","html-keyboard-response","373","774195","0.0-1.0-512.0-0.0","0","0","46676","","null","","","null","56","","","","","","","","","","","","","","","",""
"","ITI","","html-keyboard-response","374","775200","0.0-1.0-513.0","0","0","46676","","null","","","null","56","","","","","","","","","","","","","","","NaN",""
"","S1","","html-keyboard-response","375","775453","0.0-1.0-515.0","0","0","46676","","null","","","null","57","","","","","","","","","","","","","","","",""
"","ISI","","html-keyboard-response","376","776456","0.0-1.0-516.0","0","0","46676","","null","","","null","57","NaN","","","","","","","","","","","","","","",""
"","S2","","html-keyboard-response","377","776710","0.0-1.0-517.0","0","0","46676","","null","","","null","57","","NaN","","","","","","","","","","","","","",""
"","response","","html-keyboard-response","378","777460","0.0-1.0-518.0-0.0","0","0","46676","","747","","","75","57","","","2","57","training","adjacent","DE","4","5","N.jpg","O.jpg","0","1","0","",""
"","feedback","","html-keyboard-response","379","778464","0.0-1.0-519.0-0.0","0","0","46676","","null","","","null","57","","","","","","","","","","","","","","","",""
"","time_out","","html-keyboard-response","380","780467","0.0-1.0-521.0-0.0","0","0","46676","","null","","","null","57","","","","","","","","","","","","","","","",""
"","ITI","","html-keyboard-response","381","781471","0.0-1.0-522.0","0","0","46676","","null","","","null","57","","","","","","","","","","","","","","","NaN",""
"","S1","","html-keyboard-response","382","781724","0.0-1.0-524.0","0","0","46676","","null","","","null","58","","","","","","","","","","","","","","","",""
"","ISI","","html-keyboard-response","383","782727","0.0-1.0-525.0","0","0","46676","","null","","","null","58","NaN","","","","","","","","","","","","","","",""
"","S2","","html-keyboard-response","384","782981","0.0-1.0-526.0","0","0","46676","","null","","","null","58","","NaN","","","","","","","","","","","","","",""
"","response","","html-keyboard-response","385","783468","0.0-1.0-527.0-0.0","0","0","46676","","484","","","75","58","","","2","58","training","adjacent","DE","4","5","N.jpg","O.jpg","0","1","0","",""
"","feedback","","html-keyboard-response","386","784471","0.0-1.0-528.0-0.0","0","0","46676","","null","","","null","58","","","","","","","","","","","","","","","",""
"","time_out","","html-keyboard-response","387","786475","0.0-1.0-530.0-0.0","0","0","46676","","null","","","null","58","","","","","","","","","","","","","","","",""
"","ITI","","html-keyboard-response","388","787478","0.0-1.0-531.0","0","0","46676","","null","","","null","58","","","","","","","","","","","","","","","NaN",""
"","S1","","html-keyboard-response","389","787731","0.0-1.0-533.0","0","0","46676","","null","","","null","59","","","","","","","","","","","","","","","",""
"","ISI","","html-keyboard-response","390","788733","0.0-1.0-534.0","0","0","46676","","null","","","null","59","NaN","","","","","","","","","","","","","","",""
"","S2","","html-keyboard-response","391","788986","0.0-1.0-535.0","0","0","46676","","null","","","null","59","","NaN","","","","","","","","","","","","","",""
"","response","","html-keyboard-response","392","789356","0.0-1.0-536.0-0.0","0","0","46676","","367","","","68","59","","","2","59","training","adjacent","FE","6","5","R.jpg","O.jpg","1","0","0","",""
"","feedback","","html-keyboard-response","393","790359","0.0-1.0-537.0-0.0","0","0","46676","","null","","","null","59","","","","","","","","","","","","","","","",""
"","time_out","","html-keyboard-response","394","792363","0.0-1.0-539.0-0.0","0","0","46676","","null","","","null","59","","","","","","","","","","","","","","","",""
"","ITI","","html-keyboard-response","395","793367","0.0-1.0-540.0","0","0","46676","","null","","","null","59","","","","","","","","","","","","","","","NaN",""
"","S1","","html-keyboard-response","396","793621","0.0-1.0-542.0","0","0","46676","","null","","","null","60","","","","","","","","","","","","","","","",""
"","ISI","","html-keyboard-response","397","794624","0.0-1.0-543.0","0","0","46676","","null","","","null","60","NaN","","","","","","","","","","","","","","",""
"","S2","","html-keyboard-response","398","794878","0.0-1.0-544.0","0","0","46676","","null","","","null","60","","NaN","","","","","","","","","","","","","",""
"","response","","html-keyboard-response","399","795596","0.0-1.0-545.0-0.0","0","0","46676","","716","","","68","60","","","2","60","training","adjacent","AB","1","2","P.jpg","L.jpg","1","1","1","",""
"","feedback","","html-keyboard-response","400","796599","0.0-1.0-546.0-0.0","0","0","46676","","null","","","null","60","","","","","","","","","","","","","","","",""
"","ITI","","html-keyboard-response","401","797603","0.0-1.0-549.0","0","0","46676","","null","","","null","60","","","","","","","","","","","","","","","NaN",""
"","S1","","html-keyboard-response","402","797856","0.0-1.0-551.0","0","0","46676","","null","","","null","61","","","","","","","","","","","","","","","",""
"","ISI","","html-keyboard-response","403","798872","0.0-1.0-552.0","0","0","46676","","null","","","null","61","NaN","","","","","","","","","","","","","","",""
"","S2","","html-keyboard-response","404","799126","0.0-1.0-553.0","0","0","46676","","null","","","null","61","","NaN","","","","","","","","","","","","","",""
"","response","","html-keyboard-response","405","799876","0.0-1.0-554.0-0.0","0","0","46676","","747","","","68","61","","","2","61","training","adjacent","FG","6","7","R.jpg","M.jpg","1","1","1","",""
"","feedback","","html-keyboard-response","406","800881","0.0-1.0-555.0-0.0","0","0","46676","","null","","","null","61","","","","","","","","","","","","","","","",""
"","ITI","","html-keyboard-response","407","801884","0.0-1.0-558.0","0","0","46676","","null","","","null","61","","","","","","","","","","","","","","","NaN",""
"","S1","","html-keyboard-response","408","802137","0.0-1.0-560.0","0","0","46676","","null","","","null","62","","","","","","","","","","","","","","","",""
"","ISI","","html-keyboard-response","409","803140","0.0-1.0-561.0","0","0","46676","","null","","","null","62","NaN","","","","","","","","","","","","","","",""
"","S2","","html-keyboard-response","410","803392","0.0-1.0-562.0","0","0","46676","","null","","","null","62","","NaN","","","","","","","","","","","","","",""
"","response","","html-keyboard-response","411","803636","0.0-1.0-563.0-0.0","0","0","46676","","241","","","68","62","","","2","62","training","adjacent","FG","6","7","R.jpg","M.jpg","1","1","1","",""
"","feedback","","html-keyboard-response","412","804641","0.0-1.0-564.0-0.0","0","0","46676","","null","","","null","62","","","","","","","","","","","","","","","",""
"","ITI","","html-keyboard-response","413","805645","0.0-1.0-567.0","0","0","46676","","null","","","null","62","","","","","","","","","","","","","","","NaN",""
"","S1","","html-keyboard-response","414","805913","0.0-1.0-569.0","0","0","46676","","null","","","null","63","","","","","","","","","","","","","","","",""
"","ISI","","html-keyboard-response","415","806916","0.0-1.0-570.0","0","0","46676","","null","","","null","63","NaN","","","","","","","","","","","","","","",""
"","S2","","html-keyboard-response","416","807171","0.0-1.0-571.0","0","0","46676","","null","","","null","63","","NaN","","","","","","","","","","","","","",""
"","response","","html-keyboard-response","417","807836","0.0-1.0-572.0-0.0","0","0","46676","","662","","","68","63","","","2","63","training","adjacent","AB","1","2","P.jpg","L.jpg","1","1","1","",""
"","feedback","","html-keyboard-response","418","808840","0.0-1.0-573.0-0.0","0","0","46676","","null","","","null","63","","","","","","","","","","","","","","","",""
"","ITI","","html-keyboard-response","419","809843","0.0-1.0-576.0","0","0","46676","","null","","","null","63","","","","","","","","","","","","","","","NaN",""
"","S1","","html-keyboard-response","420","810097","0.0-1.0-578.0","0","0","46676","","null","","","null","64","","","","","","","","","","","","","","","",""
"","ISI","","html-keyboard-response","421","811100","0.0-1.0-579.0","0","0","46676","","null","","","null","64","NaN","","","","","","","","","","","","","","",""
"","S2","","html-keyboard-response","422","811353","0.0-1.0-580.0","0","0","46676","","null","","","null","64","","NaN","","","","","","","","","","","","","",""
"","response","","html-keyboard-response","423","811740","0.0-1.0-581.0-0.0","0","0","46676","","384","","","75","64","","","2","64","training","adjacent","CB","3","2","Q.jpg","L.jpg","0","0","1","",""
"","feedback","","html-keyboard-response","424","812744","0.0-1.0-582.0-0.0","0","0","46676","","null","","","null","64","","","","","","","","","","","","","","","",""
"","ITI","","html-keyboard-response","425","813748","0.0-1.0-585.0","0","0","46676","","null","","","null","64","","","","","","","","","","","","","","","NaN",""
"","S1","","html-keyboard-response","426","814001","0.0-1.0-587.0","0","0","46676","","null","","","null","65","","","","","","","","","","","","","","","",""
"","ISI","","html-keyboard-response","427","815004","0.0-1.0-588.0","0","0","46676","","null","","","null","65","NaN","","","","","","","","","","","","","","",""
"","S2","","html-keyboard-response","428","815258","0.0-1.0-589.0","0","0","46676","","null","","","null","65","","NaN","","","","","","","","","","","","","",""
"","response","","html-keyboard-response","429","815684","0.0-1.0-590.0-0.0","0","0","46676","","423","","","68","65","","","2","65","training","adjacent","BC","2","3","L.jpg","Q.jpg","1","1","1","",""
"","feedback","","html-keyboard-response","430","816687","0.0-1.0-591.0-0.0","0","0","46676","","null","","","null","65","","","","","","","","","","","","","","","",""
"","ITI","","html-keyboard-response","431","817690","0.0-1.0-594.0","0","0","46676","","null","","","null","65","","","","","","","","","","","","","","","NaN",""
"","S1","","html-keyboard-response","432","817943","0.0-1.0-596.0","0","0","46676","","null","","","null","66","","","","","","","","","","","","","","","",""
"","ISI","","html-keyboard-response","433","818946","0.0-1.0-597.0","0","0","46676","","null","","","null","66","NaN","","","","","","","","","","","","","","",""
"","S2","","html-keyboard-response","434","819201","0.0-1.0-598.0","0","0","46676","","null","","","null","66","","NaN","","","","","","","","","","","","","",""
"","response","","html-keyboard-response","435","819524","0.0-1.0-599.0-0.0","0","0","46676","","320","","","68","66","","","2","66","training","adjacent","ED","5","4","O.jpg","N.jpg","1","0","0","",""
"","feedback","","html-keyboard-response","436","820528","0.0-1.0-600.0-0.0","0","0","46676","","null","","","null","66","","","","","","","","","","","","","","","",""
"","time_out","","html-keyboard-response","437","822532","0.0-1.0-602.0-0.0","0","0","46676","","null","","","null","66","","","","","","","","","","","","","","","",""
"","ITI","","html-keyboard-response","438","823535","0.0-1.0-603.0","0","0","46676","","null","","","null","66","","","","","","","","","","","","","","","NaN",""
"","S1","","html-keyboard-response","439","823788","0.0-1.0-605.0","0","0","46676","","null","","","null","67","","","","","","","","","","","","","","","",""
"","ISI","","html-keyboard-response","440","824791","0.0-1.0-606.0","0","0","46676","","null","","","null","67","NaN","","","","","","","","","","","","","","",""
"","S2","","html-keyboard-response","441","825045","0.0-1.0-607.0","0","0","46676","","null","","","null","67","","NaN","","","","","","","","","","","","","",""
"","response","","html-keyboard-response","442","825636","0.0-1.0-608.0-0.0","0","0","46676","","588","","","75","67","","","2","67","training","adjacent","CD","3","4","Q.jpg","N.jpg","0","1","0","",""
"","feedback","","html-keyboard-response","443","826640","0.0-1.0-609.0-0.0","0","0","46676","","null","","","null","67","","","","","","","","","","","","","","","",""
"","time_out","","html-keyboard-response","444","828643","0.0-1.0-611.0-0.0","0","0","46676","","null","","","null","67","","","","","","","","","","","","","","","",""
"","ITI","","html-keyboard-response","445","829647","0.0-1.0-612.0","0","0","46676","","null","","","null","67","","","","","","","","","","","","","","","NaN",""
"","S1","","html-keyboard-response","446","829900","0.0-1.0-614.0","0","0","46676","","null","","","null","68","","","","","","","","","","","","","","","",""
"","ISI","","html-keyboard-response","447","830902","0.0-1.0-615.0","0","0","46676","","null","","","null","68","NaN","","","","","","","","","","","","","","",""
"","S2","","html-keyboard-response","448","831155","0.0-1.0-616.0","0","0","46676","","null","","","null","68","","NaN","","","","","","","","","","","","","",""
"","response","","html-keyboard-response","449","832115","0.0-1.0-617.0-0.0","0","0","46676","","958","","","68","68","","","2","68","training","adjacent","FE","6","5","R.jpg","O.jpg","1","0","0","",""
"","feedback","","html-keyboard-response","450","833119","0.0-1.0-618.0-0.0","0","0","46676","","null","","","null","68","","","","","","","","","","","","","","","",""
"","time_out","","html-keyboard-response","451","835124","0.0-1.0-620.0-0.0","0","0","46676","","null","","","null","68","","","","","","","","","","","","","","","",""
"","ITI","","html-keyboard-response","452","836127","0.0-1.0-621.0","0","0","46676","","null","","","null","68","","","","","","","","","","","","","","","NaN",""
"","S1","","html-keyboard-response","453","836381","0.0-1.0-623.0","0","0","46676","","null","","","null","69","","","","","","","","","","","","","","","",""
"","ISI","","html-keyboard-response","454","837384","0.0-1.0-624.0","0","0","46676","","null","","","null","69","NaN","","","","","","","","","","","","","","",""
"","S2","","html-keyboard-response","455","837638","0.0-1.0-625.0","0","0","46676","","null","","","null","69","","NaN","","","","","","","","","","","","","",""
"","response","","html-keyboard-response","456","838171","0.0-1.0-626.0-0.0","0","0","46676","","531","","","68","69","","","2","69","training","adjacent","EF","5","6","O.jpg","R.jpg","1","1","1","",""
"","feedback","","html-keyboard-response","457","839175","0.0-1.0-627.0-0.0","0","0","46676","","null","","","null","69","","","","","","","","","","","","","","","",""
"","ITI","","html-keyboard-response","458","840180","0.0-1.0-630.0","0","0","46676","","null","","","null","69","","","","","","","","","","","","","","","NaN",""
"","S1","","html-keyboard-response","459","840433","0.0-1.0-632.0","0","0","46676","","null","","","null","70","","","","","","","","","","","","","","","",""
"","ISI","","html-keyboard-response","460","841437","0.0-1.0-633.0","0","0","46676","","null","","","null","70","NaN","","","","","","","","","","","","","","",""
"","S2","","html-keyboard-response","461","841690","0.0-1.0-634.0","0","0","46676","","null","","","null","70","","NaN","","","","","","","","","","","","","",""
"","response","","html-keyboard-response","462","842251","0.0-1.0-635.0-0.0","0","0","46676","","559","","","68","70","","","2","70","training","adjacent","CD","3","4","Q.jpg","N.jpg","1","1","1","",""
"","feedback","","html-keyboard-response","463","843255","0.0-1.0-636.0-0.0","0","0","46676","","null","","","null","70","","","","","","","","","","","","","","","",""
"","ITI","","html-keyboard-response","464","844258","0.0-1.0-639.0","0","0","46676","","null","","","null","70","","","","","","","","","","","","","","","NaN",""
"","S1","","html-keyboard-response","465","844512","0.0-1.0-641.0","0","0","46676","","null","","","null","71","","","","","","","","","","","","","","","",""
"","ISI","","html-keyboard-response","466","845515","0.0-1.0-642.0","0","0","46676","","null","","","null","71","NaN","","","","","","","","","","","","","","",""
"","S2","","html-keyboard-response","467","845768","0.0-1.0-643.0","0","0","46676","","null","","","null","71","","NaN","","","","","","","","","","","","","",""
"","response","","html-keyboard-response","468","846628","0.0-1.0-644.0-0.0","0","0","46676","","857","","","68","71","","","2","71","training","adjacent","ED","5","4","O.jpg","N.jpg","1","0","0","",""
"","feedback","","html-keyboard-response","469","847632","0.0-1.0-645.0-0.0","0","0","46676","","null","","","null","71","","","","","","","","","","","","","","","",""
"","time_out","","html-keyboard-response","470","849635","0.0-1.0-647.0-0.0","0","0","46676","","null","","","null","71","","","","","","","","","","","","","","","",""
"","ITI","","html-keyboard-response","471","850638","0.0-1.0-648.0","0","0","46676","","null","","","null","71","","","","","","","","","","","","","","","NaN",""
"","S1","","html-keyboard-response","472","850892","0.0-1.0-650.0","0","0","46676","","null","","","null","72","","","","","","","","","","","","","","","",""
"","ISI","","html-keyboard-response","473","851896","0.0-1.0-651.0","0","0","46676","","null","","","null","72","NaN","","","","","","","","","","","","","","",""
"","S2","","html-keyboard-response","474","852150","0.0-1.0-652.0","0","0","46676","","null","","","null","72","","NaN","","","","","","","","","","","","","",""
"","response","","html-keyboard-response","475","852860","0.0-1.0-653.0-0.0","0","0","46676","","707","","","75","72","","","2","72","training","adjacent","DC","4","3","N.jpg","Q.jpg","0","0","1","",""
"","feedback","","html-keyboard-response","476","853864","0.0-1.0-654.0-0.0","0","0","46676","","null","","","null","72","","","","","","","","","","","","","","","",""
"","ITI","","html-keyboard-response","477","854868","0.0-1.0-657.0","0","0","46676","","null","","","null","72","","","","","","","","","","","","","","","NaN",""
"","S1","","html-keyboard-response","478","855121","0.0-1.0-659.0","0","0","46676","","null","","","null","73","","","","","","","","","","","","","","","",""
"","ISI","","html-keyboard-response","479","856124","0.0-1.0-660.0","0","0","46676","","null","","","null","73","NaN","","","","","","","","","","","","","","",""
"","S2","","html-keyboard-response","480","856377","0.0-1.0-661.0","0","0","46676","","null","","","null","73","","NaN","","","","","","","","","","","","","",""
"","response","","html-keyboard-response","481","857091","0.0-1.0-662.0-0.0","0","0","46676","","712","","","68","73","","","2","73","training","adjacent","DE","4","5","N.jpg","O.jpg","1","1","1","",""
"","feedback","","html-keyboard-response","482","858095","0.0-1.0-663.0-0.0","0","0","46676","","null","","","null","73","","","","","","","","","","","","","","","",""
"","ITI","","html-keyboard-response","483","859099","0.0-1.0-666.0","0","0","46676","","null","","","null","73","","","","","","","","","","","","","","","NaN",""
"","S1","","html-keyboard-response","484","859352","0.0-1.0-668.0","0","0","46676","","null","","","null","74","","","","","","","","","","","","","","","",""
"","ISI","","html-keyboard-response","485","860355","0.0-1.0-669.0","0","0","46676","","null","","","null","74","NaN","","","","","","","","","","","","","","",""
"","S2","","html-keyboard-response","486","860622","0.0-1.0-670.0","0","0","46676","","null","","","null","74","","NaN","","","","","","","","","","","","","",""
"","response","","html-keyboard-response","487","861323","0.0-1.0-671.0-0.0","0","0","46676","","699","","","75","74","","","2","74","training","adjacent","DC","4","3","N.jpg","Q.jpg","0","0","1","",""
"","feedback","","html-keyboard-response","488","862327","0.0-1.0-672.0-0.0","0","0","46676","","null","","","null","74","","","","","","","","","","","","","","","",""
"","ITI","","html-keyboard-response","489","863345","0.0-1.0-675.0","0","0","46676","","null","","","null","74","","","","","","","","","","","","","","","NaN",""
"","S1","","html-keyboard-response","490","863599","0.0-1.0-677.0","0","0","46676","","null","","","null","75","","","","","","","","","","","","","","","",""
"","ISI","","html-keyboard-response","491","864602","0.0-1.0-678.0","0","0","46676","","null","","","null","75","NaN","","","","","","","","","","","","","","",""
"","S2","","html-keyboard-response","492","864856","0.0-1.0-679.0","0","0","46676","","null","","","null","75","","NaN","","","","","","","","","","","","","",""
"","response","","html-keyboard-response","493","865651","0.0-1.0-680.0-0.0","0","0","46676","","793","","","68","75","","","2","75","training","adjacent","CD","3","4","Q.jpg","N.jpg","1","1","1","",""
"","feedback","","html-keyboard-response","494","866655","0.0-1.0-681.0-0.0","0","0","46676","","null","","","null","75","","","","","","","","","","","","","","","",""
"","ITI","","html-keyboard-response","495","867658","0.0-1.0-684.0","0","0","46676","","null","","","null","75","","","","","","","","","","","","","","","NaN",""
"","S1","","html-keyboard-response","496","867912","0.0-1.0-686.0","0","0","46676","","null","","","null","76","","","","","","","","","","","","","","","",""
"","ISI","","html-keyboard-response","497","868915","0.0-1.0-687.0","0","0","46676","","null","","","null","76","NaN","","","","","","","","","","","","","","",""
"","S2","","html-keyboard-response","498","869170","0.0-1.0-688.0","0","0","46676","","null","","","null","76","","NaN","","","","","","","","","","","","","",""
"","response","","html-keyboard-response","499","869684","0.0-1.0-689.0-0.0","0","0","46676","","511","","","68","76","","","2","76","training","adjacent","BA","2","1","L.jpg","P.jpg","1","0","0","",""
"","feedback","","html-keyboard-response","500","870700","0.0-1.0-690.0-0.0","0","0","46676","","null","","","null","76","","","","","","","","","","","","","","","",""
"","time_out","","html-keyboard-response","501","872704","0.0-1.0-692.0-0.0","0","0","46676","","null","","","null","76","","","","","","","","","","","","","","","",""
"","ITI","","html-keyboard-response","502","873708","0.0-1.0-693.0","0","0","46676","","null","","","null","76","","","","","","","","","","","","","","","NaN",""
"","S1","","html-keyboard-response","503","873961","0.0-1.0-695.0","0","0","46676","","null","","","null","77","","","","","","","","","","","","","","","",""
"","ISI","","html-keyboard-response","504","874964","0.0-1.0-696.0","0","0","46676","","null","","","null","77","NaN","","","","","","","","","","","","","","",""
"","S2","","html-keyboard-response","505","875218","0.0-1.0-697.0","0","0","46676","","null","","","null","77","","NaN","","","","","","","","","","","","","",""
"","response","","html-keyboard-response","506","875555","0.0-1.0-698.0-0.0","0","0","46676","","335","","","68","77","","","2","77","training","adjacent","ED","5","4","O.jpg","N.jpg","1","0","0","",""
"","feedback","","html-keyboard-response","507","876557","0.0-1.0-699.0-0.0","0","0","46676","","null","","","null","77","","","","","","","","","","","","","","","",""
"","time_out","","html-keyboard-response","508","878561","0.0-1.0-701.0-0.0","0","0","46676","","null","","","null","77","","","","","","","","","","","","","","","",""
"","ITI","","html-keyboard-response","509","879565","0.0-1.0-702.0","0","0","46676","","null","","","null","77","","","","","","","","","","","","","","","NaN",""
"","S1","","html-keyboard-response","510","879819","0.0-1.0-704.0","0","0","46676","","null","","","null","78","","","","","","","","","","","","","","","",""
"","ISI","","html-keyboard-response","511","880823","0.0-1.0-705.0","0","0","46676","","null","","","null","78","NaN","","","","","","","","","","","","","","",""
"","S2","","html-keyboard-response","512","881077","0.0-1.0-706.0","0","0","46676","","null","","","null","78","","NaN","","","","","","","","","","","","","",""
"","response","","html-keyboard-response","513","881531","0.0-1.0-707.0-0.0","0","0","46676","","452","","","75","78","","","2","78","training","adjacent","ED","5","4","O.jpg","N.jpg","0","0","1","",""
"","feedback","","html-keyboard-response","514","882536","0.0-1.0-708.0-0.0","0","0","46676","","null","","","null","78","","","","","","","","","","","","","","","",""
"","ITI","","html-keyboard-response","515","883539","0.0-1.0-711.0","0","0","46676","","null","","","null","78","","","","","","","","","","","","","","","NaN",""
"","S1","","html-keyboard-response","516","883792","0.0-1.0-713.0","0","0","46676","","null","","","null","79","","","","","","","","","","","","","","","",""
"","ISI","","html-keyboard-response","517","884796","0.0-1.0-714.0","0","0","46676","","null","","","null","79","NaN","","","","","","","","","","","","","","",""
"","S2","","html-keyboard-response","518","885049","0.0-1.0-715.0","0","0","46676","","null","","","null","79","","NaN","","","","","","","","","","","","","",""
"","response","","html-keyboard-response","519","885571","0.0-1.0-716.0-0.0","0","0","46676","","520","","","68","79","","","2","79","training","adjacent","EF","5","6","O.jpg","R.jpg","1","1","1","",""
"","feedback","","html-keyboard-response","520","886576","0.0-1.0-717.0-0.0","0","0","46676","","null","","","null","79","","","","","","","","","","","","","","","",""
"","ITI","","html-keyboard-response","521","887579","0.0-1.0-720.0","0","0","46676","","null","","","null","79","","","","","","","","","","","","","","","NaN",""
"","S1","","html-keyboard-response","522","887833","0.0-1.0-722.0","0","0","46676","","null","","","null","80","","","","","","","","","","","","","","","",""
"","ISI","","html-keyboard-response","523","888836","0.0-1.0-723.0","0","0","46676","","null","","","null","80","NaN","","","","","","","","","","","","","","",""
"","S2","","html-keyboard-response","524","889090","0.0-1.0-724.0","0","0","46676","","null","","","null","80","","NaN","","","","","","","","","","","","","",""
"","response","","html-keyboard-response","525","889691","0.0-1.0-725.0-0.0","0","0","46676","","598","","","68","80","","","2","80","training","adjacent","CB","3","2","Q.jpg","L.jpg","1","0","0","",""
"","feedback","","html-keyboard-response","526","890705","0.0-1.0-726.0-0.0","0","0","46676","","null","","","null","80","","","","","","","","","","","","","","","",""
"","time_out","","html-keyboard-response","527","892707","0.0-1.0-728.0-0.0","0","0","46676","","null","","","null","80","","","","","","","","","","","","","","","",""
"","ITI","","html-keyboard-response","528","893710","0.0-1.0-729.0","0","0","46676","","null","","","null","80","","","","","","","","","","","","","","","NaN",""
"","S1","","html-keyboard-response","529","893964","0.0-1.0-731.0","0","0","46676","","null","","","null","81","","","","","","","","","","","","","","","",""
"","ISI","","html-keyboard-response","530","894966","0.0-1.0-732.0","0","0","46676","","null","","","null","81","NaN","","","","","","","","","","","","","","",""
"","S2","","html-keyboard-response","531","895220","0.0-1.0-733.0","0","0","46676","","null","","","null","81","","NaN","","","","","","","","","","","","","",""
"","response","","html-keyboard-response","532","895451","0.0-1.0-734.0-0.0","0","0","46676","","229","","","75","81","","","2","81","training","adjacent","GF","7","6","M.jpg","R.jpg","0","0","1","",""
"","feedback","","html-keyboard-response","533","896455","0.0-1.0-735.0-0.0","0","0","46676","","null","","","null","81","","","","","","","","","","","","","","","",""
"","ITI","","html-keyboard-response","534","897458","0.0-1.0-738.0","0","0","46676","","null","","","null","81","","","","","","","","","","","","","","","NaN",""
"","S1","","html-keyboard-response","535","897712","0.0-1.0-740.0","0","0","46676","","null","","","null","82","","","","","","","","","","","","","","","",""
"","ISI","","html-keyboard-response","536","898714","0.0-1.0-741.0","0","0","46676","","null","","","null","82","NaN","","","","","","","","","","","","","","",""
"","S2","","html-keyboard-response","537","898969","0.0-1.0-742.0","0","0","46676","","null","","","null","82","","NaN","","","","","","","","","","","","","",""
"","response","","html-keyboard-response","538","899907","0.0-1.0-743.0-0.0","0","0","46676","","935","","","75","82","","","2","82","training","adjacent","BC","2","3","L.jpg","Q.jpg","0","1","0","",""
"","feedback","","html-keyboard-response","539","900910","0.0-1.0-744.0-0.0","0","0","46676","","null","","","null","82","","","","","","","","","","","","","","","",""
"","time_out","","html-keyboard-response","540","902913","0.0-1.0-746.0-0.0","0","0","46676","","null","","","null","82","","","","","","","","","","","","","","","",""
"","ITI","","html-keyboard-response","541","903917","0.0-1.0-747.0","0","0","46676","","null","","","null","82","","","","","","","","","","","","","","","NaN",""
"","S1","","html-keyboard-response","542","904171","0.0-1.0-749.0","0","0","46676","","null","","","null","83","","","","","","","","","","","","","","","",""
"","ISI","","html-keyboard-response","543","905174","0.0-1.0-750.0","0","0","46676","","null","","","null","83","NaN","","","","","","","","","","","","","","",""
"","S2","","html-keyboard-response","544","905428","0.0-1.0-751.0","0","0","46676","","null","","","null","83","","NaN","","","","","","","","","","","","","",""
"","response","","html-keyboard-response","545","906467","0.0-1.0-752.0-0.0","0","0","46676","","1038","","","75","83","","","2","83","training","adjacent","AB","1","2","P.jpg","L.jpg","0","1","0","",""
"","feedback","","html-keyboard-response","546","907472","0.0-1.0-753.0-0.0","0","0","46676","","null","","","null","83","","","","","","","","","","","","","","","",""
"","time_out","","html-keyboard-response","547","909476","0.0-1.0-755.0-0.0","0","0","46676","","null","","","null","83","","","","","","","","","","","","","","","",""
"","ITI","","html-keyboard-response","548","910480","0.0-1.0-756.0","0","0","46676","","null","","","null","83","","","","","","","","","","","","","","","NaN",""
"","S1","","html-keyboard-response","549","910733","0.0-1.0-758.0","0","0","46676","","null","","","null","84","","","","","","","","","","","","","","","",""
"","ISI","","html-keyboard-response","550","911736","0.0-1.0-759.0","0","0","46676","","null","","","null","84","NaN","","","","","","","","","","","","","","",""
"","S2","","html-keyboard-response","551","911988","0.0-1.0-760.0","0","0","46676","","null","","","null","84","","NaN","","","","","","","","","","","","","",""
"","response","","html-keyboard-response","552","912651","0.0-1.0-761.0-0.0","0","0","46676","","661","","","68","84","","","2","84","training","adjacent","EF","5","6","O.jpg","R.jpg","1","1","1","",""
"","feedback","","html-keyboard-response","553","913654","0.0-1.0-762.0-0.0","0","0","46676","","null","","","null","84","","","","","","","","","","","","","","","",""
"","ITI","","html-keyboard-response","554","914657","0.0-1.0-765.0","0","0","46676","","null","","","null","84","","","","","","","","","","","","","","","NaN",""
"","S1","","html-keyboard-response","555","914911","0.0-1.0-767.0","0","0","46676","","null","","","null","85","","","","","","","","","","","","","","","",""
"","ISI","","html-keyboard-response","556","915914","0.0-1.0-768.0","0","0","46676","","null","","","null","85","NaN","","","","","","","","","","","","","","",""
"","S2","","html-keyboard-response","557","916168","0.0-1.0-769.0","0","0","46676","","null","","","null","85","","NaN","","","","","","","","","","","","","",""
"","response","","html-keyboard-response","558","916780","0.0-1.0-770.0-0.0","0","0","46676","","609","","","75","85","","","2","85","training","adjacent","FG","6","7","R.jpg","M.jpg","0","1","0","",""
"","feedback","","html-keyboard-response","559","917783","0.0-1.0-771.0-0.0","0","0","46676","","null","","","null","85","","","","","","","","","","","","","","","",""
"","time_out","","html-keyboard-response","560","919786","0.0-1.0-773.0-0.0","0","0","46676","","null","","","null","85","","","","","","","","","","","","","","","",""
"","ITI","","html-keyboard-response","561","920789","0.0-1.0-774.0","0","0","46676","","null","","","null","85","","","","","","","","","","","","","","","NaN",""
"","S1","","html-keyboard-response","562","921042","0.0-1.0-776.0","0","0","46676","","null","","","null","86","","","","","","","","","","","","","","","",""
"","ISI","","html-keyboard-response","563","922045","0.0-1.0-777.0","0","0","46676","","null","","","null","86","NaN","","","","","","","","","","","","","","",""
"","S2","","html-keyboard-response","564","922298","0.0-1.0-778.0","0","0","46676","","null","","","null","86","","NaN","","","","","","","","","","","","","",""
"","response","","html-keyboard-response","565","922786","0.0-1.0-779.0-0.0","0","0","46676","","486","","","68","86","","","2","86","training","adjacent","CD","3","4","Q.jpg","N.jpg","1","1","1","",""
"","feedback","","html-keyboard-response","566","923789","0.0-1.0-780.0-0.0","0","0","46676","","null","","","null","86","","","","","","","","","","","","","","","",""
"","ITI","","html-keyboard-response","567","924793","0.0-1.0-783.0","0","0","46676","","null","","","null","86","","","","","","","","","","","","","","","NaN",""
"","S1","","html-keyboard-response","568","925046","0.0-1.0-785.0","0","0","46676","","null","","","null","87","","","","","","","","","","","","","","","",""
"","ISI","","html-keyboard-response","569","926050","0.0-1.0-786.0","0","0","46676","","null","","","null","87","NaN","","","","","","","","","","","","","","",""
"","S2","","html-keyboard-response","570","926303","0.0-1.0-787.0","0","0","46676","","null","","","null","87","","NaN","","","","","","","","","","","","","",""
"","response","","html-keyboard-response","571","926747","0.0-1.0-788.0-0.0","0","0","46676","","441","","","75","87","","","2","87","training","adjacent","FG","6","7","R.jpg","M.jpg","0","1","0","",""
"","feedback","","html-keyboard-response","572","927751","0.0-1.0-789.0-0.0","0","0","46676","","null","","","null","87","","","","","","","","","","","","","","","",""
"","time_out","","html-keyboard-response","573","929765","0.0-1.0-791.0-0.0","0","0","46676","","null","","","null","87","","","","","","","","","","","","","","","",""
"","ITI","","html-keyboard-response","574","930767","0.0-1.0-792.0","0","0","46676","","null","","","null","87","","","","","","","","","","","","","","","NaN",""
"","S1","","html-keyboard-response","575","931021","0.0-1.0-794.0","0","0","46676","","null","","","null","88","","","","","","","","","","","","","","","",""
"","ISI","","html-keyboard-response","576","932024","0.0-1.0-795.0","0","0","46676","","null","","","null","88","NaN","","","","","","","","","","","","","","",""
"","S2","","html-keyboard-response","577","932282","0.0-1.0-796.0","0","0","46676","","null","","","null","88","","NaN","","","","","","","","","","","","","",""
"","response","","html-keyboard-response","578","932643","0.0-1.0-797.0-0.0","0","0","46676","","359","","","68","88","","","2","88","training","adjacent","FE","6","5","R.jpg","O.jpg","1","0","0","",""
"","feedback","","html-keyboard-response","579","933647","0.0-1.0-798.0-0.0","0","0","46676","","null","","","null","88","","","","","","","","","","","","","","","",""
"","time_out","","html-keyboard-response","580","935649","0.0-1.0-800.0-0.0","0","0","46676","","null","","","null","88","","","","","","","","","","","","","","","",""
