"success","ttype","start_time","trial_type","trial_index","time_elapsed","internal_node_id","warning","missed_checkup","PID","view_history","rt","responses","repeat_instructions","key_press","index","keypress_isi","keypress_S2","block","trial_num","phase","group_type","pair_type","S1_stim","S2_stim","S1_img","S2_img","S1_chosen","S1_higher","accuracy","keypress_iti","total_bonus_tally"
"true","full_screen","d03082023hr1646","fullscreen","0","216249","0.0-0.0","0","0","62393","","","","","","","","","","","","","","","","","","","","","",""
"","instructions","","instructions","1","262969","0.0-1.0-0.0-0.0","0","0","62393","[{""page_index"":0,""viewing_time"":12318},{""page_index"":1,""viewing_time"":24010},{""page_index"":2,""viewing_time"":8601},{""page_index"":3,""viewing_time"":1790}]","46719","","","","","","","","","","","","","","","","","","","",""
"","comprehension_check","","survey-multi-choice","2","286615","0.0-1.0-0.0-1.0","0","0","62393","","23643","{""Q0"":""True"",""Q1"":""K"",""Q2"":""Only when the screen 'MAKE A CHOICE' is shown"",""Q3"":""Green mark"",""Q4"":""either D or K""}","1","","","","","","","","","","","","","","","","","",""
"","missed_instruction_checkup","","html-keyboard-response","3","289035","0.0-1.0-0.0-2.0-0.0","0","1","62393","","2417","","","32","","","","","","","","","","","","","","","","",""
"","instructions","","instructions","4","330619","0.0-1.0-0.1-0.1","0","0","62393","[{""page_index"":0,""viewing_time"":3980},{""page_index"":1,""viewing_time"":13952},{""page_index"":2,""viewing_time"":22965},{""page_index"":3,""viewing_time"":686}]","41583","","","","","","","","","","","","","","","","","","","",""
"","comprehension_check","","survey-multi-choice","5","340763","0.0-1.0-0.1-1.1","0","0","62393","","10141","{""Q0"":""True"",""Q1"":""K"",""Q2"":""Once the second image appears and while the screen 'MAKE A CHOICE' is shown"",""Q3"":""Green mark"",""Q4"":""either D or K""}","0","","","","","","","","","","","","","","","","","",""
"","start_exp","","html-keyboard-response","6","347739","0.0-1.0-1.0","0","0","62393","","6974","","","32","","","","","","","","","","","","","","","","",""
"","S1","","html-keyboard-response","7","347992","0.0-1.0-2.0","0","0","62393","","null","","","null","0","","","","","","","","","","","","","","","",""
"","ISI","","html-keyboard-response","8","348144","0.0-1.0-3.0","0","0","62393","","null","","","null","0","NaN","","","","","","","","","","","","","","",""
"","S2","","html-keyboard-response","9","348396","0.0-1.0-4.0","0","0","62393","","null","","","null","0","","NaN","","","","","","","","","","","","","",""
"","response","","html-keyboard-response","10","350149","0.0-1.0-5.0-0.0","0","0","62393","","null","","","null","0","","","1","0","training","adjacent","FG","6","7","R.jpg","M.jpg","NaN","1","0","",""
"","too_slow_prompt","","html-keyboard-response","11","351151","0.0-1.0-7.0-0.0","1","0","62393","","null","","","null","","","","","","","","","","","","","","","","",""
"","time_out","","html-keyboard-response","12","353154","0.0-1.0-8.0-0.0","0","0","62393","","null","","","null","0","","","","","","","","","","","","","","","",""
"","ITI","","html-keyboard-response","13","354156","0.0-1.0-9.0","0","0","62393","","null","","","null","0","","","","","","","","","","","","","","","NaN",""
"","S1","","html-keyboard-response","14","354408","0.0-1.0-11.0","0","0","62393","","null","","","null","1","","","","","","","","","","","","","","","",""
"","ISI","","html-keyboard-response","15","354561","0.0-1.0-12.0","0","0","62393","","null","","","null","1","NaN","","","","","","","","","","","","","","",""
"","S2","","html-keyboard-response","16","354814","0.0-1.0-13.0","0","0","62393","","null","","","null","1","","NaN","","","","","","","","","","","","","",""
"","response","","html-keyboard-response","17","355029","0.0-1.0-14.0-0.0","0","0","62393","","214","","","75","1","","","1","1","training","adjacent","DC","4","3","P.jpg","O.jpg","1","0","0","",""
"","feedback","","html-keyboard-response","18","356031","0.0-1.0-15.0-0.0","0","0","62393","","null","","","null","1","","","","","","","","","","","","","","","",""
"","time_out","","html-keyboard-response","19","358033","0.0-1.0-17.0-0.0","0","0","62393","","null","","","null","1","","","","","","","","","","","","","","","",""
"","ITI","","html-keyboard-response","20","359035","0.0-1.0-18.0","0","0","62393","","null","","","null","1","","","","","","","","","","","","","","","NaN",""
"","S1","","html-keyboard-response","21","359288","0.0-1.0-20.0","0","0","62393","","null","","","null","2","","","","","","","","","","","","","","","",""
"","ISI","","html-keyboard-response","22","359440","0.0-1.0-21.0","0","0","62393","","null","","","null","2","NaN","","","","","","","","","","","","","","",""
"","S2","","html-keyboard-response","23","359693","0.0-1.0-22.0","0","0","62393","","null","","","null","2","","NaN","","","","","","","","","","","","","",""
"","response","","html-keyboard-response","24","359776","0.0-1.0-23.0-0.0","0","0","62393","","81","","","68","2","","","1","2","training","adjacent","FE","6","5","R.jpg","Q.jpg","0","0","1","",""
"","feedback","","html-keyboard-response","25","360778","0.0-1.0-24.0-0.0","0","0","62393","","null","","","null","2","","","","","","","","","","","","","","","",""
"","ITI","","html-keyboard-response","26","361781","0.0-1.0-27.0","0","0","62393","","null","","","null","2","","","","","","","","","","","","","","","NaN",""
"","S1","","html-keyboard-response","27","362033","0.0-1.0-29.0","0","0","62393","","null","","","null","3","","","","","","","","","","","","","","","",""
"","ISI","","html-keyboard-response","28","362185","0.0-1.0-30.0","0","0","62393","","null","","","null","3","NaN","","","","","","","","","","","","","","",""
"","S2","","html-keyboard-response","29","362438","0.0-1.0-31.0","0","0","62393","","null","","","null","3","","NaN","","","","","","","","","","","","","",""
"","response","","html-keyboard-response","30","362804","0.0-1.0-32.0-0.0","0","0","62393","","365","","","68","3","","","1","3","training","adjacent","FE","6","5","R.jpg","Q.jpg","0","0","1","",""
"","feedback","","html-keyboard-response","31","363807","0.0-1.0-33.0-0.0","0","0","62393","","null","","","null","3","","","","","","","","","","","","","","","",""
"","ITI","","html-keyboard-response","32","364809","0.0-1.0-36.0","0","0","62393","","null","","","null","3","","","","","","","","","","","","","","","NaN",""
"","S1","","html-keyboard-response","33","365061","0.0-1.0-38.0","0","0","62393","","null","","","null","4","","","","","","","","","","","","","","","",""
"","ISI","","html-keyboard-response","34","365213","0.0-1.0-39.0","0","0","62393","","null","","","null","4","NaN","","","","","","","","","","","","","","",""
"","S2","","html-keyboard-response","35","365465","0.0-1.0-40.0","0","0","62393","","null","","","null","4","","NaN","","","","","","","","","","","","","",""
"","response","","html-keyboard-response","36","365529","0.0-1.0-41.0-0.0","0","0","62393","","63","","","75","4","","","1","4","training","adjacent","DE","4","5","P.jpg","Q.jpg","1","1","1","",""
"","feedback","","html-keyboard-response","37","366531","0.0-1.0-42.0-0.0","0","0","62393","","null","","","null","4","","","","","","","","","","","","","","","",""
"","ITI","","html-keyboard-response","38","367533","0.0-1.0-45.0","0","0","62393","","null","","","null","4","","","","","","","","","","","","","","","NaN",""
"","S1","","html-keyboard-response","39","367785","0.0-1.0-47.0","0","0","62393","","null","","","null","5","","","","","","","","","","","","","","","",""
"","ISI","","html-keyboard-response","40","367938","0.0-1.0-48.0","0","0","62393","","null","","","null","5","NaN","","","","","","","","","","","","","","",""
"","S2","","html-keyboard-response","41","368191","0.0-1.0-49.0","0","0","62393","","null","","","null","5","","NaN","","","","","","","","","","","","","",""
"","response","","html-keyboard-response","42","368368","0.0-1.0-50.0-0.0","0","0","62393","","176","","","68","5","","","1","5","training","adjacent","FG","6","7","R.jpg","M.jpg","0","1","0","",""
"","feedback","","html-keyboard-response","43","369371","0.0-1.0-51.0-0.0","0","0","62393","","null","","","null","5","","","","","","","","","","","","","","","",""
"","time_out","","html-keyboard-response","44","371374","0.0-1.0-53.0-0.0","0","0","62393","","null","","","null","5","","","","","","","","","","","","","","","",""
"","ITI","","html-keyboard-response","45","372376","0.0-1.0-54.0","0","0","62393","","null","","","null","5","","","","","","","","","","","","","","","NaN",""
"","S1","","html-keyboard-response","46","372629","0.0-1.0-56.0","0","0","62393","","null","","","null","6","","","","","","","","","","","","","","","",""
"","ISI","","html-keyboard-response","47","372781","0.0-1.0-57.0","0","0","62393","","null","","","null","6","NaN","","","","","","","","","","","","","","",""
"","S2","","html-keyboard-response","48","373033","0.0-1.0-58.0","0","0","62393","","null","","","null","6","","NaN","","","","","","","","","","","","","",""
"","response","","html-keyboard-response","49","373634","0.0-1.0-59.0-0.0","0","0","62393","","599","","","75","6","","","1","6","training","adjacent","ED","5","4","Q.jpg","P.jpg","1","0","0","",""
"","feedback","","html-keyboard-response","50","374636","0.0-1.0-60.0-0.0","0","0","62393","","null","","","null","6","","","","","","","","","","","","","","","",""
"","time_out","","html-keyboard-response","51","376638","0.0-1.0-62.0-0.0","0","0","62393","","null","","","null","6","","","","","","","","","","","","","","","",""
"","ITI","","html-keyboard-response","52","377640","0.0-1.0-63.0","0","0","62393","","null","","","null","6","","","","","","","","","","","","","","","NaN",""
"","S1","","html-keyboard-response","53","377892","0.0-1.0-65.0","0","0","62393","","null","","","null","7","","","","","","","","","","","","","","","",""
"","ISI","","html-keyboard-response","54","378044","0.0-1.0-66.0","0","0","62393","","null","","","null","7","NaN","","","","","","","","","","","","","","",""
"","S2","","html-keyboard-response","55","378296","0.0-1.0-67.0","0","0","62393","","null","","","null","7","","NaN","","","","","","","","","","","","","",""
"","response","","html-keyboard-response","56","378846","0.0-1.0-68.0-0.0","0","0","62393","","549","","","75","7","","","1","7","training","adjacent","CD","3","4","O.jpg","P.jpg","1","1","1","",""
"","feedback","","html-keyboard-response","57","379849","0.0-1.0-69.0-0.0","0","0","62393","","null","","","null","7","","","","","","","","","","","","","","","",""
"","ITI","","html-keyboard-response","58","380851","0.0-1.0-72.0","0","0","62393","","null","","","null","7","","","","","","","","","","","","","","","NaN",""
"","S1","","html-keyboard-response","59","381104","0.0-1.0-74.0","0","0","62393","","null","","","null","8","","","","","","","","","","","","","","","",""
"","ISI","","html-keyboard-response","60","381255","0.0-1.0-75.0","0","0","62393","","null","","","null","8","NaN","","","","","","","","","","","","","","",""
"","S2","","html-keyboard-response","61","381508","0.0-1.0-76.0","0","0","62393","","null","","","null","8","","NaN","","","","","","","","","","","","","",""
"","response","","html-keyboard-response","62","381829","0.0-1.0-77.0-0.0","0","0","62393","","320","","","68","8","","","1","8","training","adjacent","DE","4","5","P.jpg","Q.jpg","0","1","0","",""
"","feedback","","html-keyboard-response","63","382832","0.0-1.0-78.0-0.0","0","0","62393","","null","","","null","8","","","","","","","","","","","","","","","",""
"","time_out","","html-keyboard-response","64","384834","0.0-1.0-80.0-0.0","0","0","62393","","null","","","null","8","","","","","","","","","","","","","","","",""
"","ITI","","html-keyboard-response","65","385838","0.0-1.0-81.0","0","0","62393","","null","","","null","8","","","","","","","","","","","","","","","NaN",""
"","S1","","html-keyboard-response","66","386090","0.0-1.0-83.0","0","0","62393","","null","","","null","9","","","","","","","","","","","","","","","",""
"","ISI","","html-keyboard-response","67","386243","0.0-1.0-84.0","0","0","62393","","null","","","null","9","NaN","","","","","","","","","","","","","","",""
"","S2","","html-keyboard-response","68","386495","0.0-1.0-85.0","0","0","62393","","null","","","null","9","","NaN","","","","","","","","","","","","","",""
"","response","","html-keyboard-response","69","386711","0.0-1.0-86.0-0.0","0","0","62393","","214","","","75","9","","","1","9","training","adjacent","FE","6","5","R.jpg","Q.jpg","1","0","0","",""
"","feedback","","html-keyboard-response","70","387714","0.0-1.0-87.0-0.0","0","0","62393","","null","","","null","9","","","","","","","","","","","","","","","",""
"","time_out","","html-keyboard-response","71","389716","0.0-1.0-89.0-0.0","0","0","62393","","null","","","null","9","","","","","","","","","","","","","","","",""
"","ITI","","html-keyboard-response","72","390718","0.0-1.0-90.0","0","0","62393","","null","","","null","9","","","","","","","","","","","","","","","NaN",""
"","S1","","html-keyboard-response","73","390971","0.0-1.0-92.0","0","0","62393","","null","","","null","10","","","","","","","","","","","","","","","",""
"","ISI","","html-keyboard-response","74","391122","0.0-1.0-93.0","0","0","62393","","null","","","null","10","NaN","","","","","","","","","","","","","","",""
"","S2","","html-keyboard-response","75","391374","0.0-1.0-94.0","0","0","62393","","null","","","null","10","","NaN","","","","","","","","","","","","","",""
"","response","","html-keyboard-response","76","391667","0.0-1.0-95.0-0.0","0","0","62393","","292","","","68","10","","","1","10","training","adjacent","EF","5","6","Q.jpg","R.jpg","0","1","0","",""
"","feedback","","html-keyboard-response","77","392670","0.0-1.0-96.0-0.0","0","0","62393","","null","","","null","10","","","","","","","","","","","","","","","",""
"","time_out","","html-keyboard-response","78","394672","0.0-1.0-98.0-0.0","0","0","62393","","null","","","null","10","","","","","","","","","","","","","","","",""
"","ITI","","html-keyboard-response","79","395674","0.0-1.0-99.0","0","0","62393","","null","","","null","10","","","","","","","","","","","","","","","NaN",""
"","S1","","html-keyboard-response","80","395927","0.0-1.0-101.0","0","0","62393","","null","","","null","11","","","","","","","","","","","","","","","",""
"","ISI","","html-keyboard-response","81","396078","0.0-1.0-102.0","0","0","62393","","null","","","null","11","NaN","","","","","","","","","","","","","","",""
"","S2","","html-keyboard-response","82","396331","0.0-1.0-103.0","0","0","62393","","null","","","null","11","","NaN","","","","","","","","","","","","","",""
"","response","","html-keyboard-response","83","396538","0.0-1.0-104.0-0.0","0","0","62393","","206","","","75","11","","","1","11","training","adjacent","CB","3","2","O.jpg","N.jpg","1","0","0","",""
"","feedback","","html-keyboard-response","84","397541","0.0-1.0-105.0-0.0","0","0","62393","","null","","","null","11","","","","","","","","","","","","","","","",""
"","time_out","","html-keyboard-response","85","399542","0.0-1.0-107.0-0.0","0","0","62393","","null","","","null","11","","","","","","","","","","","","","","","",""
"","ITI","","html-keyboard-response","86","400544","0.0-1.0-108.0","0","0","62393","","null","","","null","11","","","","","","","","","","","","","","","NaN",""
"","S1","","html-keyboard-response","87","400796","0.0-1.0-110.0","0","0","62393","","null","","","null","12","","","","","","","","","","","","","","","",""
"","ISI","","html-keyboard-response","88","400948","0.0-1.0-111.0","0","0","62393","","null","","","null","12","NaN","","","","","","","","","","","","","","",""
"","S2","","html-keyboard-response","89","401200","0.0-1.0-112.0","0","0","62393","","null","","","null","12","","NaN","","","","","","","","","","","","","",""
"","response","","html-keyboard-response","90","401495","0.0-1.0-113.0-0.0","0","0","62393","","294","","","68","12","","","1","12","training","adjacent","ED","5","4","Q.jpg","P.jpg","0","0","1","",""
"","feedback","","html-keyboard-response","91","402498","0.0-1.0-114.0-0.0","0","0","62393","","null","","","null","12","","","","","","","","","","","","","","","",""
"","ITI","","html-keyboard-response","92","403500","0.0-1.0-117.0","0","0","62393","","null","","","null","12","","","","","","","","","","","","","","","NaN",""
"","S1","","html-keyboard-response","93","403752","0.0-1.0-119.0","0","0","62393","","null","","","null","13","","","","","","","","","","","","","","","",""
"","ISI","","html-keyboard-response","94","403904","0.0-1.0-120.0","0","0","62393","","null","","","null","13","NaN","","","","","","","","","","","","","","",""
"","S2","","html-keyboard-response","95","404158","0.0-1.0-121.0","0","0","62393","","null","","","null","13","","NaN","","","","","","","","","","","","","",""
"","response","","html-keyboard-response","96","404419","0.0-1.0-122.0-0.0","0","0","62393","","260","","","68","13","","","1","13","training","adjacent","EF","5","6","Q.jpg","R.jpg","0","1","0","",""
"","feedback","","html-keyboard-response","97","405421","0.0-1.0-123.0-0.0","0","0","62393","","null","","","null","13","","","","","","","","","","","","","","","",""
"","time_out","","html-keyboard-response","98","407424","0.0-1.0-125.0-0.0","0","0","62393","","null","","","null","13","","","","","","","","","","","","","","","",""
"","ITI","","html-keyboard-response","99","408425","0.0-1.0-126.0","0","0","62393","","null","","","null","13","","","","","","","","","","","","","","","NaN",""
"","S1","","html-keyboard-response","100","408678","0.0-1.0-128.0","0","0","62393","","null","","","null","14","","","","","","","","","","","","","","","",""
"","ISI","","html-keyboard-response","101","408830","0.0-1.0-129.0","0","0","62393","","null","","","null","14","NaN","","","","","","","","","","","","","","",""
"","S2","","html-keyboard-response","102","409083","0.0-1.0-130.0","0","0","62393","","null","","","null","14","","NaN","","","","","","","","","","","","","",""
"","response","","html-keyboard-response","103","409393","0.0-1.0-131.0-0.0","0","0","62393","","309","","","75","14","","","1","14","training","adjacent","BC","2","3","N.jpg","O.jpg","1","1","1","",""
"","feedback","","html-keyboard-response","104","410395","0.0-1.0-132.0-0.0","0","0","62393","","null","","","null","14","","","","","","","","","","","","","","","",""
"","ITI","","html-keyboard-response","105","411396","0.0-1.0-135.0","0","0","62393","","null","","","null","14","","","","","","","","","","","","","","","NaN",""
"","S1","","html-keyboard-response","106","411649","0.0-1.0-137.0","0","0","62393","","null","","","null","15","","","","","","","","","","","","","","","",""
"","ISI","","html-keyboard-response","107","411802","0.0-1.0-138.0","0","0","62393","","null","","","null","15","NaN","","","","","","","","","","","","","","",""
"","S2","","html-keyboard-response","108","412054","0.0-1.0-139.0","0","0","62393","","null","","","null","15","","NaN","","","","","","","","","","","","","",""
"","response","","html-keyboard-response","109","412373","0.0-1.0-140.0-0.0","0","0","62393","","317","","","75","15","","","1","15","training","adjacent","CD","3","4","O.jpg","P.jpg","1","1","1","",""
"","feedback","","html-keyboard-response","110","413375","0.0-1.0-141.0-0.0","0","0","62393","","null","","","null","15","","","","","","","","","","","","","","","",""
"","ITI","","html-keyboard-response","111","414377","0.0-1.0-144.0","0","0","62393","","null","","","null","15","","","","","","","","","","","","","","","NaN",""
"","S1","","html-keyboard-response","112","414629","0.0-1.0-146.0","0","0","62393","","null","","","null","16","","","","","","","","","","","","","","","",""
"","ISI","","html-keyboard-response","113","414782","0.0-1.0-147.0","0","0","62393","","null","","","null","16","NaN","","","","","","","","","","","","","","",""
"","S2","","html-keyboard-response","114","415034","0.0-1.0-148.0","0","0","62393","","null","","","null","16","","NaN","","","","","","","","","","","","","",""
"","response","","html-keyboard-response","115","415395","0.0-1.0-149.0-0.0","0","0","62393","","360","","","75","16","","","1","16","training","adjacent","BA","2","1","N.jpg","L.jpg","1","0","0","",""
"","feedback","","html-keyboard-response","116","416397","0.0-1.0-150.0-0.0","0","0","62393","","null","","","null","16","","","","","","","","","","","","","","","",""
"","time_out","","html-keyboard-response","117","418399","0.0-1.0-152.0-0.0","0","0","62393","","null","","","null","16","","","","","","","","","","","","","","","",""
"","ITI","","html-keyboard-response","118","419402","0.0-1.0-153.0","0","0","62393","","null","","","null","16","","","","","","","","","","","","","","","NaN",""
"","S1","","html-keyboard-response","119","419654","0.0-1.0-155.0","0","0","62393","","null","","","null","17","","","","","","","","","","","","","","","",""
"","ISI","","html-keyboard-response","120","419807","0.0-1.0-156.0","0","0","62393","","null","","","null","17","NaN","","","","","","","","","","","","","","",""
"","S2","","html-keyboard-response","121","420059","0.0-1.0-157.0","0","0","62393","","null","","","null","17","","NaN","","","","","","","","","","","","","",""
"","response","","html-keyboard-response","122","420158","0.0-1.0-158.0-0.0","0","0","62393","","97","","","75","17","","","1","17","training","adjacent","CB","3","2","O.jpg","N.jpg","1","0","0","",""
"","feedback","","html-keyboard-response","123","421160","0.0-1.0-159.0-0.0","0","0","62393","","null","","","null","17","","","","","","","","","","","","","","","",""
"","time_out","","html-keyboard-response","124","423162","0.0-1.0-161.0-0.0","0","0","62393","","null","","","null","17","","","","","","","","","","","","","","","",""
"","ITI","","html-keyboard-response","125","424165","0.0-1.0-162.0","0","0","62393","","null","","","null","17","","","","","","","","","","","","","","","NaN",""
"","S1","","html-keyboard-response","126","424417","0.0-1.0-164.0","0","0","62393","","null","","","null","18","","","","","","","","","","","","","","","",""
"","ISI","","html-keyboard-response","127","424569","0.0-1.0-165.0","0","0","62393","","null","","","null","18","NaN","","","","","","","","","","","","","","",""
"","S2","","html-keyboard-response","128","424821","0.0-1.0-166.0","0","0","62393","","null","","","null","18","","NaN","","","","","","","","","","","","","",""
"","response","","html-keyboard-response","129","424898","0.0-1.0-167.0-0.0","0","0","62393","","76","","","68","18","","","1","18","training","adjacent","BA","2","1","N.jpg","L.jpg","0","0","1","",""
"","feedback","","html-keyboard-response","130","425900","0.0-1.0-168.0-0.0","0","0","62393","","null","","","null","18","","","","","","","","","","","","","","","",""
"","ITI","","html-keyboard-response","131","426903","0.0-1.0-171.0","0","0","62393","","null","","","null","18","","","","","","","","","","","","","","","NaN",""
"","S1","","html-keyboard-response","132","427156","0.0-1.0-173.0","0","0","62393","","null","","","null","19","","","","","","","","","","","","","","","",""
"","ISI","","html-keyboard-response","133","427308","0.0-1.0-174.0","0","0","62393","","null","","","null","19","NaN","","","","","","","","","","","","","","",""
"","S2","","html-keyboard-response","134","427560","0.0-1.0-175.0","0","0","62393","","null","","","null","19","","NaN","","","","","","","","","","","","","",""
"","response","","html-keyboard-response","135","428142","0.0-1.0-176.0-0.0","0","0","62393","","582","","","75","19","","","1","19","training","adjacent","DC","4","3","P.jpg","O.jpg","1","0","0","",""
"","feedback","","html-keyboard-response","136","429145","0.0-1.0-177.0-0.0","0","0","62393","","null","","","null","19","","","","","","","","","","","","","","","",""
"","time_out","","html-keyboard-response","137","431147","0.0-1.0-179.0-0.0","0","0","62393","","null","","","null","19","","","","","","","","","","","","","","","",""
"","ITI","","html-keyboard-response","138","432150","0.0-1.0-180.0","0","0","62393","","null","","","null","19","","","","","","","","","","","","","","","NaN",""
"","S1","","html-keyboard-response","139","432402","0.0-1.0-182.0","0","0","62393","","null","","","null","20","","","","","","","","","","","","","","","",""
"","ISI","","html-keyboard-response","140","432555","0.0-1.0-183.0","0","0","62393","","null","","","null","20","NaN","","","","","","","","","","","","","","",""
"","S2","","html-keyboard-response","141","432808","0.0-1.0-184.0","0","0","62393","","null","","","null","20","","NaN","","","","","","","","","","","","","",""
"","response","","html-keyboard-response","142","432894","0.0-1.0-185.0-0.0","0","0","62393","","84","","","68","20","","","1","20","training","adjacent","AB","1","2","L.jpg","N.jpg","0","1","0","",""
"","feedback","","html-keyboard-response","143","433896","0.0-1.0-186.0-0.0","0","0","62393","","null","","","null","20","","","","","","","","","","","","","","","",""
"","time_out","","html-keyboard-response","144","435899","0.0-1.0-188.0-0.0","0","0","62393","","null","","","null","20","","","","","","","","","","","","","","","",""
"","ITI","","html-keyboard-response","145","436901","0.0-1.0-189.0","0","0","62393","","null","","","null","20","","","","","","","","","","","","","","","NaN",""
"","S1","","html-keyboard-response","146","437154","0.0-1.0-191.0","0","0","62393","","null","","","null","21","","","","","","","","","","","","","","","",""
"","ISI","","html-keyboard-response","147","437316","0.0-1.0-192.0","0","0","62393","","null","","","null","21","NaN","","","","","","","","","","","","","","",""
"","S2","","html-keyboard-response","148","437568","0.0-1.0-193.0","0","0","62393","","null","","","null","21","","NaN","","","","","","","","","","","","","",""
"","response","","html-keyboard-response","149","437574","0.0-1.0-194.0-0.0","0","0","62393","","4","","","75","21","","","1","21","training","adjacent","ED","5","4","Q.jpg","P.jpg","1","0","0","",""
"","feedback","","html-keyboard-response","150","438576","0.0-1.0-195.0-0.0","0","0","62393","","null","","","null","21","","","","","","","","","","","","","","","",""
"","time_out","","html-keyboard-response","151","440578","0.0-1.0-197.0-0.0","0","0","62393","","null","","","null","21","","","","","","","","","","","","","","","",""
"","ITI","","html-keyboard-response","152","441580","0.0-1.0-198.0","0","0","62393","","null","","","null","21","","","","","","","","","","","","","","","NaN",""
"","S1","","html-keyboard-response","153","441832","0.0-1.0-200.0","0","0","62393","","null","","","null","22","","","","","","","","","","","","","","","",""
"","ISI","","html-keyboard-response","154","441984","0.0-1.0-201.0","0","0","62393","","null","","","null","22","NaN","","","","","","","","","","","","","","",""
"","S2","","html-keyboard-response","155","442236","0.0-1.0-202.0","0","0","62393","","null","","","null","22","","NaN","","","","","","","","","","","","","",""
"","response","","html-keyboard-response","156","442340","0.0-1.0-203.0-0.0","0","0","62393","","101","","","75","22","","","1","22","training","adjacent","EF","5","6","Q.jpg","R.jpg","1","1","1","",""
"","feedback","","html-keyboard-response","157","443343","0.0-1.0-204.0-0.0","0","0","62393","","null","","","null","22","","","","","","","","","","","","","","","",""
"","ITI","","html-keyboard-response","158","444345","0.0-1.0-207.0","0","0","62393","","null","","","null","22","","","","","","","","","","","","","","","NaN",""
"","S1","","html-keyboard-response","159","444598","0.0-1.0-209.0","0","0","62393","","null","","","null","23","","","","","","","","","","","","","","","",""
"","ISI","","html-keyboard-response","160","444750","0.0-1.0-210.0","0","0","62393","","null","","","null","23","NaN","","","","","","","","","","","","","","",""
"","S2","","html-keyboard-response","161","445003","0.0-1.0-211.0","0","0","62393","","null","","","null","23","","NaN","","","","","","","","","","","","","",""
"","response","","html-keyboard-response","162","445172","0.0-1.0-212.0-0.0","0","0","62393","","168","","","68","23","","","1","23","training","adjacent","CB","3","2","O.jpg","N.jpg","0","0","1","",""
"","feedback","","html-keyboard-response","163","446174","0.0-1.0-213.0-0.0","0","0","62393","","null","","","null","23","","","","","","","","","","","","","","","",""
"","ITI","","html-keyboard-response","164","447176","0.0-1.0-216.0","0","0","62393","","null","","","null","23","","","","","","","","","","","","","","","NaN",""
"","S1","","html-keyboard-response","165","447429","0.0-1.0-218.0","0","0","62393","","null","","","null","24","","","","","","","","","","","","","","","",""
"","ISI","","html-keyboard-response","166","447581","0.0-1.0-219.0","0","0","62393","","null","","","null","24","NaN","","","","","","","","","","","","","","",""
"","S2","","html-keyboard-response","167","447833","0.0-1.0-220.0","0","0","62393","","null","","","null","24","","NaN","","","","","","","","","","","","","",""
"","response","","html-keyboard-response","168","447996","0.0-1.0-221.0-0.0","0","0","62393","","161","","","68","24","","","1","24","training","adjacent","CD","3","4","O.jpg","P.jpg","0","1","0","",""
"","feedback","","html-keyboard-response","169","448999","0.0-1.0-222.0-0.0","0","0","62393","","null","","","null","24","","","","","","","","","","","","","","","",""
"","time_out","","html-keyboard-response","170","451002","0.0-1.0-224.0-0.0","0","0","62393","","null","","","null","24","","","","","","","","","","","","","","","",""
"","ITI","","html-keyboard-response","171","452004","0.0-1.0-225.0","0","0","62393","","null","","","null","24","","","","","","","","","","","","","","","NaN",""
"","S1","","html-keyboard-response","172","452257","0.0-1.0-227.0","0","0","62393","","null","","","null","25","","","","","","","","","","","","","","","",""
"","ISI","","html-keyboard-response","173","452409","0.0-1.0-228.0","0","0","62393","","null","","","null","25","NaN","","","","","","","","","","","","","","",""
"","S2","","html-keyboard-response","174","452662","0.0-1.0-229.0","0","0","62393","","null","","","null","25","","NaN","","","","","","","","","","","","","",""
"","response","","html-keyboard-response","175","452937","0.0-1.0-230.0-0.0","0","0","62393","","273","","","75","25","","","1","25","training","adjacent","GF","7","6","M.jpg","R.jpg","1","0","0","",""
"","feedback","","html-keyboard-response","176","453939","0.0-1.0-231.0-0.0","0","0","62393","","null","","","null","25","","","","","","","","","","","","","","","",""
"","time_out","","html-keyboard-response","177","455941","0.0-1.0-233.0-0.0","0","0","62393","","null","","","null","25","","","","","","","","","","","","","","","",""
"","ITI","","html-keyboard-response","178","456943","0.0-1.0-234.0","0","0","62393","","null","","","null","25","","","","","","","","","","","","","","","NaN",""
"","S1","","html-keyboard-response","179","457196","0.0-1.0-236.0","0","0","62393","","null","","","null","26","","","","","","","","","","","","","","","",""
"","ISI","","html-keyboard-response","180","457349","0.0-1.0-237.0","0","0","62393","","null","","","null","26","NaN","","","","","","","","","","","","","","",""
"","S2","","html-keyboard-response","181","457601","0.0-1.0-238.0","0","0","62393","","null","","","null","26","","NaN","","","","","","","","","","","","","",""
"","response","","html-keyboard-response","182","457704","0.0-1.0-239.0-0.0","0","0","62393","","102","","","75","26","","","1","26","training","adjacent","FE","6","5","R.jpg","Q.jpg","1","0","0","",""
"","feedback","","html-keyboard-response","183","458706","0.0-1.0-240.0-0.0","0","0","62393","","null","","","null","26","","","","","","","","","","","","","","","",""
"","time_out","","html-keyboard-response","184","460708","0.0-1.0-242.0-0.0","0","0","62393","","null","","","null","26","","","","","","","","","","","","","","","",""
"","ITI","","html-keyboard-response","185","461711","0.0-1.0-243.0","0","0","62393","","null","","","null","26","","","","","","","","","","","","","","","NaN",""
"","S1","","html-keyboard-response","186","461963","0.0-1.0-245.0","0","0","62393","","null","","","null","27","","","","","","","","","","","","","","","",""
"","ISI","","html-keyboard-response","187","462115","0.0-1.0-246.0","0","0","62393","","null","","","null","27","NaN","","","","","","","","","","","","","","",""
"","S2","","html-keyboard-response","188","462367","0.0-1.0-247.0","0","0","62393","","null","","","null","27","","NaN","","","","","","","","","","","","","",""
"","response","","html-keyboard-response","189","462525","0.0-1.0-248.0-0.0","0","0","62393","","157","","","68","27","","","1","27","training","adjacent","ED","5","4","Q.jpg","P.jpg","0","0","1","",""
"","feedback","","html-keyboard-response","190","463528","0.0-1.0-249.0-0.0","0","0","62393","","null","","","null","27","","","","","","","","","","","","","","","",""
"","ITI","","html-keyboard-response","191","464530","0.0-1.0-252.0","0","0","62393","","null","","","null","27","","","","","","","","","","","","","","","NaN",""
"","S1","","html-keyboard-response","192","464781","0.0-1.0-254.0","0","0","62393","","null","","","null","28","","","","","","","","","","","","","","","",""
"","ISI","","html-keyboard-response","193","464933","0.0-1.0-255.0","0","0","62393","","null","","","null","28","NaN","","","","","","","","","","","","","","",""
"","S2","","html-keyboard-response","194","465186","0.0-1.0-256.0","0","0","62393","","null","","","null","28","","NaN","","","","","","","","","","","","","",""
"","response","","html-keyboard-response","195","465456","0.0-1.0-257.0-0.0","0","0","62393","","269","","","75","28","","","1","28","training","adjacent","CD","3","4","O.jpg","P.jpg","1","1","1","",""
"","feedback","","html-keyboard-response","196","466459","0.0-1.0-258.0-0.0","0","0","62393","","null","","","null","28","","","","","","","","","","","","","","","",""
"","ITI","","html-keyboard-response","197","467461","0.0-1.0-261.0","0","0","62393","","null","","","null","28","","","","","","","","","","","","","","","NaN",""
"","S1","","html-keyboard-response","198","467712","0.0-1.0-263.0","0","0","62393","","null","","","null","29","","","","","","","","","","","","","","","",""
"","ISI","","html-keyboard-response","199","467865","0.0-1.0-264.0","0","0","62393","","null","","","null","29","NaN","","","","","","","","","","","","","","",""
"","S2","","html-keyboard-response","200","468117","0.0-1.0-265.0","0","0","62393","","null","","","null","29","","NaN","","","","","","","","","","","","","",""
"","response","","html-keyboard-response","201","468402","0.0-1.0-266.0-0.0","0","0","62393","","285","","","68","29","","","1","29","training","adjacent","GF","7","6","M.jpg","R.jpg","0","0","1","",""
"","feedback","","html-keyboard-response","202","469405","0.0-1.0-267.0-0.0","0","0","62393","","null","","","null","29","","","","","","","","","","","","","","","",""
"","ITI","","html-keyboard-response","203","470408","0.0-1.0-270.0","0","0","62393","","null","","","null","29","","","","","","","","","","","","","","","NaN",""
"","S1","","html-keyboard-response","204","470661","0.0-1.0-272.0","0","0","62393","","null","","","null","30","","","","","","","","","","","","","","","",""
"","ISI","","html-keyboard-response","205","470813","0.0-1.0-273.0","0","0","62393","","null","","","null","30","NaN","","","","","","","","","","","","","","",""
"","S2","","html-keyboard-response","206","471071","0.0-1.0-274.0","0","0","62393","","null","","","null","30","","NaN","","","","","","","","","","","","","",""
"","response","","html-keyboard-response","207","471609","0.0-1.0-275.0-0.0","0","0","62393","","537","","","75","30","","","1","30","training","adjacent","DE","4","5","P.jpg","Q.jpg","1","1","1","",""
"","feedback","","html-keyboard-response","208","472611","0.0-1.0-276.0-0.0","0","0","62393","","null","","","null","30","","","","","","","","","","","","","","","",""
"","ITI","","html-keyboard-response","209","473613","0.0-1.0-279.0","0","0","62393","","null","","","null","30","","","","","","","","","","","","","","","NaN",""
"","S1","","html-keyboard-response","210","473866","0.0-1.0-281.0","0","0","62393","","null","","","null","31","","","","","","","","","","","","","","","",""
"","ISI","","html-keyboard-response","211","474018","0.0-1.0-282.0","0","0","62393","","null","","","null","31","NaN","","","","","","","","","","","","","","",""
"","S2","","html-keyboard-response","212","474270","0.0-1.0-283.0","0","0","62393","","null","","","null","31","","NaN","","","","","","","","","","","","","",""
"","response","","html-keyboard-response","213","474557","0.0-1.0-284.0-0.0","0","0","62393","","285","","","68","31","","","1","31","training","adjacent","GF","7","6","M.jpg","R.jpg","0","0","1","",""
"","feedback","","html-keyboard-response","214","475560","0.0-1.0-285.0-0.0","0","0","62393","","null","","","null","31","","","","","","","","","","","","","","","",""
"","ITI","","html-keyboard-response","215","476562","0.0-1.0-288.0","0","0","62393","","null","","","null","31","","","","","","","","","","","","","","","NaN",""
"","S1","","html-keyboard-response","216","476814","0.0-1.0-290.0","0","0","62393","","null","","","null","32","","","","","","","","","","","","","","","",""
"","ISI","","html-keyboard-response","217","476967","0.0-1.0-291.0","0","0","62393","","null","","","null","32","NaN","","","","","","","","","","","","","","",""
"","S2","","html-keyboard-response","218","477220","0.0-1.0-292.0","0","0","62393","","null","","","null","32","","NaN","","","","","","","","","","","","","",""
"","response","","html-keyboard-response","219","477510","0.0-1.0-293.0-0.0","0","0","62393","","289","","","75","32","","","1","32","training","adjacent","BC","2","3","N.jpg","O.jpg","1","1","1","",""
"","feedback","","html-keyboard-response","220","478512","0.0-1.0-294.0-0.0","0","0","62393","","null","","","null","32","","","","","","","","","","","","","","","",""
"","ITI","","html-keyboard-response","221","479513","0.0-1.0-297.0","0","0","62393","","null","","","null","32","","","","","","","","","","","","","","","NaN",""
"","S1","","html-keyboard-response","222","479765","0.0-1.0-299.0","0","0","62393","","null","","","null","33","","","","","","","","","","","","","","","",""
"","ISI","","html-keyboard-response","223","479930","0.0-1.0-300.0","0","0","62393","","null","","","null","33","NaN","","","","","","","","","","","","","","",""
"","S2","","html-keyboard-response","224","480183","0.0-1.0-301.0","0","0","62393","","null","","","null","33","","NaN","","","","","","","","","","","","","",""
"","response","","html-keyboard-response","225","480319","0.0-1.0-302.0-0.0","0","0","62393","","135","","","68","33","","","1","33","training","adjacent","FG","6","7","R.jpg","M.jpg","0","1","0","",""
"","feedback","","html-keyboard-response","226","481321","0.0-1.0-303.0-0.0","0","0","62393","","null","","","null","33","","","","","","","","","","","","","","","",""
"","time_out","","html-keyboard-response","227","483322","0.0-1.0-305.0-0.0","0","0","62393","","null","","","null","33","","","","","","","","","","","","","","","",""
"","ITI","","html-keyboard-response","228","484325","0.0-1.0-306.0","0","0","62393","","null","","","null","33","","","","","","","","","","","","","","","NaN",""
"","S1","","html-keyboard-response","229","484578","0.0-1.0-308.0","0","0","62393","","null","","","null","34","","","","","","","","","","","","","","","",""
"","ISI","","html-keyboard-response","230","484730","0.0-1.0-309.0","0","0","62393","","null","","","null","34","NaN","","","","","","","","","","","","","","",""
"","S2","","html-keyboard-response","231","484982","0.0-1.0-310.0","0","0","62393","","null","","","null","34","","NaN","","","","","","","","","","","","","",""
"","response","","html-keyboard-response","232","485108","0.0-1.0-311.0-0.0","0","0","62393","","126","","","75","34","","","1","34","training","adjacent","AB","1","2","L.jpg","N.jpg","1","1","1","",""
"","feedback","","html-keyboard-response","233","486111","0.0-1.0-312.0-0.0","0","0","62393","","null","","","null","34","","","","","","","","","","","","","","","",""
"","ITI","","html-keyboard-response","234","487114","0.0-1.0-315.0","0","0","62393","","null","","","null","34","","","","","","","","","","","","","","","NaN",""
"","S1","","html-keyboard-response","235","487365","0.0-1.0-317.0","0","0","62393","","null","","","null","35","","","","","","","","","","","","","","","",""
"","ISI","","html-keyboard-response","236","487518","0.0-1.0-318.0","0","0","62393","","null","","","null","35","NaN","","","","","","","","","","","","","","",""
"","S2","","html-keyboard-response","237","487771","0.0-1.0-319.0","0","0","62393","","null","","","null","35","","NaN","","","","","","","","","","","","","",""
"","response","","html-keyboard-response","238","487986","0.0-1.0-320.0-0.0","0","0","62393","","214","","","68","35","","","1","35","training","adjacent","DE","4","5","P.jpg","Q.jpg","0","1","0","",""
"","feedback","","html-keyboard-response","239","488989","0.0-1.0-321.0-0.0","0","0","62393","","null","","","null","35","","","","","","","","","","","","","","","",""
"","time_out","","html-keyboard-response","240","490991","0.0-1.0-323.0-0.0","0","0","62393","","null","","","null","35","","","","","","","","","","","","","","","",""
"","ITI","","html-keyboard-response","241","491993","0.0-1.0-324.0","0","0","62393","","null","","","null","35","","","","","","","","","","","","","","","NaN",""
"","S1","","html-keyboard-response","242","492246","0.0-1.0-326.0","0","0","62393","","null","","","null","36","","","","","","","","","","","","","","","",""
"","ISI","","html-keyboard-response","243","492398","0.0-1.0-327.0","0","0","62393","","null","","","null","36","NaN","","","","","","","","","","","","","","",""
"","S2","","html-keyboard-response","244","492651","0.0-1.0-328.0","0","0","62393","","null","","","null","36","","NaN","","","","","","","","","","","","","",""
"","response","","html-keyboard-response","245","492876","0.0-1.0-329.0-0.0","0","0","62393","","223","","","75","36","","","1","36","training","adjacent","BA","2","1","N.jpg","L.jpg","1","0","0","",""
"","feedback","","html-keyboard-response","246","493879","0.0-1.0-330.0-0.0","0","0","62393","","null","","","null","36","","","","","","","","","","","","","","","",""
"","time_out","","html-keyboard-response","247","495881","0.0-1.0-332.0-0.0","0","0","62393","","null","","","null","36","","","","","","","","","","","","","","","",""
"","ITI","","html-keyboard-response","248","496884","0.0-1.0-333.0","0","0","62393","","null","","","null","36","","","","","","","","","","","","","","","NaN",""
"","S1","","html-keyboard-response","249","497136","0.0-1.0-335.0","0","0","62393","","null","","","null","37","","","","","","","","","","","","","","","",""
"","ISI","","html-keyboard-response","250","497288","0.0-1.0-336.0","0","0","62393","","null","","","null","37","NaN","","","","","","","","","","","","","","",""
"","S2","","html-keyboard-response","251","497540","0.0-1.0-337.0","0","0","62393","","null","","","null","37","","NaN","","","","","","","","","","","","","",""
"","response","","html-keyboard-response","252","497818","0.0-1.0-338.0-0.0","0","0","62393","","277","","","68","37","","","1","37","training","adjacent","DC","4","3","P.jpg","O.jpg","0","0","1","",""
"","feedback","","html-keyboard-response","253","498821","0.0-1.0-339.0-0.0","0","0","62393","","null","","","null","37","","","","","","","","","","","","","","","",""
"","ITI","","html-keyboard-response","254","499823","0.0-1.0-342.0","0","0","62393","","null","","","null","37","","","","","","","","","","","","","","","NaN",""
"","S1","","html-keyboard-response","255","500083","0.0-1.0-344.0","0","0","62393","","null","","","null","38","","","","","","","","","","","","","","","",""
"","ISI","","html-keyboard-response","256","500236","0.0-1.0-345.0","0","0","62393","","null","","","null","38","NaN","","","","","","","","","","","","","","",""
"","S2","","html-keyboard-response","257","500489","0.0-1.0-346.0","0","0","62393","","null","","","null","38","","NaN","","","","","","","","","","","","","",""
"","response","","html-keyboard-response","258","501022","0.0-1.0-347.0-0.0","0","0","62393","","531","","","68","38","","","1","38","training","adjacent","BA","2","1","N.jpg","L.jpg","0","0","1","",""
"","feedback","","html-keyboard-response","259","502024","0.0-1.0-348.0-0.0","0","0","62393","","null","","","null","38","","","","","","","","","","","","","","","",""
"","ITI","","html-keyboard-response","260","503028","0.0-1.0-351.0","0","0","62393","","null","","","null","38","","","","","","","","","","","","","","","NaN",""
"","S1","","html-keyboard-response","261","503280","0.0-1.0-353.0","0","0","62393","","null","","","null","39","","","","","","","","","","","","","","","",""
"","ISI","","html-keyboard-response","262","503432","0.0-1.0-354.0","0","0","62393","","null","","","null","39","NaN","","","","","","","","","","","","","","",""
"","S2","","html-keyboard-response","263","503685","0.0-1.0-355.0","0","0","62393","","null","","","null","39","","NaN","","","","","","","","","","","","","",""
"","response","","html-keyboard-response","264","504055","0.0-1.0-356.0-0.0","0","0","62393","","369","","","75","39","","","1","39","training","adjacent","EF","5","6","Q.jpg","R.jpg","1","1","1","",""
"","feedback","","html-keyboard-response","265","505059","0.0-1.0-357.0-0.0","0","0","62393","","null","","","null","39","","","","","","","","","","","","","","","",""
"","ITI","","html-keyboard-response","266","506061","0.0-1.0-360.0","0","0","62393","","null","","","null","39","","","","","","","","","","","","","","","NaN",""
"","S1","","html-keyboard-response","267","506313","0.0-1.0-362.0","0","0","62393","","null","","","null","40","","","","","","","","","","","","","","","",""
"","ISI","","html-keyboard-response","268","506465","0.0-1.0-363.0","0","0","62393","","null","","","null","40","NaN","","","","","","","","","","","","","","",""
"","S2","","html-keyboard-response","269","506718","0.0-1.0-364.0","0","0","62393","","null","","","null","40","","NaN","","","","","","","","","","","","","",""
"","response","","html-keyboard-response","270","507151","0.0-1.0-365.0-0.0","0","0","62393","","431","","","68","40","","","1","40","training","adjacent","BC","2","3","N.jpg","O.jpg","0","1","0","",""
"","feedback","","html-keyboard-response","271","508154","0.0-1.0-366.0-0.0","0","0","62393","","null","","","null","40","","","","","","","","","","","","","","","",""
"","time_out","","html-keyboard-response","272","510156","0.0-1.0-368.0-0.0","0","0","62393","","null","","","null","40","","","","","","","","","","","","","","","",""
"","ITI","","html-keyboard-response","273","511159","0.0-1.0-369.0","0","0","62393","","null","","","null","40","","","","","","","","","","","","","","","NaN",""
"","S1","","html-keyboard-response","274","511411","0.0-1.0-371.0","0","0","62393","","null","","","null","41","","","","","","","","","","","","","","","",""
"","ISI","","html-keyboard-response","275","511564","0.0-1.0-372.0","0","0","62393","","null","","","null","41","NaN","","","","","","","","","","","","","","",""
"","S2","","html-keyboard-response","276","511816","0.0-1.0-373.0","0","0","62393","","null","","","null","41","","NaN","","","","","","","","","","","","","",""
"","response","","html-keyboard-response","277","512333","0.0-1.0-374.0-0.0","0","0","62393","","516","","","75","41","","","1","41","training","adjacent","AB","1","2","L.jpg","N.jpg","1","1","1","",""
"","feedback","","html-keyboard-response","278","513335","0.0-1.0-375.0-0.0","0","0","62393","","null","","","null","41","","","","","","","","","","","","","","","",""
"","ITI","","html-keyboard-response","279","514338","0.0-1.0-378.0","0","0","62393","","null","","","null","41","","","","","","","","","","","","","","","NaN",""
"","S1","","html-keyboard-response","280","514591","0.0-1.0-380.0","0","0","62393","","null","","","null","42","","","","","","","","","","","","","","","",""
"","ISI","","html-keyboard-response","281","514743","0.0-1.0-381.0","0","0","62393","","null","","","null","42","NaN","","","","","","","","","","","","","","",""
"","S2","","html-keyboard-response","282","514995","0.0-1.0-382.0","0","0","62393","","null","","","null","42","","NaN","","","","","","","","","","","","","",""
"","response","","html-keyboard-response","283","515313","0.0-1.0-383.0-0.0","0","0","62393","","317","","","68","42","","","1","42","training","adjacent","CB","3","2","O.jpg","N.jpg","0","0","1","",""
"","feedback","","html-keyboard-response","284","516316","0.0-1.0-384.0-0.0","0","0","62393","","null","","","null","42","","","","","","","","","","","","","","","",""
"","ITI","","html-keyboard-response","285","517319","0.0-1.0-387.0","0","0","62393","","null","","","null","42","","","","","","","","","","","","","","","NaN",""
"","S1","","html-keyboard-response","286","517571","0.0-1.0-389.0","0","0","62393","","null","","","null","43","","","","","","","","","","","","","","","",""
"","ISI","","html-keyboard-response","287","517723","0.0-1.0-390.0","0","0","62393","","null","","","null","43","NaN","","","","","","","","","","","","","","",""
"","S2","","html-keyboard-response","288","517975","0.0-1.0-391.0","0","0","62393","","null","","","null","43","","NaN","","","","","","","","","","","","","",""
"","response","","html-keyboard-response","289","518299","0.0-1.0-392.0-0.0","0","0","62393","","323","","","75","43","","","1","43","training","adjacent","AB","1","2","L.jpg","N.jpg","1","1","1","",""
"","feedback","","html-keyboard-response","290","519301","0.0-1.0-393.0-0.0","0","0","62393","","null","","","null","43","","","","","","","","","","","","","","","",""
"","ITI","","html-keyboard-response","291","520304","0.0-1.0-396.0","0","0","62393","","null","","","null","43","","","","","","","","","","","","","","","NaN",""
"","S1","","html-keyboard-response","292","520556","0.0-1.0-398.0","0","0","62393","","null","","","null","44","","","","","","","","","","","","","","","",""
"","ISI","","html-keyboard-response","293","520708","0.0-1.0-399.0","0","0","62393","","null","","","null","44","NaN","","","","","","","","","","","","","","",""
"","S2","","html-keyboard-response","294","520962","0.0-1.0-400.0","0","0","62393","","null","","","null","44","","NaN","","","","","","","","","","","","","",""
"","response","","html-keyboard-response","295","521260","0.0-1.0-401.0-0.0","0","0","62393","","297","","","68","44","","","1","44","training","adjacent","GF","7","6","M.jpg","R.jpg","0","0","1","",""
"","feedback","","html-keyboard-response","296","522263","0.0-1.0-402.0-0.0","0","0","62393","","null","","","null","44","","","","","","","","","","","","","","","",""
"","ITI","","html-keyboard-response","297","523266","0.0-1.0-405.0","0","0","62393","","null","","","null","44","","","","","","","","","","","","","","","NaN",""
"","S1","","html-keyboard-response","298","523518","0.0-1.0-407.0","0","0","62393","","null","","","null","45","","","","","","","","","","","","","","","",""
"","ISI","","html-keyboard-response","299","523670","0.0-1.0-408.0","0","0","62393","","null","","","null","45","NaN","","","","","","","","","","","","","","",""
"","S2","","html-keyboard-response","300","523923","0.0-1.0-409.0","0","0","62393","","null","","","null","45","","NaN","","","","","","","","","","","","","",""
"","response","","html-keyboard-response","301","524177","0.0-1.0-410.0-0.0","0","0","62393","","253","","","75","45","","","1","45","training","adjacent","BC","2","3","N.jpg","O.jpg","1","1","1","",""
"","feedback","","html-keyboard-response","302","525179","0.0-1.0-411.0-0.0","0","0","62393","","null","","","null","45","","","","","","","","","","","","","","","",""
"","ITI","","html-keyboard-response","303","526182","0.0-1.0-414.0","0","0","62393","","null","","","null","45","","","","","","","","","","","","","","","NaN",""
"","S1","","html-keyboard-response","304","526434","0.0-1.0-416.0","0","0","62393","","null","","","null","46","","","","","","","","","","","","","","","",""
"","ISI","","html-keyboard-response","305","526586","0.0-1.0-417.0","0","0","62393","","null","","","null","46","NaN","","","","","","","","","","","","","","",""
"","S2","","html-keyboard-response","306","526839","0.0-1.0-418.0","0","0","62393","","null","","","null","46","","NaN","","","","","","","","","","","","","",""
"","response","","html-keyboard-response","307","527091","0.0-1.0-419.0-0.0","0","0","62393","","251","","","68","46","","","1","46","training","adjacent","FG","6","7","R.jpg","M.jpg","0","1","0","",""
"","feedback","","html-keyboard-response","308","528093","0.0-1.0-420.0-0.0","0","0","62393","","null","","","null","46","","","","","","","","","","","","","","","",""
"","time_out","","html-keyboard-response","309","530095","0.0-1.0-422.0-0.0","0","0","62393","","null","","","null","46","","","","","","","","","","","","","","","",""
"","ITI","","html-keyboard-response","310","531098","0.0-1.0-423.0","0","0","62393","","null","","","null","46","","","","","","","","","","","","","","","NaN",""
"","S1","","html-keyboard-response","311","531352","0.0-1.0-425.0","0","0","62393","","null","","","null","47","","","","","","","","","","","","","","","",""
"","ISI","","html-keyboard-response","312","531504","0.0-1.0-426.0","0","0","62393","","null","","","null","47","NaN","","","","","","","","","","","","","","",""
"","S2","","html-keyboard-response","313","531760","0.0-1.0-427.0","0","0","62393","","null","","","null","47","","NaN","","","","","","","","","","","","","",""
"","response","","html-keyboard-response","314","532172","0.0-1.0-428.0-0.0","0","0","62393","","411","","","75","47","","","1","47","training","adjacent","DC","4","3","P.jpg","O.jpg","1","0","0","",""
"","feedback","","html-keyboard-response","315","533175","0.0-1.0-429.0-0.0","0","0","62393","","null","","","null","47","","","","","","","","","","","","","","","",""
"","time_out","","html-keyboard-response","316","535178","0.0-1.0-431.0-0.0","0","0","62393","","null","","","null","47","","","","","","","","","","","","","","","",""
"","ITI","","html-keyboard-response","317","536180","0.0-1.0-432.0","0","0","62393","","null","","","null","47","","","","","","","","","","","","","","","NaN",""
"","block_over","","html-keyboard-response","318","595152","0.0-1.0-433.0-0.0","0","0","62393","","58969","","","32","47","","","","","","","","","","","","","","","",""
"","S1","","html-keyboard-response","319","595404","0.0-1.0-434.0","0","0","62393","","null","","","null","48","","","","","","","","","","","","","","","",""
"","ISI","","html-keyboard-response","320","595556","0.0-1.0-435.0","0","0","62393","","null","","","null","48","NaN","","","","","","","","","","","","","","",""
"","S2","","html-keyboard-response","321","595809","0.0-1.0-436.0","0","0","62393","","null","","","null","48","","NaN","","","","","","","","","","","","","",""
"","response","","html-keyboard-response","322","596710","0.0-1.0-437.0-0.0","0","0","62393","","899","","","68","48","","","2","48","training","adjacent","AB","1","2","L.jpg","N.jpg","0","1","0","",""
"","feedback","","html-keyboard-response","323","597712","0.0-1.0-438.0-0.0","0","0","62393","","null","","","null","48","","","","","","","","","","","","","","","",""
"","time_out","","html-keyboard-response","324","599715","0.0-1.0-440.0-0.0","0","0","62393","","null","","","null","48","","","","","","","","","","","","","","","",""
"","ITI","","html-keyboard-response","325","600718","0.0-1.0-441.0","0","0","62393","","null","","","null","48","","","","","","","","","","","","","","","NaN",""
"","S1","","html-keyboard-response","326","600971","0.0-1.0-443.0","0","0","62393","","null","","","null","49","","","","","","","","","","","","","","","",""
"","ISI","","html-keyboard-response","327","601123","0.0-1.0-444.0","0","0","62393","","null","","","null","49","NaN","","","","","","","","","","","","","","",""
"","S2","","html-keyboard-response","328","601376","0.0-1.0-445.0","0","0","62393","","null","","","null","49","","NaN","","","","","","","","","","","","","",""
"","response","","html-keyboard-response","329","601528","0.0-1.0-446.0-0.0","0","0","62393","","151","","","75","49","","","2","49","training","adjacent","DC","4","3","P.jpg","O.jpg","1","0","0","",""
"","feedback","","html-keyboard-response","330","602530","0.0-1.0-447.0-0.0","0","0","62393","","null","","","null","49","","","","","","","","","","","","","","","",""
"","time_out","","html-keyboard-response","331","604533","0.0-1.0-449.0-0.0","0","0","62393","","null","","","null","49","","","","","","","","","","","","","","","",""
"","ITI","","html-keyboard-response","332","605535","0.0-1.0-450.0","0","0","62393","","null","","","null","49","","","","","","","","","","","","","","","NaN",""
"","S1","","html-keyboard-response","333","605788","0.0-1.0-452.0","0","0","62393","","null","","","null","50","","","","","","","","","","","","","","","",""
"","ISI","","html-keyboard-response","334","605940","0.0-1.0-453.0","0","0","62393","","null","","","null","50","NaN","","","","","","","","","","","","","","",""
"","S2","","html-keyboard-response","335","606193","0.0-1.0-454.0","0","0","62393","","null","","","null","50","","NaN","","","","","","","","","","","","","",""
"","response","","html-keyboard-response","336","606499","0.0-1.0-455.0-0.0","0","0","62393","","305","","","75","50","","","2","50","training","adjacent","BC","2","3","N.jpg","O.jpg","1","1","1","",""
"","feedback","","html-keyboard-response","337","607501","0.0-1.0-456.0-0.0","0","0","62393","","null","","","null","50","","","","","","","","","","","","","","","",""
"","ITI","","html-keyboard-response","338","608504","0.0-1.0-459.0","0","0","62393","","null","","","null","50","","","","","","","","","","","","","","","NaN",""
"","S1","","html-keyboard-response","339","608756","0.0-1.0-461.0","0","0","62393","","null","","","null","51","","","","","","","","","","","","","","","",""
"","ISI","","html-keyboard-response","340","608909","0.0-1.0-462.0","0","0","62393","","null","","","null","51","NaN","","","","","","","","","","","","","","",""
"","S2","","html-keyboard-response","341","609161","0.0-1.0-463.0","0","0","62393","","null","","","null","51","","NaN","","","","","","","","","","","","","",""
"","response","","html-keyboard-response","342","609833","0.0-1.0-464.0-0.0","0","0","62393","","670","","","75","51","","","2","51","training","adjacent","ED","5","4","Q.jpg","P.jpg","1","0","0","",""
"","feedback","","html-keyboard-response","343","610835","0.0-1.0-465.0-0.0","0","0","62393","","null","","","null","51","","","","","","","","","","","","","","","",""
"","time_out","","html-keyboard-response","344","612838","0.0-1.0-467.0-0.0","0","0","62393","","null","","","null","51","","","","","","","","","","","","","","","",""
"","ITI","","html-keyboard-response","345","613841","0.0-1.0-468.0","0","0","62393","","null","","","null","51","","","","","","","","","","","","","","","NaN",""
"","S1","","html-keyboard-response","346","614093","0.0-1.0-470.0","0","0","62393","","null","","","null","52","","","","","","","","","","","","","","","",""
"","ISI","","html-keyboard-response","347","614246","0.0-1.0-471.0","0","0","62393","","null","","","null","52","NaN","","","","","","","","","","","","","","",""
"","S2","","html-keyboard-response","348","614498","0.0-1.0-472.0","0","0","62393","","null","","","null","52","","NaN","","","","","","","","","","","","","",""
"","response","","html-keyboard-response","349","614749","0.0-1.0-473.0-0.0","0","0","62393","","249","","","68","52","","","2","52","training","adjacent","FE","6","5","R.jpg","Q.jpg","0","0","1","",""
"","feedback","","html-keyboard-response","350","615753","0.0-1.0-474.0-0.0","0","0","62393","","null","","","null","52","","","","","","","","","","","","","","","",""
"","ITI","","html-keyboard-response","351","616755","0.0-1.0-477.0","0","0","62393","","null","","","null","52","","","","","","","","","","","","","","","NaN",""
"","S1","","html-keyboard-response","352","617007","0.0-1.0-479.0","0","0","62393","","null","","","null","53","","","","","","","","","","","","","","","",""
"","ISI","","html-keyboard-response","353","617160","0.0-1.0-480.0","0","0","62393","","null","","","null","53","NaN","","","","","","","","","","","","","","",""
"","S2","","html-keyboard-response","354","617412","0.0-1.0-481.0","0","0","62393","","null","","","null","53","","NaN","","","","","","","","","","","","","",""
"","response","","html-keyboard-response","355","617937","0.0-1.0-482.0-0.0","0","0","62393","","524","","","68","53","","","2","53","training","adjacent","EF","5","6","Q.jpg","R.jpg","0","1","0","",""
"","feedback","","html-keyboard-response","356","618939","0.0-1.0-483.0-0.0","0","0","62393","","null","","","null","53","","","","","","","","","","","","","","","",""
"","time_out","","html-keyboard-response","357","620942","0.0-1.0-485.0-0.0","0","0","62393","","null","","","null","53","","","","","","","","","","","","","","","",""
"","ITI","","html-keyboard-response","358","621944","0.0-1.0-486.0","0","0","62393","","null","","","null","53","","","","","","","","","","","","","","","NaN",""
"","S1","","html-keyboard-response","359","622197","0.0-1.0-488.0","0","0","62393","","null","","","null","54","","","","","","","","","","","","","","","",""
"","ISI","","html-keyboard-response","360","622349","0.0-1.0-489.0","0","0","62393","","null","","","null","54","NaN","","","","","","","","","","","","","","",""
"","S2","","html-keyboard-response","361","622602","0.0-1.0-490.0","0","0","62393","","null","","","null","54","","NaN","","","","","","","","","","","","","",""
"","response","","html-keyboard-response","362","622691","0.0-1.0-491.0-0.0","0","0","62393","","88","","","75","54","","","2","54","training","adjacent","GF","7","6","M.jpg","R.jpg","1","0","0","",""
"","feedback","","html-keyboard-response","363","623694","0.0-1.0-492.0-0.0","0","0","62393","","null","","","null","54","","","","","","","","","","","","","","","",""
"","time_out","","html-keyboard-response","364","625697","0.0-1.0-494.0-0.0","0","0","62393","","null","","","null","54","","","","","","","","","","","","","","","",""
"","ITI","","html-keyboard-response","365","626698","0.0-1.0-495.0","0","0","62393","","null","","","null","54","","","","","","","","","","","","","","","NaN",""
"","S1","","html-keyboard-response","366","626950","0.0-1.0-497.0","0","0","62393","","null","","","null","55","","","","","","","","","","","","","","","",""
"","ISI","","html-keyboard-response","367","627103","0.0-1.0-498.0","0","0","62393","","null","","","null","55","NaN","","","","","","","","","","","","","","",""
"","S2","","html-keyboard-response","368","627355","0.0-1.0-499.0","0","0","62393","","null","","","null","55","","NaN","","","","","","","","","","","","","",""
"","response","","html-keyboard-response","369","627664","0.0-1.0-500.0-0.0","0","0","62393","","307","","","68","55","","","2","55","training","adjacent","CD","3","4","O.jpg","P.jpg","0","1","0","",""
"","feedback","","html-keyboard-response","370","628666","0.0-1.0-501.0-0.0","0","0","62393","","null","","","null","55","","","","","","","","","","","","","","","",""
"","time_out","","html-keyboard-response","371","630669","0.0-1.0-503.0-0.0","0","0","62393","","null","","","null","55","","","","","","","","","","","","","","","",""
"","ITI","","html-keyboard-response","372","631670","0.0-1.0-504.0","0","0","62393","","null","","","null","55","","","","","","","","","","","","","","","NaN",""
"","S1","","html-keyboard-response","373","631922","0.0-1.0-506.0","0","0","62393","","null","","","null","56","","","","","","","","","","","","","","","",""
"","ISI","","html-keyboard-response","374","632075","0.0-1.0-507.0","0","0","62393","","null","","","null","56","NaN","","","","","","","","","","","","","","",""
"","S2","","html-keyboard-response","375","632327","0.0-1.0-508.0","0","0","62393","","null","","","null","56","","NaN","","","","","","","","","","","","","",""
"","response","","html-keyboard-response","376","632573","0.0-1.0-509.0-0.0","0","0","62393","","244","","","75","56","","","2","56","training","adjacent","EF","5","6","Q.jpg","R.jpg","1","1","1","",""
"","feedback","","html-keyboard-response","377","633575","0.0-1.0-510.0-0.0","0","0","62393","","null","","","null","56","","","","","","","","","","","","","","","",""
"","ITI","","html-keyboard-response","378","634578","0.0-1.0-513.0","0","0","62393","","null","","","null","56","","","","","","","","","","","","","","","NaN",""
"","S1","","html-keyboard-response","379","634831","0.0-1.0-515.0","0","0","62393","","null","","","null","57","","","","","","","","","","","","","","","",""
"","ISI","","html-keyboard-response","380","634982","0.0-1.0-516.0","0","0","62393","","null","","","null","57","NaN","","","","","","","","","","","","","","",""
"","S2","","html-keyboard-response","381","635235","0.0-1.0-517.0","0","0","62393","","null","","","null","57","","NaN","","","","","","","","","","","","","",""
"","response","","html-keyboard-response","382","636123","0.0-1.0-518.0-0.0","0","0","62393","","887","","","68","57","","","2","57","training","adjacent","FE","6","5","R.jpg","Q.jpg","0","0","1","",""
"","feedback","","html-keyboard-response","383","637126","0.0-1.0-519.0-0.0","0","0","62393","","null","","","null","57","","","","","","","","","","","","","","","",""
"","ITI","","html-keyboard-response","384","638130","0.0-1.0-522.0","0","0","62393","","null","","","null","57","","","","","","","","","","","","","","","NaN",""
"","S1","","html-keyboard-response","385","638382","0.0-1.0-524.0","0","0","62393","","null","","","null","58","","","","","","","","","","","","","","","",""
"","ISI","","html-keyboard-response","386","638535","0.0-1.0-525.0","0","0","62393","","null","","","null","58","NaN","","","","","","","","","","","","","","",""
"","S2","","html-keyboard-response","387","638789","0.0-1.0-526.0","0","0","62393","","null","","","null","58","","NaN","","","","","","","","","","","","","",""
"","response","","html-keyboard-response","388","639312","0.0-1.0-527.0-0.0","0","0","62393","","522","","","68","58","","","2","58","training","adjacent","DE","4","5","P.jpg","Q.jpg","0","1","0","",""
"","feedback","","html-keyboard-response","389","640315","0.0-1.0-528.0-0.0","0","0","62393","","null","","","null","58","","","","","","","","","","","","","","","",""
"","time_out","","html-keyboard-response","390","642318","0.0-1.0-530.0-0.0","0","0","62393","","null","","","null","58","","","","","","","","","","","","","","","",""
"","ITI","","html-keyboard-response","391","643320","0.0-1.0-531.0","0","0","62393","","null","","","null","58","","","","","","","","","","","","","","","NaN",""
"","S1","","html-keyboard-response","392","643572","0.0-1.0-533.0","0","0","62393","","null","","","null","59","","","","","","","","","","","","","","","",""
"","ISI","","html-keyboard-response","393","643725","0.0-1.0-534.0","0","0","62393","","null","","","null","59","NaN","","","","","","","","","","","","","","",""
"","S2","","html-keyboard-response","394","643984","0.0-1.0-535.0","0","0","62393","","null","","","null","59","","NaN","","","","","","","","","","","","","",""
"","response","","html-keyboard-response","395","644389","0.0-1.0-536.0-0.0","0","0","62393","","404","","","68","59","","","2","59","training","adjacent","DC","4","3","P.jpg","O.jpg","0","0","1","",""
"","feedback","","html-keyboard-response","396","645391","0.0-1.0-537.0-0.0","0","0","62393","","null","","","null","59","","","","","","","","","","","","","","","",""
"","ITI","","html-keyboard-response","397","646394","0.0-1.0-540.0","0","0","62393","","null","","","null","59","","","","","","","","","","","","","","","NaN",""
"","S1","","html-keyboard-response","398","646646","0.0-1.0-542.0","0","0","62393","","null","","","null","60","","","","","","","","","","","","","","","",""
"","ISI","","html-keyboard-response","399","646799","0.0-1.0-543.0","0","0","62393","","null","","","null","60","NaN","","","","","","","","","","","","","","",""
"","S2","","html-keyboard-response","400","647052","0.0-1.0-544.0","0","0","62393","","null","","","null","60","","NaN","","","","","","","","","","","","","",""
"","response","","html-keyboard-response","401","647641","0.0-1.0-545.0-0.0","0","0","62393","","588","","","75","60","","","2","60","training","adjacent","CB","3","2","O.jpg","N.jpg","1","0","0","",""
"","feedback","","html-keyboard-response","402","648644","0.0-1.0-546.0-0.0","0","0","62393","","null","","","null","60","","","","","","","","","","","","","","","",""
"","time_out","","html-keyboard-response","403","650647","0.0-1.0-548.0-0.0","0","0","62393","","null","","","null","60","","","","","","","","","","","","","","","",""
"","ITI","","html-keyboard-response","404","651649","0.0-1.0-549.0","0","0","62393","","null","","","null","60","","","","","","","","","","","","","","","NaN",""
"","S1","","html-keyboard-response","405","651901","0.0-1.0-551.0","0","0","62393","","null","","","null","61","","","","","","","","","","","","","","","",""
"","ISI","","html-keyboard-response","406","652053","0.0-1.0-552.0","0","0","62393","","null","","","null","61","NaN","","","","","","","","","","","","","","",""
"","S2","","html-keyboard-response","407","652306","0.0-1.0-553.0","0","0","62393","","null","","","null","61","","NaN","","","","","","","","","","","","","",""
"","response","","html-keyboard-response","408","652612","0.0-1.0-554.0-0.0","0","0","62393","","305","","","75","61","","","2","61","training","adjacent","ED","5","4","Q.jpg","P.jpg","1","0","0","",""
"","feedback","","html-keyboard-response","409","653615","0.0-1.0-555.0-0.0","0","0","62393","","null","","","null","61","","","","","","","","","","","","","","","",""
"","time_out","","html-keyboard-response","410","655616","0.0-1.0-557.0-0.0","0","0","62393","","null","","","null","61","","","","","","","","","","","","","","","",""
"","ITI","","html-keyboard-response","411","656618","0.0-1.0-558.0","0","0","62393","","null","","","null","61","","","","","","","","","","","","","","","NaN",""
"","S1","","html-keyboard-response","412","656870","0.0-1.0-560.0","0","0","62393","","null","","","null","62","","","","","","","","","","","","","","","",""
"","ISI","","html-keyboard-response","413","657023","0.0-1.0-561.0","0","0","62393","","null","","","null","62","NaN","","","","","","","","","","","","","","",""
"","S2","","html-keyboard-response","414","657275","0.0-1.0-562.0","0","0","62393","","null","","","null","62","","NaN","","","","","","","","","","","","","",""
"","response","","html-keyboard-response","415","657872","0.0-1.0-563.0-0.0","0","0","62393","","595","","","75","62","","","2","62","training","adjacent","CD","3","4","O.jpg","P.jpg","1","1","1","",""
"","feedback","","html-keyboard-response","416","658875","0.0-1.0-564.0-0.0","0","0","62393","","null","","","null","62","","","","","","","","","","","","","","","",""
"","ITI","","html-keyboard-response","417","659878","0.0-1.0-567.0","0","0","62393","","null","","","null","62","","","","","","","","","","","","","","","NaN",""
"","S1","","html-keyboard-response","418","660130","0.0-1.0-569.0","0","0","62393","","null","","","null","63","","","","","","","","","","","","","","","",""
"","ISI","","html-keyboard-response","419","660282","0.0-1.0-570.0","0","0","62393","","null","","","null","63","NaN","","","","","","","","","","","","","","",""
"","S2","","html-keyboard-response","420","660535","0.0-1.0-571.0","0","0","62393","","null","","","null","63","","NaN","","","","","","","","","","","","","",""
"","response","","html-keyboard-response","421","661151","0.0-1.0-572.0-0.0","0","0","62393","","614","","","75","63","","","2","63","training","adjacent","FG","6","7","R.jpg","M.jpg","1","1","1","",""
"","feedback","","html-keyboard-response","422","662154","0.0-1.0-573.0-0.0","0","0","62393","","null","","","null","63","","","","","","","","","","","","","","","",""
"","ITI","","html-keyboard-response","423","663158","0.0-1.0-576.0","0","0","62393","","null","","","null","63","","","","","","","","","","","","","","","NaN",""
"","S1","","html-keyboard-response","424","663410","0.0-1.0-578.0","0","0","62393","","null","","","null","64","","","","","","","","","","","","","","","",""
"","ISI","","html-keyboard-response","425","663562","0.0-1.0-579.0","0","0","62393","","null","","","null","64","NaN","","","","","","","","","","","","","","",""
"","S2","","html-keyboard-response","426","663815","0.0-1.0-580.0","0","0","62393","","null","","","null","64","","NaN","","","","","","","","","","","","","",""
"","response","","html-keyboard-response","427","664599","0.0-1.0-581.0-0.0","0","0","62393","","782","","","75","64","","","2","64","training","adjacent","EF","5","6","Q.jpg","R.jpg","1","1","1","",""
"","feedback","","html-keyboard-response","428","665602","0.0-1.0-582.0-0.0","0","0","62393","","null","","","null","64","","","","","","","","","","","","","","","",""
"","ITI","","html-keyboard-response","429","666604","0.0-1.0-585.0","0","0","62393","","null","","","null","64","","","","","","","","","","","","","","","NaN",""
"","S1","","html-keyboard-response","430","666856","0.0-1.0-587.0","0","0","62393","","null","","","null","65","","","","","","","","","","","","","","","",""
"","ISI","","html-keyboard-response","431","667008","0.0-1.0-588.0","0","0","62393","","null","","","null","65","NaN","","","","","","","","","","","","","","",""
"","S2","","html-keyboard-response","432","667261","0.0-1.0-589.0","0","0","62393","","null","","","null","65","","NaN","","","","","","","","","","","","","",""
"","response","","html-keyboard-response","433","667844","0.0-1.0-590.0-0.0","0","0","62393","","583","","","75","65","","","2","65","training","adjacent","DC","4","3","P.jpg","O.jpg","1","0","0","",""
"","feedback","","html-keyboard-response","434","668847","0.0-1.0-591.0-0.0","0","0","62393","","null","","","null","65","","","","","","","","","","","","","","","",""
"","time_out","","html-keyboard-response","435","670849","0.0-1.0-593.0-0.0","0","0","62393","","null","","","null","65","","","","","","","","","","","","","","","",""
"","ITI","","html-keyboard-response","436","671851","0.0-1.0-594.0","0","0","62393","","null","","","null","65","","","","","","","","","","","","","","","NaN",""
"","S1","","html-keyboard-response","437","672103","0.0-1.0-596.0","0","0","62393","","null","","","null","66","","","","","","","","","","","","","","","",""
"","ISI","","html-keyboard-response","438","672255","0.0-1.0-597.0","0","0","62393","","null","","","null","66","NaN","","","","","","","","","","","","","","",""
"","S2","","html-keyboard-response","439","672508","0.0-1.0-598.0","0","0","62393","","null","","","null","66","","NaN","","","","","","","","","","","","","",""
"","response","","html-keyboard-response","440","672816","0.0-1.0-599.0-0.0","0","0","62393","","307","","","68","66","","","2","66","training","adjacent","BC","2","3","N.jpg","O.jpg","0","1","0","",""
"","feedback","","html-keyboard-response","441","673820","0.0-1.0-600.0-0.0","0","0","62393","","null","","","null","66","","","","","","","","","","","","","","","",""
"","time_out","","html-keyboard-response","442","675823","0.0-1.0-602.0-0.0","0","0","62393","","null","","","null","66","","","","","","","","","","","","","","","",""
"","ITI","","html-keyboard-response","443","676833","0.0-1.0-603.0","0","0","62393","","null","","","null","66","","","","","","","","","","","","","","","NaN",""
"","S1","","html-keyboard-response","444","677087","0.0-1.0-605.0","0","0","62393","","null","","","null","67","","","","","","","","","","","","","","","",""
"","ISI","","html-keyboard-response","445","677240","0.0-1.0-606.0","0","0","62393","","null","","","null","67","NaN","","","","","","","","","","","","","","",""
"","S2","","html-keyboard-response","446","677359","0.0-1.0-607.0","0","0","62393","","117","","","75","67","","k","2","67","training","adjacent","AB","1","2","L.jpg","N.jpg","1","1","1","",""
"","feedback","","html-keyboard-response","447","678362","0.0-1.0-609.0-0.0","0","0","62393","","null","","","null","67","","","","","","","","","","","","","","","",""
"","ITI","","html-keyboard-response","448","679364","0.0-1.0-612.0","0","0","62393","","null","","","null","67","","","","","","","","","","","","","","","NaN",""
"","S1","","html-keyboard-response","449","679616","0.0-1.0-614.0","0","0","62393","","null","","","null","68","","","","","","","","","","","","","","","",""
"","ISI","","html-keyboard-response","450","679769","0.0-1.0-615.0","0","0","62393","","null","","","null","68","NaN","","","","","","","","","","","","","","",""
"","S2","","html-keyboard-response","451","680021","0.0-1.0-616.0","0","0","62393","","null","","","null","68","","NaN","","","","","","","","","","","","","",""
"","response","","html-keyboard-response","452","680120","0.0-1.0-617.0-0.0","0","0","62393","","97","","","68","68","","","2","68","training","adjacent","GF","7","6","M.jpg","R.jpg","0","0","1","",""
"","feedback","","html-keyboard-response","453","681122","0.0-1.0-618.0-0.0","0","0","62393","","null","","","null","68","","","","","","","","","","","","","","","",""
"","ITI","","html-keyboard-response","454","682124","0.0-1.0-621.0","0","0","62393","","null","","","null","68","","","","","","","","","","","","","","","NaN",""
"","S1","","html-keyboard-response","455","682376","0.0-1.0-623.0","0","0","62393","","null","","","null","69","","","","","","","","","","","","","","","",""
"","ISI","","html-keyboard-response","456","682529","0.0-1.0-624.0","0","0","62393","","null","","","null","69","NaN","","","","","","","","","","","","","","",""
"","S2","","html-keyboard-response","457","682782","0.0-1.0-625.0","0","0","62393","","null","","","null","69","","NaN","","","","","","","","","","","","","",""
"","response","","html-keyboard-response","458","683216","0.0-1.0-626.0-0.0","0","0","62393","","432","","","75","69","","","2","69","training","adjacent","DE","4","5","P.jpg","Q.jpg","1","1","1","",""
"","feedback","","html-keyboard-response","459","684218","0.0-1.0-627.0-0.0","0","0","62393","","null","","","null","69","","","","","","","","","","","","","","","",""
"","ITI","","html-keyboard-response","460","685221","0.0-1.0-630.0","0","0","62393","","null","","","null","69","","","","","","","","","","","","","","","NaN",""
"","S1","","html-keyboard-response","461","685474","0.0-1.0-632.0","0","0","62393","","null","","","null","70","","","","","","","","","","","","","","","",""
"","ISI","","html-keyboard-response","462","685625","0.0-1.0-633.0","0","0","62393","","null","","","null","70","NaN","","","","","","","","","","","","","","",""
"","S2","","html-keyboard-response","463","685878","0.0-1.0-634.0","0","0","62393","","null","","","null","70","","NaN","","","","","","","","","","","","","",""
"","response","","html-keyboard-response","464","686233","0.0-1.0-635.0-0.0","0","0","62393","","353","","","68","70","","","2","70","training","adjacent","ED","5","4","Q.jpg","P.jpg","0","0","1","",""
"","feedback","","html-keyboard-response","465","687236","0.0-1.0-636.0-0.0","0","0","62393","","null","","","null","70","","","","","","","","","","","","","","","",""
"","ITI","","html-keyboard-response","466","688239","0.0-1.0-639.0","0","0","62393","","null","","","null","70","","","","","","","","","","","","","","","NaN",""
"","S1","","html-keyboard-response","467","688492","0.0-1.0-641.0","0","0","62393","","null","","","null","71","","","","","","","","","","","","","","","",""
"","ISI","","html-keyboard-response","468","688645","0.0-1.0-642.0","0","0","62393","","null","","","null","71","NaN","","","","","","","","","","","","","","",""
"","S2","","html-keyboard-response","469","688898","0.0-1.0-643.0","0","0","62393","","null","","","null","71","","NaN","","","","","","","","","","","","","",""
"","response","","html-keyboard-response","470","689054","0.0-1.0-644.0-0.0","0","0","62393","","155","","","75","71","","","2","71","training","adjacent","FE","6","5","R.jpg","Q.jpg","1","0","0","",""
"","feedback","","html-keyboard-response","471","690057","0.0-1.0-645.0-0.0","0","0","62393","","null","","","null","71","","","","","","","","","","","","","","","",""
"","time_out","","html-keyboard-response","472","692059","0.0-1.0-647.0-0.0","0","0","62393","","null","","","null","71","","","","","","","","","","","","","","","",""
"","ITI","","html-keyboard-response","473","693061","0.0-1.0-648.0","0","0","62393","","null","","","null","71","","","","","","","","","","","","","","","NaN",""
"","S1","","html-keyboard-response","474","693314","0.0-1.0-650.0","0","0","62393","","null","","","null","72","","","","","","","","","","","","","","","",""
"","ISI","","html-keyboard-response","475","693480","0.0-1.0-651.0","0","0","62393","","null","","","null","72","NaN","","","","","","","","","","","","","","",""
"","S2","","html-keyboard-response","476","693734","0.0-1.0-652.0","0","0","62393","","null","","","null","72","","NaN","","","","","","","","","","","","","",""
"","response","","html-keyboard-response","477","694014","0.0-1.0-653.0-0.0","0","0","62393","","280","","","75","72","","","2","72","training","adjacent","BC","2","3","N.jpg","O.jpg","1","1","1","",""
"","feedback","","html-keyboard-response","478","695017","0.0-1.0-654.0-0.0","0","0","62393","","null","","","null","72","","","","","","","","","","","","","","","",""
"","ITI","","html-keyboard-response","479","696019","0.0-1.0-657.0","0","0","62393","","null","","","null","72","","","","","","","","","","","","","","","NaN",""
"","S1","","html-keyboard-response","480","696272","0.0-1.0-659.0","0","0","62393","","null","","","null","73","","","","","","","","","","","","","","","",""
"","ISI","","html-keyboard-response","481","696425","0.0-1.0-660.0","0","0","62393","","null","","","null","73","NaN","","","","","","","","","","","","","","",""
"","S2","","html-keyboard-response","482","696678","0.0-1.0-661.0","0","0","62393","","null","","","null","73","","NaN","","","","","","","","","","","","","",""
"","response","","html-keyboard-response","483","696984","0.0-1.0-662.0-0.0","0","0","62393","","305","","","68","73","","","2","73","training","adjacent","BA","2","1","N.jpg","L.jpg","0","0","1","",""
"","feedback","","html-keyboard-response","484","697986","0.0-1.0-663.0-0.0","0","0","62393","","null","","","null","73","","","","","","","","","","","","","","","",""
"","ITI","","html-keyboard-response","485","698989","0.0-1.0-666.0","0","0","62393","","null","","","null","73","","","","","","","","","","","","","","","NaN",""
"","S1","","html-keyboard-response","486","699242","0.0-1.0-668.0","0","0","62393","","null","","","null","74","","","","","","","","","","","","","","","",""
"","ISI","","html-keyboard-response","487","699394","0.0-1.0-669.0","0","0","62393","","null","","","null","74","NaN","","","","","","","","","","","","","","",""
"","S2","","html-keyboard-response","488","699647","0.0-1.0-670.0","0","0","62393","","null","","","null","74","","NaN","","","","","","","","","","","","","",""
"","response","","html-keyboard-response","489","699674","0.0-1.0-671.0-0.0","0","0","62393","","26","","","75","74","","","2","74","training","adjacent","GF","7","6","M.jpg","R.jpg","1","0","0","",""
"","feedback","","html-keyboard-response","490","700676","0.0-1.0-672.0-0.0","0","0","62393","","null","","","null","74","","","","","","","","","","","","","","","",""
"","time_out","","html-keyboard-response","491","702679","0.0-1.0-674.0-0.0","0","0","62393","","null","","","null","74","","","","","","","","","","","","","","","",""
"","ITI","","html-keyboard-response","492","703680","0.0-1.0-675.0","0","0","62393","","null","","","null","74","","","","","","","","","","","","","","","NaN",""
"","S1","","html-keyboard-response","493","703933","0.0-1.0-677.0","0","0","62393","","null","","","null","75","","","","","","","","","","","","","","","",""
"","ISI","","html-keyboard-response","494","704085","0.0-1.0-678.0","0","0","62393","","null","","","null","75","NaN","","","","","","","","","","","","","","",""
"","S2","","html-keyboard-response","495","704338","0.0-1.0-679.0","0","0","62393","","null","","","null","75","","NaN","","","","","","","","","","","","","",""
"","response","","html-keyboard-response","496","704503","0.0-1.0-680.0-0.0","0","0","62393","","164","","","75","75","","","2","75","training","adjacent","CB","3","2","O.jpg","N.jpg","1","0","0","",""
"","feedback","","html-keyboard-response","497","705506","0.0-1.0-681.0-0.0","0","0","62393","","null","","","null","75","","","","","","","","","","","","","","","",""
"","time_out","","html-keyboard-response","498","707508","0.0-1.0-683.0-0.0","0","0","62393","","null","","","null","75","","","","","","","","","","","","","","","",""
"","ITI","","html-keyboard-response","499","708511","0.0-1.0-684.0","0","0","62393","","null","","","null","75","","","","","","","","","","","","","","","NaN",""
"","S1","","html-keyboard-response","500","708764","0.0-1.0-686.0","0","0","62393","","null","","","null","76","","","","","","","","","","","","","","","",""
"","ISI","","html-keyboard-response","501","708916","0.0-1.0-687.0","0","0","62393","","null","","","null","76","NaN","","","","","","","","","","","","","","",""
"","S2","","html-keyboard-response","502","709168","0.0-1.0-688.0","0","0","62393","","null","","","null","76","","NaN","","","","","","","","","","","","","",""
"","response","","html-keyboard-response","503","709295","0.0-1.0-689.0-0.0","0","0","62393","","126","","","68","76","","","2","76","training","adjacent","FG","6","7","R.jpg","M.jpg","0","1","0","",""
"","feedback","","html-keyboard-response","504","710298","0.0-1.0-690.0-0.0","0","0","62393","","null","","","null","76","","","","","","","","","","","","","","","",""
"","time_out","","html-keyboard-response","505","712300","0.0-1.0-692.0-0.0","0","0","62393","","null","","","null","76","","","","","","","","","","","","","","","",""
"","ITI","","html-keyboard-response","506","713303","0.0-1.0-693.0","0","0","62393","","null","","","null","76","","","","","","","","","","","","","","","NaN",""
"","S1","","html-keyboard-response","507","713556","0.0-1.0-695.0","0","0","62393","","null","","","null","77","","","","","","","","","","","","","","","",""
"","ISI","","html-keyboard-response","508","713708","0.0-1.0-696.0","0","0","62393","","null","","","null","77","NaN","","","","","","","","","","","","","","",""
"","S2","","html-keyboard-response","509","713961","0.0-1.0-697.0","0","0","62393","","null","","","null","77","","NaN","","","","","","","","","","","","","",""
"","response","","html-keyboard-response","510","714421","0.0-1.0-698.0-0.0","0","0","62393","","459","","","68","77","","","2","77","training","adjacent","FG","6","7","R.jpg","M.jpg","0","1","0","",""
"","feedback","","html-keyboard-response","511","715424","0.0-1.0-699.0-0.0","0","0","62393","","null","","","null","77","","","","","","","","","","","","","","","",""
"","time_out","","html-keyboard-response","512","717426","0.0-1.0-701.0-0.0","0","0","62393","","null","","","null","77","","","","","","","","","","","","","","","",""
"","ITI","","html-keyboard-response","513","718429","0.0-1.0-702.0","0","0","62393","","null","","","null","77","","","","","","","","","","","","","","","NaN",""
"","S1","","html-keyboard-response","514","718682","0.0-1.0-704.0","0","0","62393","","null","","","null","78","","","","","","","","","","","","","","","",""
"","ISI","","html-keyboard-response","515","718834","0.0-1.0-705.0","0","0","62393","","null","","","null","78","NaN","","","","","","","","","","","","","","",""
"","S2","","html-keyboard-response","516","719088","0.0-1.0-706.0","0","0","62393","","null","","","null","78","","NaN","","","","","","","","","","","","","",""
"","response","","html-keyboard-response","517","719414","0.0-1.0-707.0-0.0","0","0","62393","","325","","","75","78","","","2","78","training","adjacent","CB","3","2","O.jpg","N.jpg","1","0","0","",""
"","feedback","","html-keyboard-response","518","720417","0.0-1.0-708.0-0.0","0","0","62393","","null","","","null","78","","","","","","","","","","","","","","","",""
"","time_out","","html-keyboard-response","519","722419","0.0-1.0-710.0-0.0","0","0","62393","","null","","","null","78","","","","","","","","","","","","","","","",""
"","ITI","","html-keyboard-response","520","723422","0.0-1.0-711.0","0","0","62393","","null","","","null","78","","","","","","","","","","","","","","","NaN",""
"","S1","","html-keyboard-response","521","723673","0.0-1.0-713.0","0","0","62393","","null","","","null","79","","","","","","","","","","","","","","","",""
"","ISI","","html-keyboard-response","522","723826","0.0-1.0-714.0","0","0","62393","","null","","","null","79","NaN","","","","","","","","","","","","","","",""
"","S2","","html-keyboard-response","523","724078","0.0-1.0-715.0","0","0","62393","","null","","","null","79","","NaN","","","","","","","","","","","","","",""
"","response","","html-keyboard-response","524","724444","0.0-1.0-716.0-0.0","0","0","62393","","363","","","75","79","","","2","79","training","adjacent","FG","6","7","R.jpg","M.jpg","1","1","1","",""
"","feedback","","html-keyboard-response","525","725451","0.0-1.0-717.0-0.0","0","0","62393","","null","","","null","79","","","","","","","","","","","","","","","",""
"","ITI","","html-keyboard-response","526","726454","0.0-1.0-720.0","0","0","62393","","null","","","null","79","","","","","","","","","","","","","","","NaN",""
"","S1","","html-keyboard-response","527","726708","0.0-1.0-722.0","0","0","62393","","null","","","null","80","","","","","","","","","","","","","","","",""
"","ISI","","html-keyboard-response","528","726860","0.0-1.0-723.0","0","0","62393","","null","","","null","80","NaN","","","","","","","","","","","","","","",""
"","S2","","html-keyboard-response","529","727112","0.0-1.0-724.0","0","0","62393","","null","","","null","80","","NaN","","","","","","","","","","","","","",""
"","response","","html-keyboard-response","530","727626","0.0-1.0-725.0-0.0","0","0","62393","","513","","","68","80","","","2","80","training","adjacent","CB","3","2","O.jpg","N.jpg","0","0","1","",""
"","feedback","","html-keyboard-response","531","728629","0.0-1.0-726.0-0.0","0","0","62393","","null","","","null","80","","","","","","","","","","","","","","","",""
"","ITI","","html-keyboard-response","532","729631","0.0-1.0-729.0","0","0","62393","","null","","","null","80","","","","","","","","","","","","","","","NaN",""
"","S1","","html-keyboard-response","533","729883","0.0-1.0-731.0","0","0","62393","","null","","","null","81","","","","","","","","","","","","","","","",""
"","ISI","","html-keyboard-response","534","730036","0.0-1.0-732.0","0","0","62393","","null","","","null","81","NaN","","","","","","","","","","","","","","",""
"","S2","","html-keyboard-response","535","730288","0.0-1.0-733.0","0","0","62393","","null","","","null","81","","NaN","","","","","","","","","","","","","",""
"","response","","html-keyboard-response","536","730938","0.0-1.0-734.0-0.0","0","0","62393","","649","","","75","81","","","2","81","training","adjacent","BC","2","3","N.jpg","O.jpg","1","1","1","",""
"","feedback","","html-keyboard-response","537","731941","0.0-1.0-735.0-0.0","0","0","62393","","null","","","null","81","","","","","","","","","","","","","","","",""
"","ITI","","html-keyboard-response","538","732943","0.0-1.0-738.0","0","0","62393","","null","","","null","81","","","","","","","","","","","","","","","NaN",""
"","S1","","html-keyboard-response","539","733195","0.0-1.0-740.0","0","0","62393","","null","","","null","82","","","","","","","","","","","","","","","",""
"","ISI","","html-keyboard-response","540","733348","0.0-1.0-741.0","0","0","62393","","null","","","null","82","NaN","","","","","","","","","","","","","","",""
"","S2","","html-keyboard-response","541","733601","0.0-1.0-742.0","0","0","62393","","null","","","null","82","","NaN","","","","","","","","","","","","","",""
"","response","","html-keyboard-response","542","734217","0.0-1.0-743.0-0.0","0","0","62393","","615","","","75","82","","","2","82","training","adjacent","CD","3","4","O.jpg","P.jpg","1","1","1","",""
"","feedback","","html-keyboard-response","543","735219","0.0-1.0-744.0-0.0","0","0","62393","","null","","","null","82","","","","","","","","","","","","","","","",""
"","ITI","","html-keyboard-response","544","736221","0.0-1.0-747.0","0","0","62393","","null","","","null","82","","","","","","","","","","","","","","","NaN",""
"","S1","","html-keyboard-response","545","736474","0.0-1.0-749.0","0","0","62393","","null","","","null","83","","","","","","","","","","","","","","","",""
"","ISI","","html-keyboard-response","546","736628","0.0-1.0-750.0","0","0","62393","","null","","","null","83","NaN","","","","","","","","","","","","","","",""
"","S2","","html-keyboard-response","547","736881","0.0-1.0-751.0","0","0","62393","","null","","","null","83","","NaN","","","","","","","","","","","","","",""
"","response","","html-keyboard-response","548","737356","0.0-1.0-752.0-0.0","0","0","62393","","473","","","68","83","","","2","83","training","adjacent","GF","7","6","M.jpg","R.jpg","0","0","1","",""
"","feedback","","html-keyboard-response","549","738360","0.0-1.0-753.0-0.0","0","0","62393","","null","","","null","83","","","","","","","","","","","","","","","",""
"","ITI","","html-keyboard-response","550","739362","0.0-1.0-756.0","0","0","62393","","null","","","null","83","","","","","","","","","","","","","","","NaN",""
"","S1","","html-keyboard-response","551","739614","0.0-1.0-758.0","0","0","62393","","null","","","null","84","","","","","","","","","","","","","","","",""
"","ISI","","html-keyboard-response","552","739767","0.0-1.0-759.0","0","0","62393","","null","","","null","84","NaN","","","","","","","","","","","","","","",""
"","S2","","html-keyboard-response","553","740019","0.0-1.0-760.0","0","0","62393","","null","","","null","84","","NaN","","","","","","","","","","","","","",""
"","response","","html-keyboard-response","554","740422","0.0-1.0-761.0-0.0","0","0","62393","","401","","","75","84","","","2","84","training","adjacent","DC","4","3","P.jpg","O.jpg","1","0","0","",""
"","feedback","","html-keyboard-response","555","741425","0.0-1.0-762.0-0.0","0","0","62393","","null","","","null","84","","","","","","","","","","","","","","","",""
"","time_out","","html-keyboard-response","556","743427","0.0-1.0-764.0-0.0","0","0","62393","","null","","","null","84","","","","","","","","","","","","","","","",""
"","ITI","","html-keyboard-response","557","744430","0.0-1.0-765.0","0","0","62393","","null","","","null","84","","","","","","","","","","","","","","","NaN",""
"","S1","","html-keyboard-response","558","744682","0.0-1.0-767.0","0","0","62393","","null","","","null","85","","","","","","","","","","","","","","","",""
"","ISI","","html-keyboard-response","559","744834","0.0-1.0-768.0","0","0","62393","","null","","","null","85","NaN","","","","","","","","","","","","","","",""
"","S2","","html-keyboard-response","560","745087","0.0-1.0-769.0","0","0","62393","","null","","","null","85","","NaN","","","","","","","","","","","","","",""
"","response","","html-keyboard-response","561","745132","0.0-1.0-770.0-0.0","0","0","62393","","43","","","75","85","","","2","85","training","adjacent","AB","1","2","L.jpg","N.jpg","1","1","1","",""
"","feedback","","html-keyboard-response","562","746135","0.0-1.0-771.0-0.0","0","0","62393","","null","","","null","85","","","","","","","","","","","","","","","",""
"","ITI","","html-keyboard-response","563","747138","0.0-1.0-774.0","0","0","62393","","null","","","null","85","","","","","","","","","","","","","","","NaN",""
"","S1","","html-keyboard-response","564","747391","0.0-1.0-776.0","0","0","62393","","null","","","null","86","","","","","","","","","","","","","","","",""
"","ISI","","html-keyboard-response","565","747543","0.0-1.0-777.0","0","0","62393","","null","","","null","86","NaN","","","","","","","","","","","","","","",""
"","S2","","html-keyboard-response","566","747804","0.0-1.0-778.0","0","0","62393","","null","","","null","86","","NaN","","","","","","","","","","","","","",""
"","response","","html-keyboard-response","567","748013","0.0-1.0-779.0-0.0","0","0","62393","","207","","","68","86","","","2","86","training","adjacent","DE","4","5","P.jpg","Q.jpg","0","1","0","",""
"","feedback","","html-keyboard-response","568","749016","0.0-1.0-780.0-0.0","0","0","62393","","null","","","null","86","","","","","","","","","","","","","","","",""
"","time_out","","html-keyboard-response","569","751018","0.0-1.0-782.0-0.0","0","0","62393","","null","","","null","86","","","","","","","","","","","","","","","",""
"","ITI","","html-keyboard-response","570","752021","0.0-1.0-783.0","0","0","62393","","null","","","null","86","","","","","","","","","","","","","","","NaN",""
"","S1","","html-keyboard-response","571","752273","0.0-1.0-785.0","0","0","62393","","null","","","null","87","","","","","","","","","","","","","","","",""
"","ISI","","html-keyboard-response","572","752425","0.0-1.0-786.0","0","0","62393","","null","","","null","87","NaN","","","","","","","","","","","","","","",""
"","S2","","html-keyboard-response","573","752678","0.0-1.0-787.0","0","0","62393","","null","","","null","87","","NaN","","","","","","","","","","","","","",""
"","response","","html-keyboard-response","574","753276","0.0-1.0-788.0-0.0","0","0","62393","","597","","","75","87","","","2","87","training","adjacent","EF","5","6","Q.jpg","R.jpg","1","1","1","",""
"","feedback","","html-keyboard-response","575","754278","0.0-1.0-789.0-0.0","0","0","62393","","null","","","null","87","","","","","","","","","","","","","","","",""
"","ITI","","html-keyboard-response","576","755280","0.0-1.0-792.0","0","0","62393","","null","","","null","87","","","","","","","","","","","","","","","NaN",""
"","S1","","html-keyboard-response","577","755533","0.0-1.0-794.0","0","0","62393","","null","","","null","88","","","","","","","","","","","","","","","",""
"","ISI","","html-keyboard-response","578","755685","0.0-1.0-795.0","0","0","62393","","null","","","null","88","NaN","","","","","","","","","","","","","","",""
"","S2","","html-keyboard-response","579","755938","0.0-1.0-796.0","0","0","62393","","null","","","null","88","","NaN","","","","","","","","","","","","","",""
"","response","","html-keyboard-response","580","756508","0.0-1.0-797.0-0.0","0","0","62393","","568","","","75","88","","","2","88","training","adjacent","CD","3","4","O.jpg","P.jpg","1","1","1","",""
