"success","ttype","start_time","trial_type","trial_index","time_elapsed","internal_node_id","warning","missed_checkup","PID","view_history","rt","responses","repeat_instructions","key_press","index","keypress_isi","keypress_S2","block","trial_num","phase","group_type","pair_type","S1_stim","S2_stim","S1_img","S2_img","S1_chosen","S1_higher","accuracy","keypress_iti","total_bonus_tally"
"true","full_screen","d04132023hr1848","fullscreen","0","11681","0.0-0.0","0","0","27170","","","","","","","","","","","","","","","","","","","","","",""
"","instructions","","instructions","1","53981","0.0-1.0-0.0-0.0","0","0","27170","[{""page_index"":0,""viewing_time"":9270},{""page_index"":1,""viewing_time"":17850},{""page_index"":2,""viewing_time"":13189},{""page_index"":3,""viewing_time"":1972}]","42285","","","","","","","","","","","","","","","","","","","",""
"","comprehension_check","","survey-multi-choice","2","71194","0.0-1.0-0.0-1.0","0","0","27170","","17184","{""Q0"":""True"",""Q1"":""D"",""Q2"":""Only when the screen 'MAKE A CHOICE' is shown"",""Q3"":""Green mark"",""Q4"":""either D or K""}","1","","","","","","","","","","","","","","","","","",""
"","missed_instruction_checkup","","html-keyboard-response","3","73030","0.0-1.0-0.0-2.0-0.0","0","1","27170","","1807","","","32","","","","","","","","","","","","","","","","",""
"","instructions","","instructions","4","84415","0.0-1.0-0.1-0.1","0","0","27170","[{""page_index"":0,""viewing_time"":3689},{""page_index"":1,""viewing_time"":5678},{""page_index"":2,""viewing_time"":1084},{""page_index"":3,""viewing_time"":921}]","11374","","","","","","","","","","","","","","","","","","","",""
"","comprehension_check","","survey-multi-choice","5","93311","0.0-1.0-0.1-1.1","0","0","27170","","8870","{""Q0"":""True"",""Q1"":""D"",""Q2"":""Once the second image appears and while the screen 'MAKE A CHOICE' is shown"",""Q3"":""Green mark"",""Q4"":""either D or K""}","0","","","","","","","","","","","","","","","","","",""
"","start_exp","","html-keyboard-response","6","94281","0.0-1.0-1.0","0","0","27170","","946","","","32","","","","","","","","","","","","","","","","",""
"","S1","","html-keyboard-response","7","94553","0.0-1.0-2.0","0","0","27170","","null","","","null","0","","","","","","","","","","","","","","","",""
"","ISI","","html-keyboard-response","8","95574","0.0-1.0-3.0","0","0","27170","","null","","","null","0","NaN","","","","","","","","","","","","","","",""
"","S2","","html-keyboard-response","9","95847","0.0-1.0-4.0","0","0","27170","","null","","","null","0","","NaN","","","","","","","","","","","","","",""
"","response","","html-keyboard-response","10","96653","0.0-1.0-5.0-0.0","0","0","27170","","792","","","75","0","","","1","0","training","adjacent","DE","4","5","N.jpg","M.jpg","0","1","0","",""
"","feedback","","html-keyboard-response","11","97671","0.0-1.0-6.0-0.0","0","0","27170","","null","","","null","0","","","","","","","","","","","","","","","",""
"","time_out","","html-keyboard-response","12","99695","0.0-1.0-8.0-0.0","0","0","27170","","null","","","null","0","","","","","","","","","","","","","","","",""
"","ITI","","html-keyboard-response","13","100710","0.0-1.0-9.0","0","0","27170","","null","","","null","0","","","","","","","","","","","","","","","NaN",""
"","S1","","html-keyboard-response","14","100985","0.0-1.0-11.0","0","0","27170","","null","","","null","1","","","","","","","","","","","","","","","",""
"","ISI","","html-keyboard-response","15","102008","0.0-1.0-12.0","0","0","27170","","null","","","null","1","NaN","","","","","","","","","","","","","","",""
"","S2","","html-keyboard-response","16","102278","0.0-1.0-13.0","0","0","27170","","null","","","null","1","","NaN","","","","","","","","","","","","","",""
"","response","","html-keyboard-response","17","103563","0.0-1.0-14.0-0.0","0","0","27170","","1273","","","75","1","","","1","1","training","adjacent","BC","2","3","O.jpg","L.jpg","0","1","0","",""
"","feedback","","html-keyboard-response","18","104584","0.0-1.0-15.0-0.0","0","0","27170","","null","","","null","1","","","","","","","","","","","","","","","",""
"","time_out","","html-keyboard-response","19","106599","0.0-1.0-17.0-0.0","0","0","27170","","null","","","null","1","","","","","","","","","","","","","","","",""
"","ITI","","html-keyboard-response","20","107613","0.0-1.0-18.0","0","0","27170","","null","","","null","1","","","","","","","","","","","","","","","NaN",""
"","S1","","html-keyboard-response","21","107881","0.0-1.0-20.0","0","0","27170","","null","","","null","2","","","","","","","","","","","","","","","",""
"","ISI","","html-keyboard-response","22","108905","0.0-1.0-21.0","0","0","27170","","null","","","null","2","NaN","","","","","","","","","","","","","","",""
"","S2","","html-keyboard-response","23","109176","0.0-1.0-22.0","0","0","27170","","null","","","null","2","","NaN","","","","","","","","","","","","","",""
"","response","","html-keyboard-response","24","109730","0.0-1.0-23.0-0.0","0","0","27170","","542","","","68","2","","","1","2","training","adjacent","FE","6","5","P.jpg","M.jpg","1","0","0","",""
"","feedback","","html-keyboard-response","25","110751","0.0-1.0-24.0-0.0","0","0","27170","","null","","","null","2","","","","","","","","","","","","","","","",""
"","time_out","","html-keyboard-response","26","112776","0.0-1.0-26.0-0.0","0","0","27170","","null","","","null","2","","","","","","","","","","","","","","","",""
"","ITI","","html-keyboard-response","27","113791","0.0-1.0-27.0","0","0","27170","","null","","","null","2","","","","","","","","","","","","","","","NaN",""
"","S1","","html-keyboard-response","28","114062","0.0-1.0-29.0","0","0","27170","","null","","","null","3","","","","","","","","","","","","","","","",""
"","ISI","","html-keyboard-response","29","115079","0.0-1.0-30.0","0","0","27170","","null","","","null","3","NaN","","","","","","","","","","","","","","",""
"","S2","","html-keyboard-response","30","115352","0.0-1.0-31.0","0","0","27170","","null","","","null","3","","NaN","","","","","","","","","","","","","",""
"","response","","html-keyboard-response","31","116272","0.0-1.0-32.0-0.0","0","0","27170","","910","","","68","3","","","1","3","training","adjacent","EF","5","6","M.jpg","P.jpg","1","1","1","",""
"","feedback","","html-keyboard-response","32","117283","0.0-1.0-33.0-0.0","0","0","27170","","null","","","null","3","","","","","","","","","","","","","","","",""
"","ITI","","html-keyboard-response","33","118303","0.0-1.0-36.0","0","0","27170","","null","","","null","3","","","","","","","","","","","","","","","NaN",""
"","S1","","html-keyboard-response","34","118569","0.0-1.0-38.0","0","0","27170","","null","","","null","4","","","","","","","","","","","","","","","",""
"","ISI","","html-keyboard-response","35","119581","0.0-1.0-39.0","0","0","27170","","null","","","null","4","NaN","","","","","","","","","","","","","","",""
"","S2","","html-keyboard-response","36","119856","0.0-1.0-40.0","0","0","27170","","null","","","null","4","","NaN","","","","","","","","","","","","","",""
"","response","","html-keyboard-response","37","120497","0.0-1.0-41.0-0.0","0","0","27170","","628","","","75","4","","","1","4","training","adjacent","AB","1","2","R.jpg","O.jpg","0","1","0","",""
"","feedback","","html-keyboard-response","38","121520","0.0-1.0-42.0-0.0","0","0","27170","","null","","","null","4","","","","","","","","","","","","","","","",""
"","time_out","","html-keyboard-response","39","123536","0.0-1.0-44.0-0.0","0","0","27170","","null","","","null","4","","","","","","","","","","","","","","","",""
"","ITI","","html-keyboard-response","40","124552","0.0-1.0-45.0","0","0","27170","","null","","","null","4","","","","","","","","","","","","","","","NaN",""
"","S1","","html-keyboard-response","41","124822","0.0-1.0-47.0","0","0","27170","","null","","","null","5","","","","","","","","","","","","","","","",""
"","ISI","","html-keyboard-response","42","125839","0.0-1.0-48.0","0","0","27170","","null","","","null","5","NaN","","","","","","","","","","","","","","",""
"","S2","","html-keyboard-response","43","126111","0.0-1.0-49.0","0","0","27170","","null","","","null","5","","NaN","","","","","","","","","","","","","",""
"","response","","html-keyboard-response","44","126574","0.0-1.0-50.0-0.0","0","0","27170","","450","","","75","5","","","1","5","training","adjacent","FE","6","5","P.jpg","M.jpg","0","0","1","",""
"","feedback","","html-keyboard-response","45","127591","0.0-1.0-51.0-0.0","0","0","27170","","null","","","null","5","","","","","","","","","","","","","","","",""
"","ITI","","html-keyboard-response","46","128607","0.0-1.0-54.0","0","0","27170","","null","","","null","5","","","","","","","","","","","","","","","NaN",""
"","S1","","html-keyboard-response","47","128876","0.0-1.0-56.0","0","0","27170","","null","","","null","6","","","","","","","","","","","","","","","",""
"","ISI","","html-keyboard-response","48","129895","0.0-1.0-57.0","0","0","27170","","null","","","null","6","NaN","","","","","","","","","","","","","","",""
"","S2","","html-keyboard-response","49","130161","0.0-1.0-58.0","0","0","27170","","null","","","null","6","","NaN","","","","","","","","","","","","","",""
"","response","","html-keyboard-response","50","130751","0.0-1.0-59.0-0.0","0","0","27170","","580","","","68","6","","","1","6","training","adjacent","FG","6","7","P.jpg","Q.jpg","1","1","1","",""
"","feedback","","html-keyboard-response","51","131766","0.0-1.0-60.0-0.0","0","0","27170","","null","","","null","6","","","","","","","","","","","","","","","",""
"","ITI","","html-keyboard-response","52","132783","0.0-1.0-63.0","0","0","27170","","null","","","null","6","","","","","","","","","","","","","","","NaN",""
"","S1","","html-keyboard-response","53","133056","0.0-1.0-65.0","0","0","27170","","null","","","null","7","","","","","","","","","","","","","","","",""
"","ISI","","html-keyboard-response","54","134071","0.0-1.0-66.0","0","0","27170","","null","","","null","7","NaN","","","","","","","","","","","","","","",""
"","S2","","html-keyboard-response","55","134344","0.0-1.0-67.0","0","0","27170","","null","","","null","7","","NaN","","","","","","","","","","","","","",""
"","response","","html-keyboard-response","56","134793","0.0-1.0-68.0-0.0","0","0","27170","","437","","","68","7","","","1","7","training","adjacent","FG","6","7","P.jpg","Q.jpg","1","1","1","",""
"","feedback","","html-keyboard-response","57","135815","0.0-1.0-69.0-0.0","0","0","27170","","null","","","null","7","","","","","","","","","","","","","","","",""
"","ITI","","html-keyboard-response","58","136840","0.0-1.0-72.0","0","0","27170","","null","","","null","7","","","","","","","","","","","","","","","NaN",""
"","S1","","html-keyboard-response","59","137110","0.0-1.0-74.0","0","0","27170","","null","","","null","8","","","","","","","","","","","","","","","",""
"","ISI","","html-keyboard-response","60","138126","0.0-1.0-75.0","0","0","27170","","null","","","null","8","NaN","","","","","","","","","","","","","","",""
"","S2","","html-keyboard-response","61","138406","0.0-1.0-76.0","0","0","27170","","null","","","null","8","","NaN","","","","","","","","","","","","","",""
"","response","","html-keyboard-response","62","139643","0.0-1.0-77.0-0.0","0","0","27170","","1227","","","75","8","","","1","8","training","adjacent","FE","6","5","P.jpg","M.jpg","0","0","1","",""
"","feedback","","html-keyboard-response","63","140663","0.0-1.0-78.0-0.0","0","0","27170","","null","","","null","8","","","","","","","","","","","","","","","",""
"","ITI","","html-keyboard-response","64","141680","0.0-1.0-81.0","0","0","27170","","null","","","null","8","","","","","","","","","","","","","","","NaN",""
"","S1","","html-keyboard-response","65","141950","0.0-1.0-83.0","0","0","27170","","null","","","null","9","","","","","","","","","","","","","","","",""
"","ISI","","html-keyboard-response","66","142968","0.0-1.0-84.0","0","0","27170","","null","","","null","9","NaN","","","","","","","","","","","","","","",""
"","S2","","html-keyboard-response","67","143238","0.0-1.0-85.0","0","0","27170","","null","","","null","9","","NaN","","","","","","","","","","","","","",""
"","response","","html-keyboard-response","68","143975","0.0-1.0-86.0-0.0","0","0","27170","","724","","","68","9","","","1","9","training","adjacent","BC","2","3","O.jpg","L.jpg","1","1","1","",""
"","feedback","","html-keyboard-response","69","144999","0.0-1.0-87.0-0.0","0","0","27170","","null","","","null","9","","","","","","","","","","","","","","","",""
"","ITI","","html-keyboard-response","70","146023","0.0-1.0-90.0","0","0","27170","","null","","","null","9","","","","","","","","","","","","","","","NaN",""
"","S1","","html-keyboard-response","71","146293","0.0-1.0-92.0","0","0","27170","","null","","","null","10","","","","","","","","","","","","","","","",""
"","ISI","","html-keyboard-response","72","147311","0.0-1.0-93.0","0","0","27170","","null","","","null","10","NaN","","","","","","","","","","","","","","",""
"","S2","","html-keyboard-response","73","147582","0.0-1.0-94.0","0","0","27170","","null","","","null","10","","NaN","","","","","","","","","","","","","",""
"","response","","html-keyboard-response","74","148442","0.0-1.0-95.0-0.0","0","0","27170","","848","","","68","10","","","1","10","training","adjacent","BA","2","1","O.jpg","R.jpg","1","0","0","",""
"","feedback","","html-keyboard-response","75","149465","0.0-1.0-96.0-0.0","0","0","27170","","null","","","null","10","","","","","","","","","","","","","","","",""
"","time_out","","html-keyboard-response","76","151487","0.0-1.0-98.0-0.0","0","0","27170","","null","","","null","10","","","","","","","","","","","","","","","",""
"","ITI","","html-keyboard-response","77","152503","0.0-1.0-99.0","0","0","27170","","null","","","null","10","","","","","","","","","","","","","","","NaN",""
"","S1","","html-keyboard-response","78","152774","0.0-1.0-101.0","0","0","27170","","null","","","null","11","","","","","","","","","","","","","","","",""
"","ISI","","html-keyboard-response","79","153792","0.0-1.0-102.0","0","0","27170","","null","","","null","11","NaN","","","","","","","","","","","","","","",""
"","S2","","html-keyboard-response","80","154062","0.0-1.0-103.0","0","0","27170","","null","","","null","11","","NaN","","","","","","","","","","","","","",""
"","response","","html-keyboard-response","81","154691","0.0-1.0-104.0-0.0","0","0","27170","","617","","","75","11","","","1","11","training","adjacent","DC","4","3","N.jpg","L.jpg","0","0","1","",""
"","feedback","","html-keyboard-response","82","155705","0.0-1.0-105.0-0.0","0","0","27170","","null","","","null","11","","","","","","","","","","","","","","","",""
"","ITI","","html-keyboard-response","83","156715","0.0-1.0-108.0","0","0","27170","","null","","","null","11","","","","","","","","","","","","","","","NaN",""
"","S1","","html-keyboard-response","84","156983","0.0-1.0-110.0","0","0","27170","","null","","","null","12","","","","","","","","","","","","","","","",""
"","ISI","","html-keyboard-response","85","157998","0.0-1.0-111.0","0","0","27170","","null","","","null","12","NaN","","","","","","","","","","","","","","",""
"","S2","","html-keyboard-response","86","158270","0.0-1.0-112.0","0","0","27170","","null","","","null","12","","NaN","","","","","","","","","","","","","",""
"","response","","html-keyboard-response","87","159028","0.0-1.0-113.0-0.0","0","0","27170","","739","","","68","12","","","1","12","training","adjacent","FE","6","5","P.jpg","M.jpg","1","0","0","",""
"","feedback","","html-keyboard-response","88","160046","0.0-1.0-114.0-0.0","0","0","27170","","null","","","null","12","","","","","","","","","","","","","","","",""
"","time_out","","html-keyboard-response","89","162061","0.0-1.0-116.0-0.0","0","0","27170","","null","","","null","12","","","","","","","","","","","","","","","",""
"","ITI","","html-keyboard-response","90","163079","0.0-1.0-117.0","0","0","27170","","null","","","null","12","","","","","","","","","","","","","","","NaN",""
"","S1","","html-keyboard-response","91","163352","0.0-1.0-119.0","0","0","27170","","null","","","null","13","","","","","","","","","","","","","","","",""
"","ISI","","html-keyboard-response","92","164367","0.0-1.0-120.0","0","0","27170","","null","","","null","13","NaN","","","","","","","","","","","","","","",""
"","S2","","html-keyboard-response","93","164641","0.0-1.0-121.0","0","0","27170","","null","","","null","13","","NaN","","","","","","","","","","","","","",""
"","response","","html-keyboard-response","94","165331","0.0-1.0-122.0-0.0","0","0","27170","","681","","","75","13","","","1","13","training","adjacent","ED","5","4","M.jpg","N.jpg","0","0","1","",""
"","feedback","","html-keyboard-response","95","166350","0.0-1.0-123.0-0.0","0","0","27170","","null","","","null","13","","","","","","","","","","","","","","","",""
"","ITI","","html-keyboard-response","96","167368","0.0-1.0-126.0","0","0","27170","","null","","","null","13","","","","","","","","","","","","","","","NaN",""
"","S1","","html-keyboard-response","97","167639","0.0-1.0-128.0","0","0","27170","","null","","","null","14","","","","","","","","","","","","","","","",""
"","ISI","","html-keyboard-response","98","168655","0.0-1.0-129.0","0","0","27170","","null","","","null","14","NaN","","","","","","","","","","","","","","",""
"","S2","","html-keyboard-response","99","168930","0.0-1.0-130.0","0","0","27170","","null","","","null","14","","NaN","","","","","","","","","","","","","",""
"","response","","html-keyboard-response","100","170391","0.0-1.0-131.0-0.0","0","0","27170","","1449","","","75","14","","","1","14","training","adjacent","CD","3","4","L.jpg","N.jpg","0","1","0","",""
"","feedback","","html-keyboard-response","101","171406","0.0-1.0-132.0-0.0","0","0","27170","","null","","","null","14","","","","","","","","","","","","","","","",""
"","time_out","","html-keyboard-response","102","173423","0.0-1.0-134.0-0.0","0","0","27170","","null","","","null","14","","","","","","","","","","","","","","","",""
"","ITI","","html-keyboard-response","103","174445","0.0-1.0-135.0","0","0","27170","","null","","","null","14","","","","","","","","","","","","","","","NaN",""
"","S1","","html-keyboard-response","104","174712","0.0-1.0-137.0","0","0","27170","","null","","","null","15","","","","","","","","","","","","","","","",""
"","ISI","","html-keyboard-response","105","175734","0.0-1.0-138.0","0","0","27170","","null","","","null","15","NaN","","","","","","","","","","","","","","",""
"","S2","","html-keyboard-response","106","176008","0.0-1.0-139.0","0","0","27170","","null","","","null","15","","NaN","","","","","","","","","","","","","",""
"","response","","html-keyboard-response","107","176922","0.0-1.0-140.0-0.0","0","0","27170","","905","","","68","15","","","1","15","training","adjacent","CB","3","2","L.jpg","O.jpg","1","0","0","",""
"","feedback","","html-keyboard-response","108","177943","0.0-1.0-141.0-0.0","0","0","27170","","null","","","null","15","","","","","","","","","","","","","","","",""
"","time_out","","html-keyboard-response","109","179968","0.0-1.0-143.0-0.0","0","0","27170","","null","","","null","15","","","","","","","","","","","","","","","",""
"","ITI","","html-keyboard-response","110","180983","0.0-1.0-144.0","0","0","27170","","null","","","null","15","","","","","","","","","","","","","","","NaN",""
"","S1","","html-keyboard-response","111","181256","0.0-1.0-146.0","0","0","27170","","null","","","null","16","","","","","","","","","","","","","","","",""
"","ISI","","html-keyboard-response","112","182270","0.0-1.0-147.0","0","0","27170","","null","","","null","16","NaN","","","","","","","","","","","","","","",""
"","S2","","html-keyboard-response","113","182544","0.0-1.0-148.0","0","0","27170","","null","","","null","16","","NaN","","","","","","","","","","","","","",""
"","response","","html-keyboard-response","114","183297","0.0-1.0-149.0-0.0","0","0","27170","","741","","","75","16","","","1","16","training","adjacent","BA","2","1","O.jpg","R.jpg","0","0","1","",""
"","feedback","","html-keyboard-response","115","184320","0.0-1.0-150.0-0.0","0","0","27170","","null","","","null","16","","","","","","","","","","","","","","","",""
"","ITI","","html-keyboard-response","116","185341","0.0-1.0-153.0","0","0","27170","","null","","","null","16","","","","","","","","","","","","","","","NaN",""
"","S1","","html-keyboard-response","117","185607","0.0-1.0-155.0","0","0","27170","","null","","","null","17","","","","","","","","","","","","","","","",""
"","ISI","","html-keyboard-response","118","186625","0.0-1.0-156.0","0","0","27170","","null","","","null","17","NaN","","","","","","","","","","","","","","",""
"","S2","","html-keyboard-response","119","186894","0.0-1.0-157.0","0","0","27170","","null","","","null","17","","NaN","","","","","","","","","","","","","",""
"","response","","html-keyboard-response","120","187563","0.0-1.0-158.0-0.0","0","0","27170","","657","","","75","17","","","1","17","training","adjacent","BC","2","3","O.jpg","L.jpg","0","1","0","",""
"","feedback","","html-keyboard-response","121","188583","0.0-1.0-159.0-0.0","0","0","27170","","null","","","null","17","","","","","","","","","","","","","","","",""
"","time_out","","html-keyboard-response","122","190596","0.0-1.0-161.0-0.0","0","0","27170","","null","","","null","17","","","","","","","","","","","","","","","",""
"","ITI","","html-keyboard-response","123","191615","0.0-1.0-162.0","0","0","27170","","null","","","null","17","","","","","","","","","","","","","","","NaN",""
"","S1","","html-keyboard-response","124","191886","0.0-1.0-164.0","0","0","27170","","null","","","null","18","","","","","","","","","","","","","","","",""
"","ISI","","html-keyboard-response","125","192906","0.0-1.0-165.0","0","0","27170","","null","","","null","18","NaN","","","","","","","","","","","","","","",""
"","S2","","html-keyboard-response","126","193173","0.0-1.0-166.0","0","0","27170","","null","","","null","18","","NaN","","","","","","","","","","","","","",""
"","response","","html-keyboard-response","127","193675","0.0-1.0-167.0-0.0","0","0","27170","","491","","","68","18","","","1","18","training","adjacent","DE","4","5","N.jpg","M.jpg","1","1","1","",""
"","feedback","","html-keyboard-response","128","194695","0.0-1.0-168.0-0.0","0","0","27170","","null","","","null","18","","","","","","","","","","","","","","","",""
"","ITI","","html-keyboard-response","129","195712","0.0-1.0-171.0","0","0","27170","","null","","","null","18","","","","","","","","","","","","","","","NaN",""
"","S1","","html-keyboard-response","130","195984","0.0-1.0-173.0","0","0","27170","","null","","","null","19","","","","","","","","","","","","","","","",""
"","ISI","","html-keyboard-response","131","196999","0.0-1.0-174.0","0","0","27170","","null","","","null","19","NaN","","","","","","","","","","","","","","",""
"","S2","","html-keyboard-response","132","197270","0.0-1.0-175.0","0","0","27170","","null","","","null","19","","NaN","","","","","","","","","","","","","",""
"","response","","html-keyboard-response","133","198223","0.0-1.0-176.0-0.0","0","0","27170","","941","","","75","19","","","1","19","training","adjacent","EF","5","6","M.jpg","P.jpg","0","1","0","",""
"","feedback","","html-keyboard-response","134","199240","0.0-1.0-177.0-0.0","0","0","27170","","null","","","null","19","","","","","","","","","","","","","","","",""
"","time_out","","html-keyboard-response","135","201261","0.0-1.0-179.0-0.0","0","0","27170","","null","","","null","19","","","","","","","","","","","","","","","",""
"","ITI","","html-keyboard-response","136","202280","0.0-1.0-180.0","0","0","27170","","null","","","null","19","","","","","","","","","","","","","","","NaN",""
"","S1","","html-keyboard-response","137","202552","0.0-1.0-182.0","0","0","27170","","null","","","null","20","","","","","","","","","","","","","","","",""
"","ISI","","html-keyboard-response","138","203568","0.0-1.0-183.0","0","0","27170","","null","","","null","20","NaN","","","","","","","","","","","","","","",""
"","S2","","html-keyboard-response","139","203838","0.0-1.0-184.0","0","0","27170","","null","","","null","20","","NaN","","","","","","","","","","","","","",""
"","response","","html-keyboard-response","140","204431","0.0-1.0-185.0-0.0","0","0","27170","","580","","","68","20","","","1","20","training","adjacent","FG","6","7","P.jpg","Q.jpg","1","1","1","",""
"","feedback","","html-keyboard-response","141","205452","0.0-1.0-186.0-0.0","0","0","27170","","null","","","null","20","","","","","","","","","","","","","","","",""
"","ITI","","html-keyboard-response","142","206470","0.0-1.0-189.0","0","0","27170","","null","","","null","20","","","","","","","","","","","","","","","NaN",""
"","S1","","html-keyboard-response","143","206742","0.0-1.0-191.0","0","0","27170","","null","","","null","21","","","","","","","","","","","","","","","",""
"","ISI","","html-keyboard-response","144","207759","0.0-1.0-192.0","0","0","27170","","null","","","null","21","NaN","","","","","","","","","","","","","","",""
"","S2","","html-keyboard-response","145","208031","0.0-1.0-193.0","0","0","27170","","null","","","null","21","","NaN","","","","","","","","","","","","","",""
"","response","","html-keyboard-response","146","208764","0.0-1.0-194.0-0.0","0","0","27170","","721","","","75","21","","","1","21","training","adjacent","CD","3","4","L.jpg","N.jpg","0","1","0","",""
"","feedback","","html-keyboard-response","147","209783","0.0-1.0-195.0-0.0","0","0","27170","","null","","","null","21","","","","","","","","","","","","","","","",""
"","time_out","","html-keyboard-response","148","211809","0.0-1.0-197.0-0.0","0","0","27170","","null","","","null","21","","","","","","","","","","","","","","","",""
"","ITI","","html-keyboard-response","149","212830","0.0-1.0-198.0","0","0","27170","","null","","","null","21","","","","","","","","","","","","","","","NaN",""
"","S1","","html-keyboard-response","150","213096","0.0-1.0-200.0","0","0","27170","","null","","","null","22","","","","","","","","","","","","","","","",""
"","ISI","","html-keyboard-response","151","214121","0.0-1.0-201.0","0","0","27170","","null","","","null","22","NaN","","","","","","","","","","","","","","",""
"","S2","","html-keyboard-response","152","214391","0.0-1.0-202.0","0","0","27170","","null","","","null","22","","NaN","","","","","","","","","","","","","",""
"","response","","html-keyboard-response","153","214922","0.0-1.0-203.0-0.0","0","0","27170","","517","","","68","22","","","1","22","training","adjacent","CD","3","4","L.jpg","N.jpg","1","1","1","",""
"","feedback","","html-keyboard-response","154","215943","0.0-1.0-204.0-0.0","0","0","27170","","null","","","null","22","","","","","","","","","","","","","","","",""
"","ITI","","html-keyboard-response","155","216960","0.0-1.0-207.0","0","0","27170","","null","","","null","22","","","","","","","","","","","","","","","NaN",""
"","S1","","html-keyboard-response","156","217232","0.0-1.0-209.0","0","0","27170","","null","","","null","23","","","","","","","","","","","","","","","",""
"","ISI","","html-keyboard-response","157","218248","0.0-1.0-210.0","0","0","27170","","null","","","null","23","NaN","","","","","","","","","","","","","","",""
"","S2","","html-keyboard-response","158","218519","0.0-1.0-211.0","0","0","27170","","null","","","null","23","","NaN","","","","","","","","","","","","","",""
"","response","","html-keyboard-response","159","220203","0.0-1.0-212.0-0.0","0","0","27170","","1672","","","75","23","","","1","23","training","adjacent","EF","5","6","M.jpg","P.jpg","0","1","0","",""
"","feedback","","html-keyboard-response","160","221224","0.0-1.0-213.0-0.0","0","0","27170","","null","","","null","23","","","","","","","","","","","","","","","",""
"","time_out","","html-keyboard-response","161","223247","0.0-1.0-215.0-0.0","0","0","27170","","null","","","null","23","","","","","","","","","","","","","","","",""
"","ITI","","html-keyboard-response","162","224263","0.0-1.0-216.0","0","0","27170","","null","","","null","23","","","","","","","","","","","","","","","NaN",""
"","S1","","html-keyboard-response","163","224535","0.0-1.0-218.0","0","0","27170","","null","","","null","24","","","","","","","","","","","","","","","",""
"","ISI","","html-keyboard-response","164","225548","0.0-1.0-219.0","0","0","27170","","null","","","null","24","NaN","","","","","","","","","","","","","","",""
"","S2","","html-keyboard-response","165","225815","0.0-1.0-220.0","0","0","27170","","null","","","null","24","","NaN","","","","","","","","","","","","","",""
"","response","","html-keyboard-response","166","226571","0.0-1.0-221.0-0.0","0","0","27170","","742","","","75","24","","","1","24","training","adjacent","EF","5","6","M.jpg","P.jpg","0","1","0","",""
"","feedback","","html-keyboard-response","167","227591","0.0-1.0-222.0-0.0","0","0","27170","","null","","","null","24","","","","","","","","","","","","","","","",""
"","time_out","","html-keyboard-response","168","229607","0.0-1.0-224.0-0.0","0","0","27170","","null","","","null","24","","","","","","","","","","","","","","","",""
"","ITI","","html-keyboard-response","169","230621","0.0-1.0-225.0","0","0","27170","","null","","","null","24","","","","","","","","","","","","","","","NaN",""
"","S1","","html-keyboard-response","170","230895","0.0-1.0-227.0","0","0","27170","","null","","","null","25","","","","","","","","","","","","","","","",""
"","ISI","","html-keyboard-response","171","231911","0.0-1.0-228.0","0","0","27170","","null","","","null","25","NaN","","","","","","","","","","","","","","",""
"","S2","","html-keyboard-response","172","232181","0.0-1.0-229.0","0","0","27170","","null","","","null","25","","NaN","","","","","","","","","","","","","",""
"","response","","html-keyboard-response","173","233136","0.0-1.0-230.0-0.0","0","0","27170","","940","","","68","25","","","1","25","training","adjacent","DC","4","3","N.jpg","L.jpg","1","0","0","",""
"","feedback","","html-keyboard-response","174","234162","0.0-1.0-231.0-0.0","0","0","27170","","null","","","null","25","","","","","","","","","","","","","","","",""
"","time_out","","html-keyboard-response","175","236181","0.0-1.0-233.0-0.0","0","0","27170","","null","","","null","25","","","","","","","","","","","","","","","",""
"","ITI","","html-keyboard-response","176","237198","0.0-1.0-234.0","0","0","27170","","null","","","null","25","","","","","","","","","","","","","","","NaN",""
"","S1","","html-keyboard-response","177","237471","0.0-1.0-236.0","0","0","27170","","null","","","null","26","","","","","","","","","","","","","","","",""
"","ISI","","html-keyboard-response","178","238488","0.0-1.0-237.0","0","0","27170","","null","","","null","26","NaN","","","","","","","","","","","","","","",""
"","S2","","html-keyboard-response","179","238760","0.0-1.0-238.0","0","0","27170","","null","","","null","26","","NaN","","","","","","","","","","","","","",""
"","response","","html-keyboard-response","180","239210","0.0-1.0-239.0-0.0","0","0","27170","","438","","","68","26","","","1","26","training","adjacent","ED","5","4","M.jpg","N.jpg","1","0","0","",""
"","feedback","","html-keyboard-response","181","240225","0.0-1.0-240.0-0.0","0","0","27170","","null","","","null","26","","","","","","","","","","","","","","","",""
"","time_out","","html-keyboard-response","182","242239","0.0-1.0-242.0-0.0","0","0","27170","","null","","","null","26","","","","","","","","","","","","","","","",""
"","ITI","","html-keyboard-response","183","243255","0.0-1.0-243.0","0","0","27170","","null","","","null","26","","","","","","","","","","","","","","","NaN",""
"","S1","","html-keyboard-response","184","243527","0.0-1.0-245.0","0","0","27170","","null","","","null","27","","","","","","","","","","","","","","","",""
"","ISI","","html-keyboard-response","185","244543","0.0-1.0-246.0","0","0","27170","","null","","","null","27","NaN","","","","","","","","","","","","","","",""
"","S2","","html-keyboard-response","186","244813","0.0-1.0-247.0","0","0","27170","","null","","","null","27","","NaN","","","","","","","","","","","","","",""
"","response","","html-keyboard-response","187","246185","0.0-1.0-248.0-0.0","0","0","27170","","1358","","","75","27","","","1","27","training","adjacent","BC","2","3","O.jpg","L.jpg","0","1","0","",""
"","feedback","","html-keyboard-response","188","247206","0.0-1.0-249.0-0.0","0","0","27170","","null","","","null","27","","","","","","","","","","","","","","","",""
"","time_out","","html-keyboard-response","189","249223","0.0-1.0-251.0-0.0","0","0","27170","","null","","","null","27","","","","","","","","","","","","","","","",""
"","ITI","","html-keyboard-response","190","250239","0.0-1.0-252.0","0","0","27170","","null","","","null","27","","","","","","","","","","","","","","","NaN",""
"","S1","","html-keyboard-response","191","250510","0.0-1.0-254.0","0","0","27170","","null","","","null","28","","","","","","","","","","","","","","","",""
"","ISI","","html-keyboard-response","192","251531","0.0-1.0-255.0","0","0","27170","","null","","","null","28","NaN","","","","","","","","","","","","","","",""
"","S2","","html-keyboard-response","193","251800","0.0-1.0-256.0","0","0","27170","","null","","","null","28","","NaN","","","","","","","","","","","","","",""
"","response","","html-keyboard-response","194","252430","0.0-1.0-257.0-0.0","0","0","27170","","618","","","68","28","","","1","28","training","adjacent","CB","3","2","L.jpg","O.jpg","1","0","0","",""
"","feedback","","html-keyboard-response","195","253445","0.0-1.0-258.0-0.0","0","0","27170","","null","","","null","28","","","","","","","","","","","","","","","",""
"","time_out","","html-keyboard-response","196","255462","0.0-1.0-260.0-0.0","0","0","27170","","null","","","null","28","","","","","","","","","","","","","","","",""
"","ITI","","html-keyboard-response","197","256479","0.0-1.0-261.0","0","0","27170","","null","","","null","28","","","","","","","","","","","","","","","NaN",""
"","S1","","html-keyboard-response","198","256751","0.0-1.0-263.0","0","0","27170","","null","","","null","29","","","","","","","","","","","","","","","",""
"","ISI","","html-keyboard-response","199","257767","0.0-1.0-264.0","0","0","27170","","null","","","null","29","NaN","","","","","","","","","","","","","","",""
"","S2","","html-keyboard-response","200","258039","0.0-1.0-265.0","0","0","27170","","null","","","null","29","","NaN","","","","","","","","","","","","","",""
"","response","","html-keyboard-response","201","258533","0.0-1.0-266.0-0.0","0","0","27170","","481","","","75","29","","","1","29","training","adjacent","CB","3","2","L.jpg","O.jpg","0","0","1","",""
"","feedback","","html-keyboard-response","202","259549","0.0-1.0-267.0-0.0","0","0","27170","","null","","","null","29","","","","","","","","","","","","","","","",""
"","ITI","","html-keyboard-response","203","260565","0.0-1.0-270.0","0","0","27170","","null","","","null","29","","","","","","","","","","","","","","","NaN",""
"","S1","","html-keyboard-response","204","260830","0.0-1.0-272.0","0","0","27170","","null","","","null","30","","","","","","","","","","","","","","","",""
"","ISI","","html-keyboard-response","205","261848","0.0-1.0-273.0","0","0","27170","","null","","","null","30","NaN","","","","","","","","","","","","","","",""
"","S2","","html-keyboard-response","206","262119","0.0-1.0-274.0","0","0","27170","","null","","","null","30","","NaN","","","","","","","","","","","","","",""
"","response","","html-keyboard-response","207","262814","0.0-1.0-275.0-0.0","0","0","27170","","683","","","68","30","","","1","30","training","adjacent","CB","3","2","L.jpg","O.jpg","1","0","0","",""
"","feedback","","html-keyboard-response","208","263830","0.0-1.0-276.0-0.0","0","0","27170","","null","","","null","30","","","","","","","","","","","","","","","",""
"","time_out","","html-keyboard-response","209","265843","0.0-1.0-278.0-0.0","0","0","27170","","null","","","null","30","","","","","","","","","","","","","","","",""
"","ITI","","html-keyboard-response","210","266857","0.0-1.0-279.0","0","0","27170","","null","","","null","30","","","","","","","","","","","","","","","NaN",""
"","S1","","html-keyboard-response","211","267123","0.0-1.0-281.0","0","0","27170","","null","","","null","31","","","","","","","","","","","","","","","",""
"","ISI","","html-keyboard-response","212","268143","0.0-1.0-282.0","0","0","27170","","null","","","null","31","NaN","","","","","","","","","","","","","","",""
"","S2","","html-keyboard-response","213","268415","0.0-1.0-283.0","0","0","27170","","null","","","null","31","","NaN","","","","","","","","","","","","","",""
"","response","","html-keyboard-response","214","268866","0.0-1.0-284.0-0.0","0","0","27170","","442","","","75","31","","","1","31","training","adjacent","CD","3","4","L.jpg","N.jpg","0","1","0","",""
"","feedback","","html-keyboard-response","215","269888","0.0-1.0-285.0-0.0","0","0","27170","","null","","","null","31","","","","","","","","","","","","","","","",""
"","time_out","","html-keyboard-response","216","271913","0.0-1.0-287.0-0.0","0","0","27170","","null","","","null","31","","","","","","","","","","","","","","","",""
"","ITI","","html-keyboard-response","217","272933","0.0-1.0-288.0","0","0","27170","","null","","","null","31","","","","","","","","","","","","","","","NaN",""
"","S1","","html-keyboard-response","218","273204","0.0-1.0-290.0","0","0","27170","","null","","","null","32","","","","","","","","","","","","","","","",""
"","ISI","","html-keyboard-response","219","274225","0.0-1.0-291.0","0","0","27170","","null","","","null","32","NaN","","","","","","","","","","","","","","",""
"","S2","","html-keyboard-response","220","274496","0.0-1.0-292.0","0","0","27170","","null","","","null","32","","NaN","","","","","","","","","","","","","",""
"","response","","html-keyboard-response","221","274890","0.0-1.0-293.0-0.0","0","0","27170","","382","","","68","32","","","1","32","training","adjacent","BA","2","1","O.jpg","R.jpg","1","0","0","",""
"","feedback","","html-keyboard-response","222","275911","0.0-1.0-294.0-0.0","0","0","27170","","null","","","null","32","","","","","","","","","","","","","","","",""
"","time_out","","html-keyboard-response","223","277937","0.0-1.0-296.0-0.0","0","0","27170","","null","","","null","32","","","","","","","","","","","","","","","",""
"","ITI","","html-keyboard-response","224","278959","0.0-1.0-297.0","0","0","27170","","null","","","null","32","","","","","","","","","","","","","","","NaN",""
"","S1","","html-keyboard-response","225","279235","0.0-1.0-299.0","0","0","27170","","null","","","null","33","","","","","","","","","","","","","","","",""
"","ISI","","html-keyboard-response","226","280254","0.0-1.0-300.0","0","0","27170","","null","","","null","33","NaN","","","","","","","","","","","","","","",""
"","S2","","html-keyboard-response","227","280527","0.0-1.0-301.0","0","0","27170","","null","","","null","33","","NaN","","","","","","","","","","","","","",""
"","response","","html-keyboard-response","228","281010","0.0-1.0-302.0-0.0","0","0","27170","","469","","","75","33","","","1","33","training","adjacent","GF","7","6","Q.jpg","P.jpg","0","0","1","",""
"","feedback","","html-keyboard-response","229","282031","0.0-1.0-303.0-0.0","0","0","27170","","null","","","null","33","","","","","","","","","","","","","","","",""
"","ITI","","html-keyboard-response","230","283055","0.0-1.0-306.0","0","0","27170","","null","","","null","33","","","","","","","","","","","","","","","NaN",""
"","S1","","html-keyboard-response","231","283328","0.0-1.0-308.0","0","0","27170","","null","","","null","34","","","","","","","","","","","","","","","",""
"","ISI","","html-keyboard-response","232","284343","0.0-1.0-309.0","0","0","27170","","null","","","null","34","NaN","","","","","","","","","","","","","","",""
"","S2","","html-keyboard-response","233","284615","0.0-1.0-310.0","0","0","27170","","null","","","null","34","","NaN","","","","","","","","","","","","","",""
"","response","","html-keyboard-response","234","285041","0.0-1.0-311.0-0.0","0","0","27170","","414","","","75","34","","","1","34","training","adjacent","AB","1","2","R.jpg","O.jpg","0","1","0","",""
"","feedback","","html-keyboard-response","235","286061","0.0-1.0-312.0-0.0","0","0","27170","","null","","","null","34","","","","","","","","","","","","","","","",""
"","time_out","","html-keyboard-response","236","288080","0.0-1.0-314.0-0.0","0","0","27170","","null","","","null","34","","","","","","","","","","","","","","","",""
"","ITI","","html-keyboard-response","237","289104","0.0-1.0-315.0","0","0","27170","","null","","","null","34","","","","","","","","","","","","","","","NaN",""
"","S1","","html-keyboard-response","238","289376","0.0-1.0-317.0","0","0","27170","","null","","","null","35","","","","","","","","","","","","","","","",""
"","ISI","","html-keyboard-response","239","290390","0.0-1.0-318.0","0","0","27170","","null","","","null","35","NaN","","","","","","","","","","","","","","",""
"","S2","","html-keyboard-response","240","290662","0.0-1.0-319.0","0","0","27170","","null","","","null","35","","NaN","","","","","","","","","","","","","",""
"","response","","html-keyboard-response","241","291420","0.0-1.0-320.0-0.0","0","0","27170","","744","","","68","35","","","1","35","training","adjacent","GF","7","6","Q.jpg","P.jpg","1","0","0","",""
"","feedback","","html-keyboard-response","242","292440","0.0-1.0-321.0-0.0","0","0","27170","","null","","","null","35","","","","","","","","","","","","","","","",""
"","time_out","","html-keyboard-response","243","294464","0.0-1.0-323.0-0.0","0","0","27170","","null","","","null","35","","","","","","","","","","","","","","","",""
"","ITI","","html-keyboard-response","244","295481","0.0-1.0-324.0","0","0","27170","","null","","","null","35","","","","","","","","","","","","","","","NaN",""
"","S1","","html-keyboard-response","245","295751","0.0-1.0-326.0","0","0","27170","","null","","","null","36","","","","","","","","","","","","","","","",""
"","ISI","","html-keyboard-response","246","296767","0.0-1.0-327.0","0","0","27170","","null","","","null","36","NaN","","","","","","","","","","","","","","",""
"","S2","","html-keyboard-response","247","297039","0.0-1.0-328.0","0","0","27170","","null","","","null","36","","NaN","","","","","","","","","","","","","",""
"","response","","html-keyboard-response","248","297274","0.0-1.0-329.0-0.0","0","0","27170","","225","","","75","36","","","1","36","training","adjacent","DE","4","5","N.jpg","M.jpg","0","1","0","",""
"","feedback","","html-keyboard-response","249","298296","0.0-1.0-330.0-0.0","0","0","27170","","null","","","null","36","","","","","","","","","","","","","","","",""
"","time_out","","html-keyboard-response","250","300318","0.0-1.0-332.0-0.0","0","0","27170","","null","","","null","36","","","","","","","","","","","","","","","",""
"","ITI","","html-keyboard-response","251","301335","0.0-1.0-333.0","0","0","27170","","null","","","null","36","","","","","","","","","","","","","","","NaN",""
"","S1","","html-keyboard-response","252","301607","0.0-1.0-335.0","0","0","27170","","null","","","null","37","","","","","","","","","","","","","","","",""
"","ISI","","html-keyboard-response","253","302624","0.0-1.0-336.0","0","0","27170","","null","","","null","37","NaN","","","","","","","","","","","","","","",""
"","S2","","html-keyboard-response","254","302896","0.0-1.0-337.0","0","0","27170","","null","","","null","37","","NaN","","","","","","","","","","","","","",""
"","response","","html-keyboard-response","255","303471","0.0-1.0-338.0-0.0","0","0","27170","","562","","","68","37","","","1","37","training","adjacent","FG","6","7","P.jpg","Q.jpg","1","1","1","",""
"","feedback","","html-keyboard-response","256","304495","0.0-1.0-339.0-0.0","0","0","27170","","null","","","null","37","","","","","","","","","","","","","","","",""
"","ITI","","html-keyboard-response","257","305520","0.0-1.0-342.0","0","0","27170","","null","","","null","37","","","","","","","","","","","","","","","NaN",""
"","S1","","html-keyboard-response","258","305792","0.0-1.0-344.0","0","0","27170","","null","","","null","38","","","","","","","","","","","","","","","",""
"","ISI","","html-keyboard-response","259","306808","0.0-1.0-345.0","0","0","27170","","null","","","null","38","NaN","","","","","","","","","","","","","","",""
"","S2","","html-keyboard-response","260","307080","0.0-1.0-346.0","0","0","27170","","null","","","null","38","","NaN","","","","","","","","","","","","","",""
"","response","","html-keyboard-response","261","307625","0.0-1.0-347.0-0.0","0","0","27170","","534","","","75","38","","","1","38","training","adjacent","AB","1","2","R.jpg","O.jpg","0","1","0","",""
"","feedback","","html-keyboard-response","262","308647","0.0-1.0-348.0-0.0","0","0","27170","","null","","","null","38","","","","","","","","","","","","","","","",""
"","time_out","","html-keyboard-response","263","310669","0.0-1.0-350.0-0.0","0","0","27170","","null","","","null","38","","","","","","","","","","","","","","","",""
"","ITI","","html-keyboard-response","264","311687","0.0-1.0-351.0","0","0","27170","","null","","","null","38","","","","","","","","","","","","","","","NaN",""
"","S1","","html-keyboard-response","265","311960","0.0-1.0-353.0","0","0","27170","","null","","","null","39","","","","","","","","","","","","","","","",""
"","ISI","","html-keyboard-response","266","312984","0.0-1.0-354.0","0","0","27170","","null","","","null","39","NaN","","","","","","","","","","","","","","",""
"","S2","","html-keyboard-response","267","313256","0.0-1.0-355.0","0","0","27170","","null","","","null","39","","NaN","","","","","","","","","","","","","",""
"","response","","html-keyboard-response","268","313851","0.0-1.0-356.0-0.0","0","0","27170","","583","","","68","39","","","1","39","training","adjacent","BA","2","1","O.jpg","R.jpg","1","0","0","",""
"","feedback","","html-keyboard-response","269","314868","0.0-1.0-357.0-0.0","0","0","27170","","null","","","null","39","","","","","","","","","","","","","","","",""
"","time_out","","html-keyboard-response","270","316886","0.0-1.0-359.0-0.0","0","0","27170","","null","","","null","39","","","","","","","","","","","","","","","",""
"","ITI","","html-keyboard-response","271","317903","0.0-1.0-360.0","0","0","27170","","null","","","null","39","","","","","","","","","","","","","","","NaN",""
"","S1","","html-keyboard-response","272","318174","0.0-1.0-362.0","0","0","27170","","null","","","null","40","","","","","","","","","","","","","","","",""
"","ISI","","html-keyboard-response","273","319191","0.0-1.0-363.0","0","0","27170","","null","","","null","40","NaN","","","","","","","","","","","","","","",""
"","S2","","html-keyboard-response","274","319463","0.0-1.0-364.0","0","0","27170","","null","","","null","40","","NaN","","","","","","","","","","","","","",""
"","response","","html-keyboard-response","275","319935","0.0-1.0-365.0-0.0","0","0","27170","","459","","","75","40","","","1","40","training","adjacent","GF","7","6","Q.jpg","P.jpg","0","0","1","",""
"","feedback","","html-keyboard-response","276","320952","0.0-1.0-366.0-0.0","0","0","27170","","null","","","null","40","","","","","","","","","","","","","","","",""
"","ITI","","html-keyboard-response","277","321976","0.0-1.0-369.0","0","0","27170","","null","","","null","40","","","","","","","","","","","","","","","NaN",""
"","S1","","html-keyboard-response","278","322246","0.0-1.0-371.0","0","0","27170","","null","","","null","41","","","","","","","","","","","","","","","",""
"","ISI","","html-keyboard-response","279","323262","0.0-1.0-372.0","0","0","27170","","null","","","null","41","NaN","","","","","","","","","","","","","","",""
"","S2","","html-keyboard-response","280","323536","0.0-1.0-373.0","0","0","27170","","null","","","null","41","","NaN","","","","","","","","","","","","","",""
"","response","","html-keyboard-response","281","323931","0.0-1.0-374.0-0.0","0","0","27170","","381","","","68","41","","","1","41","training","adjacent","AB","1","2","R.jpg","O.jpg","1","1","1","",""
"","feedback","","html-keyboard-response","282","324951","0.0-1.0-375.0-0.0","0","0","27170","","null","","","null","41","","","","","","","","","","","","","","","",""
"","ITI","","html-keyboard-response","283","325975","0.0-1.0-378.0","0","0","27170","","null","","","null","41","","","","","","","","","","","","","","","NaN",""
"","S1","","html-keyboard-response","284","326246","0.0-1.0-380.0","0","0","27170","","null","","","null","42","","","","","","","","","","","","","","","",""
"","ISI","","html-keyboard-response","285","327262","0.0-1.0-381.0","0","0","27170","","null","","","null","42","NaN","","","","","","","","","","","","","","",""
"","S2","","html-keyboard-response","286","327536","0.0-1.0-382.0","0","0","27170","","null","","","null","42","","NaN","","","","","","","","","","","","","",""
"","response","","html-keyboard-response","287","327861","0.0-1.0-383.0-0.0","0","0","27170","","311","","","68","42","","","1","42","training","adjacent","DC","4","3","N.jpg","L.jpg","1","0","0","",""
"","feedback","","html-keyboard-response","288","328879","0.0-1.0-384.0-0.0","0","0","27170","","null","","","null","42","","","","","","","","","","","","","","","",""
"","time_out","","html-keyboard-response","289","330892","0.0-1.0-386.0-0.0","0","0","27170","","null","","","null","42","","","","","","","","","","","","","","","",""
"","ITI","","html-keyboard-response","290","331912","0.0-1.0-387.0","0","0","27170","","null","","","null","42","","","","","","","","","","","","","","","NaN",""
"","S1","","html-keyboard-response","291","332184","0.0-1.0-389.0","0","0","27170","","null","","","null","43","","","","","","","","","","","","","","","",""
"","ISI","","html-keyboard-response","292","333200","0.0-1.0-390.0","0","0","27170","","null","","","null","43","NaN","","","","","","","","","","","","","","",""
"","S2","","html-keyboard-response","293","333471","0.0-1.0-391.0","0","0","27170","","null","","","null","43","","NaN","","","","","","","","","","","","","",""
"","response","","html-keyboard-response","294","333507","0.0-1.0-392.0-0.0","0","0","27170","","23","","","75","43","","","1","43","training","adjacent","ED","5","4","M.jpg","N.jpg","0","0","1","",""
"","feedback","","html-keyboard-response","295","334528","0.0-1.0-393.0-0.0","0","0","27170","","null","","","null","43","","","","","","","","","","","","","","","",""
"","ITI","","html-keyboard-response","296","335551","0.0-1.0-396.0","0","0","27170","","null","","","null","43","","","","","","","","","","","","","","","NaN",""
"","S1","","html-keyboard-response","297","335823","0.0-1.0-398.0","0","0","27170","","null","","","null","44","","","","","","","","","","","","","","","",""
"","ISI","","html-keyboard-response","298","336841","0.0-1.0-399.0","0","0","27170","","null","","","null","44","NaN","","","","","","","","","","","","","","",""
"","S2","","html-keyboard-response","299","337112","0.0-1.0-400.0","0","0","27170","","null","","","null","44","","NaN","","","","","","","","","","","","","",""
"","response","","html-keyboard-response","300","337489","0.0-1.0-401.0-0.0","0","0","27170","","366","","","75","44","","","1","44","training","adjacent","DC","4","3","N.jpg","L.jpg","0","0","1","",""
"","feedback","","html-keyboard-response","301","338511","0.0-1.0-402.0-0.0","0","0","27170","","null","","","null","44","","","","","","","","","","","","","","","",""
"","ITI","","html-keyboard-response","302","339535","0.0-1.0-405.0","0","0","27170","","null","","","null","44","","","","","","","","","","","","","","","NaN",""
"","S1","","html-keyboard-response","303","339808","0.0-1.0-407.0","0","0","27170","","null","","","null","45","","","","","","","","","","","","","","","",""
"","ISI","","html-keyboard-response","304","340823","0.0-1.0-408.0","0","0","27170","","null","","","null","45","NaN","","","","","","","","","","","","","","",""
"","S2","","html-keyboard-response","305","341095","0.0-1.0-409.0","0","0","27170","","null","","","null","45","","NaN","","","","","","","","","","","","","",""
"","response","","html-keyboard-response","306","341544","0.0-1.0-410.0-0.0","0","0","27170","","435","","","75","45","","","1","45","training","adjacent","GF","7","6","Q.jpg","P.jpg","0","0","1","",""
"","feedback","","html-keyboard-response","307","342567","0.0-1.0-411.0-0.0","0","0","27170","","null","","","null","45","","","","","","","","","","","","","","","",""
"","ITI","","html-keyboard-response","308","343590","0.0-1.0-414.0","0","0","27170","","null","","","null","45","","","","","","","","","","","","","","","NaN",""
"","S1","","html-keyboard-response","309","343862","0.0-1.0-416.0","0","0","27170","","null","","","null","46","","","","","","","","","","","","","","","",""
"","ISI","","html-keyboard-response","310","344878","0.0-1.0-417.0","0","0","27170","","null","","","null","46","NaN","","","","","","","","","","","","","","",""
"","S2","","html-keyboard-response","311","345145","0.0-1.0-418.0","0","0","27170","","null","","","null","46","","NaN","","","","","","","","","","","","","",""
"","response","","html-keyboard-response","312","345238","0.0-1.0-419.0-0.0","0","0","27170","","86","","","68","46","","","1","46","training","adjacent","DE","4","5","N.jpg","M.jpg","1","1","1","",""
"","feedback","","html-keyboard-response","313","346255","0.0-1.0-420.0-0.0","0","0","27170","","null","","","null","46","","","","","","","","","","","","","","","",""
"","ITI","","html-keyboard-response","314","347280","0.0-1.0-423.0","0","0","27170","","null","","","null","46","","","","","","","","","","","","","","","NaN",""
"","S1","","html-keyboard-response","315","347551","0.0-1.0-425.0","0","0","27170","","null","","","null","47","","","","","","","","","","","","","","","",""
"","ISI","","html-keyboard-response","316","348567","0.0-1.0-426.0","0","0","27170","","null","","","null","47","NaN","","","","","","","","","","","","","","",""
"","S2","","html-keyboard-response","317","348840","0.0-1.0-427.0","0","0","27170","","null","","","null","47","","NaN","","","","","","","","","","","","","",""
"","response","","html-keyboard-response","318","349250","0.0-1.0-428.0-0.0","0","0","27170","","395","","","68","47","","","1","47","training","adjacent","ED","5","4","M.jpg","N.jpg","1","0","0","",""
"","feedback","","html-keyboard-response","319","350271","0.0-1.0-429.0-0.0","0","0","27170","","null","","","null","47","","","","","","","","","","","","","","","",""
"","time_out","","html-keyboard-response","320","352295","0.0-1.0-431.0-0.0","0","0","27170","","null","","","null","47","","","","","","","","","","","","","","","",""
"","ITI","","html-keyboard-response","321","353311","0.0-1.0-432.0","0","0","27170","","null","","","null","47","","","","","","","","","","","","","","","NaN",""
"","block_over","","html-keyboard-response","322","360194","0.0-1.0-433.0-0.0","0","0","27170","","6868","","","32","47","","","","","","","","","","","","","","","",""
"","S1","","html-keyboard-response","323","360463","0.0-1.0-434.0","0","0","27170","","null","","","null","48","","","","","","","","","","","","","","","",""
"","ISI","","html-keyboard-response","324","361479","0.0-1.0-435.0","0","0","27170","","null","","","null","48","NaN","","","","","","","","","","","","","","",""
"","S2","","html-keyboard-response","325","361750","0.0-1.0-436.0","0","0","27170","","null","","","null","48","","NaN","","","","","","","","","","","","","",""
"","response","","html-keyboard-response","326","363519","0.0-1.0-437.0-0.0","0","0","27170","","null","","","null","48","","","2","48","training","adjacent","AB","1","2","R.jpg","O.jpg","NaN","1","0","",""
"","too_slow_prompt","","html-keyboard-response","327","364543","0.0-1.0-439.0-0.0","1","0","27170","","null","","","null","","","","","","","","","","","","","","","","",""
"","time_out","","html-keyboard-response","328","366568","0.0-1.0-440.0-0.0","0","0","27170","","null","","","null","48","","","","","","","","","","","","","","","",""
"","ITI","","html-keyboard-response","329","367579","0.0-1.0-441.0","0","0","27170","","null","","","null","48","","","","","","","","","","","","","","","NaN",""
"","S1","","html-keyboard-response","330","367847","0.0-1.0-443.0","0","0","27170","","null","","","null","49","","","","","","","","","","","","","","","",""
"","ISI","","html-keyboard-response","331","368864","0.0-1.0-444.0","0","0","27170","","null","","","null","49","NaN","","","","","","","","","","","","","","",""
"","S2","","html-keyboard-response","332","369136","0.0-1.0-445.0","0","0","27170","","null","","","null","49","","NaN","","","","","","","","","","","","","",""
"","response","","html-keyboard-response","333","369302","0.0-1.0-446.0-0.0","0","0","27170","","153","","","68","49","","","2","49","training","adjacent","FE","6","5","P.jpg","M.jpg","1","0","0","",""
"","feedback","","html-keyboard-response","334","370321","0.0-1.0-447.0-0.0","0","0","27170","","null","","","null","49","","","","","","","","","","","","","","","",""
"","time_out","","html-keyboard-response","335","372344","0.0-1.0-449.0-0.0","0","0","27170","","null","","","null","49","","","","","","","","","","","","","","","",""
"","ITI","","html-keyboard-response","336","373369","0.0-1.0-450.0","0","0","27170","","null","","","null","49","","","","","","","","","","","","","","","NaN",""
"","S1","","html-keyboard-response","337","373640","0.0-1.0-452.0","0","0","27170","","null","","","null","50","","","","","","","","","","","","","","","",""
"","ISI","","html-keyboard-response","338","374654","0.0-1.0-453.0","0","0","27170","","null","","","null","50","NaN","","","","","","","","","","","","","","",""
"","S2","","html-keyboard-response","339","374926","0.0-1.0-454.0","0","0","27170","","null","","","null","50","","NaN","","","","","","","","","","","","","",""
"","response","","html-keyboard-response","340","375267","0.0-1.0-455.0-0.0","0","0","27170","","329","","","68","50","","","2","50","training","adjacent","AB","1","2","R.jpg","O.jpg","1","1","1","",""
"","feedback","","html-keyboard-response","341","376287","0.0-1.0-456.0-0.0","0","0","27170","","null","","","null","50","","","","","","","","","","","","","","","",""
"","ITI","","html-keyboard-response","342","377310","0.0-1.0-459.0","0","0","27170","","null","","","null","50","","","","","","","","","","","","","","","NaN",""
"","S1","","html-keyboard-response","343","377583","0.0-1.0-461.0","0","0","27170","","null","","","null","51","","","","","","","","","","","","","","","",""
"","ISI","","html-keyboard-response","344","378600","0.0-1.0-462.0","0","0","27170","","null","","","null","51","NaN","","","","","","","","","","","","","","",""
"","S2","","html-keyboard-response","345","378870","0.0-1.0-463.0","0","0","27170","","null","","","null","51","","NaN","","","","","","","","","","","","","",""
"","response","","html-keyboard-response","346","379101","0.0-1.0-464.0-0.0","0","0","27170","","220","","","75","51","","","2","51","training","adjacent","BA","2","1","O.jpg","R.jpg","0","0","1","",""
"","feedback","","html-keyboard-response","347","380119","0.0-1.0-465.0-0.0","0","0","27170","","null","","","null","51","","","","","","","","","","","","","","","",""
"","ITI","","html-keyboard-response","348","381144","0.0-1.0-468.0","0","0","27170","","null","","","null","51","","","","","","","","","","","","","","","NaN",""
"","S1","","html-keyboard-response","349","381415","0.0-1.0-470.0","0","0","27170","","null","","","null","52","","","","","","","","","","","","","","","",""
"","ISI","","html-keyboard-response","350","382429","0.0-1.0-471.0","0","0","27170","","null","","","null","52","NaN","","","","","","","","","","","","","","",""
"","S2","","html-keyboard-response","351","382693","0.0-1.0-472.0","0","0","27170","","null","","","null","52","","NaN","","","","","","","","","","","","","",""
"","response","","html-keyboard-response","352","383123","0.0-1.0-473.0-0.0","0","0","27170","","418","","","75","52","","","2","52","training","adjacent","CB","3","2","L.jpg","O.jpg","0","0","1","",""
"","feedback","","html-keyboard-response","353","384139","0.0-1.0-474.0-0.0","0","0","27170","","null","","","null","52","","","","","","","","","","","","","","","",""
"","ITI","","html-keyboard-response","354","385159","0.0-1.0-477.0","0","0","27170","","null","","","null","52","","","","","","","","","","","","","","","NaN",""
"","S1","","html-keyboard-response","355","385430","0.0-1.0-479.0","0","0","27170","","null","","","null","53","","","","","","","","","","","","","","","",""
"","ISI","","html-keyboard-response","356","386447","0.0-1.0-480.0","0","0","27170","","null","","","null","53","NaN","","","","","","","","","","","","","","",""
"","S2","","html-keyboard-response","357","386718","0.0-1.0-481.0","0","0","27170","","null","","","null","53","","NaN","","","","","","","","","","","","","",""
"","response","","html-keyboard-response","358","387174","0.0-1.0-482.0-0.0","0","0","27170","","444","","","75","53","","","2","53","training","adjacent","FE","6","5","P.jpg","M.jpg","0","0","1","",""
"","feedback","","html-keyboard-response","359","388200","0.0-1.0-483.0-0.0","0","0","27170","","null","","","null","53","","","","","","","","","","","","","","","",""
"","ITI","","html-keyboard-response","360","389223","0.0-1.0-486.0","0","0","27170","","null","","","null","53","","","","","","","","","","","","","","","NaN",""
"","S1","","html-keyboard-response","361","389496","0.0-1.0-488.0","0","0","27170","","null","","","null","54","","","","","","","","","","","","","","","",""
"","ISI","","html-keyboard-response","362","390511","0.0-1.0-489.0","0","0","27170","","null","","","null","54","NaN","","","","","","","","","","","","","","",""
"","S2","","html-keyboard-response","363","390783","0.0-1.0-490.0","0","0","27170","","null","","","null","54","","NaN","","","","","","","","","","","","","",""
"","response","","html-keyboard-response","364","391107","0.0-1.0-491.0-0.0","0","0","27170","","311","","","68","54","","","2","54","training","adjacent","BA","2","1","O.jpg","R.jpg","1","0","0","",""
"","feedback","","html-keyboard-response","365","392127","0.0-1.0-492.0-0.0","0","0","27170","","null","","","null","54","","","","","","","","","","","","","","","",""
"","time_out","","html-keyboard-response","366","394152","0.0-1.0-494.0-0.0","0","0","27170","","null","","","null","54","","","","","","","","","","","","","","","",""
"","ITI","","html-keyboard-response","367","395175","0.0-1.0-495.0","0","0","27170","","null","","","null","54","","","","","","","","","","","","","","","NaN",""
"","S1","","html-keyboard-response","368","395447","0.0-1.0-497.0","0","0","27170","","null","","","null","55","","","","","","","","","","","","","","","",""
"","ISI","","html-keyboard-response","369","396462","0.0-1.0-498.0","0","0","27170","","null","","","null","55","NaN","","","","","","","","","","","","","","",""
"","S2","","html-keyboard-response","370","396733","0.0-1.0-499.0","0","0","27170","","null","","","null","55","","NaN","","","","","","","","","","","","","",""
"","response","","html-keyboard-response","371","397032","0.0-1.0-500.0-0.0","0","0","27170","","286","","","68","55","","","2","55","training","adjacent","AB","1","2","R.jpg","O.jpg","1","1","1","",""
"","feedback","","html-keyboard-response","372","398057","0.0-1.0-501.0-0.0","0","0","27170","","null","","","null","55","","","","","","","","","","","","","","","",""
"","ITI","","html-keyboard-response","373","399079","0.0-1.0-504.0","0","0","27170","","null","","","null","55","","","","","","","","","","","","","","","NaN",""
"","S1","","html-keyboard-response","374","399351","0.0-1.0-506.0","0","0","27170","","null","","","null","56","","","","","","","","","","","","","","","",""
"","ISI","","html-keyboard-response","375","400368","0.0-1.0-507.0","0","0","27170","","null","","","null","56","NaN","","","","","","","","","","","","","","",""
"","S2","","html-keyboard-response","376","400640","0.0-1.0-508.0","0","0","27170","","null","","","null","56","","NaN","","","","","","","","","","","","","",""
"","response","","html-keyboard-response","377","400934","0.0-1.0-509.0-0.0","0","0","27170","","281","","","75","56","","","2","56","training","adjacent","CB","3","2","L.jpg","O.jpg","0","0","1","",""
"","feedback","","html-keyboard-response","378","401961","0.0-1.0-510.0-0.0","0","0","27170","","null","","","null","56","","","","","","","","","","","","","","","",""
"","ITI","","html-keyboard-response","379","402983","0.0-1.0-513.0","0","0","27170","","null","","","null","56","","","","","","","","","","","","","","","NaN",""
"","S1","","html-keyboard-response","380","403255","0.0-1.0-515.0","0","0","27170","","null","","","null","57","","","","","","","","","","","","","","","",""
"","ISI","","html-keyboard-response","381","404271","0.0-1.0-516.0","0","0","27170","","null","","","null","57","NaN","","","","","","","","","","","","","","",""
"","S2","","html-keyboard-response","382","404543","0.0-1.0-517.0","0","0","27170","","null","","","null","57","","NaN","","","","","","","","","","","","","",""
"","response","","html-keyboard-response","383","404738","0.0-1.0-518.0-0.0","0","0","27170","","182","","","75","57","","","2","57","training","adjacent","FG","6","7","P.jpg","Q.jpg","0","1","0","",""
"","feedback","","html-keyboard-response","384","405752","0.0-1.0-519.0-0.0","0","0","27170","","null","","","null","57","","","","","","","","","","","","","","","",""
"","time_out","","html-keyboard-response","385","407767","0.0-1.0-521.0-0.0","0","0","27170","","null","","","null","57","","","","","","","","","","","","","","","",""
"","ITI","","html-keyboard-response","386","408782","0.0-1.0-522.0","0","0","27170","","null","","","null","57","","","","","","","","","","","","","","","NaN",""
"","S1","","html-keyboard-response","387","409052","0.0-1.0-524.0","0","0","27170","","null","","","null","58","","","","","","","","","","","","","","","",""
"","ISI","","html-keyboard-response","388","410071","0.0-1.0-525.0","0","0","27170","","null","","","null","58","NaN","","","","","","","","","","","","","","",""
"","S2","","html-keyboard-response","389","410344","0.0-1.0-526.0","0","0","27170","","null","","","null","58","","NaN","","","","","","","","","","","","","",""
"","response","","html-keyboard-response","390","410715","0.0-1.0-527.0-0.0","0","0","27170","","357","","","75","58","","","2","58","training","adjacent","CD","3","4","L.jpg","N.jpg","0","1","0","",""
"","feedback","","html-keyboard-response","391","411735","0.0-1.0-528.0-0.0","0","0","27170","","null","","","null","58","","","","","","","","","","","","","","","",""
"","time_out","","html-keyboard-response","392","413759","0.0-1.0-530.0-0.0","0","0","27170","","null","","","null","58","","","","","","","","","","","","","","","",""
"","ITI","","html-keyboard-response","393","414775","0.0-1.0-531.0","0","0","27170","","null","","","null","58","","","","","","","","","","","","","","","NaN",""
"","S1","","html-keyboard-response","394","415047","0.0-1.0-533.0","0","0","27170","","null","","","null","59","","","","","","","","","","","","","","","",""
"","ISI","","html-keyboard-response","395","416063","0.0-1.0-534.0","0","0","27170","","null","","","null","59","NaN","","","","","","","","","","","","","","",""
"","S2","","html-keyboard-response","396","416335","0.0-1.0-535.0","0","0","27170","","null","","","null","59","","NaN","","","","","","","","","","","","","",""
"","response","","html-keyboard-response","397","416477","0.0-1.0-536.0-0.0","0","0","27170","","128","","","68","59","","","2","59","training","adjacent","DE","4","5","N.jpg","M.jpg","1","1","1","",""
"","feedback","","html-keyboard-response","398","417495","0.0-1.0-537.0-0.0","0","0","27170","","null","","","null","59","","","","","","","","","","","","","","","",""
"","ITI","","html-keyboard-response","399","418519","0.0-1.0-540.0","0","0","27170","","null","","","null","59","","","","","","","","","","","","","","","NaN",""
"","S1","","html-keyboard-response","400","418793","0.0-1.0-542.0","0","0","27170","","null","","","null","60","","","","","","","","","","","","","","","",""
"","ISI","","html-keyboard-response","401","419816","0.0-1.0-543.0","0","0","27170","","null","","","null","60","NaN","","","","","","","","","","","","","","",""
"","S2","","html-keyboard-response","402","420085","0.0-1.0-544.0","0","0","27170","","null","","","null","60","","NaN","","","","","","","","","","","","","",""
"","response","","html-keyboard-response","403","420500","0.0-1.0-545.0-0.0","0","0","27170","","403","","","75","60","","","2","60","training","adjacent","FG","6","7","P.jpg","Q.jpg","0","1","0","",""
"","feedback","","html-keyboard-response","404","421519","0.0-1.0-546.0-0.0","0","0","27170","","null","","","null","60","","","","","","","","","","","","","","","",""
"","time_out","","html-keyboard-response","405","423545","0.0-1.0-548.0-0.0","0","0","27170","","null","","","null","60","","","","","","","","","","","","","","","",""
"","ITI","","html-keyboard-response","406","424568","0.0-1.0-549.0","0","0","27170","","null","","","null","60","","","","","","","","","","","","","","","NaN",""
"","S1","","html-keyboard-response","407","424840","0.0-1.0-551.0","0","0","27170","","null","","","null","61","","","","","","","","","","","","","","","",""
"","ISI","","html-keyboard-response","408","425857","0.0-1.0-552.0","0","0","27170","","null","","","null","61","NaN","","","","","","","","","","","","","","",""
"","S2","","html-keyboard-response","409","426127","0.0-1.0-553.0","0","0","27170","","null","","","null","61","","NaN","","","","","","","","","","","","","",""
"","response","","html-keyboard-response","410","426260","0.0-1.0-554.0-0.0","0","0","27170","","120","","","75","61","","","2","61","training","adjacent","GF","7","6","Q.jpg","P.jpg","0","0","1","",""
"","feedback","","html-keyboard-response","411","427281","0.0-1.0-555.0-0.0","0","0","27170","","null","","","null","61","","","","","","","","","","","","","","","",""
"","ITI","","html-keyboard-response","412","428304","0.0-1.0-558.0","0","0","27170","","null","","","null","61","","","","","","","","","","","","","","","NaN",""
"","S1","","html-keyboard-response","413","428575","0.0-1.0-560.0","0","0","27170","","null","","","null","62","","","","","","","","","","","","","","","",""
"","ISI","","html-keyboard-response","414","429589","0.0-1.0-561.0","0","0","27170","","null","","","null","62","NaN","","","","","","","","","","","","","","",""
"","S2","","html-keyboard-response","415","429855","0.0-1.0-562.0","0","0","27170","","null","","","null","62","","NaN","","","","","","","","","","","","","",""
"","response","","html-keyboard-response","416","430130","0.0-1.0-563.0-0.0","0","0","27170","","263","","","75","62","","","2","62","training","adjacent","CB","3","2","L.jpg","O.jpg","0","0","1","",""
"","feedback","","html-keyboard-response","417","431151","0.0-1.0-564.0-0.0","0","0","27170","","null","","","null","62","","","","","","","","","","","","","","","",""
"","ITI","","html-keyboard-response","418","432176","0.0-1.0-567.0","0","0","27170","","null","","","null","62","","","","","","","","","","","","","","","NaN",""
"","S1","","html-keyboard-response","419","432452","0.0-1.0-569.0","0","0","27170","","null","","","null","63","","","","","","","","","","","","","","","",""
"","ISI","","html-keyboard-response","420","433471","0.0-1.0-570.0","0","0","27170","","null","","","null","63","NaN","","","","","","","","","","","","","","",""
"","S2","","html-keyboard-response","421","433744","0.0-1.0-571.0","0","0","27170","","null","","","null","63","","NaN","","","","","","","","","","","","","",""
"","response","","html-keyboard-response","422","433925","0.0-1.0-572.0-0.0","0","0","27170","","169","","","75","63","","","2","63","training","adjacent","FG","6","7","P.jpg","Q.jpg","0","1","0","",""
"","feedback","","html-keyboard-response","423","434942","0.0-1.0-573.0-0.0","0","0","27170","","null","","","null","63","","","","","","","","","","","","","","","",""
"","time_out","","html-keyboard-response","424","436959","0.0-1.0-575.0-0.0","0","0","27170","","null","","","null","63","","","","","","","","","","","","","","","",""
"","ITI","","html-keyboard-response","425","437976","0.0-1.0-576.0","0","0","27170","","null","","","null","63","","","","","","","","","","","","","","","NaN",""
"","S1","","html-keyboard-response","426","438247","0.0-1.0-578.0","0","0","27170","","null","","","null","64","","","","","","","","","","","","","","","",""
"","ISI","","html-keyboard-response","427","439263","0.0-1.0-579.0","0","0","27170","","null","","","null","64","NaN","","","","","","","","","","","","","","",""
"","S2","","html-keyboard-response","428","439535","0.0-1.0-580.0","0","0","27170","","null","","","null","64","","NaN","","","","","","","","","","","","","",""
"","response","","html-keyboard-response","429","439817","0.0-1.0-581.0-0.0","0","0","27170","","270","","","75","64","","","2","64","training","adjacent","DC","4","3","N.jpg","L.jpg","0","0","1","",""
"","feedback","","html-keyboard-response","430","440840","0.0-1.0-582.0-0.0","0","0","27170","","null","","","null","64","","","","","","","","","","","","","","","",""
"","ITI","","html-keyboard-response","431","441863","0.0-1.0-585.0","0","0","27170","","null","","","null","64","","","","","","","","","","","","","","","NaN",""
"","S1","","html-keyboard-response","432","442135","0.0-1.0-587.0","0","0","27170","","null","","","null","65","","","","","","","","","","","","","","","",""
"","ISI","","html-keyboard-response","433","443152","0.0-1.0-588.0","0","0","27170","","null","","","null","65","NaN","","","","","","","","","","","","","","",""
"","S2","","html-keyboard-response","434","443423","0.0-1.0-589.0","0","0","27170","","null","","","null","65","","NaN","","","","","","","","","","","","","",""
"","response","","html-keyboard-response","435","443518","0.0-1.0-590.0-0.0","0","0","27170","","82","","","75","65","","","2","65","training","adjacent","DC","4","3","N.jpg","L.jpg","0","0","1","",""
"","feedback","","html-keyboard-response","436","444535","0.0-1.0-591.0-0.0","0","0","27170","","null","","","null","65","","","","","","","","","","","","","","","",""
"","ITI","","html-keyboard-response","437","445559","0.0-1.0-594.0","0","0","27170","","null","","","null","65","","","","","","","","","","","","","","","NaN",""
"","S1","","html-keyboard-response","438","445828","0.0-1.0-596.0","0","0","27170","","null","","","null","66","","","","","","","","","","","","","","","",""
"","ISI","","html-keyboard-response","439","446847","0.0-1.0-597.0","0","0","27170","","null","","","null","66","NaN","","","","","","","","","","","","","","",""
"","S2","","html-keyboard-response","440","447119","0.0-1.0-598.0","0","0","27170","","null","","","null","66","","NaN","","","","","","","","","","","","","",""
"","response","","html-keyboard-response","441","447484","0.0-1.0-599.0-0.0","0","0","27170","","352","","","75","66","","","2","66","training","adjacent","BC","2","3","O.jpg","L.jpg","0","1","0","",""
"","feedback","","html-keyboard-response","442","448503","0.0-1.0-600.0-0.0","0","0","27170","","null","","","null","66","","","","","","","","","","","","","","","",""
"","time_out","","html-keyboard-response","443","450518","0.0-1.0-602.0-0.0","0","0","27170","","null","","","null","66","","","","","","","","","","","","","","","",""
"","ITI","","html-keyboard-response","444","451535","0.0-1.0-603.0","0","0","27170","","null","","","null","66","","","","","","","","","","","","","","","NaN",""
"","S1","","html-keyboard-response","445","451806","0.0-1.0-605.0","0","0","27170","","null","","","null","67","","","","","","","","","","","","","","","",""
"","ISI","","html-keyboard-response","446","452825","0.0-1.0-606.0","0","0","27170","","null","","","null","67","NaN","","","","","","","","","","","","","","",""
"","S2","","html-keyboard-response","447","453095","0.0-1.0-607.0","0","0","27170","","null","","","null","67","","NaN","","","","","","","","","","","","","",""
"","response","","html-keyboard-response","448","453455","0.0-1.0-608.0-0.0","0","0","27170","","346","","","75","67","","","2","67","training","adjacent","CB","3","2","L.jpg","O.jpg","0","0","1","",""
"","feedback","","html-keyboard-response","449","454479","0.0-1.0-609.0-0.0","0","0","27170","","null","","","null","67","","","","","","","","","","","","","","","",""
"","ITI","","html-keyboard-response","450","455498","0.0-1.0-612.0","0","0","27170","","null","","","null","67","","","","","","","","","","","","","","","NaN",""
"","S1","","html-keyboard-response","451","455761","0.0-1.0-614.0","0","0","27170","","null","","","null","68","","","","","","","","","","","","","","","",""
"","ISI","","html-keyboard-response","452","456774","0.0-1.0-615.0","0","0","27170","","null","","","null","68","NaN","","","","","","","","","","","","","","",""
"","S2","","html-keyboard-response","453","457047","0.0-1.0-616.0","0","0","27170","","null","","","null","68","","NaN","","","","","","","","","","","","","",""
"","response","","html-keyboard-response","454","457303","0.0-1.0-617.0-0.0","0","0","27170","","243","","","68","68","","","2","68","training","adjacent","EF","5","6","M.jpg","P.jpg","1","1","1","",""
"","feedback","","html-keyboard-response","455","458327","0.0-1.0-618.0-0.0","0","0","27170","","null","","","null","68","","","","","","","","","","","","","","","",""
"","ITI","","html-keyboard-response","456","459350","0.0-1.0-621.0","0","0","27170","","null","","","null","68","","","","","","","","","","","","","","","NaN",""
"","S1","","html-keyboard-response","457","459624","0.0-1.0-623.0","0","0","27170","","null","","","null","69","","","","","","","","","","","","","","","",""
"","ISI","","html-keyboard-response","458","460647","0.0-1.0-624.0","0","0","27170","","null","","","null","69","NaN","","","","","","","","","","","","","","",""
"","S2","","html-keyboard-response","459","460916","0.0-1.0-625.0","0","0","27170","","null","","","null","69","","NaN","","","","","","","","","","","","","",""
"","response","","html-keyboard-response","460","460966","0.0-1.0-626.0-0.0","0","0","27170","","38","","","75","69","","","2","69","training","adjacent","DC","4","3","N.jpg","L.jpg","0","0","1","",""
"","feedback","","html-keyboard-response","461","461982","0.0-1.0-627.0-0.0","0","0","27170","","null","","","null","69","","","","","","","","","","","","","","","",""
"","ITI","","html-keyboard-response","462","463007","0.0-1.0-630.0","0","0","27170","","null","","","null","69","","","","","","","","","","","","","","","NaN",""
"","S1","","html-keyboard-response","463","463280","0.0-1.0-632.0","0","0","27170","","null","","","null","70","","","","","","","","","","","","","","","",""
"","ISI","","html-keyboard-response","464","464295","0.0-1.0-633.0","0","0","27170","","null","","","null","70","NaN","","","","","","","","","","","","","","",""
"","S2","","html-keyboard-response","465","464569","0.0-1.0-634.0","0","0","27170","","null","","","null","70","","NaN","","","","","","","","","","","","","",""
"","response","","html-keyboard-response","466","464594","0.0-1.0-635.0-0.0","0","0","27170","","13","","","75","70","","","2","70","training","adjacent","DC","4","3","N.jpg","L.jpg","0","0","1","",""
"","feedback","","html-keyboard-response","467","465615","0.0-1.0-636.0-0.0","0","0","27170","","null","","","null","70","","","","","","","","","","","","","","","",""
"","ITI","","html-keyboard-response","468","466638","0.0-1.0-639.0","0","0","27170","","null","","","null","70","","","","","","","","","","","","","","","NaN",""
"","S1","","html-keyboard-response","469","466911","0.0-1.0-641.0","0","0","27170","","null","","","null","71","","","","","","","","","","","","","","","",""
"","ISI","","html-keyboard-response","470","467927","0.0-1.0-642.0","0","0","27170","","null","","","null","71","NaN","","","","","","","","","","","","","","",""
"","S2","","html-keyboard-response","471","468199","0.0-1.0-643.0","0","0","27170","","null","","","null","71","","NaN","","","","","","","","","","","","","",""
"","response","","html-keyboard-response","472","468250","0.0-1.0-644.0-0.0","0","0","27170","","38","","","68","71","","","2","71","training","adjacent","BA","2","1","O.jpg","R.jpg","1","0","0","",""
"","feedback","","html-keyboard-response","473","469271","0.0-1.0-645.0-0.0","0","0","27170","","null","","","null","71","","","","","","","","","","","","","","","",""
"","time_out","","html-keyboard-response","474","471295","0.0-1.0-647.0-0.0","0","0","27170","","null","","","null","71","","","","","","","","","","","","","","","",""
"","ITI","","html-keyboard-response","475","472312","0.0-1.0-648.0","0","0","27170","","null","","","null","71","","","","","","","","","","","","","","","NaN",""
"","S1","","html-keyboard-response","476","472582","0.0-1.0-650.0","0","0","27170","","null","","","null","72","","","","","","","","","","","","","","","",""
"","ISI","","html-keyboard-response","477","473599","0.0-1.0-651.0","0","0","27170","","null","","","null","72","NaN","","","","","","","","","","","","","","",""
"","S2","","html-keyboard-response","478","473872","0.0-1.0-652.0","0","0","27170","","null","","","null","72","","NaN","","","","","","","","","","","","","",""
"","response","","html-keyboard-response","479","474373","0.0-1.0-653.0-0.0","0","0","27170","","488","","","75","72","","","2","72","training","adjacent","ED","5","4","M.jpg","N.jpg","0","0","1","",""
"","feedback","","html-keyboard-response","480","475398","0.0-1.0-654.0-0.0","0","0","27170","","null","","","null","72","","","","","","","","","","","","","","","",""
"","ITI","","html-keyboard-response","481","476423","0.0-1.0-657.0","0","0","27170","","null","","","null","72","","","","","","","","","","","","","","","NaN",""
"","S1","","html-keyboard-response","482","476694","0.0-1.0-659.0","0","0","27170","","null","","","null","73","","","","","","","","","","","","","","","",""
"","ISI","","html-keyboard-response","483","477711","0.0-1.0-660.0","0","0","27170","","630","","","75","73","k","","","","","","","","","","","","","","",""
"","S2","","html-keyboard-response","484","477842","0.0-1.0-661.0","0","0","27170","","115","","","75","73","","k","2","73","training","adjacent","DE","4","5","N.jpg","M.jpg","0","1","0","",""
"","feedback","","html-keyboard-response","485","478862","0.0-1.0-663.0-0.0","0","0","27170","","null","","","null","73","","","","","","","","","","","","","","","",""
"","time_out","","html-keyboard-response","486","480879","0.0-1.0-665.0-0.0","0","0","27170","","null","","","null","73","","","","","","","","","","","","","","","",""
"","ITI","","html-keyboard-response","487","481896","0.0-1.0-666.0","0","0","27170","","null","","","null","73","","","","","","","","","","","","","","","NaN",""
"","S1","","html-keyboard-response","488","482167","0.0-1.0-668.0","0","0","27170","","null","","","null","74","","","","","","","","","","","","","","","",""
"","ISI","","html-keyboard-response","489","483183","0.0-1.0-669.0","0","0","27170","","null","","","null","74","NaN","","","","","","","","","","","","","","",""
"","S2","","html-keyboard-response","490","483457","0.0-1.0-670.0","0","0","27170","","null","","","null","74","","NaN","","","","","","","","","","","","","",""
"","response","","html-keyboard-response","491","483483","0.0-1.0-671.0-0.0","0","0","27170","","12","","","68","74","","","2","74","training","adjacent","CD","3","4","L.jpg","N.jpg","1","1","1","",""
"","feedback","","html-keyboard-response","492","484504","0.0-1.0-672.0-0.0","0","0","27170","","null","","","null","74","","","","","","","","","","","","","","","",""
"","ITI","","html-keyboard-response","493","485527","0.0-1.0-675.0","0","0","27170","","null","","","null","74","","","","","","","","","","","","","","","NaN",""
"","S1","","html-keyboard-response","494","485800","0.0-1.0-677.0","0","0","27170","","null","","","null","75","","","","","","","","","","","","","","","",""
"","ISI","","html-keyboard-response","495","486824","0.0-1.0-678.0","0","0","27170","","null","","","null","75","NaN","","","","","","","","","","","","","","",""
"","S2","","html-keyboard-response","496","487096","0.0-1.0-679.0","0","0","27170","","null","","","null","75","","NaN","","","","","","","","","","","","","",""
"","response","","html-keyboard-response","497","487418","0.0-1.0-680.0-0.0","0","0","27170","","307","","","68","75","","","2","75","training","adjacent","ED","5","4","M.jpg","N.jpg","1","0","0","",""
"","feedback","","html-keyboard-response","498","488438","0.0-1.0-681.0-0.0","0","0","27170","","null","","","null","75","","","","","","","","","","","","","","","",""
"","time_out","","html-keyboard-response","499","490463","0.0-1.0-683.0-0.0","0","0","27170","","null","","","null","75","","","","","","","","","","","","","","","",""
"","ITI","","html-keyboard-response","500","491480","0.0-1.0-684.0","0","0","27170","","null","","","null","75","","","","","","","","","","","","","","","NaN",""
"","S1","","html-keyboard-response","501","491749","0.0-1.0-686.0","0","0","27170","","null","","","null","76","","","","","","","","","","","","","","","",""
"","ISI","","html-keyboard-response","502","492768","0.0-1.0-687.0","0","0","27170","","null","","","null","76","NaN","","","","","","","","","","","","","","",""
"","S2","","html-keyboard-response","503","493037","0.0-1.0-688.0","0","0","27170","","null","","","null","76","","NaN","","","","","","","","","","","","","",""
"","response","","html-keyboard-response","504","493260","0.0-1.0-689.0-0.0","0","0","27170","","210","","","75","76","","","2","76","training","adjacent","BC","2","3","O.jpg","L.jpg","0","1","0","",""
"","feedback","","html-keyboard-response","505","494280","0.0-1.0-690.0-0.0","0","0","27170","","null","","","null","76","","","","","","","","","","","","","","","",""
"","time_out","","html-keyboard-response","506","496302","0.0-1.0-692.0-0.0","0","0","27170","","null","","","null","76","","","","","","","","","","","","","","","",""
"","ITI","","html-keyboard-response","507","497319","0.0-1.0-693.0","0","0","27170","","null","","","null","76","","","","","","","","","","","","","","","NaN",""
"","S1","","html-keyboard-response","508","497591","0.0-1.0-695.0","0","0","27170","","null","","","null","77","","","","","","","","","","","","","","","",""
"","ISI","","html-keyboard-response","509","498606","0.0-1.0-696.0","0","0","27170","","null","","","null","77","NaN","","","","","","","","","","","","","","",""
"","S2","","html-keyboard-response","510","498880","0.0-1.0-697.0","0","0","27170","","null","","","null","77","","NaN","","","","","","","","","","","","","",""
"","response","","html-keyboard-response","511","499072","0.0-1.0-698.0-0.0","0","0","27170","","179","","","68","77","","","2","77","training","adjacent","BA","2","1","O.jpg","R.jpg","1","0","0","",""
"","feedback","","html-keyboard-response","512","500096","0.0-1.0-699.0-0.0","0","0","27170","","null","","","null","77","","","","","","","","","","","","","","","",""
"","time_out","","html-keyboard-response","513","502118","0.0-1.0-701.0-0.0","0","0","27170","","null","","","null","77","","","","","","","","","","","","","","","",""
"","ITI","","html-keyboard-response","514","503135","0.0-1.0-702.0","0","0","27170","","null","","","null","77","","","","","","","","","","","","","","","NaN",""
"","S1","","html-keyboard-response","515","503405","0.0-1.0-704.0","0","0","27170","","null","","","null","78","","","","","","","","","","","","","","","",""
"","ISI","","html-keyboard-response","516","504423","0.0-1.0-705.0","0","0","27170","","null","","","null","78","NaN","","","","","","","","","","","","","","",""
"","S2","","html-keyboard-response","517","504696","0.0-1.0-706.0","0","0","27170","","null","","","null","78","","NaN","","","","","","","","","","","","","",""
"","response","","html-keyboard-response","518","504938","0.0-1.0-707.0-0.0","0","0","27170","","227","","","75","78","","","2","78","training","adjacent","BC","2","3","O.jpg","L.jpg","0","1","0","",""
"","feedback","","html-keyboard-response","519","505959","0.0-1.0-708.0-0.0","0","0","27170","","null","","","null","78","","","","","","","","","","","","","","","",""
"","time_out","","html-keyboard-response","520","507983","0.0-1.0-710.0-0.0","0","0","27170","","null","","","null","78","","","","","","","","","","","","","","","",""
"","ITI","","html-keyboard-response","521","508999","0.0-1.0-711.0","0","0","27170","","null","","","null","78","","","","","","","","","","","","","","","NaN",""
"","S1","","html-keyboard-response","522","509271","0.0-1.0-713.0","0","0","27170","","null","","","null","79","","","","","","","","","","","","","","","",""
"","ISI","","html-keyboard-response","523","510286","0.0-1.0-714.0","0","0","27170","","null","","","null","79","NaN","","","","","","","","","","","","","","",""
"","S2","","html-keyboard-response","524","510559","0.0-1.0-715.0","0","0","27170","","null","","","null","79","","NaN","","","","","","","","","","","","","",""
"","response","","html-keyboard-response","525","510624","0.0-1.0-716.0-0.0","0","0","27170","","51","","","75","79","","","2","79","training","adjacent","GF","7","6","Q.jpg","P.jpg","0","0","1","",""
"","feedback","","html-keyboard-response","526","511654","0.0-1.0-717.0-0.0","0","0","27170","","null","","","null","79","","","","","","","","","","","","","","","",""
"","ITI","","html-keyboard-response","527","512681","0.0-1.0-720.0","0","0","27170","","null","","","null","79","","","","","","","","","","","","","","","NaN",""
"","S1","","html-keyboard-response","528","512951","0.0-1.0-722.0","0","0","27170","","null","","","null","80","","","","","","","","","","","","","","","",""
"","ISI","","html-keyboard-response","529","513966","0.0-1.0-723.0","0","0","27170","","null","","","null","80","NaN","","","","","","","","","","","","","","",""
"","S2","","html-keyboard-response","530","514239","0.0-1.0-724.0","0","0","27170","","null","","","null","80","","NaN","","","","","","","","","","","","","",""
"","response","","html-keyboard-response","531","514568","0.0-1.0-725.0-0.0","0","0","27170","","316","","","68","80","","","2","80","training","adjacent","ED","5","4","M.jpg","N.jpg","1","0","0","",""
"","feedback","","html-keyboard-response","532","515614","0.0-1.0-726.0-0.0","0","0","27170","","null","","","null","80","","","","","","","","","","","","","","","",""
"","time_out","","html-keyboard-response","533","517631","0.0-1.0-728.0-0.0","0","0","27170","","null","","","null","80","","","","","","","","","","","","","","","",""
"","ITI","","html-keyboard-response","534","518647","0.0-1.0-729.0","0","0","27170","","null","","","null","80","","","","","","","","","","","","","","","NaN",""
"","S1","","html-keyboard-response","535","518918","0.0-1.0-731.0","0","0","27170","","null","","","null","81","","","","","","","","","","","","","","","",""
"","ISI","","html-keyboard-response","536","519936","0.0-1.0-732.0","0","0","27170","","null","","","null","81","NaN","","","","","","","","","","","","","","",""
"","S2","","html-keyboard-response","537","520206","0.0-1.0-733.0","0","0","27170","","null","","","null","81","","NaN","","","","","","","","","","","","","",""
"","response","","html-keyboard-response","538","520636","0.0-1.0-734.0-0.0","0","0","27170","","417","","","75","81","","","2","81","training","adjacent","GF","7","6","Q.jpg","P.jpg","0","0","1","",""
"","feedback","","html-keyboard-response","539","521655","0.0-1.0-735.0-0.0","0","0","27170","","null","","","null","81","","","","","","","","","","","","","","","",""
"","ITI","","html-keyboard-response","540","522679","0.0-1.0-738.0","0","0","27170","","null","","","null","81","","","","","","","","","","","","","","","NaN",""
"","S1","","html-keyboard-response","541","522951","0.0-1.0-740.0","0","0","27170","","null","","","null","82","","","","","","","","","","","","","","","",""
"","ISI","","html-keyboard-response","542","523963","0.0-1.0-741.0","0","0","27170","","null","","","null","82","NaN","","","","","","","","","","","","","","",""
"","S2","","html-keyboard-response","543","524232","0.0-1.0-742.0","0","0","27170","","null","","","null","82","","NaN","","","","","","","","","","","","","",""
"","response","","html-keyboard-response","544","524425","0.0-1.0-743.0-0.0","0","0","27170","","180","","","75","82","","","2","82","training","adjacent","DE","4","5","N.jpg","M.jpg","0","1","0","",""
"","feedback","","html-keyboard-response","545","525447","0.0-1.0-744.0-0.0","0","0","27170","","null","","","null","82","","","","","","","","","","","","","","","",""
"","time_out","","html-keyboard-response","546","527471","0.0-1.0-746.0-0.0","0","0","27170","","null","","","null","82","","","","","","","","","","","","","","","",""
"","ITI","","html-keyboard-response","547","528487","0.0-1.0-747.0","0","0","27170","","null","","","null","82","","","","","","","","","","","","","","","NaN",""
"","S1","","html-keyboard-response","548","528759","0.0-1.0-749.0","0","0","27170","","null","","","null","83","","","","","","","","","","","","","","","",""
"","ISI","","html-keyboard-response","549","529775","0.0-1.0-750.0","0","0","27170","","null","","","null","83","NaN","","","","","","","","","","","","","","",""
"","S2","","html-keyboard-response","550","530050","0.0-1.0-751.0","0","0","27170","","null","","","null","83","","NaN","","","","","","","","","","","","","",""
"","response","","html-keyboard-response","551","530493","0.0-1.0-752.0-0.0","0","0","27170","","428","","","68","83","","","2","83","training","adjacent","FG","6","7","P.jpg","Q.jpg","1","1","1","",""
"","feedback","","html-keyboard-response","552","531511","0.0-1.0-753.0-0.0","0","0","27170","","null","","","null","83","","","","","","","","","","","","","","","",""
"","ITI","","html-keyboard-response","553","532534","0.0-1.0-756.0","0","0","27170","","null","","","null","83","","","","","","","","","","","","","","","NaN",""
"","S1","","html-keyboard-response","554","532807","0.0-1.0-758.0","0","0","27170","","null","","","null","84","","","","","","","","","","","","","","","",""
"","ISI","","html-keyboard-response","555","533823","0.0-1.0-759.0","0","0","27170","","null","","","null","84","NaN","","","","","","","","","","","","","","",""
"","S2","","html-keyboard-response","556","534094","0.0-1.0-760.0","0","0","27170","","null","","","null","84","","NaN","","","","","","","","","","","","","",""
"","response","","html-keyboard-response","557","534143","0.0-1.0-761.0-0.0","0","0","27170","","37","","","68","84","","","2","84","training","adjacent","CD","3","4","L.jpg","N.jpg","1","1","1","",""
"","feedback","","html-keyboard-response","558","535168","0.0-1.0-762.0-0.0","0","0","27170","","null","","","null","84","","","","","","","","","","","","","","","",""
"","ITI","","html-keyboard-response","559","536192","0.0-1.0-765.0","0","0","27170","","null","","","null","84","","","","","","","","","","","","","","","NaN",""
"","S1","","html-keyboard-response","560","536462","0.0-1.0-767.0","0","0","27170","","null","","","null","85","","","","","","","","","","","","","","","",""
"","ISI","","html-keyboard-response","561","537479","0.0-1.0-768.0","0","0","27170","","null","","","null","85","NaN","","","","","","","","","","","","","","",""
"","S2","","html-keyboard-response","562","537751","0.0-1.0-769.0","0","0","27170","","null","","","null","85","","NaN","","","","","","","","","","","","","",""
"","response","","html-keyboard-response","563","539519","0.0-1.0-770.0-0.0","0","0","27170","","null","","","null","85","","","2","85","training","adjacent","BC","2","3","O.jpg","L.jpg","NaN","1","0","",""
"","too_slow_prompt","","html-keyboard-response","564","540544","0.0-1.0-772.0-0.0","1","0","27170","","null","","","null","","","","","","","","","","","","","","","","",""
"","time_out","","html-keyboard-response","565","542567","0.0-1.0-773.0-0.0","0","0","27170","","null","","","null","85","","","","","","","","","","","","","","","",""
"","ITI","","html-keyboard-response","566","543583","0.0-1.0-774.0","0","0","27170","","null","","","null","85","","","","","","","","","","","","","","","NaN",""
"","S1","","html-keyboard-response","567","543854","0.0-1.0-776.0","0","0","27170","","null","","","null","86","","","","","","","","","","","","","","","",""
"","ISI","","html-keyboard-response","568","544871","0.0-1.0-777.0","0","0","27170","","838","","","68","86","d","","","","","","","","","","","","","","",""
"","S2","","html-keyboard-response","569","545143","0.0-1.0-778.0","0","0","27170","","null","","","null","86","","NaN","","","","","","","","","","","","","",""
"","response","","html-keyboard-response","570","545463","0.0-1.0-779.0-0.0","0","0","27170","","307","","","68","86","","","2","86","training","adjacent","EF","5","6","M.jpg","P.jpg","1","1","1","",""
"","feedback","","html-keyboard-response","571","546488","0.0-1.0-780.0-0.0","0","0","27170","","null","","","null","86","","","","","","","","","","","","","","","",""
"","ITI","","html-keyboard-response","572","547512","0.0-1.0-783.0","0","0","27170","","null","","","null","86","","","","","","","","","","","","","","","NaN",""
"","S1","","html-keyboard-response","573","547784","0.0-1.0-785.0","0","0","27170","","null","","","null","87","","","","","","","","","","","","","","","",""
"","ISI","","html-keyboard-response","574","548808","0.0-1.0-786.0","0","0","27170","","null","","","null","87","NaN","","","","","","","","","","","","","","",""
"","S2","","html-keyboard-response","575","549078","0.0-1.0-787.0","0","0","27170","","null","","","null","87","","NaN","","","","","","","","","","","","","",""
"","response","","html-keyboard-response","576","549134","0.0-1.0-788.0-0.0","0","0","27170","","44","","","75","87","","","2","87","training","adjacent","GF","7","6","Q.jpg","P.jpg","0","0","1","",""
"","feedback","","html-keyboard-response","577","550159","0.0-1.0-789.0-0.0","0","0","27170","","null","","","null","87","","","","","","","","","","","","","","","",""
"","ITI","","html-keyboard-response","578","551180","0.0-1.0-792.0","0","0","27170","","null","","","null","87","","","","","","","","","","","","","","","NaN",""
"","S1","","html-keyboard-response","579","551447","0.0-1.0-794.0","0","0","27170","","null","","","null","88","","","","","","","","","","","","","","","",""
"","ISI","","html-keyboard-response","580","552463","0.0-1.0-795.0","0","0","27170","","null","","","null","88","NaN","","","","","","","","","","","","","","",""
"","S2","","html-keyboard-response","581","552736","0.0-1.0-796.0","0","0","27170","","null","","","null","88","","NaN","","","","","","","","","","","","","",""
