"success","ttype","start_time","trial_type","trial_index","time_elapsed","internal_node_id","warning","missed_checkup","PID","view_history","rt","responses","repeat_instructions","key_press","index","keypress_isi","keypress_S2","block","trial_num","phase","group_type","pair_type","S1_stim","S2_stim","S1_img","S2_img","S1_chosen","S1_higher","accuracy","keypress_iti","total_bonus_tally"
"true","full_screen","d03032023hr1948","fullscreen","0","8630","0.0-0.0","0","0","13654","","","","","","","","","","","","","","","","","","","","","",""
"","instructions","","instructions","1","99461","0.0-1.0-0.0-0.0","0","0","13654","[{""page_index"":0,""viewing_time"":27245},{""page_index"":1,""viewing_time"":60373},{""page_index"":2,""viewing_time"":1603},{""page_index"":3,""viewing_time"":1596}]","90819","","","","","","","","","","","","","","","","","","","",""
"","comprehension_check","","survey-multi-choice","2","118329","0.0-1.0-0.0-1.0","0","0","13654","","18854","{""Q0"":""True"",""Q1"":""K"",""Q2"":""Once the second image appears and while the screen 'MAKE A CHOICE' is shown"",""Q3"":""Green mark"",""Q4"":""either D or K""}","1","","","","","","","","","","","","","","","","","",""
"","missed_instruction_checkup","","html-keyboard-response","3","123050","0.0-1.0-0.0-2.0-0.0","0","1","13654","","4711","","","32","","","","","","","","","","","","","","","","",""
"","instructions","","instructions","4","133771","0.0-1.0-0.1-0.1","0","0","13654","[{""page_index"":0,""viewing_time"":3728},{""page_index"":1,""viewing_time"":3241},{""page_index"":2,""viewing_time"":1380},{""page_index"":3,""viewing_time"":2361}]","10710","","","","","","","","","","","","","","","","","","","",""
"","comprehension_check","","survey-multi-choice","5","153358","0.0-1.0-0.1-1.1","0","0","13654","","19574","{""Q0"":""True"",""Q1"":""D"",""Q2"":""Once the second image appears and while the screen 'MAKE A CHOICE' is shown"",""Q3"":""Green mark"",""Q4"":""either D or K""}","0","","","","","","","","","","","","","","","","","",""
"","start_exp","","html-keyboard-response","6","165434","0.0-1.0-1.0","0","0","13654","","12065","","","32","","","","","","","","","","","","","","","","",""
"","S1","","html-keyboard-response","7","165710","0.0-1.0-2.0","0","0","13654","","null","","","null","0","","","","","","","","","","","","","","","",""
"","ISI","","html-keyboard-response","8","166226","0.0-1.0-3.0","0","0","13654","","null","","","null","0","NaN","","","","","","","","","","","","","","",""
"","S2","","html-keyboard-response","9","166485","0.0-1.0-4.0","0","0","13654","","null","","","null","0","","NaN","","","","","","","","","","","","","",""
"","response","","html-keyboard-response","10","168252","0.0-1.0-5.0-0.0","0","0","13654","","null","","","null","0","","","1","0","training","adjacent","BC","2","3","L.jpg","P.jpg","NaN","1","0","",""
"","too_slow_prompt","","html-keyboard-response","11","169265","0.0-1.0-7.0-0.0","1","0","13654","","null","","","null","","","","","","","","","","","","","","","","",""
"","time_out","","html-keyboard-response","12","171276","0.0-1.0-8.0-0.0","0","0","13654","","null","","","null","0","","","","","","","","","","","","","","","",""
"","ITI","","html-keyboard-response","13","172285","0.0-1.0-9.0","0","0","13654","","null","","","null","0","","","","","","","","","","","","","","","NaN",""
"","S1","","html-keyboard-response","14","172540","0.0-1.0-11.0","0","0","13654","","null","","","null","1","","","","","","","","","","","","","","","",""
"","ISI","","html-keyboard-response","15","173177","0.0-1.0-12.0","0","0","13654","","null","","","null","1","NaN","","","","","","","","","","","","","","",""
"","S2","","html-keyboard-response","16","173438","0.0-1.0-13.0","0","0","13654","","null","","","null","1","","NaN","","","","","","","","","","","","","",""
"","response","","html-keyboard-response","17","174987","0.0-1.0-14.0-0.0","0","0","13654","","1544","","","68","1","","","1","1","training","adjacent","DC","4","3","N.jpg","P.jpg","1","0","0","",""
"","feedback","","html-keyboard-response","18","175998","0.0-1.0-15.0-0.0","0","0","13654","","null","","","null","1","","","","","","","","","","","","","","","",""
"","time_out","","html-keyboard-response","19","178012","0.0-1.0-17.0-0.0","0","0","13654","","null","","","null","1","","","","","","","","","","","","","","","",""
"","ITI","","html-keyboard-response","20","179024","0.0-1.0-18.0","0","0","13654","","324","","","75","1","","","","","","","","","","","","","","","k",""
"","S1","","html-keyboard-response","21","179286","0.0-1.0-20.0","0","0","13654","","null","","","null","2","","","","","","","","","","","","","","","",""
"","ISI","","html-keyboard-response","22","179800","0.0-1.0-21.0","0","0","13654","","384","","","68","2","d","","","","","","","","","","","","","","",""
"","S2","","html-keyboard-response","23","179937","0.0-1.0-22.0","0","0","13654","","132","","","75","2","","k","1","2","training","adjacent","AB","1","2","O.jpg","L.jpg","0","1","0","",""
"","feedback","","html-keyboard-response","24","180954","0.0-1.0-24.0-0.0","0","0","13654","","null","","","null","2","","","","","","","","","","","","","","","",""
"","time_out","","html-keyboard-response","25","183026","0.0-1.0-26.0-0.0","0","0","13654","","null","","","null","2","","","","","","","","","","","","","","","",""
"","ITI","","html-keyboard-response","26","184036","0.0-1.0-27.0","0","0","13654","","115","","","75","2","","","","","","","","","","","","","","","k",""
"","S1","","html-keyboard-response","27","184324","0.0-1.0-29.0","0","0","13654","","null","","","null","3","","","","","","","","","","","","","","","",""
"","ISI","","html-keyboard-response","28","184834","0.0-1.0-30.0","0","0","13654","","77","","","75","3","k","","","","","","","","","","","","","","",""
"","S2","","html-keyboard-response","29","184965","0.0-1.0-31.0","0","0","13654","","128","","","75","3","","k","1","3","training","adjacent","CB","3","2","P.jpg","L.jpg","0","0","1","",""
"","feedback","","html-keyboard-response","30","185970","0.0-1.0-33.0-0.0","0","0","13654","","null","","","null","3","","","","","","","","","","","","","","","",""
"","ITI","","html-keyboard-response","31","187164","0.0-1.0-36.0","0","0","13654","","241","","","75","3","","","","","","","","","","","","","","","k",""
"","S1","","html-keyboard-response","32","187419","0.0-1.0-38.0","0","0","13654","","null","","","null","4","","","","","","","","","","","","","","","",""
"","ISI","","html-keyboard-response","33","187923","0.0-1.0-39.0","0","0","13654","","174","","","68","4","d","","","","","","","","","","","","","","",""
"","S2","","html-keyboard-response","34","188180","0.0-1.0-40.0","0","0","13654","","null","","","null","4","","NaN","","","","","","","","","","","","","",""
"","response","","html-keyboard-response","35","188222","0.0-1.0-41.0-0.0","0","0","13654","","40","","","75","4","","","1","4","training","adjacent","FG","6","7","Q.jpg","R.jpg","0","1","0","",""
"","feedback","","html-keyboard-response","36","189227","0.0-1.0-42.0-0.0","0","0","13654","","null","","","null","4","","","","","","","","","","","","","","","",""
"","time_out","","html-keyboard-response","37","191241","0.0-1.0-44.0-0.0","0","0","13654","","null","","","null","4","","","","","","","","","","","","","","","",""
"","ITI","","html-keyboard-response","38","192251","0.0-1.0-45.0","0","0","13654","","1","","","75","4","","","","","","","","","","","","","","","k",""
"","S1","","html-keyboard-response","39","192516","0.0-1.0-47.0","0","0","13654","","null","","","null","5","","","","","","","","","","","","","","","",""
"","ISI","","html-keyboard-response","40","193018","0.0-1.0-48.0","0","0","13654","","186","","","75","5","k","","","","","","","","","","","","","","",""
"","S2","","html-keyboard-response","41","193398","0.0-1.0-49.0","0","0","13654","","null","","","null","5","","NaN","","","","","","","","","","","","","",""
"","response","","html-keyboard-response","42","193448","0.0-1.0-50.0-0.0","0","0","13654","","48","","","75","5","","","1","5","training","adjacent","CB","3","2","P.jpg","L.jpg","0","0","1","",""
"","feedback","","html-keyboard-response","43","194459","0.0-1.0-51.0-0.0","0","0","13654","","null","","","null","5","","","","","","","","","","","","","","","",""
"","ITI","","html-keyboard-response","44","195469","0.0-1.0-54.0","0","0","13654","","372","","","68","5","","","","","","","","","","","","","","","d",""
"","S1","","html-keyboard-response","45","195722","0.0-1.0-56.0","0","0","13654","","null","","","null","6","","","","","","","","","","","","","","","",""
"","ISI","","html-keyboard-response","46","196226","0.0-1.0-57.0","0","0","13654","","311","","","75","6","k","","","","","","","","","","","","","","",""
"","S2","","html-keyboard-response","47","196384","0.0-1.0-58.0","0","0","13654","","154","","","68","6","","d","1","6","training","adjacent","ED","5","4","M.jpg","N.jpg","1","0","0","",""
"","feedback","","html-keyboard-response","48","197397","0.0-1.0-60.0-0.0","0","0","13654","","null","","","null","6","","","","","","","","","","","","","","","",""
"","time_out","","html-keyboard-response","49","199403","0.0-1.0-62.0-0.0","0","0","13654","","null","","","null","6","","","","","","","","","","","","","","","",""
"","ITI","","html-keyboard-response","50","200411","0.0-1.0-63.0","0","0","13654","","1000","","","68","6","","","","","","","","","","","","","","","d",""
"","S1","","html-keyboard-response","51","200674","0.0-1.0-65.0","0","0","13654","","null","","","null","7","","","","","","","","","","","","","","","",""
"","ISI","","html-keyboard-response","52","201181","0.0-1.0-66.0","0","0","13654","","97","","","75","7","k","","","","","","","","","","","","","","",""
"","S2","","html-keyboard-response","53","201461","0.0-1.0-67.0","0","0","13654","","null","","","null","7","","NaN","","","","","","","","","","","","","",""
"","response","","html-keyboard-response","54","201605","0.0-1.0-68.0-0.0","0","0","13654","","134","","","68","7","","","1","7","training","adjacent","GF","7","6","R.jpg","Q.jpg","1","0","0","",""
"","feedback","","html-keyboard-response","55","202660","0.0-1.0-69.0-0.0","0","0","13654","","null","","","null","7","","","","","","","","","","","","","","","",""
"","time_out","","html-keyboard-response","56","204669","0.0-1.0-71.0-0.0","0","0","13654","","null","","","null","7","","","","","","","","","","","","","","","",""
"","ITI","","html-keyboard-response","57","205688","0.0-1.0-72.0","0","0","13654","","81","","","68","7","","","","","","","","","","","","","","","d",""
"","S1","","html-keyboard-response","58","205948","0.0-1.0-74.0","0","0","13654","","null","","","null","8","","","","","","","","","","","","","","","",""
"","ISI","","html-keyboard-response","59","206466","0.0-1.0-75.0","0","0","13654","","5","","","68","8","d","","","","","","","","","","","","","","",""
"","S2","","html-keyboard-response","60","206673","0.0-1.0-76.0","0","0","13654","","193","","","68","8","","d","1","8","training","adjacent","CD","3","4","P.jpg","N.jpg","1","1","1","",""
"","feedback","","html-keyboard-response","61","207684","0.0-1.0-78.0-0.0","0","0","13654","","null","","","null","8","","","","","","","","","","","","","","","",""
"","ITI","","html-keyboard-response","62","208694","0.0-1.0-81.0","0","0","13654","","168","","","68","8","","","","","","","","","","","","","","","d",""
"","S1","","html-keyboard-response","63","208956","0.0-1.0-83.0","0","0","13654","","null","","","null","9","","","","","","","","","","","","","","","",""
"","ISI","","html-keyboard-response","64","209469","0.0-1.0-84.0","0","0","13654","","116","","","68","9","d","","","","","","","","","","","","","","",""
"","S2","","html-keyboard-response","65","209876","0.0-1.0-85.0","0","0","13654","","null","","","null","9","","NaN","","","","","","","","","","","","","",""
"","response","","html-keyboard-response","66","209891","0.0-1.0-86.0-0.0","0","0","13654","","9","","","68","9","","","1","9","training","adjacent","DE","4","5","N.jpg","M.jpg","1","1","1","",""
"","feedback","","html-keyboard-response","67","210902","0.0-1.0-87.0-0.0","0","0","13654","","null","","","null","9","","","","","","","","","","","","","","","",""
"","ITI","","html-keyboard-response","68","211907","0.0-1.0-90.0","0","0","13654","","273","","","75","9","","","","","","","","","","","","","","","k",""
"","S1","","html-keyboard-response","69","212238","0.0-1.0-92.0","0","0","13654","","null","","","null","10","","","","","","","","","","","","","","","",""
"","ISI","","html-keyboard-response","70","212750","0.0-1.0-93.0","0","0","13654","","174","","","75","10","k","","","","","","","","","","","","","","",""
"","S2","","html-keyboard-response","71","212931","0.0-1.0-94.0","0","0","13654","","168","","","75","10","","k","1","10","training","adjacent","AB","1","2","O.jpg","L.jpg","0","1","0","",""
"","feedback","","html-keyboard-response","72","213951","0.0-1.0-96.0-0.0","0","0","13654","","null","","","null","10","","","","","","","","","","","","","","","",""
"","time_out","","html-keyboard-response","73","215957","0.0-1.0-98.0-0.0","0","0","13654","","null","","","null","10","","","","","","","","","","","","","","","",""
"","ITI","","html-keyboard-response","74","216964","0.0-1.0-99.0","0","0","13654","","331","","","75","10","","","","","","","","","","","","","","","k",""
"","S1","","html-keyboard-response","75","217220","0.0-1.0-101.0","0","0","13654","","null","","","null","11","","","","","","","","","","","","","","","",""
"","ISI","","html-keyboard-response","76","217731","0.0-1.0-102.0","0","0","13654","","50","","","68","11","d","","","","","","","","","","","","","","",""
"","S2","","html-keyboard-response","77","217987","0.0-1.0-103.0","0","0","13654","","null","","","null","11","","NaN","","","","","","","","","","","","","",""
"","response","","html-keyboard-response","78","218073","0.0-1.0-104.0-0.0","0","0","13654","","82","","","75","11","","","1","11","training","adjacent","CD","3","4","P.jpg","N.jpg","0","1","0","",""
"","feedback","","html-keyboard-response","79","219084","0.0-1.0-105.0-0.0","0","0","13654","","null","","","null","11","","","","","","","","","","","","","","","",""
"","time_out","","html-keyboard-response","80","221178","0.0-1.0-107.0-0.0","0","0","13654","","null","","","null","11","","","","","","","","","","","","","","","",""
"","ITI","","html-keyboard-response","81","222191","0.0-1.0-108.0","0","0","13654","","262","","","68","11","","","","","","","","","","","","","","","d",""
"","S1","","html-keyboard-response","82","222458","0.0-1.0-110.0","0","0","13654","","null","","","null","12","","","","","","","","","","","","","","","",""
"","ISI","","html-keyboard-response","83","222963","0.0-1.0-111.0","0","0","13654","","83","","","75","12","k","","","","","","","","","","","","","","",""
"","S2","","html-keyboard-response","84","223219","0.0-1.0-112.0","0","0","13654","","null","","","null","12","","NaN","","","","","","","","","","","","","",""
"","response","","html-keyboard-response","85","223244","0.0-1.0-113.0-0.0","0","0","13654","","20","","","75","12","","","1","12","training","adjacent","GF","7","6","R.jpg","Q.jpg","0","0","1","",""
"","feedback","","html-keyboard-response","86","224252","0.0-1.0-114.0-0.0","0","0","13654","","null","","","null","12","","","","","","","","","","","","","","","",""
"","ITI","","html-keyboard-response","87","225261","0.0-1.0-117.0","0","0","13654","","197","","","75","12","","","","","","","","","","","","","","","k",""
"","S1","","html-keyboard-response","88","225533","0.0-1.0-119.0","0","0","13654","","null","","","null","13","","","","","","","","","","","","","","","",""
"","ISI","","html-keyboard-response","89","226045","0.0-1.0-120.0","0","0","13654","","130","","","68","13","d","","","","","","","","","","","","","","",""
"","S2","","html-keyboard-response","90","226283","0.0-1.0-121.0","0","0","13654","","233","","","68","13","","d","1","13","training","adjacent","BA","2","1","L.jpg","O.jpg","1","0","0","",""
"","feedback","","html-keyboard-response","91","227294","0.0-1.0-123.0-0.0","0","0","13654","","null","","","null","13","","","","","","","","","","","","","","","",""
"","time_out","","html-keyboard-response","92","229303","0.0-1.0-125.0-0.0","0","0","13654","","null","","","null","13","","","","","","","","","","","","","","","",""
"","ITI","","html-keyboard-response","93","230309","0.0-1.0-126.0","0","0","13654","","132","","","75","13","","","","","","","","","","","","","","","k",""
"","S1","","html-keyboard-response","94","230586","0.0-1.0-128.0","0","0","13654","","null","","","null","14","","","","","","","","","","","","","","","",""
"","ISI","","html-keyboard-response","95","231089","0.0-1.0-129.0","0","0","13654","","49","","","75","14","k","","","","","","","","","","","","","","",""
"","S2","","html-keyboard-response","96","231229","0.0-1.0-130.0","0","0","13654","","134","","","75","14","","k","1","14","training","adjacent","BA","2","1","L.jpg","O.jpg","0","0","1","",""
"","feedback","","html-keyboard-response","97","232240","0.0-1.0-132.0-0.0","0","0","13654","","null","","","null","14","","","","","","","","","","","","","","","",""
"","ITI","","html-keyboard-response","98","233317","0.0-1.0-135.0","0","0","13654","","70","","","75","14","","","","","","","","","","","","","","","k",""
"","S1","","html-keyboard-response","99","233579","0.0-1.0-137.0","0","0","13654","","null","","","null","15","","","","","","","","","","","","","","","",""
"","ISI","","html-keyboard-response","100","234085","0.0-1.0-138.0","0","0","13654","","13","","","68","15","d","","","","","","","","","","","","","","",""
"","S2","","html-keyboard-response","101","234351","0.0-1.0-139.0","0","0","13654","","null","","","null","15","","NaN","","","","","","","","","","","","","",""
"","response","","html-keyboard-response","102","234372","0.0-1.0-140.0-0.0","0","0","13654","","17","","","75","15","","","1","15","training","adjacent","GF","7","6","R.jpg","Q.jpg","0","0","1","",""
"","feedback","","html-keyboard-response","103","235382","0.0-1.0-141.0-0.0","0","0","13654","","null","","","null","15","","","","","","","","","","","","","","","",""
"","ITI","","html-keyboard-response","104","236391","0.0-1.0-144.0","0","0","13654","","52","","","75","15","","","","","","","","","","","","","","","k",""
"","S1","","html-keyboard-response","105","236654","0.0-1.0-146.0","0","0","13654","","null","","","null","16","","","","","","","","","","","","","","","",""
"","ISI","","html-keyboard-response","106","237163","0.0-1.0-147.0","0","0","13654","","149","","","68","16","d","","","","","","","","","","","","","","",""
"","S2","","html-keyboard-response","107","237363","0.0-1.0-148.0","0","0","13654","","194","","","68","16","","d","1","16","training","adjacent","BC","2","3","L.jpg","P.jpg","1","1","1","",""
"","feedback","","html-keyboard-response","108","238374","0.0-1.0-150.0-0.0","0","0","13654","","null","","","null","16","","","","","","","","","","","","","","","",""
"","ITI","","html-keyboard-response","109","239381","0.0-1.0-153.0","0","0","13654","","247","","","75","16","","","","","","","","","","","","","","","k",""
"","S1","","html-keyboard-response","110","239643","0.0-1.0-155.0","0","0","13654","","null","","","null","17","","","","","","","","","","","","","","","",""
"","ISI","","html-keyboard-response","111","240153","0.0-1.0-156.0","0","0","13654","","85","","","75","17","k","","","","","","","","","","","","","","",""
"","S2","","html-keyboard-response","112","240418","0.0-1.0-157.0","0","0","13654","","259","","","75","17","","k","1","17","training","adjacent","EF","5","6","M.jpg","Q.jpg","0","1","0","",""
"","feedback","","html-keyboard-response","113","241444","0.0-1.0-159.0-0.0","0","0","13654","","null","","","null","17","","","","","","","","","","","","","","","",""
"","time_out","","html-keyboard-response","114","243611","0.0-1.0-161.0-0.0","0","0","13654","","null","","","null","17","","","","","","","","","","","","","","","",""
"","ITI","","html-keyboard-response","115","244621","0.0-1.0-162.0","0","0","13654","","277","","","68","17","","","","","","","","","","","","","","","d",""
"","S1","","html-keyboard-response","116","244876","0.0-1.0-164.0","0","0","13654","","null","","","null","18","","","","","","","","","","","","","","","",""
"","ISI","","html-keyboard-response","117","245387","0.0-1.0-165.0","0","0","13654","","406","","","68","18","d","","","","","","","","","","","","","","",""
"","S2","","html-keyboard-response","118","245587","0.0-1.0-166.0","0","0","13654","","195","","","75","18","","k","1","18","training","adjacent","GF","7","6","R.jpg","Q.jpg","0","0","1","",""
"","feedback","","html-keyboard-response","119","246597","0.0-1.0-168.0-0.0","0","0","13654","","null","","","null","18","","","","","","","","","","","","","","","",""
"","ITI","","html-keyboard-response","120","247603","0.0-1.0-171.0","0","0","13654","","863","","","75","18","","","","","","","","","","","","","","","k",""
"","S1","","html-keyboard-response","121","247859","0.0-1.0-173.0","0","0","13654","","null","","","null","19","","","","","","","","","","","","","","","",""
"","ISI","","html-keyboard-response","122","248364","0.0-1.0-174.0","0","0","13654","","151","","","75","19","k","","","","","","","","","","","","","","",""
"","S2","","html-keyboard-response","123","248627","0.0-1.0-175.0","0","0","13654","","null","","","null","19","","NaN","","","","","","","","","","","","","",""
"","response","","html-keyboard-response","124","248639","0.0-1.0-176.0-0.0","0","0","13654","","9","","","75","19","","","1","19","training","adjacent","FE","6","5","Q.jpg","M.jpg","0","0","1","",""
"","feedback","","html-keyboard-response","125","249649","0.0-1.0-177.0-0.0","0","0","13654","","null","","","null","19","","","","","","","","","","","","","","","",""
"","ITI","","html-keyboard-response","126","250664","0.0-1.0-180.0","0","0","13654","","164","","","68","19","","","","","","","","","","","","","","","d",""
"","S1","","html-keyboard-response","127","250926","0.0-1.0-182.0","0","0","13654","","null","","","null","20","","","","","","","","","","","","","","","",""
"","ISI","","html-keyboard-response","128","251436","0.0-1.0-183.0","0","0","13654","","406","","","75","20","k","","","","","","","","","","","","","","",""
"","S2","","html-keyboard-response","129","251667","0.0-1.0-184.0","0","0","13654","","227","","","68","20","","d","1","20","training","adjacent","AB","1","2","O.jpg","L.jpg","1","1","1","",""
"","feedback","","html-keyboard-response","130","252677","0.0-1.0-186.0-0.0","0","0","13654","","null","","","null","20","","","","","","","","","","","","","","","",""
"","ITI","","html-keyboard-response","131","253683","0.0-1.0-189.0","0","0","13654","","165","","","75","20","","","","","","","","","","","","","","","k",""
"","S1","","html-keyboard-response","132","253942","0.0-1.0-191.0","0","0","13654","","null","","","null","21","","","","","","","","","","","","","","","",""
"","ISI","","html-keyboard-response","133","254455","0.0-1.0-192.0","0","0","13654","","70","","","68","21","d","","","","","","","","","","","","","","",""
"","S2","","html-keyboard-response","134","254462","0.0-1.0-193.0","0","0","13654","","2","","","68","21","","d","1","21","training","adjacent","DC","4","3","N.jpg","P.jpg","1","0","0","",""
"","feedback","","html-keyboard-response","135","255469","0.0-1.0-195.0-0.0","0","0","13654","","null","","","null","21","","","","","","","","","","","","","","","",""
"","time_out","","html-keyboard-response","136","257479","0.0-1.0-197.0-0.0","0","0","13654","","null","","","null","21","","","","","","","","","","","","","","","",""
"","ITI","","html-keyboard-response","137","258492","0.0-1.0-198.0","0","0","13654","","132","","","75","21","","","","","","","","","","","","","","","k",""
"","S1","","html-keyboard-response","138","258748","0.0-1.0-200.0","0","0","13654","","null","","","null","22","","","","","","","","","","","","","","","",""
"","ISI","","html-keyboard-response","139","259260","0.0-1.0-201.0","0","0","13654","","3","","","68","22","d","","","","","","","","","","","","","","",""
"","S2","","html-keyboard-response","140","259515","0.0-1.0-202.0","0","0","13654","","null","","","null","22","","NaN","","","","","","","","","","","","","",""
"","response","","html-keyboard-response","141","259618","0.0-1.0-203.0-0.0","0","0","13654","","98","","","75","22","","","1","22","training","adjacent","CD","3","4","P.jpg","N.jpg","0","1","0","",""
"","feedback","","html-keyboard-response","142","260642","0.0-1.0-204.0-0.0","0","0","13654","","null","","","null","22","","","","","","","","","","","","","","","",""
"","time_out","","html-keyboard-response","143","262682","0.0-1.0-206.0-0.0","0","0","13654","","null","","","null","22","","","","","","","","","","","","","","","",""
"","ITI","","html-keyboard-response","144","263820","0.0-1.0-207.0","0","0","13654","","129","","","68","22","","","","","","","","","","","","","","","d",""
"","S1","","html-keyboard-response","145","264079","0.0-1.0-209.0","0","0","13654","","null","","","null","23","","","","","","","","","","","","","","","",""
"","ISI","","html-keyboard-response","146","264586","0.0-1.0-210.0","0","0","13654","","160","","","68","23","d","","","","","","","","","","","","","","",""
"","S2","","html-keyboard-response","147","264741","0.0-1.0-211.0","0","0","13654","","151","","","68","23","","d","1","23","training","adjacent","ED","5","4","M.jpg","N.jpg","1","0","0","",""
"","feedback","","html-keyboard-response","148","265747","0.0-1.0-213.0-0.0","0","0","13654","","null","","","null","23","","","","","","","","","","","","","","","",""
"","time_out","","html-keyboard-response","149","267753","0.0-1.0-215.0-0.0","0","0","13654","","null","","","null","23","","","","","","","","","","","","","","","",""
"","ITI","","html-keyboard-response","150","268763","0.0-1.0-216.0","0","0","13654","","8","","","75","23","","","","","","","","","","","","","","","k",""
"","S1","","html-keyboard-response","151","269021","0.0-1.0-218.0","0","0","13654","","null","","","null","24","","","","","","","","","","","","","","","",""
"","ISI","","html-keyboard-response","152","269638","0.0-1.0-219.0","0","0","13654","","178","","","75","24","k","","","","","","","","","","","","","","",""
"","S2","","html-keyboard-response","153","269738","0.0-1.0-220.0","0","0","13654","","96","","","75","24","","k","1","24","training","adjacent","DE","4","5","N.jpg","M.jpg","0","1","0","",""
"","feedback","","html-keyboard-response","154","270789","0.0-1.0-222.0-0.0","0","0","13654","","null","","","null","24","","","","","","","","","","","","","","","",""
"","time_out","","html-keyboard-response","155","272800","0.0-1.0-224.0-0.0","0","0","13654","","null","","","null","24","","","","","","","","","","","","","","","",""
"","ITI","","html-keyboard-response","156","273845","0.0-1.0-225.0","0","0","13654","","300","","","75","24","","","","","","","","","","","","","","","k",""
"","S1","","html-keyboard-response","157","274099","0.0-1.0-227.0","0","0","13654","","null","","","null","25","","","","","","","","","","","","","","","",""
"","ISI","","html-keyboard-response","158","274603","0.0-1.0-228.0","0","0","13654","","154","","","68","25","d","","","","","","","","","","","","","","",""
"","S2","","html-keyboard-response","159","274664","0.0-1.0-229.0","0","0","13654","","58","","","68","25","","d","1","25","training","adjacent","FG","6","7","Q.jpg","R.jpg","1","1","1","",""
"","feedback","","html-keyboard-response","160","275682","0.0-1.0-231.0-0.0","0","0","13654","","null","","","null","25","","","","","","","","","","","","","","","",""
"","ITI","","html-keyboard-response","161","276693","0.0-1.0-234.0","0","0","13654","","28","","","75","25","","","","","","","","","","","","","","","k",""
"","S1","","html-keyboard-response","162","276946","0.0-1.0-236.0","0","0","13654","","null","","","null","26","","","","","","","","","","","","","","","",""
"","ISI","","html-keyboard-response","163","277454","0.0-1.0-237.0","0","0","13654","","21","","","68","26","d","","","","","","","","","","","","","","",""
"","S2","","html-keyboard-response","164","277635","0.0-1.0-238.0","0","0","13654","","175","","","68","26","","d","1","26","training","adjacent","FE","6","5","Q.jpg","M.jpg","1","0","0","",""
"","feedback","","html-keyboard-response","165","278649","0.0-1.0-240.0-0.0","0","0","13654","","null","","","null","26","","","","","","","","","","","","","","","",""
"","time_out","","html-keyboard-response","166","280657","0.0-1.0-242.0-0.0","0","0","13654","","null","","","null","26","","","","","","","","","","","","","","","",""
"","ITI","","html-keyboard-response","167","281672","0.0-1.0-243.0","0","0","13654","","77","","","68","26","","","","","","","","","","","","","","","d",""
"","S1","","html-keyboard-response","168","281931","0.0-1.0-245.0","0","0","13654","","null","","","null","27","","","","","","","","","","","","","","","",""
"","ISI","","html-keyboard-response","169","282436","0.0-1.0-246.0","0","0","13654","","41","","","75","27","k","","","","","","","","","","","","","","",""
"","S2","","html-keyboard-response","170","282446","0.0-1.0-247.0","0","0","13654","","5","","","75","27","","k","1","27","training","adjacent","CB","3","2","P.jpg","L.jpg","0","0","1","",""
"","feedback","","html-keyboard-response","171","283450","0.0-1.0-249.0-0.0","0","0","13654","","null","","","null","27","","","","","","","","","","","","","","","",""
"","ITI","","html-keyboard-response","172","284460","0.0-1.0-252.0","0","0","13654","","168","","","68","27","","","","","","","","","","","","","","","d",""
"","S1","","html-keyboard-response","173","284722","0.0-1.0-254.0","0","0","13654","","null","","","null","28","","","","","","","","","","","","","","","",""
"","ISI","","html-keyboard-response","174","285227","0.0-1.0-255.0","0","0","13654","","183","","","75","28","k","","","","","","","","","","","","","","",""
"","S2","","html-keyboard-response","175","285411","0.0-1.0-256.0","0","0","13654","","176","","","75","28","","k","1","28","training","adjacent","DC","4","3","N.jpg","P.jpg","0","0","1","",""
"","feedback","","html-keyboard-response","176","286419","0.0-1.0-258.0-0.0","0","0","13654","","null","","","null","28","","","","","","","","","","","","","","","",""
"","ITI","","html-keyboard-response","177","287435","0.0-1.0-261.0","0","0","13654","","163","","","68","28","","","","","","","","","","","","","","","d",""
"","S1","","html-keyboard-response","178","287692","0.0-1.0-263.0","0","0","13654","","null","","","null","29","","","","","","","","","","","","","","","",""
"","ISI","","html-keyboard-response","179","288200","0.0-1.0-264.0","0","0","13654","","182","","","75","29","k","","","","","","","","","","","","","","",""
"","S2","","html-keyboard-response","180","288366","0.0-1.0-265.0","0","0","13654","","155","","","75","29","","k","1","29","training","adjacent","BC","2","3","L.jpg","P.jpg","0","1","0","",""
"","feedback","","html-keyboard-response","181","289381","0.0-1.0-267.0-0.0","0","0","13654","","null","","","null","29","","","","","","","","","","","","","","","",""
"","time_out","","html-keyboard-response","182","291394","0.0-1.0-269.0-0.0","0","0","13654","","null","","","null","29","","","","","","","","","","","","","","","",""
"","ITI","","html-keyboard-response","183","292403","0.0-1.0-270.0","0","0","13654","","19","","","75","29","","","","","","","","","","","","","","","k",""
"","S1","","html-keyboard-response","184","292661","0.0-1.0-272.0","0","0","13654","","null","","","null","30","","","","","","","","","","","","","","","",""
"","ISI","","html-keyboard-response","185","293172","0.0-1.0-273.0","0","0","13654","","70","","","68","30","d","","","","","","","","","","","","","","",""
"","S2","","html-keyboard-response","186","293357","0.0-1.0-274.0","0","0","13654","","177","","","68","30","","d","1","30","training","adjacent","CB","3","2","P.jpg","L.jpg","1","0","0","",""
"","feedback","","html-keyboard-response","187","294368","0.0-1.0-276.0-0.0","0","0","13654","","null","","","null","30","","","","","","","","","","","","","","","",""
"","time_out","","html-keyboard-response","188","296382","0.0-1.0-278.0-0.0","0","0","13654","","null","","","null","30","","","","","","","","","","","","","","","",""
"","ITI","","html-keyboard-response","189","297389","0.0-1.0-279.0","0","0","13654","","221","","","75","30","","","","","","","","","","","","","","","k",""
"","S1","","html-keyboard-response","190","297672","0.0-1.0-281.0","0","0","13654","","null","","","null","31","","","","","","","","","","","","","","","",""
"","ISI","","html-keyboard-response","191","298196","0.0-1.0-282.0","0","0","13654","","182","","","68","31","d","","","","","","","","","","","","","","",""
"","S2","","html-keyboard-response","192","298238","0.0-1.0-283.0","0","0","13654","","39","","","75","31","","k","1","31","training","adjacent","ED","5","4","M.jpg","N.jpg","0","0","1","",""
"","feedback","","html-keyboard-response","193","299244","0.0-1.0-285.0-0.0","0","0","13654","","null","","","null","31","","","","","","","","","","","","","","","",""
"","ITI","","html-keyboard-response","194","300297","0.0-1.0-288.0","0","0","13654","","197","","","75","31","","","","","","","","","","","","","","","k",""
"","S1","","html-keyboard-response","195","300557","0.0-1.0-290.0","0","0","13654","","null","","","null","32","","","","","","","","","","","","","","","",""
"","ISI","","html-keyboard-response","196","301067","0.0-1.0-291.0","0","0","13654","","154","","","68","32","d","","","","","","","","","","","","","","",""
"","S2","","html-keyboard-response","197","301250","0.0-1.0-292.0","0","0","13654","","177","","","68","32","","d","1","32","training","adjacent","FG","6","7","Q.jpg","R.jpg","1","1","1","",""
"","feedback","","html-keyboard-response","198","302263","0.0-1.0-294.0-0.0","0","0","13654","","null","","","null","32","","","","","","","","","","","","","","","",""
"","ITI","","html-keyboard-response","199","303289","0.0-1.0-297.0","0","0","13654","","240","","","75","32","","","","","","","","","","","","","","","k",""
"","S1","","html-keyboard-response","200","303549","0.0-1.0-299.0","0","0","13654","","null","","","null","33","","","","","","","","","","","","","","","",""
"","ISI","","html-keyboard-response","201","304153","0.0-1.0-300.0","0","0","13654","","11","","","75","33","k","","","","","","","","","","","","","","",""
"","S2","","html-keyboard-response","202","304166","0.0-1.0-301.0","0","0","13654","","10","","","68","33","","d","1","33","training","adjacent","DE","4","5","N.jpg","M.jpg","1","1","1","",""
"","feedback","","html-keyboard-response","203","305172","0.0-1.0-303.0-0.0","0","0","13654","","null","","","null","33","","","","","","","","","","","","","","","",""
"","ITI","","html-keyboard-response","204","306178","0.0-1.0-306.0","0","0","13654","","53","","","68","33","","","","","","","","","","","","","","","d",""
"","S1","","html-keyboard-response","205","306437","0.0-1.0-308.0","0","0","13654","","null","","","null","34","","","","","","","","","","","","","","","",""
"","ISI","","html-keyboard-response","206","306947","0.0-1.0-309.0","0","0","13654","","179","","","75","34","k","","","","","","","","","","","","","","",""
"","S2","","html-keyboard-response","207","307110","0.0-1.0-310.0","0","0","13654","","156","","","75","34","","k","1","34","training","adjacent","FG","6","7","Q.jpg","R.jpg","0","1","0","",""
"","feedback","","html-keyboard-response","208","308125","0.0-1.0-312.0-0.0","0","0","13654","","null","","","null","34","","","","","","","","","","","","","","","",""
"","time_out","","html-keyboard-response","209","310155","0.0-1.0-314.0-0.0","0","0","13654","","null","","","null","34","","","","","","","","","","","","","","","",""
"","ITI","","html-keyboard-response","210","311164","0.0-1.0-315.0","0","0","13654","","100","","","75","34","","","","","","","","","","","","","","","k",""
"","S1","","html-keyboard-response","211","311427","0.0-1.0-317.0","0","0","13654","","null","","","null","35","","","","","","","","","","","","","","","",""
"","ISI","","html-keyboard-response","212","311932","0.0-1.0-318.0","0","0","13654","","9","","","75","35","k","","","","","","","","","","","","","","",""
"","S2","","html-keyboard-response","213","312036","0.0-1.0-319.0","0","0","13654","","99","","","68","35","","d","1","35","training","adjacent","BA","2","1","L.jpg","O.jpg","1","0","0","",""
"","feedback","","html-keyboard-response","214","313043","0.0-1.0-321.0-0.0","0","0","13654","","null","","","null","35","","","","","","","","","","","","","","","",""
"","time_out","","html-keyboard-response","215","315052","0.0-1.0-323.0-0.0","0","0","13654","","null","","","null","35","","","","","","","","","","","","","","","",""
"","ITI","","html-keyboard-response","216","316062","0.0-1.0-324.0","0","0","13654","","45","","","75","35","","","","","","","","","","","","","","","k",""
"","S1","","html-keyboard-response","217","316403","0.0-1.0-326.0","0","0","13654","","null","","","null","36","","","","","","","","","","","","","","","",""
"","ISI","","html-keyboard-response","218","316911","0.0-1.0-327.0","0","0","13654","","178","","","75","36","k","","","","","","","","","","","","","","",""
"","S2","","html-keyboard-response","219","317075","0.0-1.0-328.0","0","0","13654","","158","","","75","36","","k","1","36","training","adjacent","DE","4","5","N.jpg","M.jpg","0","1","0","",""
"","feedback","","html-keyboard-response","220","318086","0.0-1.0-330.0-0.0","0","0","13654","","null","","","null","36","","","","","","","","","","","","","","","",""
"","time_out","","html-keyboard-response","221","320098","0.0-1.0-332.0-0.0","0","0","13654","","null","","","null","36","","","","","","","","","","","","","","","",""
"","ITI","","html-keyboard-response","222","321109","0.0-1.0-333.0","0","0","13654","","94","","","75","36","","","","","","","","","","","","","","","k",""
"","S1","","html-keyboard-response","223","321374","0.0-1.0-335.0","0","0","13654","","null","","","null","37","","","","","","","","","","","","","","","",""
"","ISI","","html-keyboard-response","224","321887","0.0-1.0-336.0","0","0","13654","","124","","","68","37","d","","","","","","","","","","","","","","",""
"","S2","","html-keyboard-response","225","322162","0.0-1.0-337.0","0","0","13654","","null","","","null","37","","NaN","","","","","","","","","","","","","",""
"","response","","html-keyboard-response","226","322171","0.0-1.0-338.0-0.0","0","0","13654","","6","","","75","37","","","1","37","training","adjacent","FE","6","5","Q.jpg","M.jpg","0","0","1","",""
"","feedback","","html-keyboard-response","227","323179","0.0-1.0-339.0-0.0","0","0","13654","","null","","","null","37","","","","","","","","","","","","","","","",""
"","ITI","","html-keyboard-response","228","324188","0.0-1.0-342.0","0","0","13654","","176","","","68","37","","","","","","","","","","","","","","","d",""
"","S1","","html-keyboard-response","229","324444","0.0-1.0-344.0","0","0","13654","","null","","","null","38","","","","","","","","","","","","","","","",""
"","ISI","","html-keyboard-response","230","324955","0.0-1.0-345.0","0","0","13654","","3","","","68","38","d","","","","","","","","","","","","","","",""
"","S2","","html-keyboard-response","231","325213","0.0-1.0-346.0","0","0","13654","","null","","","null","38","","NaN","","","","","","","","","","","","","",""
"","response","","html-keyboard-response","232","325217","0.0-1.0-347.0-0.0","0","0","13654","","1","","","75","38","","","1","38","training","adjacent","EF","5","6","M.jpg","Q.jpg","0","1","0","",""
"","feedback","","html-keyboard-response","233","326230","0.0-1.0-348.0-0.0","0","0","13654","","null","","","null","38","","","","","","","","","","","","","","","",""
"","time_out","","html-keyboard-response","234","328247","0.0-1.0-350.0-0.0","0","0","13654","","null","","","null","38","","","","","","","","","","","","","","","",""
"","ITI","","html-keyboard-response","235","329263","0.0-1.0-351.0","0","0","13654","","75","","","68","38","","","","","","","","","","","","","","","d",""
"","S1","","html-keyboard-response","236","329584","0.0-1.0-353.0","0","0","13654","","null","","","null","39","","","","","","","","","","","","","","","",""
"","ISI","","html-keyboard-response","237","330097","0.0-1.0-354.0","0","0","13654","","185","","","75","39","k","","","","","","","","","","","","","","",""
"","S2","","html-keyboard-response","238","330236","0.0-1.0-355.0","0","0","13654","","132","","","75","39","","k","1","39","training","adjacent","EF","5","6","M.jpg","Q.jpg","0","1","0","",""
"","feedback","","html-keyboard-response","239","331245","0.0-1.0-357.0-0.0","0","0","13654","","null","","","null","39","","","","","","","","","","","","","","","",""
"","time_out","","html-keyboard-response","240","333252","0.0-1.0-359.0-0.0","0","0","13654","","null","","","null","39","","","","","","","","","","","","","","","",""
"","ITI","","html-keyboard-response","241","334260","0.0-1.0-360.0","0","0","13654","","21","","","75","39","","","","","","","","","","","","","","","k",""
"","S1","","html-keyboard-response","242","334538","0.0-1.0-362.0","0","0","13654","","null","","","null","40","","","","","","","","","","","","","","","",""
"","ISI","","html-keyboard-response","243","335042","0.0-1.0-363.0","0","0","13654","","212","","","75","40","k","","","","","","","","","","","","","","",""
"","S2","","html-keyboard-response","244","335208","0.0-1.0-364.0","0","0","13654","","161","","","75","40","","k","1","40","training","adjacent","DC","4","3","N.jpg","P.jpg","0","0","1","",""
"","feedback","","html-keyboard-response","245","336228","0.0-1.0-366.0-0.0","0","0","13654","","null","","","null","40","","","","","","","","","","","","","","","",""
"","ITI","","html-keyboard-response","246","337247","0.0-1.0-369.0","0","0","13654","","123","","","68","40","","","","","","","","","","","","","","","d",""
"","S1","","html-keyboard-response","247","337508","0.0-1.0-371.0","0","0","13654","","null","","","null","41","","","","","","","","","","","","","","","",""
"","ISI","","html-keyboard-response","248","338027","0.0-1.0-372.0","0","0","13654","","78","","","75","41","k","","","","","","","","","","","","","","",""
"","S2","","html-keyboard-response","249","338059","0.0-1.0-373.0","0","0","13654","","26","","","75","41","","k","1","41","training","adjacent","BC","2","3","L.jpg","P.jpg","0","1","0","",""
"","feedback","","html-keyboard-response","250","339206","0.0-1.0-375.0-0.0","0","0","13654","","null","","","null","41","","","","","","","","","","","","","","","",""
"","time_out","","html-keyboard-response","251","341222","0.0-1.0-377.0-0.0","0","0","13654","","null","","","null","41","","","","","","","","","","","","","","","",""
"","ITI","","html-keyboard-response","252","342341","0.0-1.0-378.0","0","0","13654","","99","","","68","41","","","","","","","","","","","","","","","d",""
"","S1","","html-keyboard-response","253","342608","0.0-1.0-380.0","0","0","13654","","null","","","null","42","","","","","","","","","","","","","","","",""
"","ISI","","html-keyboard-response","254","343120","0.0-1.0-381.0","0","0","13654","","128","","","68","42","d","","","","","","","","","","","","","","",""
"","S2","","html-keyboard-response","255","343182","0.0-1.0-382.0","0","0","13654","","56","","","68","42","","d","1","42","training","adjacent","BA","2","1","L.jpg","O.jpg","1","0","0","",""
"","feedback","","html-keyboard-response","256","344190","0.0-1.0-384.0-0.0","0","0","13654","","null","","","null","42","","","","","","","","","","","","","","","",""
"","time_out","","html-keyboard-response","257","346199","0.0-1.0-386.0-0.0","0","0","13654","","null","","","null","42","","","","","","","","","","","","","","","",""
"","ITI","","html-keyboard-response","258","347207","0.0-1.0-387.0","0","0","13654","","93","","","68","42","","","","","","","","","","","","","","","d",""
"","S1","","html-keyboard-response","259","347466","0.0-1.0-389.0","0","0","13654","","null","","","null","43","","","","","","","","","","","","","","","",""
"","ISI","","html-keyboard-response","260","347971","0.0-1.0-390.0","0","0","13654","","9","","","75","43","k","","","","","","","","","","","","","","",""
"","S2","","html-keyboard-response","261","348065","0.0-1.0-391.0","0","0","13654","","90","","","75","43","","k","1","43","training","adjacent","EF","5","6","M.jpg","Q.jpg","0","1","0","",""
"","feedback","","html-keyboard-response","262","349078","0.0-1.0-393.0-0.0","0","0","13654","","null","","","null","43","","","","","","","","","","","","","","","",""
"","time_out","","html-keyboard-response","263","351150","0.0-1.0-395.0-0.0","0","0","13654","","null","","","null","43","","","","","","","","","","","","","","","",""
"","ITI","","html-keyboard-response","264","352156","0.0-1.0-396.0","0","0","13654","","93","","","68","43","","","","","","","","","","","","","","","d",""
"","S1","","html-keyboard-response","265","352415","0.0-1.0-398.0","0","0","13654","","null","","","null","44","","","","","","","","","","","","","","","",""
"","ISI","","html-keyboard-response","266","352931","0.0-1.0-399.0","0","0","13654","","232","","","68","44","d","","","","","","","","","","","","","","",""
"","S2","","html-keyboard-response","267","353023","0.0-1.0-400.0","0","0","13654","","87","","","75","44","","k","1","44","training","adjacent","FE","6","5","Q.jpg","M.jpg","0","0","1","",""
"","feedback","","html-keyboard-response","268","354034","0.0-1.0-402.0-0.0","0","0","13654","","null","","","null","44","","","","","","","","","","","","","","","",""
"","ITI","","html-keyboard-response","269","355045","0.0-1.0-405.0","0","0","13654","","58","","","68","44","","","","","","","","","","","","","","","d",""
"","S1","","html-keyboard-response","270","355359","0.0-1.0-407.0","0","0","13654","","null","","","null","45","","","","","","","","","","","","","","","",""
"","ISI","","html-keyboard-response","271","355872","0.0-1.0-408.0","0","0","13654","","8","","","68","45","d","","","","","","","","","","","","","","",""
"","S2","","html-keyboard-response","272","355919","0.0-1.0-409.0","0","0","13654","","43","","","75","45","","k","1","45","training","adjacent","CD","3","4","P.jpg","N.jpg","0","1","0","",""
"","feedback","","html-keyboard-response","273","356924","0.0-1.0-411.0-0.0","0","0","13654","","null","","","null","45","","","","","","","","","","","","","","","",""
"","time_out","","html-keyboard-response","274","358932","0.0-1.0-413.0-0.0","0","0","13654","","null","","","null","45","","","","","","","","","","","","","","","",""
"","ITI","","html-keyboard-response","275","359941","0.0-1.0-414.0","0","0","13654","","54","","","75","45","","","","","","","","","","","","","","","k",""
"","S1","","html-keyboard-response","276","360283","0.0-1.0-416.0","0","0","13654","","null","","","null","46","","","","","","","","","","","","","","","",""
"","ISI","","html-keyboard-response","277","360790","0.0-1.0-417.0","0","0","13654","","7","","","68","46","d","","","","","","","","","","","","","","",""
"","S2","","html-keyboard-response","278","360849","0.0-1.0-418.0","0","0","13654","","54","","","75","46","","k","1","46","training","adjacent","AB","1","2","O.jpg","L.jpg","0","1","0","",""
"","feedback","","html-keyboard-response","279","361861","0.0-1.0-420.0-0.0","0","0","13654","","null","","","null","46","","","","","","","","","","","","","","","",""
"","time_out","","html-keyboard-response","280","363871","0.0-1.0-422.0-0.0","0","0","13654","","null","","","null","46","","","","","","","","","","","","","","","",""
"","ITI","","html-keyboard-response","281","364884","0.0-1.0-423.0","0","0","13654","","111","","","75","46","","","","","","","","","","","","","","","k",""
"","S1","","html-keyboard-response","282","365139","0.0-1.0-425.0","0","0","13654","","null","","","null","47","","","","","","","","","","","","","","","",""
"","ISI","","html-keyboard-response","283","365642","0.0-1.0-426.0","0","0","13654","","359","","","75","47","k","","","","","","","","","","","","","","",""
"","S2","","html-keyboard-response","284","365666","0.0-1.0-427.0","0","0","13654","","20","","","68","47","","d","1","47","training","adjacent","ED","5","4","M.jpg","N.jpg","1","0","0","",""
"","feedback","","html-keyboard-response","285","366673","0.0-1.0-429.0-0.0","0","0","13654","","null","","","null","47","","","","","","","","","","","","","","","",""
"","time_out","","html-keyboard-response","286","368688","0.0-1.0-431.0-0.0","0","0","13654","","null","","","null","47","","","","","","","","","","","","","","","",""
"","ITI","","html-keyboard-response","287","369699","0.0-1.0-432.0","0","0","13654","","27","","","68","47","","","","","","","","","","","","","","","d",""
"","block_over","","html-keyboard-response","288","374916","0.0-1.0-433.0-0.0","0","0","13654","","5208","","","32","47","","","","","","","","","","","","","","","",""
"","S1","","html-keyboard-response","289","375170","0.0-1.0-434.0","0","0","13654","","null","","","null","48","","","","","","","","","","","","","","","",""
"","ISI","","html-keyboard-response","290","375676","0.0-1.0-435.0","0","0","13654","","null","","","null","48","NaN","","","","","","","","","","","","","","",""
"","S2","","html-keyboard-response","291","375930","0.0-1.0-436.0","0","0","13654","","null","","","null","48","","NaN","","","","","","","","","","","","","",""
"","response","","html-keyboard-response","292","377690","0.0-1.0-437.0-0.0","0","0","13654","","null","","","null","48","","","2","48","training","adjacent","BC","2","3","L.jpg","P.jpg","NaN","1","0","",""
"","too_slow_prompt","","html-keyboard-response","293","378702","0.0-1.0-439.0-0.0","1","0","13654","","null","","","null","","","","","","","","","","","","","","","","",""
"","time_out","","html-keyboard-response","294","380724","0.0-1.0-440.0-0.0","0","0","13654","","null","","","null","48","","","","","","","","","","","","","","","",""
"","ITI","","html-keyboard-response","295","381735","0.0-1.0-441.0","0","0","13654","","60","","","75","48","","","","","","","","","","","","","","","k",""
"","S1","","html-keyboard-response","296","382017","0.0-1.0-443.0","0","0","13654","","null","","","null","49","","","","","","","","","","","","","","","",""
"","ISI","","html-keyboard-response","297","382523","0.0-1.0-444.0","0","0","13654","","114","","","75","49","k","","","","","","","","","","","","","","",""
"","S2","","html-keyboard-response","298","382575","0.0-1.0-445.0","0","0","13654","","49","","","75","49","","k","2","49","training","adjacent","EF","5","6","M.jpg","Q.jpg","0","1","0","",""
"","feedback","","html-keyboard-response","299","383583","0.0-1.0-447.0-0.0","0","0","13654","","null","","","null","49","","","","","","","","","","","","","","","",""
"","time_out","","html-keyboard-response","300","385629","0.0-1.0-449.0-0.0","0","0","13654","","null","","","null","49","","","","","","","","","","","","","","","",""
"","ITI","","html-keyboard-response","301","386663","0.0-1.0-450.0","0","0","13654","","2","","","75","49","","","","","","","","","","","","","","","k",""
"","S1","","html-keyboard-response","302","386924","0.0-1.0-452.0","0","0","13654","","null","","","null","50","","","","","","","","","","","","","","","",""
"","ISI","","html-keyboard-response","303","387426","0.0-1.0-453.0","0","0","13654","","53","","","75","50","k","","","","","","","","","","","","","","",""
"","S2","","html-keyboard-response","304","387448","0.0-1.0-454.0","0","0","13654","","19","","","75","50","","k","2","50","training","adjacent","FE","6","5","Q.jpg","M.jpg","0","0","1","",""
"","feedback","","html-keyboard-response","305","388458","0.0-1.0-456.0-0.0","0","0","13654","","null","","","null","50","","","","","","","","","","","","","","","",""
"","ITI","","html-keyboard-response","306","389467","0.0-1.0-459.0","0","0","13654","","61","","","68","50","","","","","","","","","","","","","","","d",""
"","S1","","html-keyboard-response","307","389735","0.0-1.0-461.0","0","0","13654","","null","","","null","51","","","","","","","","","","","","","","","",""
"","ISI","","html-keyboard-response","308","390243","0.0-1.0-462.0","0","0","13654","","4","","","75","51","k","","","","","","","","","","","","","","",""
"","S2","","html-keyboard-response","309","390407","0.0-1.0-463.0","0","0","13654","","160","","","68","51","","d","2","51","training","adjacent","CD","3","4","P.jpg","N.jpg","1","1","1","",""
"","feedback","","html-keyboard-response","310","391423","0.0-1.0-465.0-0.0","0","0","13654","","null","","","null","51","","","","","","","","","","","","","","","",""
"","ITI","","html-keyboard-response","311","392438","0.0-1.0-468.0","0","0","13654","","241","","","75","51","","","","","","","","","","","","","","","k",""
"","S1","","html-keyboard-response","312","392700","0.0-1.0-470.0","0","0","13654","","null","","","null","52","","","","","","","","","","","","","","","",""
"","ISI","","html-keyboard-response","313","393213","0.0-1.0-471.0","0","0","13654","","134","","","68","52","d","","","","","","","","","","","","","","",""
"","S2","","html-keyboard-response","314","393316","0.0-1.0-472.0","0","0","13654","","100","","","68","52","","d","2","52","training","adjacent","ED","5","4","M.jpg","N.jpg","1","0","0","",""
"","feedback","","html-keyboard-response","315","394355","0.0-1.0-474.0-0.0","0","0","13654","","null","","","null","52","","","","","","","","","","","","","","","",""
"","time_out","","html-keyboard-response","316","396369","0.0-1.0-476.0-0.0","0","0","13654","","null","","","null","52","","","","","","","","","","","","","","","",""
"","ITI","","html-keyboard-response","317","397380","0.0-1.0-477.0","0","0","13654","","165","","","75","52","","","","","","","","","","","","","","","k",""
"","S1","","html-keyboard-response","318","397688","0.0-1.0-479.0","0","0","13654","","null","","","null","53","","","","","","","","","","","","","","","",""
"","ISI","","html-keyboard-response","319","398200","0.0-1.0-480.0","0","0","13654","","135","","","68","53","d","","","","","","","","","","","","","","",""
"","S2","","html-keyboard-response","320","398455","0.0-1.0-481.0","0","0","13654","","null","","","null","53","","NaN","","","","","","","","","","","","","",""
"","response","","html-keyboard-response","321","398535","0.0-1.0-482.0-0.0","0","0","13654","","76","","","75","53","","","2","53","training","adjacent","BC","2","3","L.jpg","P.jpg","0","1","0","",""
"","feedback","","html-keyboard-response","322","399541","0.0-1.0-483.0-0.0","0","0","13654","","null","","","null","53","","","","","","","","","","","","","","","",""
"","time_out","","html-keyboard-response","323","401552","0.0-1.0-485.0-0.0","0","0","13654","","null","","","null","53","","","","","","","","","","","","","","","",""
"","ITI","","html-keyboard-response","324","402562","0.0-1.0-486.0","0","0","13654","","186","","","75","53","","","","","","","","","","","","","","","k",""
"","S1","","html-keyboard-response","325","402824","0.0-1.0-488.0","0","0","13654","","null","","","null","54","","","","","","","","","","","","","","","",""
"","ISI","","html-keyboard-response","326","403477","0.0-1.0-489.0","0","0","13654","","169","","","68","54","d","","","","","","","","","","","","","","",""
"","S2","","html-keyboard-response","327","403535","0.0-1.0-490.0","0","0","13654","","54","","","68","54","","d","2","54","training","adjacent","BC","2","3","L.jpg","P.jpg","1","1","1","",""
"","feedback","","html-keyboard-response","328","404539","0.0-1.0-492.0-0.0","0","0","13654","","null","","","null","54","","","","","","","","","","","","","","","",""
"","ITI","","html-keyboard-response","329","405546","0.0-1.0-495.0","0","0","13654","","255","","","75","54","","","","","","","","","","","","","","","k",""
"","S1","","html-keyboard-response","330","405802","0.0-1.0-497.0","0","0","13654","","null","","","null","55","","","","","","","","","","","","","","","",""
"","ISI","","html-keyboard-response","331","406330","0.0-1.0-498.0","0","0","13654","","288","","","68","55","d","","","","","","","","","","","","","","",""
"","S2","","html-keyboard-response","332","406508","0.0-1.0-499.0","0","0","13654","","173","","","68","55","","d","2","55","training","adjacent","CB","3","2","P.jpg","L.jpg","1","0","0","",""
"","feedback","","html-keyboard-response","333","407513","0.0-1.0-501.0-0.0","0","0","13654","","null","","","null","55","","","","","","","","","","","","","","","",""
"","time_out","","html-keyboard-response","334","409528","0.0-1.0-503.0-0.0","0","0","13654","","null","","","null","55","","","","","","","","","","","","","","","",""
"","ITI","","html-keyboard-response","335","410538","0.0-1.0-504.0","0","0","13654","","165","","","75","55","","","","","","","","","","","","","","","k",""
"","S1","","html-keyboard-response","336","410835","0.0-1.0-506.0","0","0","13654","","null","","","null","56","","","","","","","","","","","","","","","",""
"","ISI","","html-keyboard-response","337","411353","0.0-1.0-507.0","0","0","13654","","59","","","68","56","d","","","","","","","","","","","","","","",""
"","S2","","html-keyboard-response","338","411519","0.0-1.0-508.0","0","0","13654","","156","","","68","56","","d","2","56","training","adjacent","FG","6","7","Q.jpg","R.jpg","1","1","1","",""
"","feedback","","html-keyboard-response","339","412526","0.0-1.0-510.0-0.0","0","0","13654","","null","","","null","56","","","","","","","","","","","","","","","",""
"","ITI","","html-keyboard-response","340","413531","0.0-1.0-513.0","0","0","13654","","191","","","75","56","","","","","","","","","","","","","","","k",""
"","S1","","html-keyboard-response","341","413787","0.0-1.0-515.0","0","0","13654","","null","","","null","57","","","","","","","","","","","","","","","",""
"","ISI","","html-keyboard-response","342","414378","0.0-1.0-516.0","0","0","13654","","109","","","75","57","k","","","","","","","","","","","","","","",""
"","S2","","html-keyboard-response","343","414539","0.0-1.0-517.0","0","0","13654","","157","","","75","57","","k","2","57","training","adjacent","CB","3","2","P.jpg","L.jpg","0","0","1","",""
"","feedback","","html-keyboard-response","344","415549","0.0-1.0-519.0-0.0","0","0","13654","","null","","","null","57","","","","","","","","","","","","","","","",""
"","ITI","","html-keyboard-response","345","416577","0.0-1.0-522.0","0","0","13654","","166","","","68","57","","","","","","","","","","","","","","","d",""
"","S1","","html-keyboard-response","346","416835","0.0-1.0-524.0","0","0","13654","","null","","","null","58","","","","","","","","","","","","","","","",""
"","ISI","","html-keyboard-response","347","417341","0.0-1.0-525.0","0","0","13654","","246","","","75","58","k","","","","","","","","","","","","","","",""
"","S2","","html-keyboard-response","348","417612","0.0-1.0-526.0","0","0","13654","","null","","","null","58","","NaN","","","","","","","","","","","","","",""
"","response","","html-keyboard-response","349","417832","0.0-1.0-527.0-0.0","0","0","13654","","212","","","75","58","","","2","58","training","adjacent","BA","2","1","L.jpg","O.jpg","0","0","1","",""
"","feedback","","html-keyboard-response","350","418845","0.0-1.0-528.0-0.0","0","0","13654","","null","","","null","58","","","","","","","","","","","","","","","",""
"","ITI","","html-keyboard-response","351","419886","0.0-1.0-531.0","0","0","13654","","317","","","68","58","","","","","","","","","","","","","","","d",""
"","S1","","html-keyboard-response","352","420148","0.0-1.0-533.0","0","0","13654","","null","","","null","59","","","","","","","","","","","","","","","",""
"","ISI","","html-keyboard-response","353","420661","0.0-1.0-534.0","0","0","13654","","139","","","68","59","d","","","","","","","","","","","","","","",""
"","S2","","html-keyboard-response","354","420769","0.0-1.0-535.0","0","0","13654","","103","","","68","59","","d","2","59","training","adjacent","BC","2","3","L.jpg","P.jpg","1","1","1","",""
"","feedback","","html-keyboard-response","355","421779","0.0-1.0-537.0-0.0","0","0","13654","","null","","","null","59","","","","","","","","","","","","","","","",""
"","ITI","","html-keyboard-response","356","422790","0.0-1.0-540.0","0","0","13654","","241","","","68","59","","","","","","","","","","","","","","","d",""
"","S1","","html-keyboard-response","357","423050","0.0-1.0-542.0","0","0","13654","","null","","","null","60","","","","","","","","","","","","","","","",""
"","ISI","","html-keyboard-response","358","423555","0.0-1.0-543.0","0","0","13654","","46","","","68","60","d","","","","","","","","","","","","","","",""
"","S2","","html-keyboard-response","359","423652","0.0-1.0-544.0","0","0","13654","","93","","","68","60","","d","2","60","training","adjacent","BA","2","1","L.jpg","O.jpg","1","0","0","",""
"","feedback","","html-keyboard-response","360","424662","0.0-1.0-546.0-0.0","0","0","13654","","null","","","null","60","","","","","","","","","","","","","","","",""
"","time_out","","html-keyboard-response","361","426679","0.0-1.0-548.0-0.0","0","0","13654","","null","","","null","60","","","","","","","","","","","","","","","",""
"","ITI","","html-keyboard-response","362","427691","0.0-1.0-549.0","0","0","13654","","12","","","75","60","","","","","","","","","","","","","","","k",""
"","S1","","html-keyboard-response","363","427949","0.0-1.0-551.0","0","0","13654","","null","","","null","61","","","","","","","","","","","","","","","",""
"","ISI","","html-keyboard-response","364","428463","0.0-1.0-552.0","0","0","13654","","155","","","75","61","k","","","","","","","","","","","","","","",""
"","S2","","html-keyboard-response","365","428552","0.0-1.0-553.0","0","0","13654","","84","","","75","61","","k","2","61","training","adjacent","DC","4","3","N.jpg","P.jpg","0","0","1","",""
"","feedback","","html-keyboard-response","366","429570","0.0-1.0-555.0-0.0","0","0","13654","","null","","","null","61","","","","","","","","","","","","","","","",""
"","ITI","","html-keyboard-response","367","430579","0.0-1.0-558.0","0","0","13654","","18","","","68","61","","","","","","","","","","","","","","","d",""
"","S1","","html-keyboard-response","368","430858","0.0-1.0-560.0","0","0","13654","","null","","","null","62","","","","","","","","","","","","","","","",""
"","ISI","","html-keyboard-response","369","431365","0.0-1.0-561.0","0","0","13654","","157","","","68","62","d","","","","","","","","","","","","","","",""
"","S2","","html-keyboard-response","370","431479","0.0-1.0-562.0","0","0","13654","","110","","","68","62","","d","2","62","training","adjacent","AB","1","2","O.jpg","L.jpg","1","1","1","",""
"","feedback","","html-keyboard-response","371","432548","0.0-1.0-564.0-0.0","0","0","13654","","null","","","null","62","","","","","","","","","","","","","","","",""
"","ITI","","html-keyboard-response","372","433556","0.0-1.0-567.0","0","0","13654","","136","","","75","62","","","","","","","","","","","","","","","k",""
"","S1","","html-keyboard-response","373","433811","0.0-1.0-569.0","0","0","13654","","null","","","null","63","","","","","","","","","","","","","","","",""
"","ISI","","html-keyboard-response","374","434316","0.0-1.0-570.0","0","0","13654","","282","","","75","63","k","","","","","","","","","","","","","","",""
"","S2","","html-keyboard-response","375","434522","0.0-1.0-571.0","0","0","13654","","201","","","75","63","","k","2","63","training","adjacent","EF","5","6","M.jpg","Q.jpg","0","1","0","",""
"","feedback","","html-keyboard-response","376","435561","0.0-1.0-573.0-0.0","0","0","13654","","null","","","null","63","","","","","","","","","","","","","","","",""
"","time_out","","html-keyboard-response","377","437570","0.0-1.0-575.0-0.0","0","0","13654","","null","","","null","63","","","","","","","","","","","","","","","",""
"","ITI","","html-keyboard-response","378","438588","0.0-1.0-576.0","0","0","13654","","306","","","68","63","","","","","","","","","","","","","","","d",""
"","S1","","html-keyboard-response","379","438846","0.0-1.0-578.0","0","0","13654","","null","","","null","64","","","","","","","","","","","","","","","",""
"","ISI","","html-keyboard-response","380","439374","0.0-1.0-579.0","0","0","13654","","85","","","68","64","d","","","","","","","","","","","","","","",""
"","S2","","html-keyboard-response","381","439648","0.0-1.0-580.0","0","0","13654","","null","","","null","64","","NaN","","","","","","","","","","","","","",""
"","response","","html-keyboard-response","382","439740","0.0-1.0-581.0-0.0","0","0","13654","","86","","","68","64","","","2","64","training","adjacent","ED","5","4","M.jpg","N.jpg","1","0","0","",""
"","feedback","","html-keyboard-response","383","440750","0.0-1.0-582.0-0.0","0","0","13654","","null","","","null","64","","","","","","","","","","","","","","","",""
"","time_out","","html-keyboard-response","384","442769","0.0-1.0-584.0-0.0","0","0","13654","","null","","","null","64","","","","","","","","","","","","","","","",""
"","ITI","","html-keyboard-response","385","443779","0.0-1.0-585.0","0","0","13654","","257","","","68","64","","","","","","","","","","","","","","","d",""
"","S1","","html-keyboard-response","386","444046","0.0-1.0-587.0","0","0","13654","","null","","","null","65","","","","","","","","","","","","","","","",""
"","ISI","","html-keyboard-response","387","444558","0.0-1.0-588.0","0","0","13654","","190","","","68","65","d","","","","","","","","","","","","","","",""
"","S2","","html-keyboard-response","388","444702","0.0-1.0-589.0","0","0","13654","","137","","","68","65","","d","2","65","training","adjacent","AB","1","2","O.jpg","L.jpg","1","1","1","",""
"","feedback","","html-keyboard-response","389","445715","0.0-1.0-591.0-0.0","0","0","13654","","null","","","null","65","","","","","","","","","","","","","","","",""
"","ITI","","html-keyboard-response","390","446728","0.0-1.0-594.0","0","0","13654","","257","","","75","65","","","","","","","","","","","","","","","k",""
"","S1","","html-keyboard-response","391","446987","0.0-1.0-596.0","0","0","13654","","null","","","null","66","","","","","","","","","","","","","","","",""
"","ISI","","html-keyboard-response","392","447494","0.0-1.0-597.0","0","0","13654","","121","","","68","66","d","","","","","","","","","","","","","","",""
"","S2","","html-keyboard-response","393","447579","0.0-1.0-598.0","0","0","13654","","79","","","68","66","","d","2","66","training","adjacent","FE","6","5","Q.jpg","M.jpg","1","0","0","",""
"","feedback","","html-keyboard-response","394","448647","0.0-1.0-600.0-0.0","0","0","13654","","null","","","null","66","","","","","","","","","","","","","","","",""
"","time_out","","html-keyboard-response","395","450762","0.0-1.0-602.0-0.0","0","0","13654","","null","","","null","66","","","","","","","","","","","","","","","",""
"","ITI","","html-keyboard-response","396","451773","0.0-1.0-603.0","0","0","13654","","194","","","68","66","","","","","","","","","","","","","","","d",""
"","S1","","html-keyboard-response","397","452026","0.0-1.0-605.0","0","0","13654","","null","","","null","67","","","","","","","","","","","","","","","",""
"","ISI","","html-keyboard-response","398","452531","0.0-1.0-606.0","0","0","13654","","262","","","75","67","k","","","","","","","","","","","","","","",""
"","S2","","html-keyboard-response","399","452798","0.0-1.0-607.0","0","0","13654","","null","","","null","67","","NaN","","","","","","","","","","","","","",""
"","response","","html-keyboard-response","400","452801","0.0-1.0-608.0-0.0","0","0","13654","","0","","","68","67","","","2","67","training","adjacent","ED","5","4","M.jpg","N.jpg","1","0","0","",""
"","feedback","","html-keyboard-response","401","453819","0.0-1.0-609.0-0.0","0","0","13654","","null","","","null","67","","","","","","","","","","","","","","","",""
"","time_out","","html-keyboard-response","402","455828","0.0-1.0-611.0-0.0","0","0","13654","","null","","","null","67","","","","","","","","","","","","","","","",""
"","ITI","","html-keyboard-response","403","456835","0.0-1.0-612.0","0","0","13654","","null","","","null","67","","","","","","","","","","","","","","","NaN",""
"","S1","","html-keyboard-response","404","457090","0.0-1.0-614.0","0","0","13654","","null","","","null","68","","","","","","","","","","","","","","","",""
"","ISI","","html-keyboard-response","405","457595","0.0-1.0-615.0","0","0","13654","","null","","","null","68","NaN","","","","","","","","","","","","","","",""
"","S2","","html-keyboard-response","406","457849","0.0-1.0-616.0","0","0","13654","","null","","","null","68","","NaN","","","","","","","","","","","","","",""
"","response","","html-keyboard-response","407","459602","0.0-1.0-617.0-0.0","0","0","13654","","null","","","null","68","","","2","68","training","adjacent","GF","7","6","R.jpg","Q.jpg","NaN","0","0","",""
"","too_slow_prompt","","html-keyboard-response","408","460613","0.0-1.0-619.0-0.0","1","0","13654","","null","","","null","","","","","","","","","","","","","","","","",""
"","time_out","","html-keyboard-response","409","462623","0.0-1.0-620.0-0.0","0","0","13654","","null","","","null","68","","","","","","","","","","","","","","","",""
"","ITI","","html-keyboard-response","410","463661","0.0-1.0-621.0","0","0","13654","","null","","","null","68","","","","","","","","","","","","","","","NaN",""
"","S1","","html-keyboard-response","411","463924","0.0-1.0-623.0","0","0","13654","","null","","","null","69","","","","","","","","","","","","","","","",""
"","ISI","","html-keyboard-response","412","464437","0.0-1.0-624.0","0","0","13654","","null","","","null","69","NaN","","","","","","","","","","","","","","",""
"","S2","","html-keyboard-response","413","464698","0.0-1.0-625.0","0","0","13654","","null","","","null","69","","NaN","","","","","","","","","","","","","",""
"","response","","html-keyboard-response","414","466491","0.0-1.0-626.0-0.0","0","0","13654","","null","","","null","69","","","2","69","training","adjacent","CB","3","2","P.jpg","L.jpg","NaN","0","0","",""
"","too_slow_prompt","","html-keyboard-response","415","467505","0.0-1.0-628.0-0.0","1","0","13654","","null","","","null","","","","","","","","","","","","","","","","",""
"","time_out","","html-keyboard-response","416","469521","0.0-1.0-629.0-0.0","0","0","13654","","null","","","null","69","","","","","","","","","","","","","","","",""
"","ITI","","html-keyboard-response","417","470544","0.0-1.0-630.0","0","0","13654","","7","","","75","69","","","","","","","","","","","","","","","k",""
"","S1","","html-keyboard-response","418","470808","0.0-1.0-632.0","0","0","13654","","null","","","null","70","","","","","","","","","","","","","","","",""
"","ISI","","html-keyboard-response","419","471388","0.0-1.0-633.0","0","0","13654","","98","","","75","70","k","","","","","","","","","","","","","","",""
"","S2","","html-keyboard-response","420","471421","0.0-1.0-634.0","0","0","13654","","30","","","75","70","","k","2","70","training","adjacent","DE","4","5","N.jpg","M.jpg","0","1","0","",""
"","feedback","","html-keyboard-response","421","472427","0.0-1.0-636.0-0.0","0","0","13654","","null","","","null","70","","","","","","","","","","","","","","","",""
"","time_out","","html-keyboard-response","422","474436","0.0-1.0-638.0-0.0","0","0","13654","","null","","","null","70","","","","","","","","","","","","","","","",""
"","ITI","","html-keyboard-response","423","475478","0.0-1.0-639.0","0","0","13654","","60","","","75","70","","","","","","","","","","","","","","","k",""
"","S1","","html-keyboard-response","424","475757","0.0-1.0-641.0","0","0","13654","","null","","","null","71","","","","","","","","","","","","","","","",""
"","ISI","","html-keyboard-response","425","476268","0.0-1.0-642.0","0","0","13654","","111","","","75","71","k","","","","","","","","","","","","","","",""
"","S2","","html-keyboard-response","426","476275","0.0-1.0-643.0","0","0","13654","","1","","","75","71","","k","2","71","training","adjacent","EF","5","6","M.jpg","Q.jpg","0","1","0","",""
"","feedback","","html-keyboard-response","427","477287","0.0-1.0-645.0-0.0","0","0","13654","","null","","","null","71","","","","","","","","","","","","","","","",""
"","time_out","","html-keyboard-response","428","479303","0.0-1.0-647.0-0.0","0","0","13654","","null","","","null","71","","","","","","","","","","","","","","","",""
"","ITI","","html-keyboard-response","429","480310","0.0-1.0-648.0","0","0","13654","","12","","","75","71","","","","","","","","","","","","","","","k",""
"","S1","","html-keyboard-response","430","480588","0.0-1.0-650.0","0","0","13654","","null","","","null","72","","","","","","","","","","","","","","","",""
"","ISI","","html-keyboard-response","431","481101","0.0-1.0-651.0","0","0","13654","","151","","","68","72","d","","","","","","","","","","","","","","",""
"","S2","","html-keyboard-response","432","481286","0.0-1.0-652.0","0","0","13654","","179","","","68","72","","d","2","72","training","adjacent","DE","4","5","N.jpg","M.jpg","1","1","1","",""
"","feedback","","html-keyboard-response","433","482399","0.0-1.0-654.0-0.0","0","0","13654","","null","","","null","72","","","","","","","","","","","","","","","",""
"","ITI","","html-keyboard-response","434","483412","0.0-1.0-657.0","0","0","13654","","89","","","75","72","","","","","","","","","","","","","","","k",""
"","S1","","html-keyboard-response","435","483666","0.0-1.0-659.0","0","0","13654","","null","","","null","73","","","","","","","","","","","","","","","",""
"","ISI","","html-keyboard-response","436","484175","0.0-1.0-660.0","0","0","13654","","null","","","null","73","NaN","","","","","","","","","","","","","","",""
"","S2","","html-keyboard-response","437","484435","0.0-1.0-661.0","0","0","13654","","null","","","null","73","","NaN","","","","","","","","","","","","","",""
"","response","","html-keyboard-response","438","485850","0.0-1.0-662.0-0.0","0","0","13654","","1408","","","68","73","","","2","73","training","adjacent","EF","5","6","M.jpg","Q.jpg","1","1","1","",""
"","feedback","","html-keyboard-response","439","486862","0.0-1.0-663.0-0.0","0","0","13654","","null","","","null","73","","","","","","","","","","","","","","","",""
"","ITI","","html-keyboard-response","440","487868","0.0-1.0-666.0","0","0","13654","","162","","","75","73","","","","","","","","","","","","","","","k",""
"","S1","","html-keyboard-response","441","488124","0.0-1.0-668.0","0","0","13654","","null","","","null","74","","","","","","","","","","","","","","","",""
"","ISI","","html-keyboard-response","442","488639","0.0-1.0-669.0","0","0","13654","","361","","","75","74","k","","","","","","","","","","","","","","",""
"","S2","","html-keyboard-response","443","488981","0.0-1.0-670.0","0","0","13654","","null","","","null","74","","NaN","","","","","","","","","","","","","",""
"","response","","html-keyboard-response","444","488998","0.0-1.0-671.0-0.0","0","0","13654","","13","","","75","74","","","2","74","training","adjacent","CD","3","4","P.jpg","N.jpg","0","1","0","",""
"","feedback","","html-keyboard-response","445","490004","0.0-1.0-672.0-0.0","0","0","13654","","null","","","null","74","","","","","","","","","","","","","","","",""
"","time_out","","html-keyboard-response","446","492018","0.0-1.0-674.0-0.0","0","0","13654","","null","","","null","74","","","","","","","","","","","","","","","",""
"","ITI","","html-keyboard-response","447","493032","0.0-1.0-675.0","0","0","13654","","53","","","68","74","","","","","","","","","","","","","","","d",""
"","S1","","html-keyboard-response","448","493291","0.0-1.0-677.0","0","0","13654","","null","","","null","75","","","","","","","","","","","","","","","",""
"","ISI","","html-keyboard-response","449","493809","0.0-1.0-678.0","0","0","13654","","51","","","75","75","k","","","","","","","","","","","","","","",""
"","S2","","html-keyboard-response","450","493837","0.0-1.0-679.0","0","0","13654","","24","","","75","75","","k","2","75","training","adjacent","FE","6","5","Q.jpg","M.jpg","0","0","1","",""
"","feedback","","html-keyboard-response","451","494908","0.0-1.0-681.0-0.0","0","0","13654","","null","","","null","75","","","","","","","","","","","","","","","",""
"","ITI","","html-keyboard-response","452","495916","0.0-1.0-684.0","0","0","13654","","176","","","75","75","","","","","","","","","","","","","","","k",""
"","S1","","html-keyboard-response","453","496170","0.0-1.0-686.0","0","0","13654","","null","","","null","76","","","","","","","","","","","","","","","",""
"","ISI","","html-keyboard-response","454","496747","0.0-1.0-687.0","0","0","13654","","224","","","68","76","d","","","","","","","","","","","","","","",""
"","S2","","html-keyboard-response","455","496949","0.0-1.0-688.0","0","0","13654","","143","","","68","76","","d","2","76","training","adjacent","ED","5","4","M.jpg","N.jpg","1","0","0","",""
"","feedback","","html-keyboard-response","456","497957","0.0-1.0-690.0-0.0","0","0","13654","","null","","","null","76","","","","","","","","","","","","","","","",""
"","time_out","","html-keyboard-response","457","499966","0.0-1.0-692.0-0.0","0","0","13654","","null","","","null","76","","","","","","","","","","","","","","","",""
"","ITI","","html-keyboard-response","458","500973","0.0-1.0-693.0","0","0","13654","","193","","","75","76","","","","","","","","","","","","","","","k",""
"","S1","","html-keyboard-response","459","501238","0.0-1.0-695.0","0","0","13654","","null","","","null","77","","","","","","","","","","","","","","","",""
"","ISI","","html-keyboard-response","460","501744","0.0-1.0-696.0","0","0","13654","","46","","","75","77","k","","","","","","","","","","","","","","",""
"","S2","","html-keyboard-response","461","501991","0.0-1.0-697.0","0","0","13654","","238","","","68","77","","d","2","77","training","adjacent","DC","4","3","N.jpg","P.jpg","1","0","0","",""
"","feedback","","html-keyboard-response","462","503046","0.0-1.0-699.0-0.0","0","0","13654","","null","","","null","77","","","","","","","","","","","","","","","",""
"","time_out","","html-keyboard-response","463","505056","0.0-1.0-701.0-0.0","0","0","13654","","null","","","null","77","","","","","","","","","","","","","","","",""
"","ITI","","html-keyboard-response","464","506069","0.0-1.0-702.0","0","0","13654","","207","","","75","77","","","","","","","","","","","","","","","k",""
"","S1","","html-keyboard-response","465","506424","0.0-1.0-704.0","0","0","13654","","null","","","null","78","","","","","","","","","","","","","","","",""
"","ISI","","html-keyboard-response","466","506932","0.0-1.0-705.0","0","0","13654","","13","","","68","78","d","","","","","","","","","","","","","","",""
"","S2","","html-keyboard-response","467","507191","0.0-1.0-706.0","0","0","13654","","253","","","75","78","","k","2","78","training","adjacent","FG","6","7","Q.jpg","R.jpg","0","1","0","",""
"","feedback","","html-keyboard-response","468","508205","0.0-1.0-708.0-0.0","0","0","13654","","null","","","null","78","","","","","","","","","","","","","","","",""
"","time_out","","html-keyboard-response","469","510294","0.0-1.0-710.0-0.0","0","0","13654","","null","","","null","78","","","","","","","","","","","","","","","",""
"","ITI","","html-keyboard-response","470","511359","0.0-1.0-711.0","0","0","13654","","13","","","75","78","","","","","","","","","","","","","","","k",""
"","S1","","html-keyboard-response","471","511620","0.0-1.0-713.0","0","0","13654","","null","","","null","79","","","","","","","","","","","","","","","",""
"","ISI","","html-keyboard-response","472","512131","0.0-1.0-714.0","0","0","13654","","81","","","75","79","k","","","","","","","","","","","","","","",""
"","S2","","html-keyboard-response","473","512215","0.0-1.0-715.0","0","0","13654","","77","","","75","79","","k","2","79","training","adjacent","FE","6","5","Q.jpg","M.jpg","0","0","1","",""
"","feedback","","html-keyboard-response","474","513227","0.0-1.0-717.0-0.0","0","0","13654","","null","","","null","79","","","","","","","","","","","","","","","",""
"","ITI","","html-keyboard-response","475","514237","0.0-1.0-720.0","0","0","13654","","197","","","68","79","","","","","","","","","","","","","","","d",""
"","S1","","html-keyboard-response","476","514499","0.0-1.0-722.0","0","0","13654","","null","","","null","80","","","","","","","","","","","","","","","",""
"","ISI","","html-keyboard-response","477","515005","0.0-1.0-723.0","0","0","13654","","189","","","75","80","k","","","","","","","","","","","","","","",""
"","S2","","html-keyboard-response","478","515255","0.0-1.0-724.0","0","0","13654","","244","","","75","80","","k","2","80","training","adjacent","BA","2","1","L.jpg","O.jpg","0","0","1","",""
"","feedback","","html-keyboard-response","479","516272","0.0-1.0-726.0-0.0","0","0","13654","","null","","","null","80","","","","","","","","","","","","","","","",""
"","ITI","","html-keyboard-response","480","517286","0.0-1.0-729.0","0","0","13654","","149","","","68","80","","","","","","","","","","","","","","","d",""
"","S1","","html-keyboard-response","481","517548","0.0-1.0-731.0","0","0","13654","","null","","","null","81","","","","","","","","","","","","","","","",""
"","ISI","","html-keyboard-response","482","518061","0.0-1.0-732.0","0","0","13654","","137","","","75","81","k","","","","","","","","","","","","","","",""
"","S2","","html-keyboard-response","483","518173","0.0-1.0-733.0","0","0","13654","","104","","","75","81","","k","2","81","training","adjacent","FG","6","7","Q.jpg","R.jpg","0","1","0","",""
"","feedback","","html-keyboard-response","484","519201","0.0-1.0-735.0-0.0","0","0","13654","","null","","","null","81","","","","","","","","","","","","","","","",""
"","time_out","","html-keyboard-response","485","521213","0.0-1.0-737.0-0.0","0","0","13654","","null","","","null","81","","","","","","","","","","","","","","","",""
"","ITI","","html-keyboard-response","486","522218","0.0-1.0-738.0","0","0","13654","","121","","","68","81","","","","","","","","","","","","","","","d",""
"","S1","","html-keyboard-response","487","522485","0.0-1.0-740.0","0","0","13654","","null","","","null","82","","","","","","","","","","","","","","","",""
"","ISI","","html-keyboard-response","488","522997","0.0-1.0-741.0","0","0","13654","","22","","","68","82","d","","","","","","","","","","","","","","",""
"","S2","","html-keyboard-response","489","523158","0.0-1.0-742.0","0","0","13654","","158","","","75","82","","k","2","82","training","adjacent","DC","4","3","N.jpg","P.jpg","0","0","1","",""
"","feedback","","html-keyboard-response","490","524167","0.0-1.0-744.0-0.0","0","0","13654","","null","","","null","82","","","","","","","","","","","","","","","",""
"","ITI","","html-keyboard-response","491","525183","0.0-1.0-747.0","0","0","13654","","97","","","75","82","","","","","","","","","","","","","","","k",""
"","S1","","html-keyboard-response","492","525504","0.0-1.0-749.0","0","0","13654","","null","","","null","83","","","","","","","","","","","","","","","",""
"","ISI","","html-keyboard-response","493","526009","0.0-1.0-750.0","0","0","13654","","90","","","68","83","d","","","","","","","","","","","","","","",""
"","S2","","html-keyboard-response","494","526256","0.0-1.0-751.0","0","0","13654","","244","","","68","83","","d","2","83","training","adjacent","CD","3","4","P.jpg","N.jpg","1","1","1","",""
"","feedback","","html-keyboard-response","495","527267","0.0-1.0-753.0-0.0","0","0","13654","","null","","","null","83","","","","","","","","","","","","","","","",""
"","ITI","","html-keyboard-response","496","528273","0.0-1.0-756.0","0","0","13654","","197","","","75","83","","","","","","","","","","","","","","","k",""
"","S1","","html-keyboard-response","497","528531","0.0-1.0-758.0","0","0","13654","","null","","","null","84","","","","","","","","","","","","","","","",""
"","ISI","","html-keyboard-response","498","529036","0.0-1.0-759.0","0","0","13654","","264","","","75","84","k","","","","","","","","","","","","","","",""
"","S2","","html-keyboard-response","499","529242","0.0-1.0-760.0","0","0","13654","","201","","","75","84","","k","2","84","training","adjacent","DC","4","3","N.jpg","P.jpg","0","0","1","",""
"","feedback","","html-keyboard-response","500","530252","0.0-1.0-762.0-0.0","0","0","13654","","null","","","null","84","","","","","","","","","","","","","","","",""
"","ITI","","html-keyboard-response","501","531332","0.0-1.0-765.0","0","0","13654","","86","","","68","84","","","","","","","","","","","","","","","d",""
"","S1","","html-keyboard-response","502","531594","0.0-1.0-767.0","0","0","13654","","null","","","null","85","","","","","","","","","","","","","","","",""
"","ISI","","html-keyboard-response","503","532108","0.0-1.0-768.0","0","0","13654","","118","","","68","85","d","","","","","","","","","","","","","","",""
"","S2","","html-keyboard-response","504","532333","0.0-1.0-769.0","0","0","13654","","218","","","68","85","","d","2","85","training","adjacent","DE","4","5","N.jpg","M.jpg","1","1","1","",""
"","feedback","","html-keyboard-response","505","533338","0.0-1.0-771.0-0.0","0","0","13654","","null","","","null","85","","","","","","","","","","","","","","","",""
"","ITI","","html-keyboard-response","506","534348","0.0-1.0-774.0","0","0","13654","","176","","","75","85","","","","","","","","","","","","","","","k",""
"","S1","","html-keyboard-response","507","534604","0.0-1.0-776.0","0","0","13654","","null","","","null","86","","","","","","","","","","","","","","","",""
"","ISI","","html-keyboard-response","508","535115","0.0-1.0-777.0","0","0","13654","","113","","","68","86","d","","","","","","","","","","","","","","",""
"","S2","","html-keyboard-response","509","535180","0.0-1.0-778.0","0","0","13654","","60","","","68","86","","d","2","86","training","adjacent","BA","2","1","L.jpg","O.jpg","1","0","0","",""
"","feedback","","html-keyboard-response","510","536185","0.0-1.0-780.0-0.0","0","0","13654","","null","","","null","86","","","","","","","","","","","","","","","",""
"","time_out","","html-keyboard-response","511","538196","0.0-1.0-782.0-0.0","0","0","13654","","null","","","null","86","","","","","","","","","","","","","","","",""
"","ITI","","html-keyboard-response","512","539205","0.0-1.0-783.0","0","0","13654","","195","","","75","86","","","","","","","","","","","","","","","k",""
"","S1","","html-keyboard-response","513","539468","0.0-1.0-785.0","0","0","13654","","null","","","null","87","","","","","","","","","","","","","","","",""
"","ISI","","html-keyboard-response","514","540057","0.0-1.0-786.0","0","0","13654","","166","","","68","87","d","","","","","","","","","","","","","","",""
"","S2","","html-keyboard-response","515","540163","0.0-1.0-787.0","0","0","13654","","50","","","68","87","","d","2","87","training","adjacent","AB","1","2","O.jpg","L.jpg","1","1","1","",""
"","feedback","","html-keyboard-response","516","541175","0.0-1.0-789.0-0.0","0","0","13654","","null","","","null","87","","","","","","","","","","","","","","","",""
"","ITI","","html-keyboard-response","517","542282","0.0-1.0-792.0","0","0","13654","","458","","","75","87","","","","","","","","","","","","","","","k",""
"","S1","","html-keyboard-response","518","542538","0.0-1.0-794.0","0","0","13654","","null","","","null","88","","","","","","","","","","","","","","","",""
"","ISI","","html-keyboard-response","519","543044","0.0-1.0-795.0","0","0","13654","","59","","","75","88","k","","","","","","","","","","","","","","",""
"","S2","","html-keyboard-response","520","543077","0.0-1.0-796.0","0","0","13654","","29","","","75","88","","k","2","88","training","adjacent","GF","7","6","R.jpg","Q.jpg","0","0","1","",""
"","feedback","","html-keyboard-response","521","544185","0.0-1.0-798.0-0.0","0","0","13654","","null","","","null","88","","","","","","","","","","","","","","","",""
"","ITI","","html-keyboard-response","522","545198","0.0-1.0-801.0","0","0","13654","","103","","","75","88","","","","","","","","","","","","","","","k",""
"","S1","","html-keyboard-response","523","545459","0.0-1.0-803.0","0","0","13654","","null","","","null","89","","","","","","","","","","","","","","","",""
"","ISI","","html-keyboard-response","524","545970","0.0-1.0-804.0","0","0","13654","","61","","","68","89","d","","","","","","","","","","","","","","",""
"","S2","","html-keyboard-response","525","546148","0.0-1.0-805.0","0","0","13654","","172","","","75","89","","k","2","89","training","adjacent","GF","7","6","R.jpg","Q.jpg","0","0","1","",""
"","feedback","","html-keyboard-response","526","547155","0.0-1.0-807.0-0.0","0","0","13654","","null","","","null","89","","","","","","","","","","","","","","","",""
"","ITI","","html-keyboard-response","527","548164","0.0-1.0-810.0","0","0","13654","","8","","","75","89","","","","","","","","","","","","","","","k",""
"","S1","","html-keyboard-response","528","548420","0.0-1.0-812.0","0","0","13654","","null","","","null","90","","","","","","","","","","","","","","","",""
"","ISI","","html-keyboard-response","529","548936","0.0-1.0-813.0","0","0","13654","","130","","","68","90","d","","","","","","","","","","","","","","",""
"","S2","","html-keyboard-response","530","549050","0.0-1.0-814.0","0","0","13654","","109","","","75","90","","k","2","90","training","adjacent","AB","1","2","O.jpg","L.jpg","0","1","0","",""
"","feedback","","html-keyboard-response","531","550060","0.0-1.0-816.0-0.0","0","0","13654","","null","","","null","90","","","","","","","","","","","","","","","",""
"","time_out","","html-keyboard-response","532","552067","0.0-1.0-818.0-0.0","0","0","13654","","null","","","null","90","","","","","","","","","","","","","","","",""
"","ITI","","html-keyboard-response","533","553078","0.0-1.0-819.0","0","0","13654","","10","","","68","90","","","","","","","","","","","","","","","d",""
"","S1","","html-keyboard-response","534","553340","0.0-1.0-821.0","0","0","13654","","null","","","null","91","","","","","","","","","","","","","","","",""
"","ISI","","html-keyboard-response","535","553851","0.0-1.0-822.0","0","0","13654","","2","","","68","91","d","","","","","","","","","","","","","","",""
"","S2","","html-keyboard-response","536","554125","0.0-1.0-823.0","0","0","13654","","null","","","null","91","","NaN","","","","","","","","","","","","","",""
"","response","","html-keyboard-response","537","554142","0.0-1.0-824.0-0.0","0","0","13654","","13","","","75","91","","","2","91","training","adjacent","CB","3","2","P.jpg","L.jpg","0","0","1","",""
"","feedback","","html-keyboard-response","538","555147","0.0-1.0-825.0-0.0","0","0","13654","","null","","","null","91","","","","","","","","","","","","","","","",""
"","ITI","","html-keyboard-response","539","556166","0.0-1.0-828.0","0","0","13654","","230","","","75","91","","","","","","","","","","","","","","","k",""
"","S1","","html-keyboard-response","540","556428","0.0-1.0-830.0","0","0","13654","","null","","","null","92","","","","","","","","","","","","","","","",""
"","ISI","","html-keyboard-response","541","556987","0.0-1.0-831.0","0","0","13654","","109","","","68","92","d","","","","","","","","","","","","","","",""
"","S2","","html-keyboard-response","542","557097","0.0-1.0-832.0","0","0","13654","","107","","","68","92","","d","2","92","training","adjacent","GF","7","6","R.jpg","Q.jpg","1","0","0","",""
"","feedback","","html-keyboard-response","543","558107","0.0-1.0-834.0-0.0","0","0","13654","","null","","","null","92","","","","","","","","","","","","","","","",""
"","time_out","","html-keyboard-response","544","560187","0.0-1.0-836.0-0.0","0","0","13654","","null","","","null","92","","","","","","","","","","","","","","","",""
"","ITI","","html-keyboard-response","545","561198","0.0-1.0-837.0","0","0","13654","","12","","","68","92","","","","","","","","","","","","","","","d",""
"","S1","","html-keyboard-response","546","561461","0.0-1.0-839.0","0","0","13654","","null","","","null","93","","","","","","","","","","","","","","","",""
"","ISI","","html-keyboard-response","547","561973","0.0-1.0-840.0","0","0","13654","","170","","","75","93","k","","","","","","","","","","","","","","",""
"","S2","","html-keyboard-response","548","562117","0.0-1.0-841.0","0","0","13654","","138","","","75","93","","k","2","93","training","adjacent","CD","3","4","P.jpg","N.jpg","0","1","0","",""
"","feedback","","html-keyboard-response","549","563147","0.0-1.0-843.0-0.0","0","0","13654","","null","","","null","93","","","","","","","","","","","","","","","",""
"","time_out","","html-keyboard-response","550","565169","0.0-1.0-845.0-0.0","0","0","13654","","null","","","null","93","","","","","","","","","","","","","","","",""
"","ITI","","html-keyboard-response","551","566179","0.0-1.0-846.0","0","0","13654","","8","","","68","93","","","","","","","","","","","","","","","d",""
"","S1","","html-keyboard-response","552","566444","0.0-1.0-848.0","0","0","13654","","null","","","null","94","","","","","","","","","","","","","","","",""
"","ISI","","html-keyboard-response","553","566961","0.0-1.0-849.0","0","0","13654","","175","","","75","94","k","","","","","","","","","","","","","","",""
"","S2","","html-keyboard-response","554","567010","0.0-1.0-850.0","0","0","13654","","42","","","75","94","","k","2","94","training","adjacent","DE","4","5","N.jpg","M.jpg","0","1","0","",""
"","feedback","","html-keyboard-response","555","568031","0.0-1.0-852.0-0.0","0","0","13654","","null","","","null","94","","","","","","","","","","","","","","","",""
"","time_out","","html-keyboard-response","556","570043","0.0-1.0-854.0-0.0","0","0","13654","","null","","","null","94","","","","","","","","","","","","","","","",""
"","ITI","","html-keyboard-response","557","571066","0.0-1.0-855.0","0","0","13654","","280","","","75","94","","","","","","","","","","","","","","","k",""
"","S1","","html-keyboard-response","558","571324","0.0-1.0-857.0","0","0","13654","","null","","","null","95","","","","","","","","","","","","","","","",""
"","ISI","","html-keyboard-response","559","571827","0.0-1.0-858.0","0","0","13654","","64","","","68","95","d","","","","","","","","","","","","","","",""
"","S2","","html-keyboard-response","560","571959","0.0-1.0-859.0","0","0","13654","","125","","","75","95","","k","2","95","training","adjacent","FG","6","7","Q.jpg","R.jpg","0","1","0","",""
"","feedback","","html-keyboard-response","561","572965","0.0-1.0-861.0-0.0","0","0","13654","","null","","","null","95","","","","","","","","","","","","","","","",""
"","time_out","","html-keyboard-response","562","574979","0.0-1.0-863.0-0.0","0","0","13654","","null","","","null","95","","","","","","","","","","","","","","","",""
"","ITI","","html-keyboard-response","563","575988","0.0-1.0-864.0","0","0","13654","","93","","","75","95","","","","","","","","","","","","","","","k",""
"","block_over","","html-keyboard-response","564","578288","0.0-1.0-865.0-0.0","0","0","13654","","2293","","","32","95","","","","","","","","","","","","","","","",""
"","S1","","html-keyboard-response","565","578547","0.0-1.0-866.0","0","0","13654","","null","","","null","96","","","","","","","","","","","","","","","",""
"","ISI","","html-keyboard-response","566","579058","0.0-1.0-867.0","0","0","13654","","null","","","null","96","NaN","","","","","","","","","","","","","","",""
"","S2","","html-keyboard-response","567","579396","0.0-1.0-868.0","0","0","13654","","null","","","null","96","","NaN","","","","","","","","","","","","","",""
"","response","","html-keyboard-response","568","579552","0.0-1.0-869.0-0.0","0","0","13654","","151","","","68","96","","","3","96","training","adjacent","FE","6","5","Q.jpg","M.jpg","1","0","0","",""
"","feedback","","html-keyboard-response","569","580906","0.0-1.0-870.0-0.0","0","0","13654","","null","","","null","96","","","","","","","","","","","","","","","",""
"","time_out","","html-keyboard-response","570","582916","0.0-1.0-872.0-0.0","0","0","13654","","null","","","null","96","","","","","","","","","","","","","","","",""
"","ITI","","html-keyboard-response","571","583924","0.0-1.0-873.0","0","0","13654","","169","","","68","96","","","","","","","","","","","","","","","d",""
"","S1","","html-keyboard-response","572","584204","0.0-1.0-875.0","0","0","13654","","null","","","null","97","","","","","","","","","","","","","","","",""
"","ISI","","html-keyboard-response","573","584715","0.0-1.0-876.0","0","0","13654","","14","","","75","97","k","","","","","","","","","","","","","","",""
"","S2","","html-keyboard-response","574","584779","0.0-1.0-877.0","0","0","13654","","58","","","68","97","","d","3","97","training","adjacent","EF","5","6","M.jpg","Q.jpg","1","1","1","",""
"","feedback","","html-keyboard-response","575","585817","0.0-1.0-879.0-0.0","0","0","13654","","null","","","null","97","","","","","","","","","","","","","","","",""
"","ITI","","html-keyboard-response","576","586829","0.0-1.0-882.0","0","0","13654","","170","","","68","97","","","","","","","","","","","","","","","d",""
"","S1","","html-keyboard-response","577","587089","0.0-1.0-884.0","0","0","13654","","null","","","null","98","","","","","","","","","","","","","","","",""
"","ISI","","html-keyboard-response","578","587769","0.0-1.0-885.0","0","0","13654","","74","","","75","98","k","","","","","","","","","","","","","","",""
"","S2","","html-keyboard-response","579","587784","0.0-1.0-886.0","0","0","13654","","11","","","75","98","","k","3","98","training","adjacent","ED","5","4","M.jpg","N.jpg","0","0","1","",""
"","feedback","","html-keyboard-response","580","588794","0.0-1.0-888.0-0.0","0","0","13654","","null","","","null","98","","","","","","","","","","","","","","","",""
"","ITI","","html-keyboard-response","581","589802","0.0-1.0-891.0","0","0","13654","","253","","","75","98","","","","","","","","","","","","","","","k",""
"","S1","","html-keyboard-response","582","590058","0.0-1.0-893.0","0","0","13654","","null","","","null","99","","","","","","","","","","","","","","","",""
"","ISI","","html-keyboard-response","583","590561","0.0-1.0-894.0","0","0","13654","","238","","","75","99","k","","","","","","","","","","","","","","",""
"","S2","","html-keyboard-response","584","590594","0.0-1.0-895.0","0","0","13654","","29","","","75","99","","k","3","99","training","adjacent","ED","5","4","M.jpg","N.jpg","0","0","1","",""
"","feedback","","html-keyboard-response","585","591617","0.0-1.0-897.0-0.0","0","0","13654","","null","","","null","99","","","","","","","","","","","","","","","",""
"","ITI","","html-keyboard-response","586","592707","0.0-1.0-900.0","0","0","13654","","20","","","75","99","","","","","","","","","","","","","","","k",""
"","S1","","html-keyboard-response","587","593036","0.0-1.0-902.0","0","0","13654","","null","","","null","100","","","","","","","","","","","","","","","",""
