"success","ttype","start_time","trial_type","trial_index","time_elapsed","internal_node_id","warning","missed_checkup","PID","view_history","rt","responses","repeat_instructions","key_press","index","keypress_isi","keypress_S2","block","trial_num","phase","group_type","pair_type","S1_stim","S2_stim","S1_img","S2_img","S1_chosen","S1_higher","accuracy","keypress_iti","total_bonus_tally"
"true","full_screen","d04142023hr0046","fullscreen","0","11348","0.0-0.0","0","0","69579","","","","","","","","","","","","","","","","","","","","","",""
"","instructions","","instructions","1","61475","0.0-1.0-0.0-0.0","0","0","69579","[{""page_index"":0,""viewing_time"":4972},{""page_index"":1,""viewing_time"":34983},{""page_index"":2,""viewing_time"":7776},{""page_index"":3,""viewing_time"":2394}]","50125","","","","","","","","","","","","","","","","","","","",""
"","comprehension_check","","survey-multi-choice","2","86702","0.0-1.0-0.0-1.0","0","0","69579","","25222","{""Q0"":""True"",""Q1"":""K"",""Q2"":""Once the second image appears and while the screen 'MAKE A CHOICE' is shown"",""Q3"":""Green mark"",""Q4"":""either D or K""}","0","","","","","","","","","","","","","","","","","",""
"","start_exp","","html-keyboard-response","3","89109","0.0-1.0-1.0","0","0","69579","","2403","","","32","","","","","","","","","","","","","","","","",""
"","S1","","html-keyboard-response","4","89364","0.0-1.0-2.0","0","0","69579","","null","","","null","0","","","","","","","","","","","","","","","",""
"","ISI","","html-keyboard-response","5","90365","0.0-1.0-3.0","0","0","69579","","null","","","null","0","NaN","","","","","","","","","","","","","","",""
"","S2","","html-keyboard-response","6","90619","0.0-1.0-4.0","0","0","69579","","null","","","null","0","","NaN","","","","","","","","","","","","","",""
"","response","","html-keyboard-response","7","90919","0.0-1.0-5.0-0.0","0","0","69579","","298","","","68","0","","","1","0","training","adjacent","ED","5","4","M.jpg","L.jpg","0","0","1","",""
"","feedback","","html-keyboard-response","8","91923","0.0-1.0-6.0-0.0","0","0","69579","","null","","","null","0","","","","","","","","","","","","","","","",""
"","ITI","","html-keyboard-response","9","92926","0.0-1.0-9.0","0","0","69579","","null","","","null","0","","","","","","","","","","","","","","","NaN",""
"","S1","","html-keyboard-response","10","93179","0.0-1.0-11.0","0","0","69579","","null","","","null","1","","","","","","","","","","","","","","","",""
"","ISI","","html-keyboard-response","11","94182","0.0-1.0-12.0","0","0","69579","","null","","","null","1","NaN","","","","","","","","","","","","","","",""
"","S2","","html-keyboard-response","12","94290","0.0-1.0-13.0","0","0","69579","","105","","","68","1","","d","1","1","training","adjacent","ED","5","4","M.jpg","L.jpg","0","0","1","",""
"","feedback","","html-keyboard-response","13","95293","0.0-1.0-15.0-0.0","0","0","69579","","null","","","null","1","","","","","","","","","","","","","","","",""
"","ITI","","html-keyboard-response","14","96296","0.0-1.0-18.0","0","0","69579","","null","","","null","1","","","","","","","","","","","","","","","NaN",""
"","S1","","html-keyboard-response","15","96548","0.0-1.0-20.0","0","0","69579","","null","","","null","2","","","","","","","","","","","","","","","",""
"","ISI","","html-keyboard-response","16","97551","0.0-1.0-21.0","0","0","69579","","null","","","null","2","NaN","","","","","","","","","","","","","","",""
"","S2","","html-keyboard-response","17","97804","0.0-1.0-22.0","0","0","69579","","null","","","null","2","","NaN","","","","","","","","","","","","","",""
"","response","","html-keyboard-response","18","98047","0.0-1.0-23.0-0.0","0","0","69579","","242","","","68","2","","","1","2","training","adjacent","CD","3","4","N.jpg","L.jpg","0","1","0","",""
"","feedback","","html-keyboard-response","19","99050","0.0-1.0-24.0-0.0","0","0","69579","","null","","","null","2","","","","","","","","","","","","","","","",""
"","time_out","","html-keyboard-response","20","101053","0.0-1.0-26.0-0.0","0","0","69579","","null","","","null","2","","","","","","","","","","","","","","","",""
"","ITI","","html-keyboard-response","21","102055","0.0-1.0-27.0","0","0","69579","","null","","","null","2","","","","","","","","","","","","","","","NaN",""
"","S1","","html-keyboard-response","22","102309","0.0-1.0-29.0","0","0","69579","","null","","","null","3","","","","","","","","","","","","","","","",""
"","ISI","","html-keyboard-response","23","103311","0.0-1.0-30.0","0","0","69579","","null","","","null","3","NaN","","","","","","","","","","","","","","",""
"","S2","","html-keyboard-response","24","103564","0.0-1.0-31.0","0","0","69579","","null","","","null","3","","NaN","","","","","","","","","","","","","",""
"","response","","html-keyboard-response","25","103977","0.0-1.0-32.0-0.0","0","0","69579","","411","","","68","3","","","1","3","training","adjacent","CD","3","4","N.jpg","L.jpg","0","1","0","",""
"","feedback","","html-keyboard-response","26","104980","0.0-1.0-33.0-0.0","0","0","69579","","null","","","null","3","","","","","","","","","","","","","","","",""
"","time_out","","html-keyboard-response","27","106983","0.0-1.0-35.0-0.0","0","0","69579","","null","","","null","3","","","","","","","","","","","","","","","",""
"","ITI","","html-keyboard-response","28","107986","0.0-1.0-36.0","0","0","69579","","null","","","null","3","","","","","","","","","","","","","","","NaN",""
"","S1","","html-keyboard-response","29","108238","0.0-1.0-38.0","0","0","69579","","null","","","null","4","","","","","","","","","","","","","","","",""
"","ISI","","html-keyboard-response","30","109241","0.0-1.0-39.0","0","0","69579","","null","","","null","4","NaN","","","","","","","","","","","","","","",""
"","S2","","html-keyboard-response","31","109494","0.0-1.0-40.0","0","0","69579","","null","","","null","4","","NaN","","","","","","","","","","","","","",""
"","response","","html-keyboard-response","32","109797","0.0-1.0-41.0-0.0","0","0","69579","","302","","","75","4","","","1","4","training","adjacent","CB","3","2","N.jpg","P.jpg","1","0","0","",""
"","feedback","","html-keyboard-response","33","110800","0.0-1.0-42.0-0.0","0","0","69579","","null","","","null","4","","","","","","","","","","","","","","","",""
"","time_out","","html-keyboard-response","34","112804","0.0-1.0-44.0-0.0","0","0","69579","","null","","","null","4","","","","","","","","","","","","","","","",""
"","ITI","","html-keyboard-response","35","113807","0.0-1.0-45.0","0","0","69579","","null","","","null","4","","","","","","","","","","","","","","","NaN",""
"","S1","","html-keyboard-response","36","114060","0.0-1.0-47.0","0","0","69579","","null","","","null","5","","","","","","","","","","","","","","","",""
"","ISI","","html-keyboard-response","37","115062","0.0-1.0-48.0","0","0","69579","","null","","","null","5","NaN","","","","","","","","","","","","","","",""
"","S2","","html-keyboard-response","38","115316","0.0-1.0-49.0","0","0","69579","","null","","","null","5","","NaN","","","","","","","","","","","","","",""
"","response","","html-keyboard-response","39","116069","0.0-1.0-50.0-0.0","0","0","69579","","752","","","75","5","","","1","5","training","adjacent","DC","4","3","L.jpg","N.jpg","1","0","0","",""
"","feedback","","html-keyboard-response","40","117073","0.0-1.0-51.0-0.0","0","0","69579","","null","","","null","5","","","","","","","","","","","","","","","",""
"","time_out","","html-keyboard-response","41","119075","0.0-1.0-53.0-0.0","0","0","69579","","null","","","null","5","","","","","","","","","","","","","","","",""
"","ITI","","html-keyboard-response","42","120077","0.0-1.0-54.0","0","0","69579","","null","","","null","5","","","","","","","","","","","","","","","NaN",""
"","S1","","html-keyboard-response","43","120331","0.0-1.0-56.0","0","0","69579","","null","","","null","6","","","","","","","","","","","","","","","",""
"","ISI","","html-keyboard-response","44","121334","0.0-1.0-57.0","0","0","69579","","null","","","null","6","NaN","","","","","","","","","","","","","","",""
"","S2","","html-keyboard-response","45","121598","0.0-1.0-58.0","0","0","69579","","null","","","null","6","","NaN","","","","","","","","","","","","","",""
"","response","","html-keyboard-response","46","121851","0.0-1.0-59.0-0.0","0","0","69579","","251","","","68","6","","","1","6","training","adjacent","DE","4","5","L.jpg","M.jpg","0","1","0","",""
"","feedback","","html-keyboard-response","47","122853","0.0-1.0-60.0-0.0","0","0","69579","","null","","","null","6","","","","","","","","","","","","","","","",""
"","time_out","","html-keyboard-response","48","124857","0.0-1.0-62.0-0.0","0","0","69579","","null","","","null","6","","","","","","","","","","","","","","","",""
"","ITI","","html-keyboard-response","49","125859","0.0-1.0-63.0","0","0","69579","","null","","","null","6","","","","","","","","","","","","","","","NaN",""
"","S1","","html-keyboard-response","50","126112","0.0-1.0-65.0","0","0","69579","","null","","","null","7","","","","","","","","","","","","","","","",""
"","ISI","","html-keyboard-response","51","127114","0.0-1.0-66.0","0","0","69579","","null","","","null","7","NaN","","","","","","","","","","","","","","",""
"","S2","","html-keyboard-response","52","127378","0.0-1.0-67.0","0","0","69579","","null","","","null","7","","NaN","","","","","","","","","","","","","",""
"","response","","html-keyboard-response","53","128557","0.0-1.0-68.0-0.0","0","0","69579","","1177","","","68","7","","","1","7","training","adjacent","FE","6","5","Q.jpg","M.jpg","0","0","1","",""
"","feedback","","html-keyboard-response","54","129561","0.0-1.0-69.0-0.0","0","0","69579","","null","","","null","7","","","","","","","","","","","","","","","",""
"","ITI","","html-keyboard-response","55","130564","0.0-1.0-72.0","0","0","69579","","null","","","null","7","","","","","","","","","","","","","","","NaN",""
"","S1","","html-keyboard-response","56","130816","0.0-1.0-74.0","0","0","69579","","null","","","null","8","","","","","","","","","","","","","","","",""
"","ISI","","html-keyboard-response","57","131820","0.0-1.0-75.0","0","0","69579","","null","","","null","8","NaN","","","","","","","","","","","","","","",""
"","S2","","html-keyboard-response","58","132072","0.0-1.0-76.0","0","0","69579","","null","","","null","8","","NaN","","","","","","","","","","","","","",""
"","response","","html-keyboard-response","59","133316","0.0-1.0-77.0-0.0","0","0","69579","","1243","","","68","8","","","1","8","training","adjacent","DE","4","5","L.jpg","M.jpg","0","1","0","",""
"","feedback","","html-keyboard-response","60","134320","0.0-1.0-78.0-0.0","0","0","69579","","null","","","null","8","","","","","","","","","","","","","","","",""
"","time_out","","html-keyboard-response","61","136323","0.0-1.0-80.0-0.0","0","0","69579","","null","","","null","8","","","","","","","","","","","","","","","",""
"","ITI","","html-keyboard-response","62","137325","0.0-1.0-81.0","0","0","69579","","null","","","null","8","","","","","","","","","","","","","","","NaN",""
"","S1","","html-keyboard-response","63","137579","0.0-1.0-83.0","0","0","69579","","null","","","null","9","","","","","","","","","","","","","","","",""
"","ISI","","html-keyboard-response","64","138582","0.0-1.0-84.0","0","0","69579","","null","","","null","9","NaN","","","","","","","","","","","","","","",""
"","S2","","html-keyboard-response","65","138835","0.0-1.0-85.0","0","0","69579","","null","","","null","9","","NaN","","","","","","","","","","","","","",""
"","response","","html-keyboard-response","66","139920","0.0-1.0-86.0-0.0","0","0","69579","","1082","","","75","9","","","1","9","training","adjacent","GF","7","6","O.jpg","Q.jpg","1","0","0","",""
"","feedback","","html-keyboard-response","67","140922","0.0-1.0-87.0-0.0","0","0","69579","","null","","","null","9","","","","","","","","","","","","","","","",""
"","time_out","","html-keyboard-response","68","142925","0.0-1.0-89.0-0.0","0","0","69579","","null","","","null","9","","","","","","","","","","","","","","","",""
"","ITI","","html-keyboard-response","69","143928","0.0-1.0-90.0","0","0","69579","","null","","","null","9","","","","","","","","","","","","","","","NaN",""
"","S1","","html-keyboard-response","70","144180","0.0-1.0-92.0","0","0","69579","","null","","","null","10","","","","","","","","","","","","","","","",""
"","ISI","","html-keyboard-response","71","145183","0.0-1.0-93.0","0","0","69579","","null","","","null","10","NaN","","","","","","","","","","","","","","",""
"","S2","","html-keyboard-response","72","145436","0.0-1.0-94.0","0","0","69579","","null","","","null","10","","NaN","","","","","","","","","","","","","",""
"","response","","html-keyboard-response","73","146649","0.0-1.0-95.0-0.0","0","0","69579","","1212","","","68","10","","","1","10","training","adjacent","FE","6","5","Q.jpg","M.jpg","0","0","1","",""
"","feedback","","html-keyboard-response","74","147662","0.0-1.0-96.0-0.0","0","0","69579","","null","","","null","10","","","","","","","","","","","","","","","",""
"","ITI","","html-keyboard-response","75","148664","0.0-1.0-99.0","0","0","69579","","null","","","null","10","","","","","","","","","","","","","","","NaN",""
"","S1","","html-keyboard-response","76","148923","0.0-1.0-101.0","0","0","69579","","null","","","null","11","","","","","","","","","","","","","","","",""
"","ISI","","html-keyboard-response","77","149927","0.0-1.0-102.0","0","0","69579","","null","","","null","11","NaN","","","","","","","","","","","","","","",""
"","S2","","html-keyboard-response","78","150180","0.0-1.0-103.0","0","0","69579","","null","","","null","11","","NaN","","","","","","","","","","","","","",""
"","response","","html-keyboard-response","79","150540","0.0-1.0-104.0-0.0","0","0","69579","","359","","","68","11","","","1","11","training","adjacent","FE","6","5","Q.jpg","M.jpg","0","0","1","",""
"","feedback","","html-keyboard-response","80","151543","0.0-1.0-105.0-0.0","0","0","69579","","null","","","null","11","","","","","","","","","","","","","","","",""
"","ITI","","html-keyboard-response","81","152546","0.0-1.0-108.0","0","0","69579","","null","","","null","11","","","","","","","","","","","","","","","NaN",""
"","S1","","html-keyboard-response","82","152799","0.0-1.0-110.0","0","0","69579","","null","","","null","12","","","","","","","","","","","","","","","",""
"","ISI","","html-keyboard-response","83","153816","0.0-1.0-111.0","0","0","69579","","null","","","null","12","NaN","","","","","","","","","","","","","","",""
"","S2","","html-keyboard-response","84","154070","0.0-1.0-112.0","0","0","69579","","null","","","null","12","","NaN","","","","","","","","","","","","","",""
"","response","","html-keyboard-response","85","154988","0.0-1.0-113.0-0.0","0","0","69579","","916","","","75","12","","","1","12","training","adjacent","AB","1","2","R.jpg","P.jpg","1","1","1","",""
"","feedback","","html-keyboard-response","86","155991","0.0-1.0-114.0-0.0","0","0","69579","","null","","","null","12","","","","","","","","","","","","","","","",""
"","ITI","","html-keyboard-response","87","156994","0.0-1.0-117.0","0","0","69579","","null","","","null","12","","","","","","","","","","","","","","","NaN",""
"","S1","","html-keyboard-response","88","157247","0.0-1.0-119.0","0","0","69579","","null","","","null","13","","","","","","","","","","","","","","","",""
"","ISI","","html-keyboard-response","89","158250","0.0-1.0-120.0","0","0","69579","","null","","","null","13","NaN","","","","","","","","","","","","","","",""
"","S2","","html-keyboard-response","90","158502","0.0-1.0-121.0","0","0","69579","","null","","","null","13","","NaN","","","","","","","","","","","","","",""
"","response","","html-keyboard-response","91","159129","0.0-1.0-122.0-0.0","0","0","69579","","625","","","75","13","","","1","13","training","adjacent","AB","1","2","R.jpg","P.jpg","1","1","1","",""
"","feedback","","html-keyboard-response","92","160132","0.0-1.0-123.0-0.0","0","0","69579","","null","","","null","13","","","","","","","","","","","","","","","",""
"","ITI","","html-keyboard-response","93","161135","0.0-1.0-126.0","0","0","69579","","null","","","null","13","","","","","","","","","","","","","","","NaN",""
"","S1","","html-keyboard-response","94","161387","0.0-1.0-128.0","0","0","69579","","null","","","null","14","","","","","","","","","","","","","","","",""
"","ISI","","html-keyboard-response","95","162395","0.0-1.0-129.0","0","0","69579","","null","","","null","14","NaN","","","","","","","","","","","","","","",""
"","S2","","html-keyboard-response","96","162649","0.0-1.0-130.0","0","0","69579","","null","","","null","14","","NaN","","","","","","","","","","","","","",""
"","response","","html-keyboard-response","97","163427","0.0-1.0-131.0-0.0","0","0","69579","","775","","","75","14","","","1","14","training","adjacent","FG","6","7","Q.jpg","O.jpg","1","1","1","",""
"","feedback","","html-keyboard-response","98","164429","0.0-1.0-132.0-0.0","0","0","69579","","null","","","null","14","","","","","","","","","","","","","","","",""
"","ITI","","html-keyboard-response","99","165432","0.0-1.0-135.0","0","0","69579","","null","","","null","14","","","","","","","","","","","","","","","NaN",""
"","S1","","html-keyboard-response","100","165685","0.0-1.0-137.0","0","0","69579","","null","","","null","15","","","","","","","","","","","","","","","",""
"","ISI","","html-keyboard-response","101","166687","0.0-1.0-138.0","0","0","69579","","null","","","null","15","NaN","","","","","","","","","","","","","","",""
"","S2","","html-keyboard-response","102","166940","0.0-1.0-139.0","0","0","69579","","null","","","null","15","","NaN","","","","","","","","","","","","","",""
"","response","","html-keyboard-response","103","167577","0.0-1.0-140.0-0.0","0","0","69579","","636","","","75","15","","","1","15","training","adjacent","DC","4","3","L.jpg","N.jpg","1","0","0","",""
"","feedback","","html-keyboard-response","104","168580","0.0-1.0-141.0-0.0","0","0","69579","","null","","","null","15","","","","","","","","","","","","","","","",""
"","time_out","","html-keyboard-response","105","170582","0.0-1.0-143.0-0.0","0","0","69579","","null","","","null","15","","","","","","","","","","","","","","","",""
"","ITI","","html-keyboard-response","106","171585","0.0-1.0-144.0","0","0","69579","","null","","","null","15","","","","","","","","","","","","","","","NaN",""
"","S1","","html-keyboard-response","107","171838","0.0-1.0-146.0","0","0","69579","","null","","","null","16","","","","","","","","","","","","","","","",""
"","ISI","","html-keyboard-response","108","172840","0.0-1.0-147.0","0","0","69579","","null","","","null","16","NaN","","","","","","","","","","","","","","",""
"","S2","","html-keyboard-response","109","173093","0.0-1.0-148.0","0","0","69579","","null","","","null","16","","NaN","","","","","","","","","","","","","",""
"","response","","html-keyboard-response","110","173273","0.0-1.0-149.0-0.0","0","0","69579","","179","","","68","16","","","1","16","training","adjacent","DC","4","3","L.jpg","N.jpg","0","0","1","",""
"","feedback","","html-keyboard-response","111","174276","0.0-1.0-150.0-0.0","0","0","69579","","null","","","null","16","","","","","","","","","","","","","","","",""
"","ITI","","html-keyboard-response","112","175278","0.0-1.0-153.0","0","0","69579","","null","","","null","16","","","","","","","","","","","","","","","NaN",""
"","S1","","html-keyboard-response","113","175531","0.0-1.0-155.0","0","0","69579","","null","","","null","17","","","","","","","","","","","","","","","",""
"","ISI","","html-keyboard-response","114","176534","0.0-1.0-156.0","0","0","69579","","null","","","null","17","NaN","","","","","","","","","","","","","","",""
"","S2","","html-keyboard-response","115","176788","0.0-1.0-157.0","0","0","69579","","null","","","null","17","","NaN","","","","","","","","","","","","","",""
"","response","","html-keyboard-response","116","177497","0.0-1.0-158.0-0.0","0","0","69579","","708","","","68","17","","","1","17","training","adjacent","EF","5","6","M.jpg","Q.jpg","0","1","0","",""
"","feedback","","html-keyboard-response","117","178501","0.0-1.0-159.0-0.0","0","0","69579","","null","","","null","17","","","","","","","","","","","","","","","",""
"","time_out","","html-keyboard-response","118","180503","0.0-1.0-161.0-0.0","0","0","69579","","null","","","null","17","","","","","","","","","","","","","","","",""
"","ITI","","html-keyboard-response","119","181505","0.0-1.0-162.0","0","0","69579","","null","","","null","17","","","","","","","","","","","","","","","NaN",""
"","S1","","html-keyboard-response","120","181759","0.0-1.0-164.0","0","0","69579","","null","","","null","18","","","","","","","","","","","","","","","",""
"","ISI","","html-keyboard-response","121","182761","0.0-1.0-165.0","0","0","69579","","null","","","null","18","NaN","","","","","","","","","","","","","","",""
"","S2","","html-keyboard-response","122","183014","0.0-1.0-166.0","0","0","69579","","null","","","null","18","","NaN","","","","","","","","","","","","","",""
"","response","","html-keyboard-response","123","184180","0.0-1.0-167.0-0.0","0","0","69579","","1164","","","68","18","","","1","18","training","adjacent","BA","2","1","P.jpg","R.jpg","0","0","1","",""
"","feedback","","html-keyboard-response","124","185182","0.0-1.0-168.0-0.0","0","0","69579","","null","","","null","18","","","","","","","","","","","","","","","",""
"","ITI","","html-keyboard-response","125","186185","0.0-1.0-171.0","0","0","69579","","null","","","null","18","","","","","","","","","","","","","","","NaN",""
"","S1","","html-keyboard-response","126","186438","0.0-1.0-173.0","0","0","69579","","null","","","null","19","","","","","","","","","","","","","","","",""
"","ISI","","html-keyboard-response","127","187441","0.0-1.0-174.0","0","0","69579","","null","","","null","19","NaN","","","","","","","","","","","","","","",""
"","S2","","html-keyboard-response","128","187694","0.0-1.0-175.0","0","0","69579","","null","","","null","19","","NaN","","","","","","","","","","","","","",""
"","response","","html-keyboard-response","129","188722","0.0-1.0-176.0-0.0","0","0","69579","","1026","","","75","19","","","1","19","training","adjacent","BA","2","1","P.jpg","R.jpg","1","0","0","",""
"","feedback","","html-keyboard-response","130","189725","0.0-1.0-177.0-0.0","0","0","69579","","null","","","null","19","","","","","","","","","","","","","","","",""
"","time_out","","html-keyboard-response","131","191728","0.0-1.0-179.0-0.0","0","0","69579","","null","","","null","19","","","","","","","","","","","","","","","",""
"","ITI","","html-keyboard-response","132","192731","0.0-1.0-180.0","0","0","69579","","null","","","null","19","","","","","","","","","","","","","","","NaN",""
"","S1","","html-keyboard-response","133","192985","0.0-1.0-182.0","0","0","69579","","null","","","null","20","","","","","","","","","","","","","","","",""
"","ISI","","html-keyboard-response","134","193987","0.0-1.0-183.0","0","0","69579","","null","","","null","20","NaN","","","","","","","","","","","","","","",""
"","S2","","html-keyboard-response","135","194240","0.0-1.0-184.0","0","0","69579","","null","","","null","20","","NaN","","","","","","","","","","","","","",""
"","response","","html-keyboard-response","136","195160","0.0-1.0-185.0-0.0","0","0","69579","","918","","","75","20","","","1","20","training","adjacent","GF","7","6","O.jpg","Q.jpg","1","0","0","",""
"","feedback","","html-keyboard-response","137","196163","0.0-1.0-186.0-0.0","0","0","69579","","null","","","null","20","","","","","","","","","","","","","","","",""
"","time_out","","html-keyboard-response","138","198165","0.0-1.0-188.0-0.0","0","0","69579","","null","","","null","20","","","","","","","","","","","","","","","",""
"","ITI","","html-keyboard-response","139","199169","0.0-1.0-189.0","0","0","69579","","null","","","null","20","","","","","","","","","","","","","","","NaN",""
"","S1","","html-keyboard-response","140","199422","0.0-1.0-191.0","0","0","69579","","null","","","null","21","","","","","","","","","","","","","","","",""
"","ISI","","html-keyboard-response","141","200424","0.0-1.0-192.0","0","0","69579","","null","","","null","21","NaN","","","","","","","","","","","","","","",""
"","S2","","html-keyboard-response","142","200688","0.0-1.0-193.0","0","0","69579","","null","","","null","21","","NaN","","","","","","","","","","","","","",""
"","response","","html-keyboard-response","143","200977","0.0-1.0-194.0-0.0","0","0","69579","","288","","","68","21","","","1","21","training","adjacent","GF","7","6","O.jpg","Q.jpg","0","0","1","",""
"","feedback","","html-keyboard-response","144","201980","0.0-1.0-195.0-0.0","0","0","69579","","null","","","null","21","","","","","","","","","","","","","","","",""
"","ITI","","html-keyboard-response","145","202983","0.0-1.0-198.0","0","0","69579","","null","","","null","21","","","","","","","","","","","","","","","NaN",""
"","S1","","html-keyboard-response","146","203236","0.0-1.0-200.0","0","0","69579","","null","","","null","22","","","","","","","","","","","","","","","",""
"","ISI","","html-keyboard-response","147","204239","0.0-1.0-201.0","0","0","69579","","null","","","null","22","NaN","","","","","","","","","","","","","","",""
"","S2","","html-keyboard-response","148","204492","0.0-1.0-202.0","0","0","69579","","null","","","null","22","","NaN","","","","","","","","","","","","","",""
"","response","","html-keyboard-response","149","205126","0.0-1.0-203.0-0.0","0","0","69579","","633","","","68","22","","","1","22","training","adjacent","CB","3","2","N.jpg","P.jpg","0","0","1","",""
"","feedback","","html-keyboard-response","150","206129","0.0-1.0-204.0-0.0","0","0","69579","","null","","","null","22","","","","","","","","","","","","","","","",""
"","ITI","","html-keyboard-response","151","207132","0.0-1.0-207.0","0","0","69579","","null","","","null","22","","","","","","","","","","","","","","","NaN",""
"","S1","","html-keyboard-response","152","207384","0.0-1.0-209.0","0","0","69579","","null","","","null","23","","","","","","","","","","","","","","","",""
"","ISI","","html-keyboard-response","153","208387","0.0-1.0-210.0","0","0","69579","","null","","","null","23","NaN","","","","","","","","","","","","","","",""
"","S2","","html-keyboard-response","154","208641","0.0-1.0-211.0","0","0","69579","","null","","","null","23","","NaN","","","","","","","","","","","","","",""
"","response","","html-keyboard-response","155","209868","0.0-1.0-212.0-0.0","0","0","69579","","1225","","","75","23","","","1","23","training","adjacent","BC","2","3","P.jpg","N.jpg","1","1","1","",""
"","feedback","","html-keyboard-response","156","210872","0.0-1.0-213.0-0.0","0","0","69579","","null","","","null","23","","","","","","","","","","","","","","","",""
"","ITI","","html-keyboard-response","157","211874","0.0-1.0-216.0","0","0","69579","","null","","","null","23","","","","","","","","","","","","","","","NaN",""
"","S1","","html-keyboard-response","158","212133","0.0-1.0-218.0","0","0","69579","","null","","","null","24","","","","","","","","","","","","","","","",""
"","ISI","","html-keyboard-response","159","213135","0.0-1.0-219.0","0","0","69579","","null","","","null","24","NaN","","","","","","","","","","","","","","",""
"","S2","","html-keyboard-response","160","213397","0.0-1.0-220.0","0","0","69579","","null","","","null","24","","NaN","","","","","","","","","","","","","",""
"","response","","html-keyboard-response","161","214430","0.0-1.0-221.0-0.0","0","0","69579","","1031","","","68","24","","","1","24","training","adjacent","ED","5","4","M.jpg","L.jpg","0","0","1","",""
"","feedback","","html-keyboard-response","162","215433","0.0-1.0-222.0-0.0","0","0","69579","","null","","","null","24","","","","","","","","","","","","","","","",""
"","ITI","","html-keyboard-response","163","216435","0.0-1.0-225.0","0","0","69579","","null","","","null","24","","","","","","","","","","","","","","","NaN",""
"","S1","","html-keyboard-response","164","216687","0.0-1.0-227.0","0","0","69579","","null","","","null","25","","","","","","","","","","","","","","","",""
"","ISI","","html-keyboard-response","165","217690","0.0-1.0-228.0","0","0","69579","","null","","","null","25","NaN","","","","","","","","","","","","","","",""
"","S2","","html-keyboard-response","166","217943","0.0-1.0-229.0","0","0","69579","","null","","","null","25","","NaN","","","","","","","","","","","","","",""
"","response","","html-keyboard-response","167","218776","0.0-1.0-230.0-0.0","0","0","69579","","832","","","75","25","","","1","25","training","adjacent","BC","2","3","P.jpg","N.jpg","1","1","1","",""
"","feedback","","html-keyboard-response","168","219788","0.0-1.0-231.0-0.0","0","0","69579","","null","","","null","25","","","","","","","","","","","","","","","",""
"","ITI","","html-keyboard-response","169","220792","0.0-1.0-234.0","0","0","69579","","null","","","null","25","","","","","","","","","","","","","","","NaN",""
"","S1","","html-keyboard-response","170","221045","0.0-1.0-236.0","0","0","69579","","null","","","null","26","","","","","","","","","","","","","","","",""
"","ISI","","html-keyboard-response","171","222047","0.0-1.0-237.0","0","0","69579","","null","","","null","26","NaN","","","","","","","","","","","","","","",""
"","S2","","html-keyboard-response","172","222300","0.0-1.0-238.0","0","0","69579","","null","","","null","26","","NaN","","","","","","","","","","","","","",""
"","response","","html-keyboard-response","173","223225","0.0-1.0-239.0-0.0","0","0","69579","","924","","","68","26","","","1","26","training","adjacent","EF","5","6","M.jpg","Q.jpg","0","1","0","",""
"","feedback","","html-keyboard-response","174","224228","0.0-1.0-240.0-0.0","0","0","69579","","null","","","null","26","","","","","","","","","","","","","","","",""
"","time_out","","html-keyboard-response","175","226231","0.0-1.0-242.0-0.0","0","0","69579","","null","","","null","26","","","","","","","","","","","","","","","",""
"","ITI","","html-keyboard-response","176","227234","0.0-1.0-243.0","0","0","69579","","null","","","null","26","","","","","","","","","","","","","","","NaN",""
"","S1","","html-keyboard-response","177","227487","0.0-1.0-245.0","0","0","69579","","null","","","null","27","","","","","","","","","","","","","","","",""
"","ISI","","html-keyboard-response","178","228490","0.0-1.0-246.0","0","0","69579","","null","","","null","27","NaN","","","","","","","","","","","","","","",""
"","S2","","html-keyboard-response","179","228742","0.0-1.0-247.0","0","0","69579","","null","","","null","27","","NaN","","","","","","","","","","","","","",""
"","response","","html-keyboard-response","180","229924","0.0-1.0-248.0-0.0","0","0","69579","","1181","","","68","27","","","1","27","training","adjacent","GF","7","6","O.jpg","Q.jpg","0","0","1","",""
"","feedback","","html-keyboard-response","181","230928","0.0-1.0-249.0-0.0","0","0","69579","","null","","","null","27","","","","","","","","","","","","","","","",""
"","ITI","","html-keyboard-response","182","231931","0.0-1.0-252.0","0","0","69579","","null","","","null","27","","","","","","","","","","","","","","","NaN",""
"","S1","","html-keyboard-response","183","232184","0.0-1.0-254.0","0","0","69579","","null","","","null","28","","","","","","","","","","","","","","","",""
"","ISI","","html-keyboard-response","184","233187","0.0-1.0-255.0","0","0","69579","","null","","","null","28","NaN","","","","","","","","","","","","","","",""
"","S2","","html-keyboard-response","185","233440","0.0-1.0-256.0","0","0","69579","","null","","","null","28","","NaN","","","","","","","","","","","","","",""
"","response","","html-keyboard-response","186","233855","0.0-1.0-257.0-0.0","0","0","69579","","413","","","75","28","","","1","28","training","adjacent","FG","6","7","Q.jpg","O.jpg","1","1","1","",""
"","feedback","","html-keyboard-response","187","234858","0.0-1.0-258.0-0.0","0","0","69579","","null","","","null","28","","","","","","","","","","","","","","","",""
"","ITI","","html-keyboard-response","188","235862","0.0-1.0-261.0","0","0","69579","","null","","","null","28","","","","","","","","","","","","","","","NaN",""
"","S1","","html-keyboard-response","189","236114","0.0-1.0-263.0","0","0","69579","","null","","","null","29","","","","","","","","","","","","","","","",""
"","ISI","","html-keyboard-response","190","237117","0.0-1.0-264.0","0","0","69579","","null","","","null","29","NaN","","","","","","","","","","","","","","",""
"","S2","","html-keyboard-response","191","237370","0.0-1.0-265.0","0","0","69579","","null","","","null","29","","NaN","","","","","","","","","","","","","",""
"","response","","html-keyboard-response","192","238168","0.0-1.0-266.0-0.0","0","0","69579","","796","","","75","29","","","1","29","training","adjacent","FE","6","5","Q.jpg","M.jpg","1","0","0","",""
"","feedback","","html-keyboard-response","193","239171","0.0-1.0-267.0-0.0","0","0","69579","","null","","","null","29","","","","","","","","","","","","","","","",""
"","time_out","","html-keyboard-response","194","241173","0.0-1.0-269.0-0.0","0","0","69579","","null","","","null","29","","","","","","","","","","","","","","","",""
"","ITI","","html-keyboard-response","195","242175","0.0-1.0-270.0","0","0","69579","","null","","","null","29","","","","","","","","","","","","","","","NaN",""
"","S1","","html-keyboard-response","196","242429","0.0-1.0-272.0","0","0","69579","","null","","","null","30","","","","","","","","","","","","","","","",""
"","ISI","","html-keyboard-response","197","243432","0.0-1.0-273.0","0","0","69579","","null","","","null","30","NaN","","","","","","","","","","","","","","",""
"","S2","","html-keyboard-response","198","243686","0.0-1.0-274.0","0","0","69579","","null","","","null","30","","NaN","","","","","","","","","","","","","",""
"","response","","html-keyboard-response","199","244355","0.0-1.0-275.0-0.0","0","0","69579","","666","","","68","30","","","1","30","training","adjacent","CD","3","4","N.jpg","L.jpg","0","1","0","",""
"","feedback","","html-keyboard-response","200","245358","0.0-1.0-276.0-0.0","0","0","69579","","null","","","null","30","","","","","","","","","","","","","","","",""
"","time_out","","html-keyboard-response","201","247361","0.0-1.0-278.0-0.0","0","0","69579","","null","","","null","30","","","","","","","","","","","","","","","",""
"","ITI","","html-keyboard-response","202","248363","0.0-1.0-279.0","0","0","69579","","null","","","null","30","","","","","","","","","","","","","","","NaN",""
"","S1","","html-keyboard-response","203","248616","0.0-1.0-281.0","0","0","69579","","null","","","null","31","","","","","","","","","","","","","","","",""
"","ISI","","html-keyboard-response","204","249619","0.0-1.0-282.0","0","0","69579","","null","","","null","31","NaN","","","","","","","","","","","","","","",""
"","S2","","html-keyboard-response","205","249872","0.0-1.0-283.0","0","0","69579","","null","","","null","31","","NaN","","","","","","","","","","","","","",""
"","response","","html-keyboard-response","206","251275","0.0-1.0-284.0-0.0","0","0","69579","","1401","","","68","31","","","1","31","training","adjacent","DE","4","5","L.jpg","M.jpg","0","1","0","",""
"","feedback","","html-keyboard-response","207","252279","0.0-1.0-285.0-0.0","0","0","69579","","null","","","null","31","","","","","","","","","","","","","","","",""
"","time_out","","html-keyboard-response","208","254281","0.0-1.0-287.0-0.0","0","0","69579","","null","","","null","31","","","","","","","","","","","","","","","",""
"","ITI","","html-keyboard-response","209","255284","0.0-1.0-288.0","0","0","69579","","null","","","null","31","","","","","","","","","","","","","","","NaN",""
"","S1","","html-keyboard-response","210","255551","0.0-1.0-290.0","0","0","69579","","null","","","null","32","","","","","","","","","","","","","","","",""
"","ISI","","html-keyboard-response","211","256569","0.0-1.0-291.0","0","0","69579","","null","","","null","32","NaN","","","","","","","","","","","","","","",""
"","S2","","html-keyboard-response","212","256822","0.0-1.0-292.0","0","0","69579","","null","","","null","32","","NaN","","","","","","","","","","","","","",""
"","response","","html-keyboard-response","213","257507","0.0-1.0-293.0-0.0","0","0","69579","","683","","","68","32","","","1","32","training","adjacent","CB","3","2","N.jpg","P.jpg","0","0","1","",""
"","feedback","","html-keyboard-response","214","258510","0.0-1.0-294.0-0.0","0","0","69579","","null","","","null","32","","","","","","","","","","","","","","","",""
"","ITI","","html-keyboard-response","215","259512","0.0-1.0-297.0","0","0","69579","","null","","","null","32","","","","","","","","","","","","","","","NaN",""
"","S1","","html-keyboard-response","216","259766","0.0-1.0-299.0","0","0","69579","","null","","","null","33","","","","","","","","","","","","","","","",""
"","ISI","","html-keyboard-response","217","260769","0.0-1.0-300.0","0","0","69579","","null","","","null","33","NaN","","","","","","","","","","","","","","",""
"","S2","","html-keyboard-response","218","261023","0.0-1.0-301.0","0","0","69579","","null","","","null","33","","NaN","","","","","","","","","","","","","",""
"","response","","html-keyboard-response","219","262215","0.0-1.0-302.0-0.0","0","0","69579","","1190","","","68","33","","","1","33","training","adjacent","ED","5","4","M.jpg","L.jpg","0","0","1","",""
"","feedback","","html-keyboard-response","220","263218","0.0-1.0-303.0-0.0","0","0","69579","","null","","","null","33","","","","","","","","","","","","","","","",""
"","ITI","","html-keyboard-response","221","264221","0.0-1.0-306.0","0","0","69579","","null","","","null","33","","","","","","","","","","","","","","","NaN",""
"","S1","","html-keyboard-response","222","264473","0.0-1.0-308.0","0","0","69579","","null","","","null","34","","","","","","","","","","","","","","","",""
"","ISI","","html-keyboard-response","223","265477","0.0-1.0-309.0","0","0","69579","","null","","","null","34","NaN","","","","","","","","","","","","","","",""
"","S2","","html-keyboard-response","224","265731","0.0-1.0-310.0","0","0","69579","","null","","","null","34","","NaN","","","","","","","","","","","","","",""
"","response","","html-keyboard-response","225","266936","0.0-1.0-311.0-0.0","0","0","69579","","1204","","","75","34","","","1","34","training","adjacent","BC","2","3","P.jpg","N.jpg","1","1","1","",""
"","feedback","","html-keyboard-response","226","267947","0.0-1.0-312.0-0.0","0","0","69579","","null","","","null","34","","","","","","","","","","","","","","","",""
"","ITI","","html-keyboard-response","227","268949","0.0-1.0-315.0","0","0","69579","","null","","","null","34","","","","","","","","","","","","","","","NaN",""
"","S1","","html-keyboard-response","228","269202","0.0-1.0-317.0","0","0","69579","","null","","","null","35","","","","","","","","","","","","","","","",""
"","ISI","","html-keyboard-response","229","270205","0.0-1.0-318.0","0","0","69579","","null","","","null","35","NaN","","","","","","","","","","","","","","",""
"","S2","","html-keyboard-response","230","270463","0.0-1.0-319.0","0","0","69579","","null","","","null","35","","NaN","","","","","","","","","","","","","",""
"","response","","html-keyboard-response","231","271689","0.0-1.0-320.0-0.0","0","0","69579","","1224","","","75","35","","","1","35","training","adjacent","BA","2","1","P.jpg","R.jpg","1","0","0","",""
"","feedback","","html-keyboard-response","232","272692","0.0-1.0-321.0-0.0","0","0","69579","","null","","","null","35","","","","","","","","","","","","","","","",""
"","time_out","","html-keyboard-response","233","274696","0.0-1.0-323.0-0.0","0","0","69579","","null","","","null","35","","","","","","","","","","","","","","","",""
"","ITI","","html-keyboard-response","234","275698","0.0-1.0-324.0","0","0","69579","","null","","","null","35","","","","","","","","","","","","","","","NaN",""
"","S1","","html-keyboard-response","235","275951","0.0-1.0-326.0","0","0","69579","","null","","","null","36","","","","","","","","","","","","","","","",""
"","ISI","","html-keyboard-response","236","276953","0.0-1.0-327.0","0","0","69579","","null","","","null","36","NaN","","","","","","","","","","","","","","",""
"","S2","","html-keyboard-response","237","277206","0.0-1.0-328.0","0","0","69579","","null","","","null","36","","NaN","","","","","","","","","","","","","",""
"","response","","html-keyboard-response","238","277727","0.0-1.0-329.0-0.0","0","0","69579","","519","","","75","36","","","1","36","training","adjacent","FG","6","7","Q.jpg","O.jpg","1","1","1","",""
"","feedback","","html-keyboard-response","239","278729","0.0-1.0-330.0-0.0","0","0","69579","","null","","","null","36","","","","","","","","","","","","","","","",""
"","ITI","","html-keyboard-response","240","279732","0.0-1.0-333.0","0","0","69579","","null","","","null","36","","","","","","","","","","","","","","","NaN",""
"","S1","","html-keyboard-response","241","279984","0.0-1.0-335.0","0","0","69579","","null","","","null","37","","","","","","","","","","","","","","","",""
"","ISI","","html-keyboard-response","242","280987","0.0-1.0-336.0","0","0","69579","","null","","","null","37","NaN","","","","","","","","","","","","","","",""
"","S2","","html-keyboard-response","243","281239","0.0-1.0-337.0","0","0","69579","","null","","","null","37","","NaN","","","","","","","","","","","","","",""
"","response","","html-keyboard-response","244","282204","0.0-1.0-338.0-0.0","0","0","69579","","964","","","68","37","","","1","37","training","adjacent","BC","2","3","P.jpg","N.jpg","0","1","0","",""
"","feedback","","html-keyboard-response","245","283214","0.0-1.0-339.0-0.0","0","0","69579","","null","","","null","37","","","","","","","","","","","","","","","",""
"","time_out","","html-keyboard-response","246","285216","0.0-1.0-341.0-0.0","0","0","69579","","null","","","null","37","","","","","","","","","","","","","","","",""
"","ITI","","html-keyboard-response","247","286218","0.0-1.0-342.0","0","0","69579","","null","","","null","37","","","","","","","","","","","","","","","NaN",""
"","S1","","html-keyboard-response","248","286472","0.0-1.0-344.0","0","0","69579","","null","","","null","38","","","","","","","","","","","","","","","",""
"","ISI","","html-keyboard-response","249","287475","0.0-1.0-345.0","0","0","69579","","null","","","null","38","NaN","","","","","","","","","","","","","","",""
"","S2","","html-keyboard-response","250","287734","0.0-1.0-346.0","0","0","69579","","null","","","null","38","","NaN","","","","","","","","","","","","","",""
"","response","","html-keyboard-response","251","288428","0.0-1.0-347.0-0.0","0","0","69579","","691","","","75","38","","","1","38","training","adjacent","DE","4","5","L.jpg","M.jpg","1","1","1","",""
"","feedback","","html-keyboard-response","252","289431","0.0-1.0-348.0-0.0","0","0","69579","","null","","","null","38","","","","","","","","","","","","","","","",""
"","ITI","","html-keyboard-response","253","290433","0.0-1.0-351.0","0","0","69579","","null","","","null","38","","","","","","","","","","","","","","","NaN",""
"","S1","","html-keyboard-response","254","290699","0.0-1.0-353.0","0","0","69579","","null","","","null","39","","","","","","","","","","","","","","","",""
"","ISI","","html-keyboard-response","255","291702","0.0-1.0-354.0","0","0","69579","","null","","","null","39","NaN","","","","","","","","","","","","","","",""
"","S2","","html-keyboard-response","256","291955","0.0-1.0-355.0","0","0","69579","","null","","","null","39","","NaN","","","","","","","","","","","","","",""
"","response","","html-keyboard-response","257","292755","0.0-1.0-356.0-0.0","0","0","69579","","798","","","75","39","","","1","39","training","adjacent","DC","4","3","L.jpg","N.jpg","1","0","0","",""
"","feedback","","html-keyboard-response","258","293759","0.0-1.0-357.0-0.0","0","0","69579","","null","","","null","39","","","","","","","","","","","","","","","",""
"","time_out","","html-keyboard-response","259","295762","0.0-1.0-359.0-0.0","0","0","69579","","null","","","null","39","","","","","","","","","","","","","","","",""
"","ITI","","html-keyboard-response","260","296765","0.0-1.0-360.0","0","0","69579","","null","","","null","39","","","","","","","","","","","","","","","NaN",""
"","S1","","html-keyboard-response","261","297029","0.0-1.0-362.0","0","0","69579","","null","","","null","40","","","","","","","","","","","","","","","",""
"","ISI","","html-keyboard-response","262","298031","0.0-1.0-363.0","0","0","69579","","null","","","null","40","NaN","","","","","","","","","","","","","","",""
"","S2","","html-keyboard-response","263","298284","0.0-1.0-364.0","0","0","69579","","null","","","null","40","","NaN","","","","","","","","","","","","","",""
"","response","","html-keyboard-response","264","299991","0.0-1.0-365.0-0.0","0","0","69579","","1704","","","68","40","","","1","40","training","adjacent","CB","3","2","N.jpg","P.jpg","0","0","1","",""
"","feedback","","html-keyboard-response","265","300993","0.0-1.0-366.0-0.0","0","0","69579","","null","","","null","40","","","","","","","","","","","","","","","",""
"","ITI","","html-keyboard-response","266","301996","0.0-1.0-369.0","0","0","69579","","null","","","null","40","","","","","","","","","","","","","","","NaN",""
"","S1","","html-keyboard-response","267","302249","0.0-1.0-371.0","0","0","69579","","null","","","null","41","","","","","","","","","","","","","","","",""
"","ISI","","html-keyboard-response","268","303251","0.0-1.0-372.0","0","0","69579","","null","","","null","41","NaN","","","","","","","","","","","","","","",""
"","S2","","html-keyboard-response","269","303504","0.0-1.0-373.0","0","0","69579","","null","","","null","41","","NaN","","","","","","","","","","","","","",""
"","response","","html-keyboard-response","270","304209","0.0-1.0-374.0-0.0","0","0","69579","","703","","","68","41","","","1","41","training","adjacent","EF","5","6","M.jpg","Q.jpg","0","1","0","",""
"","feedback","","html-keyboard-response","271","305211","0.0-1.0-375.0-0.0","0","0","69579","","null","","","null","41","","","","","","","","","","","","","","","",""
"","time_out","","html-keyboard-response","272","307214","0.0-1.0-377.0-0.0","0","0","69579","","null","","","null","41","","","","","","","","","","","","","","","",""
"","ITI","","html-keyboard-response","273","308217","0.0-1.0-378.0","0","0","69579","","null","","","null","41","","","","","","","","","","","","","","","NaN",""
"","S1","","html-keyboard-response","274","308469","0.0-1.0-380.0","0","0","69579","","null","","","null","42","","","","","","","","","","","","","","","",""
"","ISI","","html-keyboard-response","275","309472","0.0-1.0-381.0","0","0","69579","","null","","","null","42","NaN","","","","","","","","","","","","","","",""
"","S2","","html-keyboard-response","276","309725","0.0-1.0-382.0","0","0","69579","","null","","","null","42","","NaN","","","","","","","","","","","","","",""
"","response","","html-keyboard-response","277","310619","0.0-1.0-383.0-0.0","0","0","69579","","893","","","75","42","","","1","42","training","adjacent","AB","1","2","R.jpg","P.jpg","1","1","1","",""
"","feedback","","html-keyboard-response","278","311621","0.0-1.0-384.0-0.0","0","0","69579","","null","","","null","42","","","","","","","","","","","","","","","",""
"","ITI","","html-keyboard-response","279","312624","0.0-1.0-387.0","0","0","69579","","null","","","null","42","","","","","","","","","","","","","","","NaN",""
"","S1","","html-keyboard-response","280","312877","0.0-1.0-389.0","0","0","69579","","null","","","null","43","","","","","","","","","","","","","","","",""
"","ISI","","html-keyboard-response","281","313879","0.0-1.0-390.0","0","0","69579","","null","","","null","43","NaN","","","","","","","","","","","","","","",""
"","S2","","html-keyboard-response","282","314133","0.0-1.0-391.0","0","0","69579","","null","","","null","43","","NaN","","","","","","","","","","","","","",""
"","response","","html-keyboard-response","283","314917","0.0-1.0-392.0-0.0","0","0","69579","","782","","","75","43","","","1","43","training","adjacent","FG","6","7","Q.jpg","O.jpg","1","1","1","",""
"","feedback","","html-keyboard-response","284","315919","0.0-1.0-393.0-0.0","0","0","69579","","null","","","null","43","","","","","","","","","","","","","","","",""
"","ITI","","html-keyboard-response","285","316922","0.0-1.0-396.0","0","0","69579","","null","","","null","43","","","","","","","","","","","","","","","NaN",""
"","S1","","html-keyboard-response","286","317176","0.0-1.0-398.0","0","0","69579","","null","","","null","44","","","","","","","","","","","","","","","",""
"","ISI","","html-keyboard-response","287","318178","0.0-1.0-399.0","0","0","69579","","null","","","null","44","NaN","","","","","","","","","","","","","","",""
"","S2","","html-keyboard-response","288","318431","0.0-1.0-400.0","0","0","69579","","null","","","null","44","","NaN","","","","","","","","","","","","","",""
"","response","","html-keyboard-response","289","319274","0.0-1.0-401.0-0.0","0","0","69579","","841","","","68","44","","","1","44","training","adjacent","CD","3","4","N.jpg","L.jpg","0","1","0","",""
"","feedback","","html-keyboard-response","290","320277","0.0-1.0-402.0-0.0","0","0","69579","","null","","","null","44","","","","","","","","","","","","","","","",""
"","time_out","","html-keyboard-response","291","322280","0.0-1.0-404.0-0.0","0","0","69579","","null","","","null","44","","","","","","","","","","","","","","","",""
"","ITI","","html-keyboard-response","292","323282","0.0-1.0-405.0","0","0","69579","","null","","","null","44","","","","","","","","","","","","","","","NaN",""
"","S1","","html-keyboard-response","293","323535","0.0-1.0-407.0","0","0","69579","","null","","","null","45","","","","","","","","","","","","","","","",""
"","ISI","","html-keyboard-response","294","324538","0.0-1.0-408.0","0","0","69579","","null","","","null","45","NaN","","","","","","","","","","","","","","",""
"","S2","","html-keyboard-response","295","324791","0.0-1.0-409.0","0","0","69579","","null","","","null","45","","NaN","","","","","","","","","","","","","",""
"","response","","html-keyboard-response","296","325613","0.0-1.0-410.0-0.0","0","0","69579","","819","","","68","45","","","1","45","training","adjacent","BA","2","1","P.jpg","R.jpg","0","0","1","",""
"","feedback","","html-keyboard-response","297","326615","0.0-1.0-411.0-0.0","0","0","69579","","null","","","null","45","","","","","","","","","","","","","","","",""
"","ITI","","html-keyboard-response","298","327619","0.0-1.0-414.0","0","0","69579","","null","","","null","45","","","","","","","","","","","","","","","NaN",""
"","S1","","html-keyboard-response","299","327873","0.0-1.0-416.0","0","0","69579","","null","","","null","46","","","","","","","","","","","","","","","",""
"","ISI","","html-keyboard-response","300","328875","0.0-1.0-417.0","0","0","69579","","null","","","null","46","NaN","","","","","","","","","","","","","","",""
"","S2","","html-keyboard-response","301","329137","0.0-1.0-418.0","0","0","69579","","null","","","null","46","","NaN","","","","","","","","","","","","","",""
"","response","","html-keyboard-response","302","330504","0.0-1.0-419.0-0.0","0","0","69579","","1365","","","68","46","","","1","46","training","adjacent","EF","5","6","M.jpg","Q.jpg","0","1","0","",""
"","feedback","","html-keyboard-response","303","331508","0.0-1.0-420.0-0.0","0","0","69579","","null","","","null","46","","","","","","","","","","","","","","","",""
"","time_out","","html-keyboard-response","304","333510","0.0-1.0-422.0-0.0","0","0","69579","","null","","","null","46","","","","","","","","","","","","","","","",""
"","ITI","","html-keyboard-response","305","334513","0.0-1.0-423.0","0","0","69579","","null","","","null","46","","","","","","","","","","","","","","","NaN",""
"","S1","","html-keyboard-response","306","334765","0.0-1.0-425.0","0","0","69579","","null","","","null","47","","","","","","","","","","","","","","","",""
"","ISI","","html-keyboard-response","307","335768","0.0-1.0-426.0","0","0","69579","","null","","","null","47","NaN","","","","","","","","","","","","","","",""
"","S2","","html-keyboard-response","308","336020","0.0-1.0-427.0","0","0","69579","","null","","","null","47","","NaN","","","","","","","","","","","","","",""
"","response","","html-keyboard-response","309","337008","0.0-1.0-428.0-0.0","0","0","69579","","985","","","75","47","","","1","47","training","adjacent","AB","1","2","R.jpg","P.jpg","1","1","1","",""
"","feedback","","html-keyboard-response","310","338010","0.0-1.0-429.0-0.0","0","0","69579","","null","","","null","47","","","","","","","","","","","","","","","",""
"","ITI","","html-keyboard-response","311","339013","0.0-1.0-432.0","0","0","69579","","null","","","null","47","","","","","","","","","","","","","","","NaN",""
"","block_over","","html-keyboard-response","312","344978","0.0-1.0-433.0-0.0","0","0","69579","","5961","","","32","47","","","","","","","","","","","","","","","",""
"","S1","","html-keyboard-response","313","345231","0.0-1.0-434.0","0","0","69579","","null","","","null","48","","","","","","","","","","","","","","","",""
"","ISI","","html-keyboard-response","314","346234","0.0-1.0-435.0","0","0","69579","","null","","","null","48","NaN","","","","","","","","","","","","","","",""
"","S2","","html-keyboard-response","315","346498","0.0-1.0-436.0","0","0","69579","","null","","","null","48","","NaN","","","","","","","","","","","","","",""
"","response","","html-keyboard-response","316","348174","0.0-1.0-437.0-0.0","0","0","69579","","1674","","","75","48","","","2","48","training","adjacent","FG","6","7","Q.jpg","O.jpg","1","1","1","",""
"","feedback","","html-keyboard-response","317","349177","0.0-1.0-438.0-0.0","0","0","69579","","null","","","null","48","","","","","","","","","","","","","","","",""
"","ITI","","html-keyboard-response","318","350180","0.0-1.0-441.0","0","0","69579","","null","","","null","48","","","","","","","","","","","","","","","NaN",""
"","S1","","html-keyboard-response","319","350433","0.0-1.0-443.0","0","0","69579","","null","","","null","49","","","","","","","","","","","","","","","",""
"","ISI","","html-keyboard-response","320","351437","0.0-1.0-444.0","0","0","69579","","null","","","null","49","NaN","","","","","","","","","","","","","","",""
"","S2","","html-keyboard-response","321","351689","0.0-1.0-445.0","0","0","69579","","null","","","null","49","","NaN","","","","","","","","","","","","","",""
"","response","","html-keyboard-response","322","352426","0.0-1.0-446.0-0.0","0","0","69579","","735","","","68","49","","","2","49","training","adjacent","ED","5","4","M.jpg","L.jpg","0","0","1","",""
"","feedback","","html-keyboard-response","323","353429","0.0-1.0-447.0-0.0","0","0","69579","","null","","","null","49","","","","","","","","","","","","","","","",""
"","ITI","","html-keyboard-response","324","354444","0.0-1.0-450.0","0","0","69579","","null","","","null","49","","","","","","","","","","","","","","","NaN",""
"","S1","","html-keyboard-response","325","354696","0.0-1.0-452.0","0","0","69579","","null","","","null","50","","","","","","","","","","","","","","","",""
"","ISI","","html-keyboard-response","326","355699","0.0-1.0-453.0","0","0","69579","","null","","","null","50","NaN","","","","","","","","","","","","","","",""
"","S2","","html-keyboard-response","327","355952","0.0-1.0-454.0","0","0","69579","","null","","","null","50","","NaN","","","","","","","","","","","","","",""
"","response","","html-keyboard-response","328","356704","0.0-1.0-455.0-0.0","0","0","69579","","749","","","75","50","","","2","50","training","adjacent","BA","2","1","P.jpg","R.jpg","1","0","0","",""
"","feedback","","html-keyboard-response","329","357707","0.0-1.0-456.0-0.0","0","0","69579","","null","","","null","50","","","","","","","","","","","","","","","",""
"","time_out","","html-keyboard-response","330","359710","0.0-1.0-458.0-0.0","0","0","69579","","null","","","null","50","","","","","","","","","","","","","","","",""
"","ITI","","html-keyboard-response","331","360712","0.0-1.0-459.0","0","0","69579","","null","","","null","50","","","","","","","","","","","","","","","NaN",""
"","S1","","html-keyboard-response","332","360965","0.0-1.0-461.0","0","0","69579","","null","","","null","51","","","","","","","","","","","","","","","",""
"","ISI","","html-keyboard-response","333","361968","0.0-1.0-462.0","0","0","69579","","null","","","null","51","NaN","","","","","","","","","","","","","","",""
"","S2","","html-keyboard-response","334","362221","0.0-1.0-463.0","0","0","69579","","null","","","null","51","","NaN","","","","","","","","","","","","","",""
"","response","","html-keyboard-response","335","363322","0.0-1.0-464.0-0.0","0","0","69579","","1099","","","68","51","","","2","51","training","adjacent","CB","3","2","N.jpg","P.jpg","0","0","1","",""
"","feedback","","html-keyboard-response","336","364326","0.0-1.0-465.0-0.0","0","0","69579","","null","","","null","51","","","","","","","","","","","","","","","",""
"","ITI","","html-keyboard-response","337","365335","0.0-1.0-468.0","0","0","69579","","null","","","null","51","","","","","","","","","","","","","","","NaN",""
"","S1","","html-keyboard-response","338","365589","0.0-1.0-470.0","0","0","69579","","null","","","null","52","","","","","","","","","","","","","","","",""
"","ISI","","html-keyboard-response","339","366592","0.0-1.0-471.0","0","0","69579","","null","","","null","52","NaN","","","","","","","","","","","","","","",""
"","S2","","html-keyboard-response","340","366845","0.0-1.0-472.0","0","0","69579","","null","","","null","52","","NaN","","","","","","","","","","","","","",""
"","response","","html-keyboard-response","341","367278","0.0-1.0-473.0-0.0","0","0","69579","","432","","","75","52","","","2","52","training","adjacent","FG","6","7","Q.jpg","O.jpg","1","1","1","",""
"","feedback","","html-keyboard-response","342","368282","0.0-1.0-474.0-0.0","0","0","69579","","null","","","null","52","","","","","","","","","","","","","","","",""
"","ITI","","html-keyboard-response","343","369285","0.0-1.0-477.0","0","0","69579","","null","","","null","52","","","","","","","","","","","","","","","NaN",""
"","S1","","html-keyboard-response","344","369538","0.0-1.0-479.0","0","0","69579","","null","","","null","53","","","","","","","","","","","","","","","",""
"","ISI","","html-keyboard-response","345","370541","0.0-1.0-480.0","0","0","69579","","null","","","null","53","NaN","","","","","","","","","","","","","","",""
"","S2","","html-keyboard-response","346","370794","0.0-1.0-481.0","0","0","69579","","null","","","null","53","","NaN","","","","","","","","","","","","","",""
"","response","","html-keyboard-response","347","371573","0.0-1.0-482.0-0.0","0","0","69579","","777","","","68","53","","","2","53","training","adjacent","DE","4","5","L.jpg","M.jpg","0","1","0","",""
"","feedback","","html-keyboard-response","348","372577","0.0-1.0-483.0-0.0","0","0","69579","","null","","","null","53","","","","","","","","","","","","","","","",""
"","time_out","","html-keyboard-response","349","374580","0.0-1.0-485.0-0.0","0","0","69579","","null","","","null","53","","","","","","","","","","","","","","","",""
"","ITI","","html-keyboard-response","350","375582","0.0-1.0-486.0","0","0","69579","","null","","","null","53","","","","","","","","","","","","","","","NaN",""
"","S1","","html-keyboard-response","351","375835","0.0-1.0-488.0","0","0","69579","","null","","","null","54","","","","","","","","","","","","","","","",""
"","ISI","","html-keyboard-response","352","376839","0.0-1.0-489.0","0","0","69579","","null","","","null","54","NaN","","","","","","","","","","","","","","",""
"","S2","","html-keyboard-response","353","377092","0.0-1.0-490.0","0","0","69579","","null","","","null","54","","NaN","","","","","","","","","","","","","",""
"","response","","html-keyboard-response","354","378845","0.0-1.0-491.0-0.0","0","0","69579","","null","","","null","54","","","2","54","training","adjacent","BC","2","3","P.jpg","N.jpg","NaN","1","0","",""
"","too_slow_prompt","","html-keyboard-response","355","379848","0.0-1.0-493.0-0.0","1","0","69579","","null","","","null","","","","","","","","","","","","","","","","",""
"","time_out","","html-keyboard-response","356","381852","0.0-1.0-494.0-0.0","0","0","69579","","null","","","null","54","","","","","","","","","","","","","","","",""
"","ITI","","html-keyboard-response","357","382854","0.0-1.0-495.0","0","0","69579","","null","","","null","54","","","","","","","","","","","","","","","NaN",""
"","S1","","html-keyboard-response","358","383108","0.0-1.0-497.0","0","0","69579","","null","","","null","55","","","","","","","","","","","","","","","",""
"","ISI","","html-keyboard-response","359","384111","0.0-1.0-498.0","0","0","69579","","null","","","null","55","NaN","","","","","","","","","","","","","","",""
"","S2","","html-keyboard-response","360","384364","0.0-1.0-499.0","0","0","69579","","null","","","null","55","","NaN","","","","","","","","","","","","","",""
"","response","","html-keyboard-response","361","384707","0.0-1.0-500.0-0.0","0","0","69579","","341","","","75","55","","","2","55","training","adjacent","DC","4","3","L.jpg","N.jpg","1","0","0","",""
"","feedback","","html-keyboard-response","362","385711","0.0-1.0-501.0-0.0","0","0","69579","","null","","","null","55","","","","","","","","","","","","","","","",""
"","time_out","","html-keyboard-response","363","387713","0.0-1.0-503.0-0.0","0","0","69579","","null","","","null","55","","","","","","","","","","","","","","","",""
"","ITI","","html-keyboard-response","364","388716","0.0-1.0-504.0","0","0","69579","","null","","","null","55","","","","","","","","","","","","","","","NaN",""
"","S1","","html-keyboard-response","365","388969","0.0-1.0-506.0","0","0","69579","","null","","","null","56","","","","","","","","","","","","","","","",""
"","ISI","","html-keyboard-response","366","389973","0.0-1.0-507.0","0","0","69579","","null","","","null","56","NaN","","","","","","","","","","","","","","",""
"","S2","","html-keyboard-response","367","390225","0.0-1.0-508.0","0","0","69579","","null","","","null","56","","NaN","","","","","","","","","","","","","",""
"","response","","html-keyboard-response","368","390594","0.0-1.0-509.0-0.0","0","0","69579","","366","","","68","56","","","2","56","training","adjacent","CD","3","4","N.jpg","L.jpg","0","1","0","",""
"","feedback","","html-keyboard-response","369","391597","0.0-1.0-510.0-0.0","0","0","69579","","null","","","null","56","","","","","","","","","","","","","","","",""
"","time_out","","html-keyboard-response","370","393600","0.0-1.0-512.0-0.0","0","0","69579","","null","","","null","56","","","","","","","","","","","","","","","",""
"","ITI","","html-keyboard-response","371","394602","0.0-1.0-513.0","0","0","69579","","null","","","null","56","","","","","","","","","","","","","","","NaN",""
"","S1","","html-keyboard-response","372","394855","0.0-1.0-515.0","0","0","69579","","null","","","null","57","","","","","","","","","","","","","","","",""
"","ISI","","html-keyboard-response","373","395858","0.0-1.0-516.0","0","0","69579","","null","","","null","57","NaN","","","","","","","","","","","","","","",""
"","S2","","html-keyboard-response","374","396111","0.0-1.0-517.0","0","0","69579","","null","","","null","57","","NaN","","","","","","","","","","","","","",""
"","response","","html-keyboard-response","375","397079","0.0-1.0-518.0-0.0","0","0","69579","","966","","","68","57","","","2","57","training","adjacent","EF","5","6","M.jpg","Q.jpg","0","1","0","",""
"","feedback","","html-keyboard-response","376","398082","0.0-1.0-519.0-0.0","0","0","69579","","null","","","null","57","","","","","","","","","","","","","","","",""
"","time_out","","html-keyboard-response","377","400085","0.0-1.0-521.0-0.0","0","0","69579","","null","","","null","57","","","","","","","","","","","","","","","",""
"","ITI","","html-keyboard-response","378","401087","0.0-1.0-522.0","0","0","69579","","null","","","null","57","","","","","","","","","","","","","","","NaN",""
"","S1","","html-keyboard-response","379","401339","0.0-1.0-524.0","0","0","69579","","null","","","null","58","","","","","","","","","","","","","","","",""
"","ISI","","html-keyboard-response","380","402342","0.0-1.0-525.0","0","0","69579","","null","","","null","58","NaN","","","","","","","","","","","","","","",""
"","S2","","html-keyboard-response","381","402594","0.0-1.0-526.0","0","0","69579","","null","","","null","58","","NaN","","","","","","","","","","","","","",""
"","response","","html-keyboard-response","382","403523","0.0-1.0-527.0-0.0","0","0","69579","","926","","","68","58","","","2","58","training","adjacent","AB","1","2","R.jpg","P.jpg","0","1","0","",""
"","feedback","","html-keyboard-response","383","404527","0.0-1.0-528.0-0.0","0","0","69579","","null","","","null","58","","","","","","","","","","","","","","","",""
"","time_out","","html-keyboard-response","384","406529","0.0-1.0-530.0-0.0","0","0","69579","","null","","","null","58","","","","","","","","","","","","","","","",""
"","ITI","","html-keyboard-response","385","407532","0.0-1.0-531.0","0","0","69579","","null","","","null","58","","","","","","","","","","","","","","","NaN",""
"","S1","","html-keyboard-response","386","407785","0.0-1.0-533.0","0","0","69579","","null","","","null","59","","","","","","","","","","","","","","","",""
"","ISI","","html-keyboard-response","387","408787","0.0-1.0-534.0","0","0","69579","","null","","","null","59","NaN","","","","","","","","","","","","","","",""
"","S2","","html-keyboard-response","388","409040","0.0-1.0-535.0","0","0","69579","","null","","","null","59","","NaN","","","","","","","","","","","","","",""
"","response","","html-keyboard-response","389","409740","0.0-1.0-536.0-0.0","0","0","69579","","698","","","68","59","","","2","59","training","adjacent","EF","5","6","M.jpg","Q.jpg","0","1","0","",""
"","feedback","","html-keyboard-response","390","410744","0.0-1.0-537.0-0.0","0","0","69579","","null","","","null","59","","","","","","","","","","","","","","","",""
"","time_out","","html-keyboard-response","391","412747","0.0-1.0-539.0-0.0","0","0","69579","","null","","","null","59","","","","","","","","","","","","","","","",""
"","ITI","","html-keyboard-response","392","413750","0.0-1.0-540.0","0","0","69579","","null","","","null","59","","","","","","","","","","","","","","","NaN",""
"","S1","","html-keyboard-response","393","414003","0.0-1.0-542.0","0","0","69579","","null","","","null","60","","","","","","","","","","","","","","","",""
"","ISI","","html-keyboard-response","394","415019","0.0-1.0-543.0","0","0","69579","","null","","","null","60","NaN","","","","","","","","","","","","","","",""
"","S2","","html-keyboard-response","395","415272","0.0-1.0-544.0","0","0","69579","","null","","","null","60","","NaN","","","","","","","","","","","","","",""
"","response","","html-keyboard-response","396","415975","0.0-1.0-545.0-0.0","0","0","69579","","701","","","75","60","","","2","60","training","adjacent","AB","1","2","R.jpg","P.jpg","1","1","1","",""
"","feedback","","html-keyboard-response","397","416978","0.0-1.0-546.0-0.0","0","0","69579","","null","","","null","60","","","","","","","","","","","","","","","",""
"","ITI","","html-keyboard-response","398","417982","0.0-1.0-549.0","0","0","69579","","null","","","null","60","","","","","","","","","","","","","","","NaN",""
"","S1","","html-keyboard-response","399","418234","0.0-1.0-551.0","0","0","69579","","null","","","null","61","","","","","","","","","","","","","","","",""
"","ISI","","html-keyboard-response","400","419237","0.0-1.0-552.0","0","0","69579","","null","","","null","61","NaN","","","","","","","","","","","","","","",""
"","S2","","html-keyboard-response","401","419491","0.0-1.0-553.0","0","0","69579","","null","","","null","61","","NaN","","","","","","","","","","","","","",""
"","response","","html-keyboard-response","402","420410","0.0-1.0-554.0-0.0","0","0","69579","","917","","","68","61","","","2","61","training","adjacent","BA","2","1","P.jpg","R.jpg","0","0","1","",""
"","feedback","","html-keyboard-response","403","421412","0.0-1.0-555.0-0.0","0","0","69579","","null","","","null","61","","","","","","","","","","","","","","","",""
"","ITI","","html-keyboard-response","404","422414","0.0-1.0-558.0","0","0","69579","","null","","","null","61","","","","","","","","","","","","","","","NaN",""
"","S1","","html-keyboard-response","405","422667","0.0-1.0-560.0","0","0","69579","","null","","","null","62","","","","","","","","","","","","","","","",""
"","ISI","","html-keyboard-response","406","423670","0.0-1.0-561.0","0","0","69579","","null","","","null","62","NaN","","","","","","","","","","","","","","",""
"","S2","","html-keyboard-response","407","423923","0.0-1.0-562.0","0","0","69579","","null","","","null","62","","NaN","","","","","","","","","","","","","",""
"","response","","html-keyboard-response","408","424188","0.0-1.0-563.0-0.0","0","0","69579","","264","","","68","62","","","2","62","training","adjacent","BA","2","1","P.jpg","R.jpg","0","0","1","",""
"","feedback","","html-keyboard-response","409","425192","0.0-1.0-564.0-0.0","0","0","69579","","null","","","null","62","","","","","","","","","","","","","","","",""
"","ITI","","html-keyboard-response","410","426195","0.0-1.0-567.0","0","0","69579","","null","","","null","62","","","","","","","","","","","","","","","NaN",""
"","S1","","html-keyboard-response","411","426449","0.0-1.0-569.0","0","0","69579","","null","","","null","63","","","","","","","","","","","","","","","",""
"","ISI","","html-keyboard-response","412","427451","0.0-1.0-570.0","0","0","69579","","null","","","null","63","NaN","","","","","","","","","","","","","","",""
"","S2","","html-keyboard-response","413","427704","0.0-1.0-571.0","0","0","69579","","null","","","null","63","","NaN","","","","","","","","","","","","","",""
"","response","","html-keyboard-response","414","428545","0.0-1.0-572.0-0.0","0","0","69579","","839","","","68","63","","","2","63","training","adjacent","BC","2","3","P.jpg","N.jpg","0","1","0","",""
"","feedback","","html-keyboard-response","415","429548","0.0-1.0-573.0-0.0","0","0","69579","","null","","","null","63","","","","","","","","","","","","","","","",""
"","time_out","","html-keyboard-response","416","431551","0.0-1.0-575.0-0.0","0","0","69579","","null","","","null","63","","","","","","","","","","","","","","","",""
"","ITI","","html-keyboard-response","417","432554","0.0-1.0-576.0","0","0","69579","","null","","","null","63","","","","","","","","","","","","","","","NaN",""
"","S1","","html-keyboard-response","418","432807","0.0-1.0-578.0","0","0","69579","","null","","","null","64","","","","","","","","","","","","","","","",""
"","ISI","","html-keyboard-response","419","433810","0.0-1.0-579.0","0","0","69579","","null","","","null","64","NaN","","","","","","","","","","","","","","",""
"","S2","","html-keyboard-response","420","434064","0.0-1.0-580.0","0","0","69579","","null","","","null","64","","NaN","","","","","","","","","","","","","",""
"","response","","html-keyboard-response","421","435280","0.0-1.0-581.0-0.0","0","0","69579","","1213","","","75","64","","","2","64","training","adjacent","ED","5","4","M.jpg","L.jpg","1","0","0","",""
"","feedback","","html-keyboard-response","422","436284","0.0-1.0-582.0-0.0","0","0","69579","","null","","","null","64","","","","","","","","","","","","","","","",""
"","time_out","","html-keyboard-response","423","438288","0.0-1.0-584.0-0.0","0","0","69579","","null","","","null","64","","","","","","","","","","","","","","","",""
"","ITI","","html-keyboard-response","424","439290","0.0-1.0-585.0","0","0","69579","","null","","","null","64","","","","","","","","","","","","","","","NaN",""
"","S1","","html-keyboard-response","425","439543","0.0-1.0-587.0","0","0","69579","","null","","","null","65","","","","","","","","","","","","","","","",""
"","ISI","","html-keyboard-response","426","440546","0.0-1.0-588.0","0","0","69579","","null","","","null","65","NaN","","","","","","","","","","","","","","",""
"","S2","","html-keyboard-response","427","440799","0.0-1.0-589.0","0","0","69579","","null","","","null","65","","NaN","","","","","","","","","","","","","",""
"","response","","html-keyboard-response","428","441853","0.0-1.0-590.0-0.0","0","0","69579","","1052","","","68","65","","","2","65","training","adjacent","CD","3","4","N.jpg","L.jpg","0","1","0","",""
"","feedback","","html-keyboard-response","429","442857","0.0-1.0-591.0-0.0","0","0","69579","","null","","","null","65","","","","","","","","","","","","","","","",""
"","time_out","","html-keyboard-response","430","444860","0.0-1.0-593.0-0.0","0","0","69579","","null","","","null","65","","","","","","","","","","","","","","","",""
"","ITI","","html-keyboard-response","431","445862","0.0-1.0-594.0","0","0","69579","","null","","","null","65","","","","","","","","","","","","","","","NaN",""
"","S1","","html-keyboard-response","432","446115","0.0-1.0-596.0","0","0","69579","","null","","","null","66","","","","","","","","","","","","","","","",""
"","ISI","","html-keyboard-response","433","447118","0.0-1.0-597.0","0","0","69579","","null","","","null","66","NaN","","","","","","","","","","","","","","",""
"","S2","","html-keyboard-response","434","447371","0.0-1.0-598.0","0","0","69579","","null","","","null","66","","NaN","","","","","","","","","","","","","",""
"","response","","html-keyboard-response","435","448302","0.0-1.0-599.0-0.0","0","0","69579","","928","","","75","66","","","2","66","training","adjacent","FE","6","5","Q.jpg","M.jpg","1","0","0","",""
"","feedback","","html-keyboard-response","436","449304","0.0-1.0-600.0-0.0","0","0","69579","","null","","","null","66","","","","","","","","","","","","","","","",""
"","time_out","","html-keyboard-response","437","451308","0.0-1.0-602.0-0.0","0","0","69579","","null","","","null","66","","","","","","","","","","","","","","","",""
"","ITI","","html-keyboard-response","438","452310","0.0-1.0-603.0","0","0","69579","","null","","","null","66","","","","","","","","","","","","","","","NaN",""
"","S1","","html-keyboard-response","439","452565","0.0-1.0-605.0","0","0","69579","","null","","","null","67","","","","","","","","","","","","","","","",""
"","ISI","","html-keyboard-response","440","453568","0.0-1.0-606.0","0","0","69579","","null","","","null","67","NaN","","","","","","","","","","","","","","",""
"","S2","","html-keyboard-response","441","453822","0.0-1.0-607.0","0","0","69579","","null","","","null","67","","NaN","","","","","","","","","","","","","",""
"","response","","html-keyboard-response","442","454655","0.0-1.0-608.0-0.0","0","0","69579","","832","","","75","67","","","2","67","training","adjacent","FE","6","5","Q.jpg","M.jpg","1","0","0","",""
"","feedback","","html-keyboard-response","443","455658","0.0-1.0-609.0-0.0","0","0","69579","","null","","","null","67","","","","","","","","","","","","","","","",""
"","time_out","","html-keyboard-response","444","457661","0.0-1.0-611.0-0.0","0","0","69579","","null","","","null","67","","","","","","","","","","","","","","","",""
"","ITI","","html-keyboard-response","445","458664","0.0-1.0-612.0","0","0","69579","","null","","","null","67","","","","","","","","","","","","","","","NaN",""
"","S1","","html-keyboard-response","446","458918","0.0-1.0-614.0","0","0","69579","","null","","","null","68","","","","","","","","","","","","","","","",""
"","ISI","","html-keyboard-response","447","459930","0.0-1.0-615.0","0","0","69579","","null","","","null","68","NaN","","","","","","","","","","","","","","",""
"","S2","","html-keyboard-response","448","460183","0.0-1.0-616.0","0","0","69579","","null","","","null","68","","NaN","","","","","","","","","","","","","",""
"","response","","html-keyboard-response","449","460838","0.0-1.0-617.0-0.0","0","0","69579","","652","","","75","68","","","2","68","training","adjacent","DC","4","3","L.jpg","N.jpg","1","0","0","",""
"","feedback","","html-keyboard-response","450","461841","0.0-1.0-618.0-0.0","0","0","69579","","null","","","null","68","","","","","","","","","","","","","","","",""
"","time_out","","html-keyboard-response","451","463843","0.0-1.0-620.0-0.0","0","0","69579","","null","","","null","68","","","","","","","","","","","","","","","",""
"","ITI","","html-keyboard-response","452","464846","0.0-1.0-621.0","0","0","69579","","null","","","null","68","","","","","","","","","","","","","","","NaN",""
"","S1","","html-keyboard-response","453","465100","0.0-1.0-623.0","0","0","69579","","null","","","null","69","","","","","","","","","","","","","","","",""
"","ISI","","html-keyboard-response","454","466103","0.0-1.0-624.0","0","0","69579","","null","","","null","69","NaN","","","","","","","","","","","","","","",""
"","S2","","html-keyboard-response","455","466356","0.0-1.0-625.0","0","0","69579","","null","","","null","69","","NaN","","","","","","","","","","","","","",""
"","response","","html-keyboard-response","456","467172","0.0-1.0-626.0-0.0","0","0","69579","","815","","","75","69","","","2","69","training","adjacent","FG","6","7","Q.jpg","O.jpg","1","1","1","",""
"","feedback","","html-keyboard-response","457","468176","0.0-1.0-627.0-0.0","0","0","69579","","null","","","null","69","","","","","","","","","","","","","","","",""
"","ITI","","html-keyboard-response","458","469180","0.0-1.0-630.0","0","0","69579","","null","","","null","69","","","","","","","","","","","","","","","NaN",""
"","S1","","html-keyboard-response","459","469433","0.0-1.0-632.0","0","0","69579","","null","","","null","70","","","","","","","","","","","","","","","",""
"","ISI","","html-keyboard-response","460","470436","0.0-1.0-633.0","0","0","69579","","null","","","null","70","NaN","","","","","","","","","","","","","","",""
"","S2","","html-keyboard-response","461","470689","0.0-1.0-634.0","0","0","69579","","null","","","null","70","","NaN","","","","","","","","","","","","","",""
"","response","","html-keyboard-response","462","470846","0.0-1.0-635.0-0.0","0","0","69579","","155","","","75","70","","","2","70","training","adjacent","AB","1","2","R.jpg","P.jpg","1","1","1","",""
"","feedback","","html-keyboard-response","463","471849","0.0-1.0-636.0-0.0","0","0","69579","","null","","","null","70","","","","","","","","","","","","","","","",""
"","ITI","","html-keyboard-response","464","472852","0.0-1.0-639.0","0","0","69579","","null","","","null","70","","","","","","","","","","","","","","","NaN",""
"","S1","","html-keyboard-response","465","473106","0.0-1.0-641.0","0","0","69579","","null","","","null","71","","","","","","","","","","","","","","","",""
"","ISI","","html-keyboard-response","466","474109","0.0-1.0-642.0","0","0","69579","","null","","","null","71","NaN","","","","","","","","","","","","","","",""
"","S2","","html-keyboard-response","467","474362","0.0-1.0-643.0","0","0","69579","","null","","","null","71","","NaN","","","","","","","","","","","","","",""
"","response","","html-keyboard-response","468","475351","0.0-1.0-644.0-0.0","0","0","69579","","988","","","68","71","","","2","71","training","adjacent","BC","2","3","P.jpg","N.jpg","0","1","0","",""
"","feedback","","html-keyboard-response","469","476355","0.0-1.0-645.0-0.0","0","0","69579","","null","","","null","71","","","","","","","","","","","","","","","",""
"","time_out","","html-keyboard-response","470","478357","0.0-1.0-647.0-0.0","0","0","69579","","null","","","null","71","","","","","","","","","","","","","","","",""
"","ITI","","html-keyboard-response","471","479359","0.0-1.0-648.0","0","0","69579","","null","","","null","71","","","","","","","","","","","","","","","NaN",""
"","S1","","html-keyboard-response","472","479612","0.0-1.0-650.0","0","0","69579","","null","","","null","72","","","","","","","","","","","","","","","",""
"","ISI","","html-keyboard-response","473","480615","0.0-1.0-651.0","0","0","69579","","null","","","null","72","NaN","","","","","","","","","","","","","","",""
"","S2","","html-keyboard-response","474","480869","0.0-1.0-652.0","0","0","69579","","null","","","null","72","","NaN","","","","","","","","","","","","","",""
"","response","","html-keyboard-response","475","481723","0.0-1.0-653.0-0.0","0","0","69579","","851","","","75","72","","","2","72","training","adjacent","GF","7","6","O.jpg","Q.jpg","1","0","0","",""
"","feedback","","html-keyboard-response","476","482726","0.0-1.0-654.0-0.0","0","0","69579","","null","","","null","72","","","","","","","","","","","","","","","",""
"","time_out","","html-keyboard-response","477","484729","0.0-1.0-656.0-0.0","0","0","69579","","null","","","null","72","","","","","","","","","","","","","","","",""
"","ITI","","html-keyboard-response","478","485743","0.0-1.0-657.0","0","0","69579","","null","","","null","72","","","","","","","","","","","","","","","NaN",""
"","S1","","html-keyboard-response","479","485996","0.0-1.0-659.0","0","0","69579","","null","","","null","73","","","","","","","","","","","","","","","",""
"","ISI","","html-keyboard-response","480","486999","0.0-1.0-660.0","0","0","69579","","null","","","null","73","NaN","","","","","","","","","","","","","","",""
"","S2","","html-keyboard-response","481","487252","0.0-1.0-661.0","0","0","69579","","null","","","null","73","","NaN","","","","","","","","","","","","","",""
"","response","","html-keyboard-response","482","487400","0.0-1.0-662.0-0.0","0","0","69579","","146","","","68","73","","","2","73","training","adjacent","FG","6","7","Q.jpg","O.jpg","0","1","0","",""
"","feedback","","html-keyboard-response","483","488404","0.0-1.0-663.0-0.0","0","0","69579","","null","","","null","73","","","","","","","","","","","","","","","",""
"","time_out","","html-keyboard-response","484","490406","0.0-1.0-665.0-0.0","0","0","69579","","null","","","null","73","","","","","","","","","","","","","","","",""
"","ITI","","html-keyboard-response","485","491409","0.0-1.0-666.0","0","0","69579","","null","","","null","73","","","","","","","","","","","","","","","NaN",""
"","S1","","html-keyboard-response","486","491662","0.0-1.0-668.0","0","0","69579","","null","","","null","74","","","","","","","","","","","","","","","",""
"","ISI","","html-keyboard-response","487","492665","0.0-1.0-669.0","0","0","69579","","null","","","null","74","NaN","","","","","","","","","","","","","","",""
"","S2","","html-keyboard-response","488","492919","0.0-1.0-670.0","0","0","69579","","null","","","null","74","","NaN","","","","","","","","","","","","","",""
"","response","","html-keyboard-response","489","493809","0.0-1.0-671.0-0.0","0","0","69579","","889","","","75","74","","","2","74","training","adjacent","FE","6","5","Q.jpg","M.jpg","1","0","0","",""
"","feedback","","html-keyboard-response","490","494812","0.0-1.0-672.0-0.0","0","0","69579","","null","","","null","74","","","","","","","","","","","","","","","",""
"","time_out","","html-keyboard-response","491","496815","0.0-1.0-674.0-0.0","0","0","69579","","null","","","null","74","","","","","","","","","","","","","","","",""
"","ITI","","html-keyboard-response","492","497818","0.0-1.0-675.0","0","0","69579","","null","","","null","74","","","","","","","","","","","","","","","NaN",""
"","S1","","html-keyboard-response","493","498071","0.0-1.0-677.0","0","0","69579","","null","","","null","75","","","","","","","","","","","","","","","",""
"","ISI","","html-keyboard-response","494","499073","0.0-1.0-678.0","0","0","69579","","null","","","null","75","NaN","","","","","","","","","","","","","","",""
"","S2","","html-keyboard-response","495","499327","0.0-1.0-679.0","0","0","69579","","null","","","null","75","","NaN","","","","","","","","","","","","","",""
"","response","","html-keyboard-response","496","500232","0.0-1.0-680.0-0.0","0","0","69579","","903","","","68","75","","","2","75","training","adjacent","CD","3","4","N.jpg","L.jpg","0","1","0","",""
"","feedback","","html-keyboard-response","497","501236","0.0-1.0-681.0-0.0","0","0","69579","","null","","","null","75","","","","","","","","","","","","","","","",""
"","time_out","","html-keyboard-response","498","503239","0.0-1.0-683.0-0.0","0","0","69579","","null","","","null","75","","","","","","","","","","","","","","","",""
"","ITI","","html-keyboard-response","499","504243","0.0-1.0-684.0","0","0","69579","","null","","","null","75","","","","","","","","","","","","","","","NaN",""
"","S1","","html-keyboard-response","500","504496","0.0-1.0-686.0","0","0","69579","","null","","","null","76","","","","","","","","","","","","","","","",""
"","ISI","","html-keyboard-response","501","505500","0.0-1.0-687.0","0","0","69579","","null","","","null","76","NaN","","","","","","","","","","","","","","",""
"","S2","","html-keyboard-response","502","505753","0.0-1.0-688.0","0","0","69579","","null","","","null","76","","NaN","","","","","","","","","","","","","",""
"","response","","html-keyboard-response","503","506417","0.0-1.0-689.0-0.0","0","0","69579","","662","","","68","76","","","2","76","training","adjacent","DC","4","3","L.jpg","N.jpg","0","0","1","",""
"","feedback","","html-keyboard-response","504","507420","0.0-1.0-690.0-0.0","0","0","69579","","null","","","null","76","","","","","","","","","","","","","","","",""
"","ITI","","html-keyboard-response","505","508424","0.0-1.0-693.0","0","0","69579","","null","","","null","76","","","","","","","","","","","","","","","NaN",""
"","S1","","html-keyboard-response","506","508677","0.0-1.0-695.0","0","0","69579","","null","","","null","77","","","","","","","","","","","","","","","",""
"","ISI","","html-keyboard-response","507","509680","0.0-1.0-696.0","0","0","69579","","null","","","null","77","NaN","","","","","","","","","","","","","","",""
"","S2","","html-keyboard-response","508","509933","0.0-1.0-697.0","0","0","69579","","null","","","null","77","","NaN","","","","","","","","","","","","","",""
"","response","","html-keyboard-response","509","511686","0.0-1.0-698.0-0.0","0","0","69579","","null","","","null","77","","","2","77","training","adjacent","FE","6","5","Q.jpg","M.jpg","NaN","0","0","",""
"","too_slow_prompt","","html-keyboard-response","510","512690","0.0-1.0-700.0-0.0","1","0","69579","","null","","","null","","","","","","","","","","","","","","","","",""
"","time_out","","html-keyboard-response","511","514693","0.0-1.0-701.0-0.0","0","0","69579","","null","","","null","77","","","","","","","","","","","","","","","",""
"","ITI","","html-keyboard-response","512","515696","0.0-1.0-702.0","0","0","69579","","null","","","null","77","","","","","","","","","","","","","","","NaN",""
"","S1","","html-keyboard-response","513","515949","0.0-1.0-704.0","0","0","69579","","null","","","null","78","","","","","","","","","","","","","","","",""
"","ISI","","html-keyboard-response","514","516952","0.0-1.0-705.0","0","0","69579","","null","","","null","78","NaN","","","","","","","","","","","","","","",""
"","S2","","html-keyboard-response","515","517205","0.0-1.0-706.0","0","0","69579","","null","","","null","78","","NaN","","","","","","","","","","","","","",""
"","response","","html-keyboard-response","516","517894","0.0-1.0-707.0-0.0","0","0","69579","","686","","","68","78","","","2","78","training","adjacent","GF","7","6","O.jpg","Q.jpg","0","0","1","",""
"","feedback","","html-keyboard-response","517","518897","0.0-1.0-708.0-0.0","0","0","69579","","null","","","null","78","","","","","","","","","","","","","","","",""
"","ITI","","html-keyboard-response","518","519901","0.0-1.0-711.0","0","0","69579","","null","","","null","78","","","","","","","","","","","","","","","NaN",""
"","S1","","html-keyboard-response","519","520153","0.0-1.0-713.0","0","0","69579","","null","","","null","79","","","","","","","","","","","","","","","",""
"","ISI","","html-keyboard-response","520","521156","0.0-1.0-714.0","0","0","69579","","null","","","null","79","NaN","","","","","","","","","","","","","","",""
"","S2","","html-keyboard-response","521","521410","0.0-1.0-715.0","0","0","69579","","null","","","null","79","","NaN","","","","","","","","","","","","","",""
"","response","","html-keyboard-response","522","522114","0.0-1.0-716.0-0.0","0","0","69579","","701","","","68","79","","","2","79","training","adjacent","CD","3","4","N.jpg","L.jpg","0","1","0","",""
"","feedback","","html-keyboard-response","523","523116","0.0-1.0-717.0-0.0","0","0","69579","","null","","","null","79","","","","","","","","","","","","","","","",""
"","time_out","","html-keyboard-response","524","525119","0.0-1.0-719.0-0.0","0","0","69579","","null","","","null","79","","","","","","","","","","","","","","","",""
"","ITI","","html-keyboard-response","525","526121","0.0-1.0-720.0","0","0","69579","","null","","","null","79","","","","","","","","","","","","","","","NaN",""
"","S1","","html-keyboard-response","526","526374","0.0-1.0-722.0","0","0","69579","","null","","","null","80","","","","","","","","","","","","","","","",""
"","ISI","","html-keyboard-response","527","527375","0.0-1.0-723.0","0","0","69579","","null","","","null","80","NaN","","","","","","","","","","","","","","",""
"","S2","","html-keyboard-response","528","527628","0.0-1.0-724.0","0","0","69579","","null","","","null","80","","NaN","","","","","","","","","","","","","",""
"","response","","html-keyboard-response","529","528485","0.0-1.0-725.0-0.0","0","0","69579","","856","","","68","80","","","2","80","training","adjacent","GF","7","6","O.jpg","Q.jpg","0","0","1","",""
"","feedback","","html-keyboard-response","530","529489","0.0-1.0-726.0-0.0","0","0","69579","","null","","","null","80","","","","","","","","","","","","","","","",""
"","ITI","","html-keyboard-response","531","530492","0.0-1.0-729.0","0","0","69579","","null","","","null","80","","","","","","","","","","","","","","","NaN",""
"","S1","","html-keyboard-response","532","530745","0.0-1.0-731.0","0","0","69579","","null","","","null","81","","","","","","","","","","","","","","","",""
"","ISI","","html-keyboard-response","533","531749","0.0-1.0-732.0","0","0","69579","","null","","","null","81","NaN","","","","","","","","","","","","","","",""
"","S2","","html-keyboard-response","534","532002","0.0-1.0-733.0","0","0","69579","","null","","","null","81","","NaN","","","","","","","","","","","","","",""
"","response","","html-keyboard-response","535","532572","0.0-1.0-734.0-0.0","0","0","69579","","569","","","75","81","","","2","81","training","adjacent","DC","4","3","L.jpg","N.jpg","1","0","0","",""
"","feedback","","html-keyboard-response","536","533575","0.0-1.0-735.0-0.0","0","0","69579","","null","","","null","81","","","","","","","","","","","","","","","",""
"","time_out","","html-keyboard-response","537","535578","0.0-1.0-737.0-0.0","0","0","69579","","null","","","null","81","","","","","","","","","","","","","","","",""
"","ITI","","html-keyboard-response","538","536581","0.0-1.0-738.0","0","0","69579","","null","","","null","81","","","","","","","","","","","","","","","NaN",""
"","S1","","html-keyboard-response","539","536834","0.0-1.0-740.0","0","0","69579","","null","","","null","82","","","","","","","","","","","","","","","",""
"","ISI","","html-keyboard-response","540","537837","0.0-1.0-741.0","0","0","69579","","null","","","null","82","NaN","","","","","","","","","","","","","","",""
"","S2","","html-keyboard-response","541","538089","0.0-1.0-742.0","0","0","69579","","null","","","null","82","","NaN","","","","","","","","","","","","","",""
"","response","","html-keyboard-response","542","538906","0.0-1.0-743.0-0.0","0","0","69579","","814","","","68","82","","","2","82","training","adjacent","ED","5","4","M.jpg","L.jpg","0","0","1","",""
"","feedback","","html-keyboard-response","543","539913","0.0-1.0-744.0-0.0","0","0","69579","","null","","","null","82","","","","","","","","","","","","","","","",""
"","ITI","","html-keyboard-response","544","540916","0.0-1.0-747.0","0","0","69579","","null","","","null","82","","","","","","","","","","","","","","","NaN",""
"","S1","","html-keyboard-response","545","541169","0.0-1.0-749.0","0","0","69579","","null","","","null","83","","","","","","","","","","","","","","","",""
"","ISI","","html-keyboard-response","546","542172","0.0-1.0-750.0","0","0","69579","","null","","","null","83","NaN","","","","","","","","","","","","","","",""
"","S2","","html-keyboard-response","547","542425","0.0-1.0-751.0","0","0","69579","","null","","","null","83","","NaN","","","","","","","","","","","","","",""
"","response","","html-keyboard-response","548","543418","0.0-1.0-752.0-0.0","0","0","69579","","992","","","68","83","","","2","83","training","adjacent","EF","5","6","M.jpg","Q.jpg","0","1","0","",""
"","feedback","","html-keyboard-response","549","544421","0.0-1.0-753.0-0.0","0","0","69579","","null","","","null","83","","","","","","","","","","","","","","","",""
"","time_out","","html-keyboard-response","550","546424","0.0-1.0-755.0-0.0","0","0","69579","","null","","","null","83","","","","","","","","","","","","","","","",""
"","ITI","","html-keyboard-response","551","547427","0.0-1.0-756.0","0","0","69579","","null","","","null","83","","","","","","","","","","","","","","","NaN",""
"","S1","","html-keyboard-response","552","547680","0.0-1.0-758.0","0","0","69579","","null","","","null","84","","","","","","","","","","","","","","","",""
"","ISI","","html-keyboard-response","553","548682","0.0-1.0-759.0","0","0","69579","","null","","","null","84","NaN","","","","","","","","","","","","","","",""
"","S2","","html-keyboard-response","554","548936","0.0-1.0-760.0","0","0","69579","","null","","","null","84","","NaN","","","","","","","","","","","","","",""
"","response","","html-keyboard-response","555","549697","0.0-1.0-761.0-0.0","0","0","69579","","759","","","68","84","","","2","84","training","adjacent","GF","7","6","O.jpg","Q.jpg","0","0","1","",""
"","feedback","","html-keyboard-response","556","550701","0.0-1.0-762.0-0.0","0","0","69579","","null","","","null","84","","","","","","","","","","","","","","","",""
"","ITI","","html-keyboard-response","557","551703","0.0-1.0-765.0","0","0","69579","","null","","","null","84","","","","","","","","","","","","","","","NaN",""
"","S1","","html-keyboard-response","558","551956","0.0-1.0-767.0","0","0","69579","","null","","","null","85","","","","","","","","","","","","","","","",""
"","ISI","","html-keyboard-response","559","552972","0.0-1.0-768.0","0","0","69579","","null","","","null","85","NaN","","","","","","","","","","","","","","",""
"","S2","","html-keyboard-response","560","553225","0.0-1.0-769.0","0","0","69579","","null","","","null","85","","NaN","","","","","","","","","","","","","",""
"","response","","html-keyboard-response","561","554004","0.0-1.0-770.0-0.0","0","0","69579","","778","","","75","85","","","2","85","training","adjacent","DE","4","5","L.jpg","M.jpg","1","1","1","",""
"","feedback","","html-keyboard-response","562","555008","0.0-1.0-771.0-0.0","0","0","69579","","null","","","null","85","","","","","","","","","","","","","","","",""
"","ITI","","html-keyboard-response","563","556011","0.0-1.0-774.0","0","0","69579","","null","","","null","85","","","","","","","","","","","","","","","NaN",""
"","S1","","html-keyboard-response","564","556265","0.0-1.0-776.0","0","0","69579","","null","","","null","86","","","","","","","","","","","","","","","",""
"","ISI","","html-keyboard-response","565","557268","0.0-1.0-777.0","0","0","69579","","null","","","null","86","NaN","","","","","","","","","","","","","","",""
"","S2","","html-keyboard-response","566","557521","0.0-1.0-778.0","0","0","69579","","null","","","null","86","","NaN","","","","","","","","","","","","","",""
"","response","","html-keyboard-response","567","558122","0.0-1.0-779.0-0.0","0","0","69579","","599","","","75","86","","","2","86","training","adjacent","ED","5","4","M.jpg","L.jpg","1","0","0","",""
"","feedback","","html-keyboard-response","568","559126","0.0-1.0-780.0-0.0","0","0","69579","","null","","","null","86","","","","","","","","","","","","","","","",""
"","time_out","","html-keyboard-response","569","561128","0.0-1.0-782.0-0.0","0","0","69579","","null","","","null","86","","","","","","","","","","","","","","","",""
"","ITI","","html-keyboard-response","570","562131","0.0-1.0-783.0","0","0","69579","","null","","","null","86","","","","","","","","","","","","","","","NaN",""
"","S1","","html-keyboard-response","571","562383","0.0-1.0-785.0","0","0","69579","","null","","","null","87","","","","","","","","","","","","","","","",""
"","ISI","","html-keyboard-response","572","563385","0.0-1.0-786.0","0","0","69579","","null","","","null","87","NaN","","","","","","","","","","","","","","",""
"","S2","","html-keyboard-response","573","563639","0.0-1.0-787.0","0","0","69579","","null","","","null","87","","NaN","","","","","","","","","","","","","",""
"","response","","html-keyboard-response","574","564051","0.0-1.0-788.0-0.0","0","0","69579","","410","","","68","87","","","2","87","training","adjacent","DE","4","5","L.jpg","M.jpg","0","1","0","",""
"","feedback","","html-keyboard-response","575","565054","0.0-1.0-789.0-0.0","0","0","69579","","null","","","null","87","","","","","","","","","","","","","","","",""
"","time_out","","html-keyboard-response","576","567057","0.0-1.0-791.0-0.0","0","0","69579","","null","","","null","87","","","","","","","","","","","","","","","",""
"","ITI","","html-keyboard-response","577","568059","0.0-1.0-792.0","0","0","69579","","null","","","null","87","","","","","","","","","","","","","","","NaN",""
"","S1","","html-keyboard-response","578","568312","0.0-1.0-794.0","0","0","69579","","null","","","null","88","","","","","","","","","","","","","","","",""
"","ISI","","html-keyboard-response","579","569315","0.0-1.0-795.0","0","0","69579","","null","","","null","88","NaN","","","","","","","","","","","","","","",""
"","S2","","html-keyboard-response","580","569568","0.0-1.0-796.0","0","0","69579","","null","","","null","88","","NaN","","","","","","","","","","","","","",""
"","response","","html-keyboard-response","581","570605","0.0-1.0-797.0-0.0","0","0","69579","","1035","","","68","88","","","2","88","training","adjacent","BC","2","3","P.jpg","N.jpg","0","1","0","",""
"","feedback","","html-keyboard-response","582","571609","0.0-1.0-798.0-0.0","0","0","69579","","null","","","null","88","","","","","","","","","","","","","","","",""
