"success","ttype","start_time","trial_type","trial_index","time_elapsed","internal_node_id","warning","missed_checkup","PID","view_history","rt","responses","repeat_instructions","key_press","index","keypress_isi","keypress_S2","block","trial_num","phase","group_type","pair_type","S1_stim","S2_stim","S1_img","S2_img","S1_chosen","S1_higher","accuracy","keypress_iti","total_bonus_tally"
"true","full_screen","d04062023hr2345","fullscreen","0","11303","0.0-0.0","0","0","75196","","","","","","","","","","","","","","","","","","","","","",""
"","instructions","","instructions","1","100903","0.0-1.0-0.0-0.0","0","0","75196","[{""page_index"":0,""viewing_time"":9409},{""page_index"":1,""viewing_time"":8700},{""page_index"":2,""viewing_time"":5360},{""page_index"":3,""viewing_time"":3044},{""page_index"":2,""viewing_time"":560},{""page_index"":1,""viewing_time"":9848},{""page_index"":2,""viewing_time"":13428},{""page_index"":3,""viewing_time"":39248}]","89598","","","","","","","","","","","","","","","","","","","",""
"","comprehension_check","","survey-multi-choice","2","143090","0.0-1.0-0.0-1.0","0","0","75196","","42182","{""Q0"":""True"",""Q1"":""D"",""Q2"":""Only when the screen 'MAKE A CHOICE' is shown"",""Q3"":""Green mark"",""Q4"":""either D or K""}","1","","","","","","","","","","","","","","","","","",""
"","missed_instruction_checkup","","html-keyboard-response","3","145711","0.0-1.0-0.0-2.0-0.0","0","1","75196","","2617","","","32","","","","","","","","","","","","","","","","",""
"","instructions","","instructions","4","166713","0.0-1.0-0.1-0.1","0","0","75196","[{""page_index"":0,""viewing_time"":4370},{""page_index"":1,""viewing_time"":8659},{""page_index"":2,""viewing_time"":6776},{""page_index"":3,""viewing_time"":1196}]","21001","","","","","","","","","","","","","","","","","","","",""
"","comprehension_check","","survey-multi-choice","5","192870","0.0-1.0-0.1-1.1","0","0","75196","","26153","{""Q0"":""True"",""Q1"":""D"",""Q2"":""Once the second image appears and while the screen 'MAKE A CHOICE' is shown"",""Q3"":""Green mark"",""Q4"":""Use a mouse""}","1","","","","","","","","","","","","","","","","","",""
"","missed_instruction_checkup","","html-keyboard-response","6","194501","0.0-1.0-0.1-2.1-0.1","0","1","75196","","1629","","","32","","","","","","","","","","","","","","","","",""
"","instructions","","instructions","7","211635","0.0-1.0-0.2-0.2","0","0","75196","[{""page_index"":0,""viewing_time"":2306},{""page_index"":1,""viewing_time"":9636},{""page_index"":2,""viewing_time"":4340},{""page_index"":3,""viewing_time"":850}]","17132","","","","","","","","","","","","","","","","","","","",""
"","comprehension_check","","survey-multi-choice","8","228450","0.0-1.0-0.2-1.2","0","0","75196","","16812","{""Q0"":""True"",""Q1"":""D"",""Q2"":""Once the second image appears and while the screen 'MAKE A CHOICE' is shown"",""Q3"":""Green mark"",""Q4"":""either D or K""}","0","","","","","","","","","","","","","","","","","",""
"","start_exp","","html-keyboard-response","9","230103","0.0-1.0-1.0","0","0","75196","","1650","","","32","","","","","","","","","","","","","","","","",""
"","S1","","html-keyboard-response","10","230256","0.0-1.0-2.0","0","0","75196","","null","","","null","0","","","","","","","","","","","","","","","",""
"","ISI","","html-keyboard-response","11","232260","0.0-1.0-3.0","0","0","75196","","null","","","null","0","NaN","","","","","","","","","","","","","","",""
"","S2","","html-keyboard-response","12","232414","0.0-1.0-4.0","0","0","75196","","null","","","null","0","","NaN","","","","","","","","","","","","","",""
"","response","","html-keyboard-response","13","234267","0.0-1.0-5.0-0.0","0","0","75196","","null","","","null","0","","","1","0","training","adjacent","BA","2","1","N.jpg","R.jpg","NaN","0","0","",""
"","too_slow_prompt","","html-keyboard-response","14","235270","0.0-1.0-7.0-0.0","1","0","75196","","null","","","null","","","","","","","","","","","","","","","","",""
"","time_out","","html-keyboard-response","15","237273","0.0-1.0-8.0-0.0","0","0","75196","","null","","","null","0","","","","","","","","","","","","","","","",""
"","ITI","","html-keyboard-response","16","238275","0.0-1.0-9.0","0","0","75196","","null","","","null","0","","","","","","","","","","","","","","","NaN",""
"","S1","","html-keyboard-response","17","238429","0.0-1.0-11.0","0","0","75196","","null","","","null","1","","","","","","","","","","","","","","","",""
"","ISI","","html-keyboard-response","18","240431","0.0-1.0-12.0","0","0","75196","","304","","","68","1","d","","","","","","","","","","","","","","",""
"","S2","","html-keyboard-response","19","240585","0.0-1.0-13.0","0","0","75196","","null","","","null","1","","NaN","","","","","","","","","","","","","",""
"","response","","html-keyboard-response","20","241366","0.0-1.0-14.0-0.0","0","0","75196","","778","","","75","1","","","1","1","training","adjacent","DE","4","5","O.jpg","M.jpg","0","1","0","",""
"","feedback","","html-keyboard-response","21","242368","0.0-1.0-15.0-0.0","0","0","75196","","null","","","null","1","","","","","","","","","","","","","","","",""
"","time_out","","html-keyboard-response","22","244371","0.0-1.0-17.0-0.0","0","0","75196","","null","","","null","1","","","","","","","","","","","","","","","",""
"","ITI","","html-keyboard-response","23","245375","0.0-1.0-18.0","0","0","75196","","null","","","null","1","","","","","","","","","","","","","","","NaN",""
"","S1","","html-keyboard-response","24","245527","0.0-1.0-20.0","0","0","75196","","null","","","null","2","","","","","","","","","","","","","","","",""
"","ISI","","html-keyboard-response","25","247529","0.0-1.0-21.0","0","0","75196","","null","","","null","2","NaN","","","","","","","","","","","","","","",""
"","S2","","html-keyboard-response","26","247683","0.0-1.0-22.0","0","0","75196","","null","","","null","2","","NaN","","","","","","","","","","","","","",""
"","response","","html-keyboard-response","27","248238","0.0-1.0-23.0-0.0","0","0","75196","","553","","","68","2","","","1","2","training","adjacent","DC","4","3","O.jpg","L.jpg","1","0","0","",""
"","feedback","","html-keyboard-response","28","249241","0.0-1.0-24.0-0.0","0","0","75196","","null","","","null","2","","","","","","","","","","","","","","","",""
"","time_out","","html-keyboard-response","29","251243","0.0-1.0-26.0-0.0","0","0","75196","","null","","","null","2","","","","","","","","","","","","","","","",""
"","ITI","","html-keyboard-response","30","252246","0.0-1.0-27.0","0","0","75196","","null","","","null","2","","","","","","","","","","","","","","","NaN",""
"","S1","","html-keyboard-response","31","252398","0.0-1.0-29.0","0","0","75196","","null","","","null","3","","","","","","","","","","","","","","","",""
"","ISI","","html-keyboard-response","32","254400","0.0-1.0-30.0","0","0","75196","","null","","","null","3","NaN","","","","","","","","","","","","","","",""
"","S2","","html-keyboard-response","33","254552","0.0-1.0-31.0","0","0","75196","","null","","","null","3","","NaN","","","","","","","","","","","","","",""
"","response","","html-keyboard-response","34","254662","0.0-1.0-32.0-0.0","0","0","75196","","108","","","75","3","","","1","3","training","adjacent","BA","2","1","N.jpg","R.jpg","0","0","1","",""
"","feedback","","html-keyboard-response","35","255675","0.0-1.0-33.0-0.0","0","0","75196","","null","","","null","3","","","","","","","","","","","","","","","",""
"","ITI","","html-keyboard-response","36","256677","0.0-1.0-36.0","0","0","75196","","null","","","null","3","","","","","","","","","","","","","","","NaN",""
"","S1","","html-keyboard-response","37","256830","0.0-1.0-38.0","0","0","75196","","null","","","null","4","","","","","","","","","","","","","","","",""
"","ISI","","html-keyboard-response","38","258834","0.0-1.0-39.0","0","0","75196","","null","","","null","4","NaN","","","","","","","","","","","","","","",""
"","S2","","html-keyboard-response","39","258987","0.0-1.0-40.0","0","0","75196","","null","","","null","4","","NaN","","","","","","","","","","","","","",""
"","response","","html-keyboard-response","40","259078","0.0-1.0-41.0-0.0","0","0","75196","","89","","","75","4","","","1","4","training","adjacent","BA","2","1","N.jpg","R.jpg","0","0","1","",""
"","feedback","","html-keyboard-response","41","260080","0.0-1.0-42.0-0.0","0","0","75196","","null","","","null","4","","","","","","","","","","","","","","","",""
"","ITI","","html-keyboard-response","42","261083","0.0-1.0-45.0","0","0","75196","","null","","","null","4","","","","","","","","","","","","","","","NaN",""
"","S1","","html-keyboard-response","43","261235","0.0-1.0-47.0","0","0","75196","","null","","","null","5","","","","","","","","","","","","","","","",""
"","ISI","","html-keyboard-response","44","263237","0.0-1.0-48.0","0","0","75196","","1969","","","75","5","k","","","","","","","","","","","","","","",""
"","S2","","html-keyboard-response","45","263390","0.0-1.0-49.0","0","0","75196","","null","","","null","5","","NaN","","","","","","","","","","","","","",""
"","response","","html-keyboard-response","46","263598","0.0-1.0-50.0-0.0","0","0","75196","","206","","","75","5","","","1","5","training","adjacent","FG","6","7","Q.jpg","P.jpg","0","1","0","",""
"","feedback","","html-keyboard-response","47","264601","0.0-1.0-51.0-0.0","0","0","75196","","null","","","null","5","","","","","","","","","","","","","","","",""
"","time_out","","html-keyboard-response","48","266604","0.0-1.0-53.0-0.0","0","0","75196","","null","","","null","5","","","","","","","","","","","","","","","",""
"","ITI","","html-keyboard-response","49","267606","0.0-1.0-54.0","0","0","75196","","null","","","null","5","","","","","","","","","","","","","","","NaN",""
"","S1","","html-keyboard-response","50","267759","0.0-1.0-56.0","0","0","75196","","null","","","null","6","","","","","","","","","","","","","","","",""
"","ISI","","html-keyboard-response","51","269761","0.0-1.0-57.0","0","0","75196","","141","","","68","6","d","","","","","","","","","","","","","","",""
"","S2","","html-keyboard-response","52","269914","0.0-1.0-58.0","0","0","75196","","null","","","null","6","","NaN","","","","","","","","","","","","","",""
"","response","","html-keyboard-response","53","270198","0.0-1.0-59.0-0.0","0","0","75196","","282","","","68","6","","","1","6","training","adjacent","CB","3","2","L.jpg","N.jpg","1","0","0","",""
"","feedback","","html-keyboard-response","54","271202","0.0-1.0-60.0-0.0","0","0","75196","","null","","","null","6","","","","","","","","","","","","","","","",""
"","time_out","","html-keyboard-response","55","273204","0.0-1.0-62.0-0.0","0","0","75196","","null","","","null","6","","","","","","","","","","","","","","","",""
"","ITI","","html-keyboard-response","56","274207","0.0-1.0-63.0","0","0","75196","","null","","","null","6","","","","","","","","","","","","","","","NaN",""
"","S1","","html-keyboard-response","57","274360","0.0-1.0-65.0","0","0","75196","","null","","","null","7","","","","","","","","","","","","","","","",""
"","ISI","","html-keyboard-response","58","276362","0.0-1.0-66.0","0","0","75196","","181","","","75","7","k","","","","","","","","","","","","","","",""
"","S2","","html-keyboard-response","59","276515","0.0-1.0-67.0","0","0","75196","","null","","","null","7","","NaN","","","","","","","","","","","","","",""
"","response","","html-keyboard-response","60","276686","0.0-1.0-68.0-0.0","0","0","75196","","169","","","75","7","","","1","7","training","adjacent","FG","6","7","Q.jpg","P.jpg","0","1","0","",""
"","feedback","","html-keyboard-response","61","277689","0.0-1.0-69.0-0.0","0","0","75196","","null","","","null","7","","","","","","","","","","","","","","","",""
"","time_out","","html-keyboard-response","62","279691","0.0-1.0-71.0-0.0","0","0","75196","","null","","","null","7","","","","","","","","","","","","","","","",""
"","ITI","","html-keyboard-response","63","280695","0.0-1.0-72.0","0","0","75196","","null","","","null","7","","","","","","","","","","","","","","","NaN",""
"","S1","","html-keyboard-response","64","280846","0.0-1.0-74.0","0","0","75196","","null","","","null","8","","","","","","","","","","","","","","","",""
"","ISI","","html-keyboard-response","65","282848","0.0-1.0-75.0","0","0","75196","","null","","","null","8","NaN","","","","","","","","","","","","","","",""
"","S2","","html-keyboard-response","66","283001","0.0-1.0-76.0","0","0","75196","","null","","","null","8","","NaN","","","","","","","","","","","","","",""
"","response","","html-keyboard-response","67","283093","0.0-1.0-77.0-0.0","0","0","75196","","90","","","75","8","","","1","8","training","adjacent","CD","3","4","L.jpg","O.jpg","0","1","0","",""
"","feedback","","html-keyboard-response","68","284095","0.0-1.0-78.0-0.0","0","0","75196","","null","","","null","8","","","","","","","","","","","","","","","",""
"","time_out","","html-keyboard-response","69","286098","0.0-1.0-80.0-0.0","0","0","75196","","null","","","null","8","","","","","","","","","","","","","","","",""
"","ITI","","html-keyboard-response","70","287100","0.0-1.0-81.0","0","0","75196","","null","","","null","8","","","","","","","","","","","","","","","NaN",""
"","S1","","html-keyboard-response","71","287252","0.0-1.0-83.0","0","0","75196","","null","","","null","9","","","","","","","","","","","","","","","",""
"","ISI","","html-keyboard-response","72","289256","0.0-1.0-84.0","0","0","75196","","688","","","68","9","d","","","","","","","","","","","","","","",""
"","S2","","html-keyboard-response","73","289409","0.0-1.0-85.0","0","0","75196","","null","","","null","9","","NaN","","","","","","","","","","","","","",""
"","response","","html-keyboard-response","74","289534","0.0-1.0-86.0-0.0","0","0","75196","","121","","","75","9","","","1","9","training","adjacent","GF","7","6","P.jpg","Q.jpg","0","0","1","",""
"","feedback","","html-keyboard-response","75","290537","0.0-1.0-87.0-0.0","0","0","75196","","null","","","null","9","","","","","","","","","","","","","","","",""
"","ITI","","html-keyboard-response","76","291540","0.0-1.0-90.0","0","0","75196","","null","","","null","9","","","","","","","","","","","","","","","NaN",""
"","S1","","html-keyboard-response","77","291693","0.0-1.0-92.0","0","0","75196","","null","","","null","10","","","","","","","","","","","","","","","",""
"","ISI","","html-keyboard-response","78","293695","0.0-1.0-93.0","0","0","75196","","null","","","null","10","NaN","","","","","","","","","","","","","","",""
"","S2","","html-keyboard-response","79","293847","0.0-1.0-94.0","0","0","75196","","null","","","null","10","","NaN","","","","","","","","","","","","","",""
"","response","","html-keyboard-response","80","293958","0.0-1.0-95.0-0.0","0","0","75196","","109","","","75","10","","","1","10","training","adjacent","DE","4","5","O.jpg","M.jpg","0","1","0","",""
"","feedback","","html-keyboard-response","81","294960","0.0-1.0-96.0-0.0","0","0","75196","","null","","","null","10","","","","","","","","","","","","","","","",""
"","time_out","","html-keyboard-response","82","296963","0.0-1.0-98.0-0.0","0","0","75196","","null","","","null","10","","","","","","","","","","","","","","","",""
"","ITI","","html-keyboard-response","83","297965","0.0-1.0-99.0","0","0","75196","","null","","","null","10","","","","","","","","","","","","","","","NaN",""
"","S1","","html-keyboard-response","84","298118","0.0-1.0-101.0","0","0","75196","","null","","","null","11","","","","","","","","","","","","","","","",""
"","ISI","","html-keyboard-response","85","300120","0.0-1.0-102.0","0","0","75196","","null","","","null","11","NaN","","","","","","","","","","","","","","",""
"","S2","","html-keyboard-response","86","300273","0.0-1.0-103.0","0","0","75196","","null","","","null","11","","NaN","","","","","","","","","","","","","",""
"","response","","html-keyboard-response","87","300359","0.0-1.0-104.0-0.0","0","0","75196","","83","","","68","11","","","1","11","training","adjacent","BA","2","1","N.jpg","R.jpg","1","0","0","",""
"","feedback","","html-keyboard-response","88","301363","0.0-1.0-105.0-0.0","0","0","75196","","null","","","null","11","","","","","","","","","","","","","","","",""
"","time_out","","html-keyboard-response","89","303365","0.0-1.0-107.0-0.0","0","0","75196","","null","","","null","11","","","","","","","","","","","","","","","",""
"","ITI","","html-keyboard-response","90","304367","0.0-1.0-108.0","0","0","75196","","null","","","null","11","","","","","","","","","","","","","","","NaN",""
"","S1","","html-keyboard-response","91","304519","0.0-1.0-110.0","0","0","75196","","null","","","null","12","","","","","","","","","","","","","","","",""
"","ISI","","html-keyboard-response","92","306521","0.0-1.0-111.0","0","0","75196","","158","","","75","12","k","","","","","","","","","","","","","","",""
"","S2","","html-keyboard-response","93","306675","0.0-1.0-112.0","0","0","75196","","null","","","null","12","","NaN","","","","","","","","","","","","","",""
"","response","","html-keyboard-response","94","306814","0.0-1.0-113.0-0.0","0","0","75196","","136","","","75","12","","","1","12","training","adjacent","GF","7","6","P.jpg","Q.jpg","0","0","1","",""
"","feedback","","html-keyboard-response","95","307817","0.0-1.0-114.0-0.0","0","0","75196","","null","","","null","12","","","","","","","","","","","","","","","",""
"","ITI","","html-keyboard-response","96","308819","0.0-1.0-117.0","0","0","75196","","null","","","null","12","","","","","","","","","","","","","","","NaN",""
"","S1","","html-keyboard-response","97","308971","0.0-1.0-119.0","0","0","75196","","null","","","null","13","","","","","","","","","","","","","","","",""
"","ISI","","html-keyboard-response","98","310973","0.0-1.0-120.0","0","0","75196","","null","","","null","13","NaN","","","","","","","","","","","","","","",""
"","S2","","html-keyboard-response","99","311126","0.0-1.0-121.0","0","0","75196","","null","","","null","13","","NaN","","","","","","","","","","","","","",""
"","response","","html-keyboard-response","100","311206","0.0-1.0-122.0-0.0","0","0","75196","","78","","","75","13","","","1","13","training","adjacent","ED","5","4","M.jpg","O.jpg","0","0","1","",""
"","feedback","","html-keyboard-response","101","312209","0.0-1.0-123.0-0.0","0","0","75196","","null","","","null","13","","","","","","","","","","","","","","","",""
"","ITI","","html-keyboard-response","102","313212","0.0-1.0-126.0","0","0","75196","","null","","","null","13","","","","","","","","","","","","","","","NaN",""
"","S1","","html-keyboard-response","103","313365","0.0-1.0-128.0","0","0","75196","","null","","","null","14","","","","","","","","","","","","","","","",""
"","ISI","","html-keyboard-response","104","315367","0.0-1.0-129.0","0","0","75196","","null","","","null","14","NaN","","","","","","","","","","","","","","",""
"","S2","","html-keyboard-response","105","315520","0.0-1.0-130.0","0","0","75196","","null","","","null","14","","NaN","","","","","","","","","","","","","",""
"","response","","html-keyboard-response","106","315662","0.0-1.0-131.0-0.0","0","0","75196","","139","","","75","14","","","1","14","training","adjacent","BC","2","3","N.jpg","L.jpg","0","1","0","",""
"","feedback","","html-keyboard-response","107","316664","0.0-1.0-132.0-0.0","0","0","75196","","null","","","null","14","","","","","","","","","","","","","","","",""
"","time_out","","html-keyboard-response","108","318666","0.0-1.0-134.0-0.0","0","0","75196","","null","","","null","14","","","","","","","","","","","","","","","",""
"","ITI","","html-keyboard-response","109","319669","0.0-1.0-135.0","0","0","75196","","null","","","null","14","","","","","","","","","","","","","","","NaN",""
"","S1","","html-keyboard-response","110","319822","0.0-1.0-137.0","0","0","75196","","null","","","null","15","","","","","","","","","","","","","","","",""
"","ISI","","html-keyboard-response","111","321824","0.0-1.0-138.0","0","0","75196","","null","","","null","15","NaN","","","","","","","","","","","","","","",""
"","S2","","html-keyboard-response","112","321977","0.0-1.0-139.0","0","0","75196","","null","","","null","15","","NaN","","","","","","","","","","","","","",""
"","response","","html-keyboard-response","113","322110","0.0-1.0-140.0-0.0","0","0","75196","","131","","","75","15","","","1","15","training","adjacent","DC","4","3","O.jpg","L.jpg","0","0","1","",""
"","feedback","","html-keyboard-response","114","323113","0.0-1.0-141.0-0.0","0","0","75196","","null","","","null","15","","","","","","","","","","","","","","","",""
"","ITI","","html-keyboard-response","115","324115","0.0-1.0-144.0","0","0","75196","","null","","","null","15","","","","","","","","","","","","","","","NaN",""
"","S1","","html-keyboard-response","116","324267","0.0-1.0-146.0","0","0","75196","","null","","","null","16","","","","","","","","","","","","","","","",""
"","ISI","","html-keyboard-response","117","326270","0.0-1.0-147.0","0","0","75196","","null","","","null","16","NaN","","","","","","","","","","","","","","",""
"","S2","","html-keyboard-response","118","326405","0.0-1.0-148.0","0","0","75196","","133","","","75","16","","k","1","16","training","adjacent","BC","2","3","N.jpg","L.jpg","0","1","0","",""
"","feedback","","html-keyboard-response","119","327411","0.0-1.0-150.0-0.0","0","0","75196","","null","","","null","16","","","","","","","","","","","","","","","",""
"","time_out","","html-keyboard-response","120","329413","0.0-1.0-152.0-0.0","0","0","75196","","null","","","null","16","","","","","","","","","","","","","","","",""
"","ITI","","html-keyboard-response","121","330415","0.0-1.0-153.0","0","0","75196","","null","","","null","16","","","","","","","","","","","","","","","NaN",""
"","S1","","html-keyboard-response","122","330569","0.0-1.0-155.0","0","0","75196","","null","","","null","17","","","","","","","","","","","","","","","",""
"","ISI","","html-keyboard-response","123","332571","0.0-1.0-156.0","0","0","75196","","null","","","null","17","NaN","","","","","","","","","","","","","","",""
"","S2","","html-keyboard-response","124","332724","0.0-1.0-157.0","0","0","75196","","null","","","null","17","","NaN","","","","","","","","","","","","","",""
"","response","","html-keyboard-response","125","332926","0.0-1.0-158.0-0.0","0","0","75196","","199","","","75","17","","","1","17","training","adjacent","FE","6","5","Q.jpg","M.jpg","0","0","1","",""
"","feedback","","html-keyboard-response","126","333930","0.0-1.0-159.0-0.0","0","0","75196","","null","","","null","17","","","","","","","","","","","","","","","",""
"","ITI","","html-keyboard-response","127","334933","0.0-1.0-162.0","0","0","75196","","null","","","null","17","","","","","","","","","","","","","","","NaN",""
"","S1","","html-keyboard-response","128","335085","0.0-1.0-164.0","0","0","75196","","null","","","null","18","","","","","","","","","","","","","","","",""
"","ISI","","html-keyboard-response","129","337088","0.0-1.0-165.0","0","0","75196","","null","","","null","18","NaN","","","","","","","","","","","","","","",""
"","S2","","html-keyboard-response","130","337241","0.0-1.0-166.0","0","0","75196","","null","","","null","18","","NaN","","","","","","","","","","","","","",""
"","response","","html-keyboard-response","131","337286","0.0-1.0-167.0-0.0","0","0","75196","","42","","","75","18","","","1","18","training","adjacent","DC","4","3","O.jpg","L.jpg","0","0","1","",""
"","feedback","","html-keyboard-response","132","338289","0.0-1.0-168.0-0.0","0","0","75196","","null","","","null","18","","","","","","","","","","","","","","","",""
"","ITI","","html-keyboard-response","133","339292","0.0-1.0-171.0","0","0","75196","","null","","","null","18","","","","","","","","","","","","","","","NaN",""
"","S1","","html-keyboard-response","134","339444","0.0-1.0-173.0","0","0","75196","","null","","","null","19","","","","","","","","","","","","","","","",""
"","ISI","","html-keyboard-response","135","341447","0.0-1.0-174.0","0","0","75196","","null","","","null","19","NaN","","","","","","","","","","","","","","",""
"","S2","","html-keyboard-response","136","341601","0.0-1.0-175.0","0","0","75196","","null","","","null","19","","NaN","","","","","","","","","","","","","",""
"","response","","html-keyboard-response","137","341695","0.0-1.0-176.0-0.0","0","0","75196","","91","","","75","19","","","1","19","training","adjacent","EF","5","6","M.jpg","Q.jpg","0","1","0","",""
"","feedback","","html-keyboard-response","138","342698","0.0-1.0-177.0-0.0","0","0","75196","","null","","","null","19","","","","","","","","","","","","","","","",""
"","time_out","","html-keyboard-response","139","344701","0.0-1.0-179.0-0.0","0","0","75196","","null","","","null","19","","","","","","","","","","","","","","","",""
"","ITI","","html-keyboard-response","140","345704","0.0-1.0-180.0","0","0","75196","","null","","","null","19","","","","","","","","","","","","","","","NaN",""
"","S1","","html-keyboard-response","141","345858","0.0-1.0-182.0","0","0","75196","","null","","","null","20","","","","","","","","","","","","","","","",""
"","ISI","","html-keyboard-response","142","347860","0.0-1.0-183.0","0","0","75196","","null","","","null","20","NaN","","","","","","","","","","","","","","",""
"","S2","","html-keyboard-response","143","348012","0.0-1.0-184.0","0","0","75196","","null","","","null","20","","NaN","","","","","","","","","","","","","",""
"","response","","html-keyboard-response","144","348134","0.0-1.0-185.0-0.0","0","0","75196","","119","","","75","20","","","1","20","training","adjacent","ED","5","4","M.jpg","O.jpg","0","0","1","",""
"","feedback","","html-keyboard-response","145","349137","0.0-1.0-186.0-0.0","0","0","75196","","null","","","null","20","","","","","","","","","","","","","","","",""
"","ITI","","html-keyboard-response","146","350139","0.0-1.0-189.0","0","0","75196","","null","","","null","20","","","","","","","","","","","","","","","NaN",""
"","S1","","html-keyboard-response","147","350292","0.0-1.0-191.0","0","0","75196","","null","","","null","21","","","","","","","","","","","","","","","",""
"","ISI","","html-keyboard-response","148","352294","0.0-1.0-192.0","0","0","75196","","null","","","null","21","NaN","","","","","","","","","","","","","","",""
"","S2","","html-keyboard-response","149","352447","0.0-1.0-193.0","0","0","75196","","null","","","null","21","","NaN","","","","","","","","","","","","","",""
"","response","","html-keyboard-response","150","352829","0.0-1.0-194.0-0.0","0","0","75196","","380","","","75","21","","","1","21","training","adjacent","CB","3","2","L.jpg","N.jpg","0","0","1","",""
"","feedback","","html-keyboard-response","151","353832","0.0-1.0-195.0-0.0","0","0","75196","","null","","","null","21","","","","","","","","","","","","","","","",""
"","ITI","","html-keyboard-response","152","354835","0.0-1.0-198.0","0","0","75196","","null","","","null","21","","","","","","","","","","","","","","","NaN",""
"","S1","","html-keyboard-response","153","354988","0.0-1.0-200.0","0","0","75196","","null","","","null","22","","","","","","","","","","","","","","","",""
"","ISI","","html-keyboard-response","154","356991","0.0-1.0-201.0","0","0","75196","","null","","","null","22","NaN","","","","","","","","","","","","","","",""
"","S2","","html-keyboard-response","155","357145","0.0-1.0-202.0","0","0","75196","","null","","","null","22","","NaN","","","","","","","","","","","","","",""
"","response","","html-keyboard-response","156","357246","0.0-1.0-203.0-0.0","0","0","75196","","99","","","75","22","","","1","22","training","adjacent","AB","1","2","R.jpg","N.jpg","0","1","0","",""
"","feedback","","html-keyboard-response","157","358249","0.0-1.0-204.0-0.0","0","0","75196","","null","","","null","22","","","","","","","","","","","","","","","",""
"","time_out","","html-keyboard-response","158","360252","0.0-1.0-206.0-0.0","0","0","75196","","null","","","null","22","","","","","","","","","","","","","","","",""
"","ITI","","html-keyboard-response","159","361254","0.0-1.0-207.0","0","0","75196","","null","","","null","22","","","","","","","","","","","","","","","NaN",""
"","S1","","html-keyboard-response","160","361407","0.0-1.0-209.0","0","0","75196","","null","","","null","23","","","","","","","","","","","","","","","",""
"","ISI","","html-keyboard-response","161","363410","0.0-1.0-210.0","0","0","75196","","28","","","68","23","d","","","","","","","","","","","","","","",""
"","S2","","html-keyboard-response","162","363563","0.0-1.0-211.0","0","0","75196","","null","","","null","23","","NaN","","","","","","","","","","","","","",""
"","response","","html-keyboard-response","163","363669","0.0-1.0-212.0-0.0","0","0","75196","","104","","","75","23","","","1","23","training","adjacent","FE","6","5","Q.jpg","M.jpg","0","0","1","",""
"","feedback","","html-keyboard-response","164","364672","0.0-1.0-213.0-0.0","0","0","75196","","null","","","null","23","","","","","","","","","","","","","","","",""
"","ITI","","html-keyboard-response","165","365675","0.0-1.0-216.0","0","0","75196","","null","","","null","23","","","","","","","","","","","","","","","NaN",""
"","S1","","html-keyboard-response","166","365828","0.0-1.0-218.0","0","0","75196","","null","","","null","24","","","","","","","","","","","","","","","",""
"","ISI","","html-keyboard-response","167","367831","0.0-1.0-219.0","0","0","75196","","null","","","null","24","NaN","","","","","","","","","","","","","","",""
"","S2","","html-keyboard-response","168","367985","0.0-1.0-220.0","0","0","75196","","null","","","null","24","","NaN","","","","","","","","","","","","","",""
"","response","","html-keyboard-response","169","368165","0.0-1.0-221.0-0.0","0","0","75196","","178","","","75","24","","","1","24","training","adjacent","BC","2","3","N.jpg","L.jpg","0","1","0","",""
"","feedback","","html-keyboard-response","170","369168","0.0-1.0-222.0-0.0","0","0","75196","","null","","","null","24","","","","","","","","","","","","","","","",""
"","time_out","","html-keyboard-response","171","371171","0.0-1.0-224.0-0.0","0","0","75196","","null","","","null","24","","","","","","","","","","","","","","","",""
"","ITI","","html-keyboard-response","172","372174","0.0-1.0-225.0","0","0","75196","","null","","","null","24","","","","","","","","","","","","","","","NaN",""
"","S1","","html-keyboard-response","173","372327","0.0-1.0-227.0","0","0","75196","","null","","","null","25","","","","","","","","","","","","","","","",""
"","ISI","","html-keyboard-response","174","374329","0.0-1.0-228.0","0","0","75196","","173","","","75","25","k","","","","","","","","","","","","","","",""
"","S2","","html-keyboard-response","175","374482","0.0-1.0-229.0","0","0","75196","","null","","","null","25","","NaN","","","","","","","","","","","","","",""
"","response","","html-keyboard-response","176","374653","0.0-1.0-230.0-0.0","0","0","75196","","169","","","75","25","","","1","25","training","adjacent","CD","3","4","L.jpg","O.jpg","0","1","0","",""
"","feedback","","html-keyboard-response","177","375660","0.0-1.0-231.0-0.0","0","0","75196","","null","","","null","25","","","","","","","","","","","","","","","",""
"","time_out","","html-keyboard-response","178","377663","0.0-1.0-233.0-0.0","0","0","75196","","null","","","null","25","","","","","","","","","","","","","","","",""
"","ITI","","html-keyboard-response","179","378665","0.0-1.0-234.0","0","0","75196","","null","","","null","25","","","","","","","","","","","","","","","NaN",""
"","S1","","html-keyboard-response","180","378818","0.0-1.0-236.0","0","0","75196","","null","","","null","26","","","","","","","","","","","","","","","",""
"","ISI","","html-keyboard-response","181","380820","0.0-1.0-237.0","0","0","75196","","266","","","75","26","k","","","","","","","","","","","","","","",""
"","S2","","html-keyboard-response","182","380973","0.0-1.0-238.0","0","0","75196","","null","","","null","26","","NaN","","","","","","","","","","","","","",""
"","response","","html-keyboard-response","183","381182","0.0-1.0-239.0-0.0","0","0","75196","","206","","","75","26","","","1","26","training","adjacent","DE","4","5","O.jpg","M.jpg","0","1","0","",""
"","feedback","","html-keyboard-response","184","382185","0.0-1.0-240.0-0.0","0","0","75196","","null","","","null","26","","","","","","","","","","","","","","","",""
"","time_out","","html-keyboard-response","185","384188","0.0-1.0-242.0-0.0","0","0","75196","","null","","","null","26","","","","","","","","","","","","","","","",""
"","ITI","","html-keyboard-response","186","385190","0.0-1.0-243.0","0","0","75196","","null","","","null","26","","","","","","","","","","","","","","","NaN",""
"","S1","","html-keyboard-response","187","385343","0.0-1.0-245.0","0","0","75196","","null","","","null","27","","","","","","","","","","","","","","","",""
"","ISI","","html-keyboard-response","188","387346","0.0-1.0-246.0","0","0","75196","","573","","","75","27","k","","","","","","","","","","","","","","",""
"","S2","","html-keyboard-response","189","387500","0.0-1.0-247.0","0","0","75196","","null","","","null","27","","NaN","","","","","","","","","","","","","",""
"","response","","html-keyboard-response","190","387646","0.0-1.0-248.0-0.0","0","0","75196","","143","","","75","27","","","1","27","training","adjacent","GF","7","6","P.jpg","Q.jpg","0","0","1","",""
"","feedback","","html-keyboard-response","191","388649","0.0-1.0-249.0-0.0","0","0","75196","","null","","","null","27","","","","","","","","","","","","","","","",""
"","ITI","","html-keyboard-response","192","389650","0.0-1.0-252.0","0","0","75196","","null","","","null","27","","","","","","","","","","","","","","","NaN",""
"","S1","","html-keyboard-response","193","389803","0.0-1.0-254.0","0","0","75196","","null","","","null","28","","","","","","","","","","","","","","","",""
"","ISI","","html-keyboard-response","194","391805","0.0-1.0-255.0","0","0","75196","","null","","","null","28","NaN","","","","","","","","","","","","","","",""
"","S2","","html-keyboard-response","195","391958","0.0-1.0-256.0","0","0","75196","","null","","","null","28","","NaN","","","","","","","","","","","","","",""
"","response","","html-keyboard-response","196","392238","0.0-1.0-257.0-0.0","0","0","75196","","277","","","75","28","","","1","28","training","adjacent","FE","6","5","Q.jpg","M.jpg","0","0","1","",""
"","feedback","","html-keyboard-response","197","393241","0.0-1.0-258.0-0.0","0","0","75196","","null","","","null","28","","","","","","","","","","","","","","","",""
"","ITI","","html-keyboard-response","198","394244","0.0-1.0-261.0","0","0","75196","","null","","","null","28","","","","","","","","","","","","","","","NaN",""
"","S1","","html-keyboard-response","199","394396","0.0-1.0-263.0","0","0","75196","","null","","","null","29","","","","","","","","","","","","","","","",""
"","ISI","","html-keyboard-response","200","396398","0.0-1.0-264.0","0","0","75196","","null","","","null","29","NaN","","","","","","","","","","","","","","",""
"","S2","","html-keyboard-response","201","396552","0.0-1.0-265.0","0","0","75196","","null","","","null","29","","NaN","","","","","","","","","","","","","",""
"","response","","html-keyboard-response","202","396805","0.0-1.0-266.0-0.0","0","0","75196","","252","","","75","29","","","1","29","training","adjacent","BC","2","3","N.jpg","L.jpg","0","1","0","",""
"","feedback","","html-keyboard-response","203","397808","0.0-1.0-267.0-0.0","0","0","75196","","null","","","null","29","","","","","","","","","","","","","","","",""
"","time_out","","html-keyboard-response","204","399811","0.0-1.0-269.0-0.0","0","0","75196","","null","","","null","29","","","","","","","","","","","","","","","",""
"","ITI","","html-keyboard-response","205","400814","0.0-1.0-270.0","0","0","75196","","null","","","null","29","","","","","","","","","","","","","","","NaN",""
"","S1","","html-keyboard-response","206","400966","0.0-1.0-272.0","0","0","75196","","null","","","null","30","","","","","","","","","","","","","","","",""
"","ISI","","html-keyboard-response","207","402969","0.0-1.0-273.0","0","0","75196","","94","","","75","30","k","","","","","","","","","","","","","","",""
"","S2","","html-keyboard-response","208","403122","0.0-1.0-274.0","0","0","75196","","null","","","null","30","","NaN","","","","","","","","","","","","","",""
"","response","","html-keyboard-response","209","403326","0.0-1.0-275.0-0.0","0","0","75196","","201","","","75","30","","","1","30","training","adjacent","FG","6","7","Q.jpg","P.jpg","0","1","0","",""
"","feedback","","html-keyboard-response","210","404330","0.0-1.0-276.0-0.0","0","0","75196","","null","","","null","30","","","","","","","","","","","","","","","",""
"","time_out","","html-keyboard-response","211","406332","0.0-1.0-278.0-0.0","0","0","75196","","null","","","null","30","","","","","","","","","","","","","","","",""
"","ITI","","html-keyboard-response","212","407334","0.0-1.0-279.0","0","0","75196","","null","","","null","30","","","","","","","","","","","","","","","NaN",""
"","S1","","html-keyboard-response","213","407486","0.0-1.0-281.0","0","0","75196","","null","","","null","31","","","","","","","","","","","","","","","",""
"","ISI","","html-keyboard-response","214","409489","0.0-1.0-282.0","0","0","75196","","null","","","null","31","NaN","","","","","","","","","","","","","","",""
"","S2","","html-keyboard-response","215","409642","0.0-1.0-283.0","0","0","75196","","null","","","null","31","","NaN","","","","","","","","","","","","","",""
"","response","","html-keyboard-response","216","409773","0.0-1.0-284.0-0.0","0","0","75196","","129","","","75","31","","","1","31","training","adjacent","EF","5","6","M.jpg","Q.jpg","0","1","0","",""
"","feedback","","html-keyboard-response","217","410780","0.0-1.0-285.0-0.0","0","0","75196","","null","","","null","31","","","","","","","","","","","","","","","",""
"","time_out","","html-keyboard-response","218","412783","0.0-1.0-287.0-0.0","0","0","75196","","null","","","null","31","","","","","","","","","","","","","","","",""
"","ITI","","html-keyboard-response","219","413785","0.0-1.0-288.0","0","0","75196","","null","","","null","31","","","","","","","","","","","","","","","NaN",""
"","S1","","html-keyboard-response","220","413938","0.0-1.0-290.0","0","0","75196","","null","","","null","32","","","","","","","","","","","","","","","",""
"","ISI","","html-keyboard-response","221","415940","0.0-1.0-291.0","0","0","75196","","442","","","75","32","k","","","","","","","","","","","","","","",""
"","S2","","html-keyboard-response","222","416096","0.0-1.0-292.0","0","0","75196","","null","","","null","32","","NaN","","","","","","","","","","","","","",""
"","response","","html-keyboard-response","223","416229","0.0-1.0-293.0-0.0","0","0","75196","","131","","","75","32","","","1","32","training","adjacent","DC","4","3","O.jpg","L.jpg","0","0","1","",""
"","feedback","","html-keyboard-response","224","417233","0.0-1.0-294.0-0.0","0","0","75196","","null","","","null","32","","","","","","","","","","","","","","","",""
"","ITI","","html-keyboard-response","225","418236","0.0-1.0-297.0","0","0","75196","","null","","","null","32","","","","","","","","","","","","","","","NaN",""
"","S1","","html-keyboard-response","226","418388","0.0-1.0-299.0","0","0","75196","","null","","","null","33","","","","","","","","","","","","","","","",""
"","ISI","","html-keyboard-response","227","420390","0.0-1.0-300.0","0","0","75196","","231","","","75","33","k","","","","","","","","","","","","","","",""
"","S2","","html-keyboard-response","228","420542","0.0-1.0-301.0","0","0","75196","","null","","","null","33","","NaN","","","","","","","","","","","","","",""
"","response","","html-keyboard-response","229","420773","0.0-1.0-302.0-0.0","0","0","75196","","229","","","75","33","","","1","33","training","adjacent","CB","3","2","L.jpg","N.jpg","0","0","1","",""
"","feedback","","html-keyboard-response","230","421776","0.0-1.0-303.0-0.0","0","0","75196","","null","","","null","33","","","","","","","","","","","","","","","",""
"","ITI","","html-keyboard-response","231","422779","0.0-1.0-306.0","0","0","75196","","null","","","null","33","","","","","","","","","","","","","","","NaN",""
"","S1","","html-keyboard-response","232","422931","0.0-1.0-308.0","0","0","75196","","null","","","null","34","","","","","","","","","","","","","","","",""
"","ISI","","html-keyboard-response","233","424933","0.0-1.0-309.0","0","0","75196","","null","","","null","34","NaN","","","","","","","","","","","","","","",""
"","S2","","html-keyboard-response","234","425087","0.0-1.0-310.0","0","0","75196","","null","","","null","34","","NaN","","","","","","","","","","","","","",""
"","response","","html-keyboard-response","235","425310","0.0-1.0-311.0-0.0","0","0","75196","","221","","","75","34","","","1","34","training","adjacent","DE","4","5","O.jpg","M.jpg","0","1","0","",""
"","feedback","","html-keyboard-response","236","426314","0.0-1.0-312.0-0.0","0","0","75196","","null","","","null","34","","","","","","","","","","","","","","","",""
"","time_out","","html-keyboard-response","237","428317","0.0-1.0-314.0-0.0","0","0","75196","","null","","","null","34","","","","","","","","","","","","","","","",""
"","ITI","","html-keyboard-response","238","429319","0.0-1.0-315.0","0","0","75196","","null","","","null","34","","","","","","","","","","","","","","","NaN",""
"","S1","","html-keyboard-response","239","429472","0.0-1.0-317.0","0","0","75196","","null","","","null","35","","","","","","","","","","","","","","","",""
"","ISI","","html-keyboard-response","240","431475","0.0-1.0-318.0","0","0","75196","","317","","","68","35","d","","","","","","","","","","","","","","",""
"","S2","","html-keyboard-response","241","431627","0.0-1.0-319.0","0","0","75196","","null","","","null","35","","NaN","","","","","","","","","","","","","",""
"","response","","html-keyboard-response","242","431821","0.0-1.0-320.0-0.0","0","0","75196","","192","","","75","35","","","1","35","training","adjacent","FE","6","5","Q.jpg","M.jpg","0","0","1","",""
"","feedback","","html-keyboard-response","243","432824","0.0-1.0-321.0-0.0","0","0","75196","","null","","","null","35","","","","","","","","","","","","","","","",""
"","ITI","","html-keyboard-response","244","433826","0.0-1.0-324.0","0","0","75196","","null","","","null","35","","","","","","","","","","","","","","","NaN",""
"","S1","","html-keyboard-response","245","433981","0.0-1.0-326.0","0","0","75196","","null","","","null","36","","","","","","","","","","","","","","","",""
"","ISI","","html-keyboard-response","246","435983","0.0-1.0-327.0","0","0","75196","","415","","","75","36","k","","","","","","","","","","","","","","",""
"","S2","","html-keyboard-response","247","436137","0.0-1.0-328.0","0","0","75196","","null","","","null","36","","NaN","","","","","","","","","","","","","",""
"","response","","html-keyboard-response","248","436365","0.0-1.0-329.0-0.0","0","0","75196","","226","","","75","36","","","1","36","training","adjacent","ED","5","4","M.jpg","O.jpg","0","0","1","",""
"","feedback","","html-keyboard-response","249","437369","0.0-1.0-330.0-0.0","0","0","75196","","null","","","null","36","","","","","","","","","","","","","","","",""
"","ITI","","html-keyboard-response","250","438371","0.0-1.0-333.0","0","0","75196","","null","","","null","36","","","","","","","","","","","","","","","NaN",""
"","S1","","html-keyboard-response","251","438523","0.0-1.0-335.0","0","0","75196","","null","","","null","37","","","","","","","","","","","","","","","",""
"","ISI","","html-keyboard-response","252","440526","0.0-1.0-336.0","0","0","75196","","null","","","null","37","NaN","","","","","","","","","","","","","","",""
"","S2","","html-keyboard-response","253","440680","0.0-1.0-337.0","0","0","75196","","null","","","null","37","","NaN","","","","","","","","","","","","","",""
"","response","","html-keyboard-response","254","440782","0.0-1.0-338.0-0.0","0","0","75196","","99","","","75","37","","","1","37","training","adjacent","FG","6","7","Q.jpg","P.jpg","0","1","0","",""
"","feedback","","html-keyboard-response","255","441785","0.0-1.0-339.0-0.0","0","0","75196","","null","","","null","37","","","","","","","","","","","","","","","",""
"","time_out","","html-keyboard-response","256","443788","0.0-1.0-341.0-0.0","0","0","75196","","null","","","null","37","","","","","","","","","","","","","","","",""
"","ITI","","html-keyboard-response","257","444790","0.0-1.0-342.0","0","0","75196","","null","","","null","37","","","","","","","","","","","","","","","NaN",""
"","S1","","html-keyboard-response","258","444942","0.0-1.0-344.0","0","0","75196","","null","","","null","38","","","","","","","","","","","","","","","",""
"","ISI","","html-keyboard-response","259","446946","0.0-1.0-345.0","0","0","75196","","86","","","68","38","d","","","","","","","","","","","","","","",""
"","S2","","html-keyboard-response","260","447099","0.0-1.0-346.0","0","0","75196","","null","","","null","38","","NaN","","","","","","","","","","","","","",""
"","response","","html-keyboard-response","261","447277","0.0-1.0-347.0-0.0","0","0","75196","","176","","","68","38","","","1","38","training","adjacent","EF","5","6","M.jpg","Q.jpg","1","1","1","",""
"","feedback","","html-keyboard-response","262","448280","0.0-1.0-348.0-0.0","0","0","75196","","null","","","null","38","","","","","","","","","","","","","","","",""
"","ITI","","html-keyboard-response","263","449283","0.0-1.0-351.0","0","0","75196","","null","","","null","38","","","","","","","","","","","","","","","NaN",""
"","S1","","html-keyboard-response","264","449436","0.0-1.0-353.0","0","0","75196","","null","","","null","39","","","","","","","","","","","","","","","",""
"","ISI","","html-keyboard-response","265","451439","0.0-1.0-354.0","0","0","75196","","null","","","null","39","NaN","","","","","","","","","","","","","","",""
"","S2","","html-keyboard-response","266","451592","0.0-1.0-355.0","0","0","75196","","null","","","null","39","","NaN","","","","","","","","","","","","","",""
"","response","","html-keyboard-response","267","451694","0.0-1.0-356.0-0.0","0","0","75196","","100","","","75","39","","","1","39","training","adjacent","CB","3","2","L.jpg","N.jpg","0","0","1","",""
"","feedback","","html-keyboard-response","268","452698","0.0-1.0-357.0-0.0","0","0","75196","","null","","","null","39","","","","","","","","","","","","","","","",""
"","ITI","","html-keyboard-response","269","453700","0.0-1.0-360.0","0","0","75196","","null","","","null","39","","","","","","","","","","","","","","","NaN",""
"","S1","","html-keyboard-response","270","453853","0.0-1.0-362.0","0","0","75196","","null","","","null","40","","","","","","","","","","","","","","","",""
"","ISI","","html-keyboard-response","271","455856","0.0-1.0-363.0","0","0","75196","","null","","","null","40","NaN","","","","","","","","","","","","","","",""
"","S2","","html-keyboard-response","272","456009","0.0-1.0-364.0","0","0","75196","","null","","","null","40","","NaN","","","","","","","","","","","","","",""
"","response","","html-keyboard-response","273","456166","0.0-1.0-365.0-0.0","0","0","75196","","155","","","68","40","","","1","40","training","adjacent","AB","1","2","R.jpg","N.jpg","1","1","1","",""
"","feedback","","html-keyboard-response","274","457170","0.0-1.0-366.0-0.0","0","0","75196","","null","","","null","40","","","","","","","","","","","","","","","",""
"","ITI","","html-keyboard-response","275","458173","0.0-1.0-369.0","0","0","75196","","null","","","null","40","","","","","","","","","","","","","","","NaN",""
"","S1","","html-keyboard-response","276","458326","0.0-1.0-371.0","0","0","75196","","null","","","null","41","","","","","","","","","","","","","","","",""
"","ISI","","html-keyboard-response","277","460328","0.0-1.0-372.0","0","0","75196","","null","","","null","41","NaN","","","","","","","","","","","","","","",""
"","S2","","html-keyboard-response","278","460482","0.0-1.0-373.0","0","0","75196","","null","","","null","41","","NaN","","","","","","","","","","","","","",""
"","response","","html-keyboard-response","279","460598","0.0-1.0-374.0-0.0","0","0","75196","","114","","","75","41","","","1","41","training","adjacent","AB","1","2","R.jpg","N.jpg","0","1","0","",""
"","feedback","","html-keyboard-response","280","461601","0.0-1.0-375.0-0.0","0","0","75196","","null","","","null","41","","","","","","","","","","","","","","","",""
"","time_out","","html-keyboard-response","281","463604","0.0-1.0-377.0-0.0","0","0","75196","","null","","","null","41","","","","","","","","","","","","","","","",""
"","ITI","","html-keyboard-response","282","464606","0.0-1.0-378.0","0","0","75196","","null","","","null","41","","","","","","","","","","","","","","","NaN",""
"","S1","","html-keyboard-response","283","464759","0.0-1.0-380.0","0","0","75196","","null","","","null","42","","","","","","","","","","","","","","","",""
"","ISI","","html-keyboard-response","284","466763","0.0-1.0-381.0","0","0","75196","","1085","","","68","42","d","","","","","","","","","","","","","","",""
"","S2","","html-keyboard-response","285","466917","0.0-1.0-382.0","0","0","75196","","null","","","null","42","","NaN","","","","","","","","","","","","","",""
"","response","","html-keyboard-response","286","467086","0.0-1.0-383.0-0.0","0","0","75196","","167","","","68","42","","","1","42","training","adjacent","ED","5","4","M.jpg","O.jpg","1","0","0","",""
"","feedback","","html-keyboard-response","287","468090","0.0-1.0-384.0-0.0","0","0","75196","","null","","","null","42","","","","","","","","","","","","","","","",""
"","time_out","","html-keyboard-response","288","470093","0.0-1.0-386.0-0.0","0","0","75196","","null","","","null","42","","","","","","","","","","","","","","","",""
"","ITI","","html-keyboard-response","289","471095","0.0-1.0-387.0","0","0","75196","","null","","","null","42","","","","","","","","","","","","","","","NaN",""
"","S1","","html-keyboard-response","290","471247","0.0-1.0-389.0","0","0","75196","","null","","","null","43","","","","","","","","","","","","","","","",""
"","ISI","","html-keyboard-response","291","473249","0.0-1.0-390.0","0","0","75196","","140","","","75","43","k","","","","","","","","","","","","","","",""
"","S2","","html-keyboard-response","292","473402","0.0-1.0-391.0","0","0","75196","","null","","","null","43","","NaN","","","","","","","","","","","","","",""
"","response","","html-keyboard-response","293","473822","0.0-1.0-392.0-0.0","0","0","75196","","418","","","75","43","","","1","43","training","adjacent","CD","3","4","L.jpg","O.jpg","0","1","0","",""
"","feedback","","html-keyboard-response","294","474826","0.0-1.0-393.0-0.0","0","0","75196","","null","","","null","43","","","","","","","","","","","","","","","",""
"","time_out","","html-keyboard-response","295","476830","0.0-1.0-395.0-0.0","0","0","75196","","null","","","null","43","","","","","","","","","","","","","","","",""
"","ITI","","html-keyboard-response","296","477832","0.0-1.0-396.0","0","0","75196","","null","","","null","43","","","","","","","","","","","","","","","NaN",""
"","S1","","html-keyboard-response","297","477985","0.0-1.0-398.0","0","0","75196","","null","","","null","44","","","","","","","","","","","","","","","",""
"","ISI","","html-keyboard-response","298","479987","0.0-1.0-399.0","0","0","75196","","null","","","null","44","NaN","","","","","","","","","","","","","","",""
"","S2","","html-keyboard-response","299","480094","0.0-1.0-400.0","0","0","75196","","104","","","75","44","","k","1","44","training","adjacent","CD","3","4","L.jpg","O.jpg","0","1","0","",""
"","feedback","","html-keyboard-response","300","481098","0.0-1.0-402.0-0.0","0","0","75196","","null","","","null","44","","","","","","","","","","","","","","","",""
"","time_out","","html-keyboard-response","301","483100","0.0-1.0-404.0-0.0","0","0","75196","","null","","","null","44","","","","","","","","","","","","","","","",""
"","ITI","","html-keyboard-response","302","484103","0.0-1.0-405.0","0","0","75196","","null","","","null","44","","","","","","","","","","","","","","","NaN",""
"","S1","","html-keyboard-response","303","484256","0.0-1.0-407.0","0","0","75196","","null","","","null","45","","","","","","","","","","","","","","","",""
"","ISI","","html-keyboard-response","304","486259","0.0-1.0-408.0","0","0","75196","","null","","","null","45","NaN","","","","","","","","","","","","","","",""
"","S2","","html-keyboard-response","305","486411","0.0-1.0-409.0","0","0","75196","","null","","","null","45","","NaN","","","","","","","","","","","","","",""
"","response","","html-keyboard-response","306","486758","0.0-1.0-410.0-0.0","0","0","75196","","345","","","75","45","","","1","45","training","adjacent","AB","1","2","R.jpg","N.jpg","0","1","0","",""
"","feedback","","html-keyboard-response","307","487763","0.0-1.0-411.0-0.0","0","0","75196","","null","","","null","45","","","","","","","","","","","","","","","",""
"","time_out","","html-keyboard-response","308","489766","0.0-1.0-413.0-0.0","0","0","75196","","null","","","null","45","","","","","","","","","","","","","","","",""
"","ITI","","html-keyboard-response","309","490769","0.0-1.0-414.0","0","0","75196","","null","","","null","45","","","","","","","","","","","","","","","NaN",""
"","S1","","html-keyboard-response","310","490921","0.0-1.0-416.0","0","0","75196","","null","","","null","46","","","","","","","","","","","","","","","",""
"","ISI","","html-keyboard-response","311","492924","0.0-1.0-417.0","0","0","75196","","219","","","68","46","d","","","","","","","","","","","","","","",""
"","S2","","html-keyboard-response","312","493077","0.0-1.0-418.0","0","0","75196","","null","","","null","46","","NaN","","","","","","","","","","","","","",""
"","response","","html-keyboard-response","313","493222","0.0-1.0-419.0-0.0","0","0","75196","","143","","","75","46","","","1","46","training","adjacent","GF","7","6","P.jpg","Q.jpg","0","0","1","",""
"","feedback","","html-keyboard-response","314","494225","0.0-1.0-420.0-0.0","0","0","75196","","null","","","null","46","","","","","","","","","","","","","","","",""
"","ITI","","html-keyboard-response","315","495228","0.0-1.0-423.0","0","0","75196","","null","","","null","46","","","","","","","","","","","","","","","NaN",""
"","S1","","html-keyboard-response","316","495380","0.0-1.0-425.0","0","0","75196","","null","","","null","47","","","","","","","","","","","","","","","",""
"","ISI","","html-keyboard-response","317","497381","0.0-1.0-426.0","0","0","75196","","null","","","null","47","NaN","","","","","","","","","","","","","","",""
"","S2","","html-keyboard-response","318","497535","0.0-1.0-427.0","0","0","75196","","null","","","null","47","","NaN","","","","","","","","","","","","","",""
"","response","","html-keyboard-response","319","499388","0.0-1.0-428.0-0.0","0","0","75196","","null","","","null","47","","","1","47","training","adjacent","EF","5","6","M.jpg","Q.jpg","NaN","1","0","",""
"","too_slow_prompt","","html-keyboard-response","320","500390","0.0-1.0-430.0-0.0","1","0","75196","","null","","","null","","","","","","","","","","","","","","","","",""
"","time_out","","html-keyboard-response","321","502391","0.0-1.0-431.0-0.0","0","0","75196","","null","","","null","47","","","","","","","","","","","","","","","",""
"","ITI","","html-keyboard-response","322","503394","0.0-1.0-432.0","0","0","75196","","null","","","null","47","","","","","","","","","","","","","","","NaN",""
"","block_over","","html-keyboard-response","323","702110","0.0-1.0-433.0-0.0","0","0","75196","","198713","","","32","47","","","","","","","","","","","","","","","",""
"","S1","","html-keyboard-response","324","702262","0.0-1.0-434.0","0","0","75196","","null","","","null","48","","","","","","","","","","","","","","","",""
"","ISI","","html-keyboard-response","325","704265","0.0-1.0-435.0","0","0","75196","","null","","","null","48","NaN","","","","","","","","","","","","","","",""
"","S2","","html-keyboard-response","326","704418","0.0-1.0-436.0","0","0","75196","","null","","","null","48","","NaN","","","","","","","","","","","","","",""
"","response","","html-keyboard-response","327","704574","0.0-1.0-437.0-0.0","0","0","75196","","153","","","75","48","","","2","48","training","adjacent","BA","2","1","N.jpg","R.jpg","0","0","1","",""
"","feedback","","html-keyboard-response","328","705578","0.0-1.0-438.0-0.0","0","0","75196","","null","","","null","48","","","","","","","","","","","","","","","",""
"","ITI","","html-keyboard-response","329","706581","0.0-1.0-441.0","0","0","75196","","null","","","null","48","","","","","","","","","","","","","","","NaN",""
"","S1","","html-keyboard-response","330","706734","0.0-1.0-443.0","0","0","75196","","null","","","null","49","","","","","","","","","","","","","","","",""
"","ISI","","html-keyboard-response","331","708736","0.0-1.0-444.0","0","0","75196","","null","","","null","49","NaN","","","","","","","","","","","","","","",""
"","S2","","html-keyboard-response","332","708889","0.0-1.0-445.0","0","0","75196","","null","","","null","49","","NaN","","","","","","","","","","","","","",""
"","response","","html-keyboard-response","333","709038","0.0-1.0-446.0-0.0","0","0","75196","","146","","","68","49","","","2","49","training","adjacent","BC","2","3","N.jpg","L.jpg","1","1","1","",""
"","feedback","","html-keyboard-response","334","710042","0.0-1.0-447.0-0.0","0","0","75196","","null","","","null","49","","","","","","","","","","","","","","","",""
"","ITI","","html-keyboard-response","335","711044","0.0-1.0-450.0","0","0","75196","","null","","","null","49","","","","","","","","","","","","","","","NaN",""
"","S1","","html-keyboard-response","336","711197","0.0-1.0-452.0","0","0","75196","","null","","","null","50","","","","","","","","","","","","","","","",""
"","ISI","","html-keyboard-response","337","713199","0.0-1.0-453.0","0","0","75196","","null","","","null","50","NaN","","","","","","","","","","","","","","",""
"","S2","","html-keyboard-response","338","713351","0.0-1.0-454.0","0","0","75196","","null","","","null","50","","NaN","","","","","","","","","","","","","",""
"","response","","html-keyboard-response","339","713471","0.0-1.0-455.0-0.0","0","0","75196","","117","","","75","50","","","2","50","training","adjacent","FG","6","7","Q.jpg","P.jpg","0","1","0","",""
"","feedback","","html-keyboard-response","340","714475","0.0-1.0-456.0-0.0","0","0","75196","","null","","","null","50","","","","","","","","","","","","","","","",""
"","time_out","","html-keyboard-response","341","716479","0.0-1.0-458.0-0.0","0","0","75196","","null","","","null","50","","","","","","","","","","","","","","","",""
"","ITI","","html-keyboard-response","342","717481","0.0-1.0-459.0","0","0","75196","","null","","","null","50","","","","","","","","","","","","","","","NaN",""
"","S1","","html-keyboard-response","343","717634","0.0-1.0-461.0","0","0","75196","","null","","","null","51","","","","","","","","","","","","","","","",""
"","ISI","","html-keyboard-response","344","719636","0.0-1.0-462.0","0","0","75196","","null","","","null","51","NaN","","","","","","","","","","","","","","",""
"","S2","","html-keyboard-response","345","719789","0.0-1.0-463.0","0","0","75196","","null","","","null","51","","NaN","","","","","","","","","","","","","",""
"","response","","html-keyboard-response","346","719934","0.0-1.0-464.0-0.0","0","0","75196","","143","","","75","51","","","2","51","training","adjacent","DC","4","3","O.jpg","L.jpg","0","0","1","",""
"","feedback","","html-keyboard-response","347","720936","0.0-1.0-465.0-0.0","0","0","75196","","null","","","null","51","","","","","","","","","","","","","","","",""
"","ITI","","html-keyboard-response","348","721940","0.0-1.0-468.0","0","0","75196","","null","","","null","51","","","","","","","","","","","","","","","NaN",""
"","S1","","html-keyboard-response","349","722092","0.0-1.0-470.0","0","0","75196","","null","","","null","52","","","","","","","","","","","","","","","",""
"","ISI","","html-keyboard-response","350","724095","0.0-1.0-471.0","0","0","75196","","null","","","null","52","NaN","","","","","","","","","","","","","","",""
"","S2","","html-keyboard-response","351","724248","0.0-1.0-472.0","0","0","75196","","null","","","null","52","","NaN","","","","","","","","","","","","","",""
"","response","","html-keyboard-response","352","724765","0.0-1.0-473.0-0.0","0","0","75196","","515","","","68","52","","","2","52","training","adjacent","EF","5","6","M.jpg","Q.jpg","1","1","1","",""
"","feedback","","html-keyboard-response","353","725768","0.0-1.0-474.0-0.0","0","0","75196","","null","","","null","52","","","","","","","","","","","","","","","",""
"","ITI","","html-keyboard-response","354","726771","0.0-1.0-477.0","0","0","75196","","null","","","null","52","","","","","","","","","","","","","","","NaN",""
"","S1","","html-keyboard-response","355","726923","0.0-1.0-479.0","0","0","75196","","null","","","null","53","","","","","","","","","","","","","","","",""
"","ISI","","html-keyboard-response","356","728926","0.0-1.0-480.0","0","0","75196","","null","","","null","53","NaN","","","","","","","","","","","","","","",""
"","S2","","html-keyboard-response","357","729080","0.0-1.0-481.0","0","0","75196","","null","","","null","53","","NaN","","","","","","","","","","","","","",""
"","response","","html-keyboard-response","358","729365","0.0-1.0-482.0-0.0","0","0","75196","","283","","","75","53","","","2","53","training","adjacent","GF","7","6","P.jpg","Q.jpg","0","0","1","",""
"","feedback","","html-keyboard-response","359","730368","0.0-1.0-483.0-0.0","0","0","75196","","null","","","null","53","","","","","","","","","","","","","","","",""
"","ITI","","html-keyboard-response","360","731372","0.0-1.0-486.0","0","0","75196","","null","","","null","53","","","","","","","","","","","","","","","NaN",""
"","S1","","html-keyboard-response","361","731526","0.0-1.0-488.0","0","0","75196","","null","","","null","54","","","","","","","","","","","","","","","",""
"","ISI","","html-keyboard-response","362","733529","0.0-1.0-489.0","0","0","75196","","null","","","null","54","NaN","","","","","","","","","","","","","","",""
"","S2","","html-keyboard-response","363","733681","0.0-1.0-490.0","0","0","75196","","null","","","null","54","","NaN","","","","","","","","","","","","","",""
"","response","","html-keyboard-response","364","733806","0.0-1.0-491.0-0.0","0","0","75196","","123","","","68","54","","","2","54","training","adjacent","CD","3","4","L.jpg","O.jpg","1","1","1","",""
"","feedback","","html-keyboard-response","365","734810","0.0-1.0-492.0-0.0","0","0","75196","","null","","","null","54","","","","","","","","","","","","","","","",""
"","ITI","","html-keyboard-response","366","735813","0.0-1.0-495.0","0","0","75196","","null","","","null","54","","","","","","","","","","","","","","","NaN",""
"","S1","","html-keyboard-response","367","735966","0.0-1.0-497.0","0","0","75196","","null","","","null","55","","","","","","","","","","","","","","","",""
"","ISI","","html-keyboard-response","368","737969","0.0-1.0-498.0","0","0","75196","","null","","","null","55","NaN","","","","","","","","","","","","","","",""
"","S2","","html-keyboard-response","369","738123","0.0-1.0-499.0","0","0","75196","","null","","","null","55","","NaN","","","","","","","","","","","","","",""
"","response","","html-keyboard-response","370","738245","0.0-1.0-500.0-0.0","0","0","75196","","120","","","75","55","","","2","55","training","adjacent","DE","4","5","O.jpg","M.jpg","0","1","0","",""
"","feedback","","html-keyboard-response","371","739248","0.0-1.0-501.0-0.0","0","0","75196","","null","","","null","55","","","","","","","","","","","","","","","",""
"","time_out","","html-keyboard-response","372","741251","0.0-1.0-503.0-0.0","0","0","75196","","null","","","null","55","","","","","","","","","","","","","","","",""
"","ITI","","html-keyboard-response","373","742254","0.0-1.0-504.0","0","0","75196","","null","","","null","55","","","","","","","","","","","","","","","NaN",""
"","S1","","html-keyboard-response","374","742406","0.0-1.0-506.0","0","0","75196","","null","","","null","56","","","","","","","","","","","","","","","",""
"","ISI","","html-keyboard-response","375","744408","0.0-1.0-507.0","0","0","75196","","null","","","null","56","NaN","","","","","","","","","","","","","","",""
"","S2","","html-keyboard-response","376","744562","0.0-1.0-508.0","0","0","75196","","null","","","null","56","","NaN","","","","","","","","","","","","","",""
"","response","","html-keyboard-response","377","744710","0.0-1.0-509.0-0.0","0","0","75196","","145","","","68","56","","","2","56","training","adjacent","CB","3","2","L.jpg","N.jpg","1","0","0","",""
"","feedback","","html-keyboard-response","378","745713","0.0-1.0-510.0-0.0","0","0","75196","","null","","","null","56","","","","","","","","","","","","","","","",""
"","time_out","","html-keyboard-response","379","747715","0.0-1.0-512.0-0.0","0","0","75196","","null","","","null","56","","","","","","","","","","","","","","","",""
"","ITI","","html-keyboard-response","380","748717","0.0-1.0-513.0","0","0","75196","","null","","","null","56","","","","","","","","","","","","","","","NaN",""
"","S1","","html-keyboard-response","381","748870","0.0-1.0-515.0","0","0","75196","","null","","","null","57","","","","","","","","","","","","","","","",""
"","ISI","","html-keyboard-response","382","750873","0.0-1.0-516.0","0","0","75196","","null","","","null","57","NaN","","","","","","","","","","","","","","",""
"","S2","","html-keyboard-response","383","751027","0.0-1.0-517.0","0","0","75196","","null","","","null","57","","NaN","","","","","","","","","","","","","",""
"","response","","html-keyboard-response","384","751318","0.0-1.0-518.0-0.0","0","0","75196","","289","","","75","57","","","2","57","training","adjacent","DE","4","5","O.jpg","M.jpg","0","1","0","",""
"","feedback","","html-keyboard-response","385","752321","0.0-1.0-519.0-0.0","0","0","75196","","null","","","null","57","","","","","","","","","","","","","","","",""
"","time_out","","html-keyboard-response","386","754323","0.0-1.0-521.0-0.0","0","0","75196","","null","","","null","57","","","","","","","","","","","","","","","",""
"","ITI","","html-keyboard-response","387","755326","0.0-1.0-522.0","0","0","75196","","null","","","null","57","","","","","","","","","","","","","","","NaN",""
"","S1","","html-keyboard-response","388","755478","0.0-1.0-524.0","0","0","75196","","null","","","null","58","","","","","","","","","","","","","","","",""
"","ISI","","html-keyboard-response","389","757481","0.0-1.0-525.0","0","0","75196","","null","","","null","58","NaN","","","","","","","","","","","","","","",""
"","S2","","html-keyboard-response","390","757634","0.0-1.0-526.0","0","0","75196","","null","","","null","58","","NaN","","","","","","","","","","","","","",""
"","response","","html-keyboard-response","391","757766","0.0-1.0-527.0-0.0","0","0","75196","","130","","","75","58","","","2","58","training","adjacent","ED","5","4","M.jpg","O.jpg","0","0","1","",""
"","feedback","","html-keyboard-response","392","758770","0.0-1.0-528.0-0.0","0","0","75196","","null","","","null","58","","","","","","","","","","","","","","","",""
"","ITI","","html-keyboard-response","393","759774","0.0-1.0-531.0","0","0","75196","","null","","","null","58","","","","","","","","","","","","","","","NaN",""
"","S1","","html-keyboard-response","394","759927","0.0-1.0-533.0","0","0","75196","","null","","","null","59","","","","","","","","","","","","","","","",""
"","ISI","","html-keyboard-response","395","761929","0.0-1.0-534.0","0","0","75196","","null","","","null","59","NaN","","","","","","","","","","","","","","",""
"","S2","","html-keyboard-response","396","762082","0.0-1.0-535.0","0","0","75196","","null","","","null","59","","NaN","","","","","","","","","","","","","",""
"","response","","html-keyboard-response","397","762382","0.0-1.0-536.0-0.0","0","0","75196","","298","","","75","59","","","2","59","training","adjacent","BC","2","3","N.jpg","L.jpg","0","1","0","",""
"","feedback","","html-keyboard-response","398","763385","0.0-1.0-537.0-0.0","0","0","75196","","null","","","null","59","","","","","","","","","","","","","","","",""
"","time_out","","html-keyboard-response","399","765388","0.0-1.0-539.0-0.0","0","0","75196","","null","","","null","59","","","","","","","","","","","","","","","",""
"","ITI","","html-keyboard-response","400","766391","0.0-1.0-540.0","0","0","75196","","null","","","null","59","","","","","","","","","","","","","","","NaN",""
"","S1","","html-keyboard-response","401","766543","0.0-1.0-542.0","0","0","75196","","null","","","null","60","","","","","","","","","","","","","","","",""
"","ISI","","html-keyboard-response","402","768546","0.0-1.0-543.0","0","0","75196","","null","","","null","60","NaN","","","","","","","","","","","","","","",""
"","S2","","html-keyboard-response","403","768699","0.0-1.0-544.0","0","0","75196","","null","","","null","60","","NaN","","","","","","","","","","","","","",""
"","response","","html-keyboard-response","404","768838","0.0-1.0-545.0-0.0","0","0","75196","","137","","","68","60","","","2","60","training","adjacent","CD","3","4","L.jpg","O.jpg","1","1","1","",""
"","feedback","","html-keyboard-response","405","769841","0.0-1.0-546.0-0.0","0","0","75196","","null","","","null","60","","","","","","","","","","","","","","","",""
"","ITI","","html-keyboard-response","406","770845","0.0-1.0-549.0","0","0","75196","","null","","","null","60","","","","","","","","","","","","","","","NaN",""
"","S1","","html-keyboard-response","407","770999","0.0-1.0-551.0","0","0","75196","","null","","","null","61","","","","","","","","","","","","","","","",""
"","ISI","","html-keyboard-response","408","773002","0.0-1.0-552.0","0","0","75196","","null","","","null","61","NaN","","","","","","","","","","","","","","",""
"","S2","","html-keyboard-response","409","773156","0.0-1.0-553.0","0","0","75196","","null","","","null","61","","NaN","","","","","","","","","","","","","",""
"","response","","html-keyboard-response","410","773614","0.0-1.0-554.0-0.0","0","0","75196","","456","","","75","61","","","2","61","training","adjacent","AB","1","2","R.jpg","N.jpg","0","1","0","",""
"","feedback","","html-keyboard-response","411","774618","0.0-1.0-555.0-0.0","0","0","75196","","null","","","null","61","","","","","","","","","","","","","","","",""
"","time_out","","html-keyboard-response","412","776620","0.0-1.0-557.0-0.0","0","0","75196","","null","","","null","61","","","","","","","","","","","","","","","",""
"","ITI","","html-keyboard-response","413","777623","0.0-1.0-558.0","0","0","75196","","null","","","null","61","","","","","","","","","","","","","","","NaN",""
"","S1","","html-keyboard-response","414","777775","0.0-1.0-560.0","0","0","75196","","null","","","null","62","","","","","","","","","","","","","","","",""
"","ISI","","html-keyboard-response","415","779777","0.0-1.0-561.0","0","0","75196","","null","","","null","62","NaN","","","","","","","","","","","","","","",""
"","S2","","html-keyboard-response","416","779930","0.0-1.0-562.0","0","0","75196","","null","","","null","62","","NaN","","","","","","","","","","","","","",""
"","response","","html-keyboard-response","417","780221","0.0-1.0-563.0-0.0","0","0","75196","","290","","","75","62","","","2","62","training","adjacent","DC","4","3","O.jpg","L.jpg","0","0","1","",""
"","feedback","","html-keyboard-response","418","781225","0.0-1.0-564.0-0.0","0","0","75196","","null","","","null","62","","","","","","","","","","","","","","","",""
"","ITI","","html-keyboard-response","419","782228","0.0-1.0-567.0","0","0","75196","","null","","","null","62","","","","","","","","","","","","","","","NaN",""
"","S1","","html-keyboard-response","420","782381","0.0-1.0-569.0","0","0","75196","","null","","","null","63","","","","","","","","","","","","","","","",""
"","ISI","","html-keyboard-response","421","784383","0.0-1.0-570.0","0","0","75196","","null","","","null","63","NaN","","","","","","","","","","","","","","",""
"","S2","","html-keyboard-response","422","784536","0.0-1.0-571.0","0","0","75196","","null","","","null","63","","NaN","","","","","","","","","","","","","",""
"","response","","html-keyboard-response","423","785039","0.0-1.0-572.0-0.0","0","0","75196","","500","","","75","63","","","2","63","training","adjacent","ED","5","4","M.jpg","O.jpg","0","0","1","",""
"","feedback","","html-keyboard-response","424","786042","0.0-1.0-573.0-0.0","0","0","75196","","null","","","null","63","","","","","","","","","","","","","","","",""
"","ITI","","html-keyboard-response","425","787045","0.0-1.0-576.0","0","0","75196","","null","","","null","63","","","","","","","","","","","","","","","NaN",""
"","S1","","html-keyboard-response","426","787197","0.0-1.0-578.0","0","0","75196","","null","","","null","64","","","","","","","","","","","","","","","",""
"","ISI","","html-keyboard-response","427","789200","0.0-1.0-579.0","0","0","75196","","null","","","null","64","NaN","","","","","","","","","","","","","","",""
"","S2","","html-keyboard-response","428","789353","0.0-1.0-580.0","0","0","75196","","null","","","null","64","","NaN","","","","","","","","","","","","","",""
"","response","","html-keyboard-response","429","789598","0.0-1.0-581.0-0.0","0","0","75196","","243","","","75","64","","","2","64","training","adjacent","AB","1","2","R.jpg","N.jpg","0","1","0","",""
"","feedback","","html-keyboard-response","430","790602","0.0-1.0-582.0-0.0","0","0","75196","","null","","","null","64","","","","","","","","","","","","","","","",""
"","time_out","","html-keyboard-response","431","792604","0.0-1.0-584.0-0.0","0","0","75196","","null","","","null","64","","","","","","","","","","","","","","","",""
"","ITI","","html-keyboard-response","432","793608","0.0-1.0-585.0","0","0","75196","","null","","","null","64","","","","","","","","","","","","","","","NaN",""
"","S1","","html-keyboard-response","433","793762","0.0-1.0-587.0","0","0","75196","","null","","","null","65","","","","","","","","","","","","","","","",""
"","ISI","","html-keyboard-response","434","795765","0.0-1.0-588.0","0","0","75196","","442","","","68","65","d","","","","","","","","","","","","","","",""
"","S2","","html-keyboard-response","435","795918","0.0-1.0-589.0","0","0","75196","","null","","","null","65","","NaN","","","","","","","","","","","","","",""
"","response","","html-keyboard-response","436","796030","0.0-1.0-590.0-0.0","0","0","75196","","110","","","68","65","","","2","65","training","adjacent","ED","5","4","M.jpg","O.jpg","1","0","0","",""
"","feedback","","html-keyboard-response","437","797032","0.0-1.0-591.0-0.0","0","0","75196","","null","","","null","65","","","","","","","","","","","","","","","",""
"","time_out","","html-keyboard-response","438","799035","0.0-1.0-593.0-0.0","0","0","75196","","null","","","null","65","","","","","","","","","","","","","","","",""
"","ITI","","html-keyboard-response","439","800038","0.0-1.0-594.0","0","0","75196","","null","","","null","65","","","","","","","","","","","","","","","NaN",""
"","S1","","html-keyboard-response","440","800192","0.0-1.0-596.0","0","0","75196","","null","","","null","66","","","","","","","","","","","","","","","",""
"","ISI","","html-keyboard-response","441","802195","0.0-1.0-597.0","0","0","75196","","null","","","null","66","NaN","","","","","","","","","","","","","","",""
"","S2","","html-keyboard-response","442","802348","0.0-1.0-598.0","0","0","75196","","null","","","null","66","","NaN","","","","","","","","","","","","","",""
"","response","","html-keyboard-response","443","802486","0.0-1.0-599.0-0.0","0","0","75196","","136","","","75","66","","","2","66","training","adjacent","EF","5","6","M.jpg","Q.jpg","0","1","0","",""
"","feedback","","html-keyboard-response","444","803490","0.0-1.0-600.0-0.0","0","0","75196","","null","","","null","66","","","","","","","","","","","","","","","",""
"","time_out","","html-keyboard-response","445","805492","0.0-1.0-602.0-0.0","0","0","75196","","null","","","null","66","","","","","","","","","","","","","","","",""
"","ITI","","html-keyboard-response","446","806496","0.0-1.0-603.0","0","0","75196","","null","","","null","66","","","","","","","","","","","","","","","NaN",""
"","S1","","html-keyboard-response","447","806648","0.0-1.0-605.0","0","0","75196","","null","","","null","67","","","","","","","","","","","","","","","",""
"","ISI","","html-keyboard-response","448","808650","0.0-1.0-606.0","0","0","75196","","null","","","null","67","NaN","","","","","","","","","","","","","","",""
"","S2","","html-keyboard-response","449","808804","0.0-1.0-607.0","0","0","75196","","null","","","null","67","","NaN","","","","","","","","","","","","","",""
"","response","","html-keyboard-response","450","809286","0.0-1.0-608.0-0.0","0","0","75196","","480","","","68","67","","","2","67","training","adjacent","BA","2","1","N.jpg","R.jpg","1","0","0","",""
"","feedback","","html-keyboard-response","451","810290","0.0-1.0-609.0-0.0","0","0","75196","","null","","","null","67","","","","","","","","","","","","","","","",""
"","time_out","","html-keyboard-response","452","812294","0.0-1.0-611.0-0.0","0","0","75196","","null","","","null","67","","","","","","","","","","","","","","","",""
"","ITI","","html-keyboard-response","453","813297","0.0-1.0-612.0","0","0","75196","","null","","","null","67","","","","","","","","","","","","","","","NaN",""
"","S1","","html-keyboard-response","454","813449","0.0-1.0-614.0","0","0","75196","","null","","","null","68","","","","","","","","","","","","","","","",""
"","ISI","","html-keyboard-response","455","815451","0.0-1.0-615.0","0","0","75196","","null","","","null","68","NaN","","","","","","","","","","","","","","",""
"","S2","","html-keyboard-response","456","815604","0.0-1.0-616.0","0","0","75196","","null","","","null","68","","NaN","","","","","","","","","","","","","",""
"","response","","html-keyboard-response","457","816214","0.0-1.0-617.0-0.0","0","0","75196","","608","","","75","68","","","2","68","training","adjacent","CD","3","4","L.jpg","O.jpg","0","1","0","",""
"","feedback","","html-keyboard-response","458","817217","0.0-1.0-618.0-0.0","0","0","75196","","null","","","null","68","","","","","","","","","","","","","","","",""
"","time_out","","html-keyboard-response","459","819221","0.0-1.0-620.0-0.0","0","0","75196","","null","","","null","68","","","","","","","","","","","","","","","",""
"","ITI","","html-keyboard-response","460","820224","0.0-1.0-621.0","0","0","75196","","null","","","null","68","","","","","","","","","","","","","","","NaN",""
"","S1","","html-keyboard-response","461","820377","0.0-1.0-623.0","0","0","75196","","null","","","null","69","","","","","","","","","","","","","","","",""
"","ISI","","html-keyboard-response","462","822379","0.0-1.0-624.0","0","0","75196","","null","","","null","69","NaN","","","","","","","","","","","","","","",""
"","S2","","html-keyboard-response","463","822532","0.0-1.0-625.0","0","0","75196","","null","","","null","69","","NaN","","","","","","","","","","","","","",""
"","response","","html-keyboard-response","464","822639","0.0-1.0-626.0-0.0","0","0","75196","","103","","","68","69","","","2","69","training","adjacent","CB","3","2","L.jpg","N.jpg","1","0","0","",""
"","feedback","","html-keyboard-response","465","823643","0.0-1.0-627.0-0.0","0","0","75196","","null","","","null","69","","","","","","","","","","","","","","","",""
"","time_out","","html-keyboard-response","466","825646","0.0-1.0-629.0-0.0","0","0","75196","","null","","","null","69","","","","","","","","","","","","","","","",""
"","ITI","","html-keyboard-response","467","826647","0.0-1.0-630.0","0","0","75196","","null","","","null","69","","","","","","","","","","","","","","","NaN",""
"","S1","","html-keyboard-response","468","826801","0.0-1.0-632.0","0","0","75196","","null","","","null","70","","","","","","","","","","","","","","","",""
"","ISI","","html-keyboard-response","469","828803","0.0-1.0-633.0","0","0","75196","","null","","","null","70","NaN","","","","","","","","","","","","","","",""
"","S2","","html-keyboard-response","470","828956","0.0-1.0-634.0","0","0","75196","","null","","","null","70","","NaN","","","","","","","","","","","","","",""
"","response","","html-keyboard-response","471","829382","0.0-1.0-635.0-0.0","0","0","75196","","424","","","75","70","","","2","70","training","adjacent","FE","6","5","Q.jpg","M.jpg","0","0","1","",""
"","feedback","","html-keyboard-response","472","830386","0.0-1.0-636.0-0.0","0","0","75196","","null","","","null","70","","","","","","","","","","","","","","","",""
"","ITI","","html-keyboard-response","473","831389","0.0-1.0-639.0","0","0","75196","","null","","","null","70","","","","","","","","","","","","","","","NaN",""
"","S1","","html-keyboard-response","474","831541","0.0-1.0-641.0","0","0","75196","","null","","","null","71","","","","","","","","","","","","","","","",""
"","ISI","","html-keyboard-response","475","833544","0.0-1.0-642.0","0","0","75196","","null","","","null","71","NaN","","","","","","","","","","","","","","",""
"","S2","","html-keyboard-response","476","833698","0.0-1.0-643.0","0","0","75196","","null","","","null","71","","NaN","","","","","","","","","","","","","",""
"","response","","html-keyboard-response","477","833783","0.0-1.0-644.0-0.0","0","0","75196","","83","","","75","71","","","2","71","training","adjacent","FE","6","5","Q.jpg","M.jpg","0","0","1","",""
"","feedback","","html-keyboard-response","478","834786","0.0-1.0-645.0-0.0","0","0","75196","","null","","","null","71","","","","","","","","","","","","","","","",""
"","ITI","","html-keyboard-response","479","835789","0.0-1.0-648.0","0","0","75196","","null","","","null","71","","","","","","","","","","","","","","","NaN",""
"","S1","","html-keyboard-response","480","835941","0.0-1.0-650.0","0","0","75196","","null","","","null","72","","","","","","","","","","","","","","","",""
"","ISI","","html-keyboard-response","481","837944","0.0-1.0-651.0","0","0","75196","","null","","","null","72","NaN","","","","","","","","","","","","","","",""
"","S2","","html-keyboard-response","482","838097","0.0-1.0-652.0","0","0","75196","","null","","","null","72","","NaN","","","","","","","","","","","","","",""
"","response","","html-keyboard-response","483","838239","0.0-1.0-653.0-0.0","0","0","75196","","140","","","68","72","","","2","72","training","adjacent","GF","7","6","P.jpg","Q.jpg","1","0","0","",""
"","feedback","","html-keyboard-response","484","839242","0.0-1.0-654.0-0.0","0","0","75196","","null","","","null","72","","","","","","","","","","","","","","","",""
"","time_out","","html-keyboard-response","485","841245","0.0-1.0-656.0-0.0","0","0","75196","","null","","","null","72","","","","","","","","","","","","","","","",""
"","ITI","","html-keyboard-response","486","842248","0.0-1.0-657.0","0","0","75196","","null","","","null","72","","","","","","","","","","","","","","","NaN",""
"","S1","","html-keyboard-response","487","842401","0.0-1.0-659.0","0","0","75196","","null","","","null","73","","","","","","","","","","","","","","","",""
"","ISI","","html-keyboard-response","488","844402","0.0-1.0-660.0","0","0","75196","","null","","","null","73","NaN","","","","","","","","","","","","","","",""
"","S2","","html-keyboard-response","489","844556","0.0-1.0-661.0","0","0","75196","","null","","","null","73","","NaN","","","","","","","","","","","","","",""
"","response","","html-keyboard-response","490","844743","0.0-1.0-662.0-0.0","0","0","75196","","184","","","75","73","","","2","73","training","adjacent","BA","2","1","N.jpg","R.jpg","0","0","1","",""
"","feedback","","html-keyboard-response","491","845746","0.0-1.0-663.0-0.0","0","0","75196","","null","","","null","73","","","","","","","","","","","","","","","",""
"","ITI","","html-keyboard-response","492","846749","0.0-1.0-666.0","0","0","75196","","null","","","null","73","","","","","","","","","","","","","","","NaN",""
"","S1","","html-keyboard-response","493","846902","0.0-1.0-668.0","0","0","75196","","null","","","null","74","","","","","","","","","","","","","","","",""
"","ISI","","html-keyboard-response","494","848906","0.0-1.0-669.0","0","0","75196","","null","","","null","74","NaN","","","","","","","","","","","","","","",""
"","S2","","html-keyboard-response","495","849059","0.0-1.0-670.0","0","0","75196","","null","","","null","74","","NaN","","","","","","","","","","","","","",""
"","response","","html-keyboard-response","496","849166","0.0-1.0-671.0-0.0","0","0","75196","","105","","","75","74","","","2","74","training","adjacent","DE","4","5","O.jpg","M.jpg","0","1","0","",""
"","feedback","","html-keyboard-response","497","850170","0.0-1.0-672.0-0.0","0","0","75196","","null","","","null","74","","","","","","","","","","","","","","","",""
"","time_out","","html-keyboard-response","498","852172","0.0-1.0-674.0-0.0","0","0","75196","","null","","","null","74","","","","","","","","","","","","","","","",""
"","ITI","","html-keyboard-response","499","853175","0.0-1.0-675.0","0","0","75196","","null","","","null","74","","","","","","","","","","","","","","","NaN",""
"","S1","","html-keyboard-response","500","853328","0.0-1.0-677.0","0","0","75196","","null","","","null","75","","","","","","","","","","","","","","","",""
"","ISI","","html-keyboard-response","501","855331","0.0-1.0-678.0","0","0","75196","","355","","","75","75","k","","","","","","","","","","","","","","",""
"","S2","","html-keyboard-response","502","855484","0.0-1.0-679.0","0","0","75196","","null","","","null","75","","NaN","","","","","","","","","","","","","",""
"","response","","html-keyboard-response","503","855591","0.0-1.0-680.0-0.0","0","0","75196","","105","","","75","75","","","2","75","training","adjacent","CD","3","4","L.jpg","O.jpg","0","1","0","",""
"","feedback","","html-keyboard-response","504","856595","0.0-1.0-681.0-0.0","0","0","75196","","null","","","null","75","","","","","","","","","","","","","","","",""
"","time_out","","html-keyboard-response","505","858598","0.0-1.0-683.0-0.0","0","0","75196","","null","","","null","75","","","","","","","","","","","","","","","",""
"","ITI","","html-keyboard-response","506","859601","0.0-1.0-684.0","0","0","75196","","null","","","null","75","","","","","","","","","","","","","","","NaN",""
"","S1","","html-keyboard-response","507","859754","0.0-1.0-686.0","0","0","75196","","null","","","null","76","","","","","","","","","","","","","","","",""
"","ISI","","html-keyboard-response","508","861757","0.0-1.0-687.0","0","0","75196","","null","","","null","76","NaN","","","","","","","","","","","","","","",""
"","S2","","html-keyboard-response","509","861911","0.0-1.0-688.0","0","0","75196","","null","","","null","76","","NaN","","","","","","","","","","","","","",""
"","response","","html-keyboard-response","510","862326","0.0-1.0-689.0-0.0","0","0","75196","","412","","","68","76","","","2","76","training","adjacent","GF","7","6","P.jpg","Q.jpg","1","0","0","",""
"","feedback","","html-keyboard-response","511","863330","0.0-1.0-690.0-0.0","0","0","75196","","null","","","null","76","","","","","","","","","","","","","","","",""
"","time_out","","html-keyboard-response","512","865332","0.0-1.0-692.0-0.0","0","0","75196","","null","","","null","76","","","","","","","","","","","","","","","",""
"","ITI","","html-keyboard-response","513","866335","0.0-1.0-693.0","0","0","75196","","null","","","null","76","","","","","","","","","","","","","","","NaN",""
"","S1","","html-keyboard-response","514","866487","0.0-1.0-695.0","0","0","75196","","null","","","null","77","","","","","","","","","","","","","","","",""
"","ISI","","html-keyboard-response","515","868489","0.0-1.0-696.0","0","0","75196","","null","","","null","77","NaN","","","","","","","","","","","","","","",""
"","S2","","html-keyboard-response","516","868643","0.0-1.0-697.0","0","0","75196","","null","","","null","77","","NaN","","","","","","","","","","","","","",""
"","response","","html-keyboard-response","517","868791","0.0-1.0-698.0-0.0","0","0","75196","","145","","","75","77","","","2","77","training","adjacent","BC","2","3","N.jpg","L.jpg","0","1","0","",""
"","feedback","","html-keyboard-response","518","869798","0.0-1.0-699.0-0.0","0","0","75196","","null","","","null","77","","","","","","","","","","","","","","","",""
"","time_out","","html-keyboard-response","519","871800","0.0-1.0-701.0-0.0","0","0","75196","","null","","","null","77","","","","","","","","","","","","","","","",""
"","ITI","","html-keyboard-response","520","872803","0.0-1.0-702.0","0","0","75196","","null","","","null","77","","","","","","","","","","","","","","","NaN",""
"","S1","","html-keyboard-response","521","872956","0.0-1.0-704.0","0","0","75196","","null","","","null","78","","","","","","","","","","","","","","","",""
"","ISI","","html-keyboard-response","522","874959","0.0-1.0-705.0","0","0","75196","","null","","","null","78","NaN","","","","","","","","","","","","","","",""
"","S2","","html-keyboard-response","523","875112","0.0-1.0-706.0","0","0","75196","","null","","","null","78","","NaN","","","","","","","","","","","","","",""
"","response","","html-keyboard-response","524","875230","0.0-1.0-707.0-0.0","0","0","75196","","116","","","68","78","","","2","78","training","adjacent","CB","3","2","L.jpg","N.jpg","1","0","0","",""
"","feedback","","html-keyboard-response","525","876233","0.0-1.0-708.0-0.0","0","0","75196","","null","","","null","78","","","","","","","","","","","","","","","",""
"","time_out","","html-keyboard-response","526","878237","0.0-1.0-710.0-0.0","0","0","75196","","null","","","null","78","","","","","","","","","","","","","","","",""
"","ITI","","html-keyboard-response","527","879240","0.0-1.0-711.0","0","0","75196","","null","","","null","78","","","","","","","","","","","","","","","NaN",""
"","S1","","html-keyboard-response","528","879394","0.0-1.0-713.0","0","0","75196","","null","","","null","79","","","","","","","","","","","","","","","",""
"","ISI","","html-keyboard-response","529","881397","0.0-1.0-714.0","0","0","75196","","null","","","null","79","NaN","","","","","","","","","","","","","","",""
"","S2","","html-keyboard-response","530","881550","0.0-1.0-715.0","0","0","75196","","null","","","null","79","","NaN","","","","","","","","","","","","","",""
"","response","","html-keyboard-response","531","881735","0.0-1.0-716.0-0.0","0","0","75196","","182","","","75","79","","","2","79","training","adjacent","EF","5","6","M.jpg","Q.jpg","0","1","0","",""
"","feedback","","html-keyboard-response","532","882738","0.0-1.0-717.0-0.0","0","0","75196","","null","","","null","79","","","","","","","","","","","","","","","",""
"","time_out","","html-keyboard-response","533","884741","0.0-1.0-719.0-0.0","0","0","75196","","null","","","null","79","","","","","","","","","","","","","","","",""
"","ITI","","html-keyboard-response","534","885744","0.0-1.0-720.0","0","0","75196","","null","","","null","79","","","","","","","","","","","","","","","NaN",""
"","S1","","html-keyboard-response","535","885897","0.0-1.0-722.0","0","0","75196","","null","","","null","80","","","","","","","","","","","","","","","",""
"","ISI","","html-keyboard-response","536","887899","0.0-1.0-723.0","0","0","75196","","null","","","null","80","NaN","","","","","","","","","","","","","","",""
"","S2","","html-keyboard-response","537","888051","0.0-1.0-724.0","0","0","75196","","null","","","null","80","","NaN","","","","","","","","","","","","","",""
"","response","","html-keyboard-response","538","888166","0.0-1.0-725.0-0.0","0","0","75196","","113","","","75","80","","","2","80","training","adjacent","FE","6","5","Q.jpg","M.jpg","0","0","1","",""
"","feedback","","html-keyboard-response","539","889170","0.0-1.0-726.0-0.0","0","0","75196","","null","","","null","80","","","","","","","","","","","","","","","",""
"","ITI","","html-keyboard-response","540","890173","0.0-1.0-729.0","0","0","75196","","null","","","null","80","","","","","","","","","","","","","","","NaN",""
"","S1","","html-keyboard-response","541","890325","0.0-1.0-731.0","0","0","75196","","null","","","null","81","","","","","","","","","","","","","","","",""
"","ISI","","html-keyboard-response","542","892329","0.0-1.0-732.0","0","0","75196","","null","","","null","81","NaN","","","","","","","","","","","","","","",""
"","S2","","html-keyboard-response","543","892483","0.0-1.0-733.0","0","0","75196","","null","","","null","81","","NaN","","","","","","","","","","","","","",""
"","response","","html-keyboard-response","544","893111","0.0-1.0-734.0-0.0","0","0","75196","","625","","","75","81","","","2","81","training","adjacent","AB","1","2","R.jpg","N.jpg","0","1","0","",""
"","feedback","","html-keyboard-response","545","894114","0.0-1.0-735.0-0.0","0","0","75196","","null","","","null","81","","","","","","","","","","","","","","","",""
"","time_out","","html-keyboard-response","546","896117","0.0-1.0-737.0-0.0","0","0","75196","","null","","","null","81","","","","","","","","","","","","","","","",""
"","ITI","","html-keyboard-response","547","897119","0.0-1.0-738.0","0","0","75196","","null","","","null","81","","","","","","","","","","","","","","","NaN",""
"","S1","","html-keyboard-response","548","897272","0.0-1.0-740.0","0","0","75196","","null","","","null","82","","","","","","","","","","","","","","","",""
"","ISI","","html-keyboard-response","549","899275","0.0-1.0-741.0","0","0","75196","","null","","","null","82","NaN","","","","","","","","","","","","","","",""
"","S2","","html-keyboard-response","550","899429","0.0-1.0-742.0","0","0","75196","","null","","","null","82","","NaN","","","","","","","","","","","","","",""
"","response","","html-keyboard-response","551","900382","0.0-1.0-743.0-0.0","0","0","75196","","951","","","68","82","","","2","82","training","adjacent","BA","2","1","N.jpg","R.jpg","1","0","0","",""
"","feedback","","html-keyboard-response","552","901386","0.0-1.0-744.0-0.0","0","0","75196","","null","","","null","82","","","","","","","","","","","","","","","",""
"","time_out","","html-keyboard-response","553","903388","0.0-1.0-746.0-0.0","0","0","75196","","null","","","null","82","","","","","","","","","","","","","","","",""
"","ITI","","html-keyboard-response","554","904390","0.0-1.0-747.0","0","0","75196","","null","","","null","82","","","","","","","","","","","","","","","NaN",""
"","S1","","html-keyboard-response","555","904542","0.0-1.0-749.0","0","0","75196","","null","","","null","83","","","","","","","","","","","","","","","",""
"","ISI","","html-keyboard-response","556","906546","0.0-1.0-750.0","0","0","75196","","null","","","null","83","NaN","","","","","","","","","","","","","","",""
"","S2","","html-keyboard-response","557","906699","0.0-1.0-751.0","0","0","75196","","null","","","null","83","","NaN","","","","","","","","","","","","","",""
"","response","","html-keyboard-response","558","907223","0.0-1.0-752.0-0.0","0","0","75196","","521","","","75","83","","","2","83","training","adjacent","FG","6","7","Q.jpg","P.jpg","0","1","0","",""
"","feedback","","html-keyboard-response","559","908226","0.0-1.0-753.0-0.0","0","0","75196","","null","","","null","83","","","","","","","","","","","","","","","",""
"","time_out","","html-keyboard-response","560","910229","0.0-1.0-755.0-0.0","0","0","75196","","null","","","null","83","","","","","","","","","","","","","","","",""
"","ITI","","html-keyboard-response","561","911232","0.0-1.0-756.0","0","0","75196","","null","","","null","83","","","","","","","","","","","","","","","NaN",""
"","S1","","html-keyboard-response","562","911385","0.0-1.0-758.0","0","0","75196","","null","","","null","84","","","","","","","","","","","","","","","",""
"","ISI","","html-keyboard-response","563","913387","0.0-1.0-759.0","0","0","75196","","null","","","null","84","NaN","","","","","","","","","","","","","","",""
"","S2","","html-keyboard-response","564","913539","0.0-1.0-760.0","0","0","75196","","null","","","null","84","","NaN","","","","","","","","","","","","","",""
"","response","","html-keyboard-response","565","913742","0.0-1.0-761.0-0.0","0","0","75196","","201","","","68","84","","","2","84","training","adjacent","EF","5","6","M.jpg","Q.jpg","1","1","1","",""
"","feedback","","html-keyboard-response","566","914745","0.0-1.0-762.0-0.0","0","0","75196","","null","","","null","84","","","","","","","","","","","","","","","",""
"","ITI","","html-keyboard-response","567","915748","0.0-1.0-765.0","0","0","75196","","null","","","null","84","","","","","","","","","","","","","","","NaN",""
"","S1","","html-keyboard-response","568","915901","0.0-1.0-767.0","0","0","75196","","null","","","null","85","","","","","","","","","","","","","","","",""
"","ISI","","html-keyboard-response","569","917905","0.0-1.0-768.0","0","0","75196","","null","","","null","85","NaN","","","","","","","","","","","","","","",""
"","S2","","html-keyboard-response","570","918058","0.0-1.0-769.0","0","0","75196","","null","","","null","85","","NaN","","","","","","","","","","","","","",""
"","response","","html-keyboard-response","571","918598","0.0-1.0-770.0-0.0","0","0","75196","","538","","","75","85","","","2","85","training","adjacent","FG","6","7","Q.jpg","P.jpg","0","1","0","",""
"","feedback","","html-keyboard-response","572","919602","0.0-1.0-771.0-0.0","0","0","75196","","null","","","null","85","","","","","","","","","","","","","","","",""
"","time_out","","html-keyboard-response","573","921605","0.0-1.0-773.0-0.0","0","0","75196","","null","","","null","85","","","","","","","","","","","","","","","",""
"","ITI","","html-keyboard-response","574","922607","0.0-1.0-774.0","0","0","75196","","null","","","null","85","","","","","","","","","","","","","","","NaN",""
"","S1","","html-keyboard-response","575","922760","0.0-1.0-776.0","0","0","75196","","null","","","null","86","","","","","","","","","","","","","","","",""
"","ISI","","html-keyboard-response","576","924764","0.0-1.0-777.0","0","0","75196","","null","","","null","86","NaN","","","","","","","","","","","","","","",""
"","S2","","html-keyboard-response","577","924917","0.0-1.0-778.0","0","0","75196","","null","","","null","86","","NaN","","","","","","","","","","","","","",""
"","response","","html-keyboard-response","578","925086","0.0-1.0-779.0-0.0","0","0","75196","","166","","","75","86","","","2","86","training","adjacent","DE","4","5","O.jpg","M.jpg","0","1","0","",""
