"success","ttype","start_time","trial_type","trial_index","time_elapsed","internal_node_id","warning","missed_checkup","PID","view_history","rt","responses","repeat_instructions","key_press","index","keypress_isi","keypress_S2","block","trial_num","phase","group_type","pair_type","S1_stim","S2_stim","S1_img","S2_img","S1_chosen","S1_higher","accuracy","keypress_iti","total_bonus_tally"
"true","full_screen","d04142023hr1240","fullscreen","0","6354","0.0-0.0","0","0","75500","","","","","","","","","","","","","","","","","","","","","",""
"","instructions","","instructions","1","38066","0.0-1.0-0.0-0.0","0","0","75500","[{""page_index"":0,""viewing_time"":4065},{""page_index"":1,""viewing_time"":20320},{""page_index"":2,""viewing_time"":5674},{""page_index"":3,""viewing_time"":1650}]","31710","","","","","","","","","","","","","","","","","","","",""
"","comprehension_check","","survey-multi-choice","2","48905","0.0-1.0-0.0-1.0","0","0","75500","","10834","{""Q0"":""True"",""Q1"":""D"",""Q2"":""Only when the screen 'MAKE A CHOICE' is shown"",""Q3"":""Green mark"",""Q4"":""either D or K""}","1","","","","","","","","","","","","","","","","","",""
"","missed_instruction_checkup","","html-keyboard-response","3","50425","0.0-1.0-0.0-2.0-0.0","0","1","75500","","1515","","","32","","","","","","","","","","","","","","","","",""
"","instructions","","instructions","4","68842","0.0-1.0-0.1-0.1","0","0","75500","[{""page_index"":0,""viewing_time"":2085},{""page_index"":1,""viewing_time"":13178},{""page_index"":2,""viewing_time"":1148},{""page_index"":3,""viewing_time"":798},{""page_index"":2,""viewing_time"":848},{""page_index"":3,""viewing_time"":358}]","18415","","","","","","","","","","","","","","","","","","","",""
"","comprehension_check","","survey-multi-choice","5","77261","0.0-1.0-0.1-1.1","0","0","75500","","8413","{""Q0"":""True"",""Q1"":""D"",""Q2"":""Once the second image appears and while the screen 'MAKE A CHOICE' is shown"",""Q3"":""Green mark"",""Q4"":""either D or K""}","0","","","","","","","","","","","","","","","","","",""
"","start_exp","","html-keyboard-response","6","78159","0.0-1.0-1.0","0","0","75500","","892","","","32","","","","","","","","","","","","","","","","",""
"","S1","","html-keyboard-response","7","78412","0.0-1.0-2.0","0","0","75500","","null","","","null","0","","","","","","","","","","","","","","","",""
"","ISI","","html-keyboard-response","8","79416","0.0-1.0-3.0","0","0","75500","","null","","","null","0","NaN","","","","","","","","","","","","","","",""
"","S2","","html-keyboard-response","9","79668","0.0-1.0-4.0","0","0","75500","","null","","","null","0","","NaN","","","","","","","","","","","","","",""
"","response","","html-keyboard-response","10","80164","0.0-1.0-5.0-0.0","0","0","75500","","494","","","75","0","","","1","0","training","adjacent","BA","2","1","M.jpg","L.jpg","0","0","1","",""
"","feedback","","html-keyboard-response","11","81167","0.0-1.0-6.0-0.0","0","0","75500","","null","","","null","0","","","","","","","","","","","","","","","",""
"","ITI","","html-keyboard-response","12","82169","0.0-1.0-9.0","0","0","75500","","null","","","null","0","","","","","","","","","","","","","","","NaN",""
"","S1","","html-keyboard-response","13","82423","0.0-1.0-11.0","0","0","75500","","null","","","null","1","","","","","","","","","","","","","","","",""
"","ISI","","html-keyboard-response","14","83427","0.0-1.0-12.0","0","0","75500","","null","","","null","1","NaN","","","","","","","","","","","","","","",""
"","S2","","html-keyboard-response","15","83681","0.0-1.0-13.0","0","0","75500","","null","","","null","1","","NaN","","","","","","","","","","","","","",""
"","response","","html-keyboard-response","16","84076","0.0-1.0-14.0-0.0","0","0","75500","","393","","","68","1","","","1","1","training","adjacent","EF","5","6","R.jpg","Q.jpg","1","1","1","",""
"","feedback","","html-keyboard-response","17","85111","0.0-1.0-15.0-0.0","0","0","75500","","null","","","null","1","","","","","","","","","","","","","","","",""
"","ITI","","html-keyboard-response","18","86118","0.0-1.0-18.0","0","0","75500","","null","","","null","1","","","","","","","","","","","","","","","NaN",""
"","S1","","html-keyboard-response","19","86371","0.0-1.0-20.0","0","0","75500","","null","","","null","2","","","","","","","","","","","","","","","",""
"","ISI","","html-keyboard-response","20","87373","0.0-1.0-21.0","0","0","75500","","null","","","null","2","NaN","","","","","","","","","","","","","","",""
"","S2","","html-keyboard-response","21","87626","0.0-1.0-22.0","0","0","75500","","null","","","null","2","","NaN","","","","","","","","","","","","","",""
"","response","","html-keyboard-response","22","87735","0.0-1.0-23.0-0.0","0","0","75500","","108","","","75","2","","","1","2","training","adjacent","GF","7","6","N.jpg","Q.jpg","0","0","1","",""
"","feedback","","html-keyboard-response","23","88737","0.0-1.0-24.0-0.0","0","0","75500","","null","","","null","2","","","","","","","","","","","","","","","",""
"","ITI","","html-keyboard-response","24","89740","0.0-1.0-27.0","0","0","75500","","null","","","null","2","","","","","","","","","","","","","","","NaN",""
"","S1","","html-keyboard-response","25","89993","0.0-1.0-29.0","0","0","75500","","null","","","null","3","","","","","","","","","","","","","","","",""
"","ISI","","html-keyboard-response","26","90995","0.0-1.0-30.0","0","0","75500","","null","","","null","3","NaN","","","","","","","","","","","","","","",""
"","S2","","html-keyboard-response","27","91249","0.0-1.0-31.0","0","0","75500","","null","","","null","3","","NaN","","","","","","","","","","","","","",""
"","response","","html-keyboard-response","28","91495","0.0-1.0-32.0-0.0","0","0","75500","","245","","","68","3","","","1","3","training","adjacent","BC","2","3","M.jpg","O.jpg","1","1","1","",""
"","feedback","","html-keyboard-response","29","92497","0.0-1.0-33.0-0.0","0","0","75500","","null","","","null","3","","","","","","","","","","","","","","","",""
"","ITI","","html-keyboard-response","30","93501","0.0-1.0-36.0","0","0","75500","","null","","","null","3","","","","","","","","","","","","","","","NaN",""
"","S1","","html-keyboard-response","31","93753","0.0-1.0-38.0","0","0","75500","","null","","","null","4","","","","","","","","","","","","","","","",""
"","ISI","","html-keyboard-response","32","94755","0.0-1.0-39.0","0","0","75500","","null","","","null","4","NaN","","","","","","","","","","","","","","",""
"","S2","","html-keyboard-response","33","95009","0.0-1.0-40.0","0","0","75500","","null","","","null","4","","NaN","","","","","","","","","","","","","",""
"","response","","html-keyboard-response","34","95506","0.0-1.0-41.0-0.0","0","0","75500","","495","","","68","4","","","1","4","training","adjacent","ED","5","4","R.jpg","P.jpg","1","0","0","",""
"","feedback","","html-keyboard-response","35","96510","0.0-1.0-42.0-0.0","0","0","75500","","null","","","null","4","","","","","","","","","","","","","","","",""
"","time_out","","html-keyboard-response","36","98513","0.0-1.0-44.0-0.0","0","0","75500","","null","","","null","4","","","","","","","","","","","","","","","",""
"","ITI","","html-keyboard-response","37","99516","0.0-1.0-45.0","0","0","75500","","null","","","null","4","","","","","","","","","","","","","","","NaN",""
"","S1","","html-keyboard-response","38","99770","0.0-1.0-47.0","0","0","75500","","null","","","null","5","","","","","","","","","","","","","","","",""
"","ISI","","html-keyboard-response","39","100772","0.0-1.0-48.0","0","0","75500","","null","","","null","5","NaN","","","","","","","","","","","","","","",""
"","S2","","html-keyboard-response","40","101026","0.0-1.0-49.0","0","0","75500","","null","","","null","5","","NaN","","","","","","","","","","","","","",""
"","response","","html-keyboard-response","41","101464","0.0-1.0-50.0-0.0","0","0","75500","","437","","","68","5","","","1","5","training","adjacent","CD","3","4","O.jpg","P.jpg","1","1","1","",""
"","feedback","","html-keyboard-response","42","102480","0.0-1.0-51.0-0.0","0","0","75500","","null","","","null","5","","","","","","","","","","","","","","","",""
"","ITI","","html-keyboard-response","43","103483","0.0-1.0-54.0","0","0","75500","","null","","","null","5","","","","","","","","","","","","","","","NaN",""
"","S1","","html-keyboard-response","44","103736","0.0-1.0-56.0","0","0","75500","","null","","","null","6","","","","","","","","","","","","","","","",""
"","ISI","","html-keyboard-response","45","104739","0.0-1.0-57.0","0","0","75500","","null","","","null","6","NaN","","","","","","","","","","","","","","",""
"","S2","","html-keyboard-response","46","104991","0.0-1.0-58.0","0","0","75500","","null","","","null","6","","NaN","","","","","","","","","","","","","",""
"","response","","html-keyboard-response","47","105298","0.0-1.0-59.0-0.0","0","0","75500","","304","","","68","6","","","1","6","training","adjacent","FE","6","5","Q.jpg","R.jpg","1","0","0","",""
"","feedback","","html-keyboard-response","48","106301","0.0-1.0-60.0-0.0","0","0","75500","","null","","","null","6","","","","","","","","","","","","","","","",""
"","time_out","","html-keyboard-response","49","108306","0.0-1.0-62.0-0.0","0","0","75500","","null","","","null","6","","","","","","","","","","","","","","","",""
"","ITI","","html-keyboard-response","50","109309","0.0-1.0-63.0","0","0","75500","","null","","","null","6","","","","","","","","","","","","","","","NaN",""
"","S1","","html-keyboard-response","51","109562","0.0-1.0-65.0","0","0","75500","","null","","","null","7","","","","","","","","","","","","","","","",""
"","ISI","","html-keyboard-response","52","110565","0.0-1.0-66.0","0","0","75500","","null","","","null","7","NaN","","","","","","","","","","","","","","",""
"","S2","","html-keyboard-response","53","110819","0.0-1.0-67.0","0","0","75500","","null","","","null","7","","NaN","","","","","","","","","","","","","",""
"","response","","html-keyboard-response","54","111597","0.0-1.0-68.0-0.0","0","0","75500","","776","","","75","7","","","1","7","training","adjacent","BA","2","1","M.jpg","L.jpg","0","0","1","",""
"","feedback","","html-keyboard-response","55","112600","0.0-1.0-69.0-0.0","0","0","75500","","null","","","null","7","","","","","","","","","","","","","","","",""
"","ITI","","html-keyboard-response","56","113603","0.0-1.0-72.0","0","0","75500","","null","","","null","7","","","","","","","","","","","","","","","NaN",""
"","S1","","html-keyboard-response","57","113857","0.0-1.0-74.0","0","0","75500","","null","","","null","8","","","","","","","","","","","","","","","",""
"","ISI","","html-keyboard-response","58","114860","0.0-1.0-75.0","0","0","75500","","null","","","null","8","NaN","","","","","","","","","","","","","","",""
"","S2","","html-keyboard-response","59","115114","0.0-1.0-76.0","0","0","75500","","null","","","null","8","","NaN","","","","","","","","","","","","","",""
"","response","","html-keyboard-response","60","115447","0.0-1.0-77.0-0.0","0","0","75500","","332","","","68","8","","","1","8","training","adjacent","ED","5","4","R.jpg","P.jpg","1","0","0","",""
"","feedback","","html-keyboard-response","61","116450","0.0-1.0-78.0-0.0","0","0","75500","","null","","","null","8","","","","","","","","","","","","","","","",""
"","time_out","","html-keyboard-response","62","118452","0.0-1.0-80.0-0.0","0","0","75500","","null","","","null","8","","","","","","","","","","","","","","","",""
"","ITI","","html-keyboard-response","63","119455","0.0-1.0-81.0","0","0","75500","","null","","","null","8","","","","","","","","","","","","","","","NaN",""
"","S1","","html-keyboard-response","64","119707","0.0-1.0-83.0","0","0","75500","","null","","","null","9","","","","","","","","","","","","","","","",""
"","ISI","","html-keyboard-response","65","120710","0.0-1.0-84.0","0","0","75500","","null","","","null","9","NaN","","","","","","","","","","","","","","",""
"","S2","","html-keyboard-response","66","120963","0.0-1.0-85.0","0","0","75500","","null","","","null","9","","NaN","","","","","","","","","","","","","",""
"","response","","html-keyboard-response","67","121233","0.0-1.0-86.0-0.0","0","0","75500","","269","","","68","9","","","1","9","training","adjacent","FE","6","5","Q.jpg","R.jpg","1","0","0","",""
"","feedback","","html-keyboard-response","68","122236","0.0-1.0-87.0-0.0","0","0","75500","","null","","","null","9","","","","","","","","","","","","","","","",""
"","time_out","","html-keyboard-response","69","124239","0.0-1.0-89.0-0.0","0","0","75500","","null","","","null","9","","","","","","","","","","","","","","","",""
"","ITI","","html-keyboard-response","70","125242","0.0-1.0-90.0","0","0","75500","","null","","","null","9","","","","","","","","","","","","","","","NaN",""
"","S1","","html-keyboard-response","71","125496","0.0-1.0-92.0","0","0","75500","","null","","","null","10","","","","","","","","","","","","","","","",""
"","ISI","","html-keyboard-response","72","126499","0.0-1.0-93.0","0","0","75500","","null","","","null","10","NaN","","","","","","","","","","","","","","",""
"","S2","","html-keyboard-response","73","126751","0.0-1.0-94.0","0","0","75500","","null","","","null","10","","NaN","","","","","","","","","","","","","",""
"","response","","html-keyboard-response","74","126906","0.0-1.0-95.0-0.0","0","0","75500","","154","","","75","10","","","1","10","training","adjacent","GF","7","6","N.jpg","Q.jpg","0","0","1","",""
"","feedback","","html-keyboard-response","75","127909","0.0-1.0-96.0-0.0","0","0","75500","","null","","","null","10","","","","","","","","","","","","","","","",""
"","ITI","","html-keyboard-response","76","128913","0.0-1.0-99.0","0","0","75500","","null","","","null","10","","","","","","","","","","","","","","","NaN",""
"","S1","","html-keyboard-response","77","129165","0.0-1.0-101.0","0","0","75500","","null","","","null","11","","","","","","","","","","","","","","","",""
"","ISI","","html-keyboard-response","78","130167","0.0-1.0-102.0","0","0","75500","","null","","","null","11","NaN","","","","","","","","","","","","","","",""
"","S2","","html-keyboard-response","79","130415","0.0-1.0-103.0","0","0","75500","","246","","","68","11","","d","1","11","training","adjacent","AB","1","2","L.jpg","M.jpg","1","1","1","",""
"","feedback","","html-keyboard-response","80","131419","0.0-1.0-105.0-0.0","0","0","75500","","null","","","null","11","","","","","","","","","","","","","","","",""
"","ITI","","html-keyboard-response","81","132422","0.0-1.0-108.0","0","0","75500","","null","","","null","11","","","","","","","","","","","","","","","NaN",""
"","S1","","html-keyboard-response","82","132675","0.0-1.0-110.0","0","0","75500","","null","","","null","12","","","","","","","","","","","","","","","",""
"","ISI","","html-keyboard-response","83","133678","0.0-1.0-111.0","0","0","75500","","null","","","null","12","NaN","","","","","","","","","","","","","","",""
"","S2","","html-keyboard-response","84","133931","0.0-1.0-112.0","0","0","75500","","null","","","null","12","","NaN","","","","","","","","","","","","","",""
"","response","","html-keyboard-response","85","134057","0.0-1.0-113.0-0.0","0","0","75500","","124","","","75","12","","","1","12","training","adjacent","ED","5","4","R.jpg","P.jpg","0","0","1","",""
"","feedback","","html-keyboard-response","86","135060","0.0-1.0-114.0-0.0","0","0","75500","","null","","","null","12","","","","","","","","","","","","","","","",""
"","ITI","","html-keyboard-response","87","136063","0.0-1.0-117.0","0","0","75500","","null","","","null","12","","","","","","","","","","","","","","","NaN",""
"","S1","","html-keyboard-response","88","136316","0.0-1.0-119.0","0","0","75500","","null","","","null","13","","","","","","","","","","","","","","","",""
"","ISI","","html-keyboard-response","89","137318","0.0-1.0-120.0","0","0","75500","","null","","","null","13","NaN","","","","","","","","","","","","","","",""
"","S2","","html-keyboard-response","90","137570","0.0-1.0-121.0","0","0","75500","","null","","","null","13","","NaN","","","","","","","","","","","","","",""
"","response","","html-keyboard-response","91","137696","0.0-1.0-122.0-0.0","0","0","75500","","124","","","75","13","","","1","13","training","adjacent","FG","6","7","Q.jpg","N.jpg","0","1","0","",""
"","feedback","","html-keyboard-response","92","138698","0.0-1.0-123.0-0.0","0","0","75500","","null","","","null","13","","","","","","","","","","","","","","","",""
"","time_out","","html-keyboard-response","93","140701","0.0-1.0-125.0-0.0","0","0","75500","","null","","","null","13","","","","","","","","","","","","","","","",""
"","ITI","","html-keyboard-response","94","141705","0.0-1.0-126.0","0","0","75500","","null","","","null","13","","","","","","","","","","","","","","","NaN",""
"","S1","","html-keyboard-response","95","141958","0.0-1.0-128.0","0","0","75500","","null","","","null","14","","","","","","","","","","","","","","","",""
"","ISI","","html-keyboard-response","96","142961","0.0-1.0-129.0","0","0","75500","","null","","","null","14","NaN","","","","","","","","","","","","","","",""
"","S2","","html-keyboard-response","97","143215","0.0-1.0-130.0","0","0","75500","","null","","","null","14","","NaN","","","","","","","","","","","","","",""
"","response","","html-keyboard-response","98","143616","0.0-1.0-131.0-0.0","0","0","75500","","400","","","68","14","","","1","14","training","adjacent","BC","2","3","M.jpg","O.jpg","1","1","1","",""
"","feedback","","html-keyboard-response","99","144625","0.0-1.0-132.0-0.0","0","0","75500","","null","","","null","14","","","","","","","","","","","","","","","",""
"","ITI","","html-keyboard-response","100","145628","0.0-1.0-135.0","0","0","75500","","null","","","null","14","","","","","","","","","","","","","","","NaN",""
"","S1","","html-keyboard-response","101","145880","0.0-1.0-137.0","0","0","75500","","null","","","null","15","","","","","","","","","","","","","","","",""
"","ISI","","html-keyboard-response","102","146884","0.0-1.0-138.0","0","0","75500","","null","","","null","15","NaN","","","","","","","","","","","","","","",""
"","S2","","html-keyboard-response","103","147138","0.0-1.0-139.0","0","0","75500","","null","","","null","15","","NaN","","","","","","","","","","","","","",""
"","response","","html-keyboard-response","104","147366","0.0-1.0-140.0-0.0","0","0","75500","","225","","","75","15","","","1","15","training","adjacent","CD","3","4","O.jpg","P.jpg","0","1","0","",""
"","feedback","","html-keyboard-response","105","148368","0.0-1.0-141.0-0.0","0","0","75500","","null","","","null","15","","","","","","","","","","","","","","","",""
"","time_out","","html-keyboard-response","106","150371","0.0-1.0-143.0-0.0","0","0","75500","","null","","","null","15","","","","","","","","","","","","","","","",""
"","ITI","","html-keyboard-response","107","151373","0.0-1.0-144.0","0","0","75500","","null","","","null","15","","","","","","","","","","","","","","","NaN",""
"","S1","","html-keyboard-response","108","151626","0.0-1.0-146.0","0","0","75500","","null","","","null","16","","","","","","","","","","","","","","","",""
"","ISI","","html-keyboard-response","109","152629","0.0-1.0-147.0","0","0","75500","","null","","","null","16","NaN","","","","","","","","","","","","","","",""
"","S2","","html-keyboard-response","110","152883","0.0-1.0-148.0","0","0","75500","","null","","","null","16","","NaN","","","","","","","","","","","","","",""
"","response","","html-keyboard-response","111","153003","0.0-1.0-149.0-0.0","0","0","75500","","119","","","68","16","","","1","16","training","adjacent","AB","1","2","L.jpg","M.jpg","1","1","1","",""
"","feedback","","html-keyboard-response","112","154007","0.0-1.0-150.0-0.0","0","0","75500","","null","","","null","16","","","","","","","","","","","","","","","",""
"","ITI","","html-keyboard-response","113","155009","0.0-1.0-153.0","0","0","75500","","null","","","null","16","","","","","","","","","","","","","","","NaN",""
"","S1","","html-keyboard-response","114","155262","0.0-1.0-155.0","0","0","75500","","null","","","null","17","","","","","","","","","","","","","","","",""
"","ISI","","html-keyboard-response","115","156265","0.0-1.0-156.0","0","0","75500","","null","","","null","17","NaN","","","","","","","","","","","","","","",""
"","S2","","html-keyboard-response","116","156518","0.0-1.0-157.0","0","0","75500","","null","","","null","17","","NaN","","","","","","","","","","","","","",""
"","response","","html-keyboard-response","117","156925","0.0-1.0-158.0-0.0","0","0","75500","","405","","","68","17","","","1","17","training","adjacent","DE","4","5","P.jpg","R.jpg","1","1","1","",""
"","feedback","","html-keyboard-response","118","157928","0.0-1.0-159.0-0.0","0","0","75500","","null","","","null","17","","","","","","","","","","","","","","","",""
"","ITI","","html-keyboard-response","119","158932","0.0-1.0-162.0","0","0","75500","","null","","","null","17","","","","","","","","","","","","","","","NaN",""
"","S1","","html-keyboard-response","120","159186","0.0-1.0-164.0","0","0","75500","","null","","","null","18","","","","","","","","","","","","","","","",""
"","ISI","","html-keyboard-response","121","160189","0.0-1.0-165.0","0","0","75500","","null","","","null","18","NaN","","","","","","","","","","","","","","",""
"","S2","","html-keyboard-response","122","160443","0.0-1.0-166.0","0","0","75500","","null","","","null","18","","NaN","","","","","","","","","","","","","",""
"","response","","html-keyboard-response","123","160904","0.0-1.0-167.0-0.0","0","0","75500","","458","","","68","18","","","1","18","training","adjacent","DC","4","3","P.jpg","O.jpg","1","0","0","",""
"","feedback","","html-keyboard-response","124","161918","0.0-1.0-168.0-0.0","0","0","75500","","null","","","null","18","","","","","","","","","","","","","","","",""
"","time_out","","html-keyboard-response","125","163921","0.0-1.0-170.0-0.0","0","0","75500","","null","","","null","18","","","","","","","","","","","","","","","",""
"","ITI","","html-keyboard-response","126","164923","0.0-1.0-171.0","0","0","75500","","null","","","null","18","","","","","","","","","","","","","","","NaN",""
"","S1","","html-keyboard-response","127","165174","0.0-1.0-173.0","0","0","75500","","null","","","null","19","","","","","","","","","","","","","","","",""
"","ISI","","html-keyboard-response","128","166176","0.0-1.0-174.0","0","0","75500","","null","","","null","19","NaN","","","","","","","","","","","","","","",""
"","S2","","html-keyboard-response","129","166430","0.0-1.0-175.0","0","0","75500","","null","","","null","19","","NaN","","","","","","","","","","","","","",""
"","response","","html-keyboard-response","130","166610","0.0-1.0-176.0-0.0","0","0","75500","","176","","","75","19","","","1","19","training","adjacent","BA","2","1","M.jpg","L.jpg","0","0","1","",""
"","feedback","","html-keyboard-response","131","167614","0.0-1.0-177.0-0.0","0","0","75500","","null","","","null","19","","","","","","","","","","","","","","","",""
"","ITI","","html-keyboard-response","132","168617","0.0-1.0-180.0","0","0","75500","","null","","","null","19","","","","","","","","","","","","","","","NaN",""
"","S1","","html-keyboard-response","133","168869","0.0-1.0-182.0","0","0","75500","","null","","","null","20","","","","","","","","","","","","","","","",""
"","ISI","","html-keyboard-response","134","169871","0.0-1.0-183.0","0","0","75500","","null","","","null","20","NaN","","","","","","","","","","","","","","",""
"","S2","","html-keyboard-response","135","170124","0.0-1.0-184.0","0","0","75500","","null","","","null","20","","NaN","","","","","","","","","","","","","",""
"","response","","html-keyboard-response","136","170454","0.0-1.0-185.0-0.0","0","0","75500","","328","","","75","20","","","1","20","training","adjacent","GF","7","6","N.jpg","Q.jpg","0","0","1","",""
"","feedback","","html-keyboard-response","137","171457","0.0-1.0-186.0-0.0","0","0","75500","","null","","","null","20","","","","","","","","","","","","","","","",""
"","ITI","","html-keyboard-response","138","172460","0.0-1.0-189.0","0","0","75500","","null","","","null","20","","","","","","","","","","","","","","","NaN",""
"","S1","","html-keyboard-response","139","172713","0.0-1.0-191.0","0","0","75500","","null","","","null","21","","","","","","","","","","","","","","","",""
"","ISI","","html-keyboard-response","140","173714","0.0-1.0-192.0","0","0","75500","","null","","","null","21","NaN","","","","","","","","","","","","","","",""
"","S2","","html-keyboard-response","141","173967","0.0-1.0-193.0","0","0","75500","","null","","","null","21","","NaN","","","","","","","","","","","","","",""
"","response","","html-keyboard-response","142","174205","0.0-1.0-194.0-0.0","0","0","75500","","234","","","68","21","","","1","21","training","adjacent","CB","3","2","O.jpg","M.jpg","1","0","0","",""
"","feedback","","html-keyboard-response","143","175208","0.0-1.0-195.0-0.0","0","0","75500","","null","","","null","21","","","","","","","","","","","","","","","",""
"","time_out","","html-keyboard-response","144","177212","0.0-1.0-197.0-0.0","0","0","75500","","null","","","null","21","","","","","","","","","","","","","","","",""
"","ITI","","html-keyboard-response","145","178214","0.0-1.0-198.0","0","0","75500","","null","","","null","21","","","","","","","","","","","","","","","NaN",""
"","S1","","html-keyboard-response","146","178466","0.0-1.0-200.0","0","0","75500","","null","","","null","22","","","","","","","","","","","","","","","",""
"","ISI","","html-keyboard-response","147","179469","0.0-1.0-201.0","0","0","75500","","null","","","null","22","NaN","","","","","","","","","","","","","","",""
"","S2","","html-keyboard-response","148","179723","0.0-1.0-202.0","0","0","75500","","null","","","null","22","","NaN","","","","","","","","","","","","","",""
"","response","","html-keyboard-response","149","179968","0.0-1.0-203.0-0.0","0","0","75500","","241","","","75","22","","","1","22","training","adjacent","CB","3","2","O.jpg","M.jpg","0","0","1","",""
"","feedback","","html-keyboard-response","150","180971","0.0-1.0-204.0-0.0","0","0","75500","","null","","","null","22","","","","","","","","","","","","","","","",""
"","ITI","","html-keyboard-response","151","181975","0.0-1.0-207.0","0","0","75500","","null","","","null","22","","","","","","","","","","","","","","","NaN",""
"","S1","","html-keyboard-response","152","182227","0.0-1.0-209.0","0","0","75500","","null","","","null","23","","","","","","","","","","","","","","","",""
"","ISI","","html-keyboard-response","153","183230","0.0-1.0-210.0","0","0","75500","","null","","","null","23","NaN","","","","","","","","","","","","","","",""
"","S2","","html-keyboard-response","154","183484","0.0-1.0-211.0","0","0","75500","","null","","","null","23","","NaN","","","","","","","","","","","","","",""
"","response","","html-keyboard-response","155","184130","0.0-1.0-212.0-0.0","0","0","75500","","643","","","68","23","","","1","23","training","adjacent","BC","2","3","M.jpg","O.jpg","1","1","1","",""
"","feedback","","html-keyboard-response","156","185133","0.0-1.0-213.0-0.0","0","0","75500","","null","","","null","23","","","","","","","","","","","","","","","",""
"","ITI","","html-keyboard-response","157","186137","0.0-1.0-216.0","0","0","75500","","null","","","null","23","","","","","","","","","","","","","","","NaN",""
"","S1","","html-keyboard-response","158","186402","0.0-1.0-218.0","0","0","75500","","null","","","null","24","","","","","","","","","","","","","","","",""
"","ISI","","html-keyboard-response","159","187406","0.0-1.0-219.0","0","0","75500","","null","","","null","24","NaN","","","","","","","","","","","","","","",""
"","S2","","html-keyboard-response","160","187660","0.0-1.0-220.0","0","0","75500","","null","","","null","24","","NaN","","","","","","","","","","","","","",""
"","response","","html-keyboard-response","161","187936","0.0-1.0-221.0-0.0","0","0","75500","","275","","","75","24","","","1","24","training","adjacent","EF","5","6","R.jpg","Q.jpg","0","1","0","",""
"","feedback","","html-keyboard-response","162","188939","0.0-1.0-222.0-0.0","0","0","75500","","null","","","null","24","","","","","","","","","","","","","","","",""
"","time_out","","html-keyboard-response","163","190942","0.0-1.0-224.0-0.0","0","0","75500","","null","","","null","24","","","","","","","","","","","","","","","",""
"","ITI","","html-keyboard-response","164","191944","0.0-1.0-225.0","0","0","75500","","null","","","null","24","","","","","","","","","","","","","","","NaN",""
"","S1","","html-keyboard-response","165","192197","0.0-1.0-227.0","0","0","75500","","null","","","null","25","","","","","","","","","","","","","","","",""
"","ISI","","html-keyboard-response","166","193199","0.0-1.0-228.0","0","0","75500","","null","","","null","25","NaN","","","","","","","","","","","","","","",""
"","S2","","html-keyboard-response","167","193451","0.0-1.0-229.0","0","0","75500","","null","","","null","25","","NaN","","","","","","","","","","","","","",""
"","response","","html-keyboard-response","168","193920","0.0-1.0-230.0-0.0","0","0","75500","","466","","","75","25","","","1","25","training","adjacent","EF","5","6","R.jpg","Q.jpg","0","1","0","",""
"","feedback","","html-keyboard-response","169","194923","0.0-1.0-231.0-0.0","0","0","75500","","null","","","null","25","","","","","","","","","","","","","","","",""
"","time_out","","html-keyboard-response","170","196926","0.0-1.0-233.0-0.0","0","0","75500","","null","","","null","25","","","","","","","","","","","","","","","",""
"","ITI","","html-keyboard-response","171","197930","0.0-1.0-234.0","0","0","75500","","null","","","null","25","","","","","","","","","","","","","","","NaN",""
"","S1","","html-keyboard-response","172","198185","0.0-1.0-236.0","0","0","75500","","null","","","null","26","","","","","","","","","","","","","","","",""
"","ISI","","html-keyboard-response","173","199189","0.0-1.0-237.0","0","0","75500","","null","","","null","26","NaN","","","","","","","","","","","","","","",""
"","S2","","html-keyboard-response","174","199442","0.0-1.0-238.0","0","0","75500","","null","","","null","26","","NaN","","","","","","","","","","","","","",""
"","response","","html-keyboard-response","175","199820","0.0-1.0-239.0-0.0","0","0","75500","","376","","","75","26","","","1","26","training","adjacent","CD","3","4","O.jpg","P.jpg","0","1","0","",""
"","feedback","","html-keyboard-response","176","200823","0.0-1.0-240.0-0.0","0","0","75500","","null","","","null","26","","","","","","","","","","","","","","","",""
"","time_out","","html-keyboard-response","177","202825","0.0-1.0-242.0-0.0","0","0","75500","","null","","","null","26","","","","","","","","","","","","","","","",""
"","ITI","","html-keyboard-response","178","203827","0.0-1.0-243.0","0","0","75500","","null","","","null","26","","","","","","","","","","","","","","","NaN",""
"","S1","","html-keyboard-response","179","204080","0.0-1.0-245.0","0","0","75500","","null","","","null","27","","","","","","","","","","","","","","","",""
"","ISI","","html-keyboard-response","180","205083","0.0-1.0-246.0","0","0","75500","","null","","","null","27","NaN","","","","","","","","","","","","","","",""
"","S2","","html-keyboard-response","181","205336","0.0-1.0-247.0","0","0","75500","","null","","","null","27","","NaN","","","","","","","","","","","","","",""
"","response","","html-keyboard-response","182","205594","0.0-1.0-248.0-0.0","0","0","75500","","256","","","68","27","","","1","27","training","adjacent","DC","4","3","P.jpg","O.jpg","1","0","0","",""
"","feedback","","html-keyboard-response","183","206597","0.0-1.0-249.0-0.0","0","0","75500","","null","","","null","27","","","","","","","","","","","","","","","",""
"","time_out","","html-keyboard-response","184","208600","0.0-1.0-251.0-0.0","0","0","75500","","null","","","null","27","","","","","","","","","","","","","","","",""
"","ITI","","html-keyboard-response","185","209603","0.0-1.0-252.0","0","0","75500","","null","","","null","27","","","","","","","","","","","","","","","NaN",""
"","S1","","html-keyboard-response","186","209856","0.0-1.0-254.0","0","0","75500","","null","","","null","28","","","","","","","","","","","","","","","",""
"","ISI","","html-keyboard-response","187","210859","0.0-1.0-255.0","0","0","75500","","null","","","null","28","NaN","","","","","","","","","","","","","","",""
"","S2","","html-keyboard-response","188","211112","0.0-1.0-256.0","0","0","75500","","null","","","null","28","","NaN","","","","","","","","","","","","","",""
"","response","","html-keyboard-response","189","211630","0.0-1.0-257.0-0.0","0","0","75500","","516","","","68","28","","","1","28","training","adjacent","ED","5","4","R.jpg","P.jpg","1","0","0","",""
"","feedback","","html-keyboard-response","190","212632","0.0-1.0-258.0-0.0","0","0","75500","","null","","","null","28","","","","","","","","","","","","","","","",""
"","time_out","","html-keyboard-response","191","214634","0.0-1.0-260.0-0.0","0","0","75500","","null","","","null","28","","","","","","","","","","","","","","","",""
"","ITI","","html-keyboard-response","192","215638","0.0-1.0-261.0","0","0","75500","","null","","","null","28","","","","","","","","","","","","","","","NaN",""
"","S1","","html-keyboard-response","193","215892","0.0-1.0-263.0","0","0","75500","","null","","","null","29","","","","","","","","","","","","","","","",""
"","ISI","","html-keyboard-response","194","216895","0.0-1.0-264.0","0","0","75500","","null","","","null","29","NaN","","","","","","","","","","","","","","",""
"","S2","","html-keyboard-response","195","217147","0.0-1.0-265.0","0","0","75500","","null","","","null","29","","NaN","","","","","","","","","","","","","",""
"","response","","html-keyboard-response","196","217458","0.0-1.0-266.0-0.0","0","0","75500","","309","","","75","29","","","1","29","training","adjacent","EF","5","6","R.jpg","Q.jpg","0","1","0","",""
"","feedback","","html-keyboard-response","197","218461","0.0-1.0-267.0-0.0","0","0","75500","","null","","","null","29","","","","","","","","","","","","","","","",""
"","time_out","","html-keyboard-response","198","220464","0.0-1.0-269.0-0.0","0","0","75500","","null","","","null","29","","","","","","","","","","","","","","","",""
"","ITI","","html-keyboard-response","199","221467","0.0-1.0-270.0","0","0","75500","","null","","","null","29","","","","","","","","","","","","","","","NaN",""
"","S1","","html-keyboard-response","200","221719","0.0-1.0-272.0","0","0","75500","","null","","","null","30","","","","","","","","","","","","","","","",""
"","ISI","","html-keyboard-response","201","222721","0.0-1.0-273.0","0","0","75500","","null","","","null","30","NaN","","","","","","","","","","","","","","",""
"","S2","","html-keyboard-response","202","222974","0.0-1.0-274.0","0","0","75500","","null","","","null","30","","NaN","","","","","","","","","","","","","",""
"","response","","html-keyboard-response","203","223372","0.0-1.0-275.0-0.0","0","0","75500","","397","","","68","30","","","1","30","training","adjacent","DE","4","5","P.jpg","R.jpg","1","1","1","",""
"","feedback","","html-keyboard-response","204","224375","0.0-1.0-276.0-0.0","0","0","75500","","null","","","null","30","","","","","","","","","","","","","","","",""
"","ITI","","html-keyboard-response","205","225378","0.0-1.0-279.0","0","0","75500","","null","","","null","30","","","","","","","","","","","","","","","NaN",""
"","S1","","html-keyboard-response","206","225631","0.0-1.0-281.0","0","0","75500","","null","","","null","31","","","","","","","","","","","","","","","",""
"","ISI","","html-keyboard-response","207","226634","0.0-1.0-282.0","0","0","75500","","null","","","null","31","NaN","","","","","","","","","","","","","","",""
"","S2","","html-keyboard-response","208","226887","0.0-1.0-283.0","0","0","75500","","null","","","null","31","","NaN","","","","","","","","","","","","","",""
"","response","","html-keyboard-response","209","227153","0.0-1.0-284.0-0.0","0","0","75500","","265","","","68","31","","","1","31","training","adjacent","FE","6","5","Q.jpg","R.jpg","1","0","0","",""
"","feedback","","html-keyboard-response","210","228158","0.0-1.0-285.0-0.0","0","0","75500","","null","","","null","31","","","","","","","","","","","","","","","",""
"","time_out","","html-keyboard-response","211","230161","0.0-1.0-287.0-0.0","0","0","75500","","null","","","null","31","","","","","","","","","","","","","","","",""
"","ITI","","html-keyboard-response","212","231163","0.0-1.0-288.0","0","0","75500","","null","","","null","31","","","","","","","","","","","","","","","NaN",""
"","S1","","html-keyboard-response","213","231415","0.0-1.0-290.0","0","0","75500","","null","","","null","32","","","","","","","","","","","","","","","",""
"","ISI","","html-keyboard-response","214","232417","0.0-1.0-291.0","0","0","75500","","475","","","75","32","k","","","","","","","","","","","","","","",""
"","S2","","html-keyboard-response","215","232669","0.0-1.0-292.0","0","0","75500","","null","","","null","32","","NaN","","","","","","","","","","","","","",""
"","response","","html-keyboard-response","216","233143","0.0-1.0-293.0-0.0","0","0","75500","","472","","","75","32","","","1","32","training","adjacent","AB","1","2","L.jpg","M.jpg","0","1","0","",""
"","feedback","","html-keyboard-response","217","234146","0.0-1.0-294.0-0.0","0","0","75500","","null","","","null","32","","","","","","","","","","","","","","","",""
"","time_out","","html-keyboard-response","218","236148","0.0-1.0-296.0-0.0","0","0","75500","","null","","","null","32","","","","","","","","","","","","","","","",""
"","ITI","","html-keyboard-response","219","237151","0.0-1.0-297.0","0","0","75500","","null","","","null","32","","","","","","","","","","","","","","","NaN",""
"","S1","","html-keyboard-response","220","237405","0.0-1.0-299.0","0","0","75500","","null","","","null","33","","","","","","","","","","","","","","","",""
"","ISI","","html-keyboard-response","221","238408","0.0-1.0-300.0","0","0","75500","","null","","","null","33","NaN","","","","","","","","","","","","","","",""
"","S2","","html-keyboard-response","222","238661","0.0-1.0-301.0","0","0","75500","","null","","","null","33","","NaN","","","","","","","","","","","","","",""
"","response","","html-keyboard-response","223","239166","0.0-1.0-302.0-0.0","0","0","75500","","503","","","75","33","","","1","33","training","adjacent","GF","7","6","N.jpg","Q.jpg","0","0","1","",""
"","feedback","","html-keyboard-response","224","240168","0.0-1.0-303.0-0.0","0","0","75500","","null","","","null","33","","","","","","","","","","","","","","","",""
"","ITI","","html-keyboard-response","225","241170","0.0-1.0-306.0","0","0","75500","","null","","","null","33","","","","","","","","","","","","","","","NaN",""
"","S1","","html-keyboard-response","226","241422","0.0-1.0-308.0","0","0","75500","","null","","","null","34","","","","","","","","","","","","","","","",""
"","ISI","","html-keyboard-response","227","242426","0.0-1.0-309.0","0","0","75500","","null","","","null","34","NaN","","","","","","","","","","","","","","",""
"","S2","","html-keyboard-response","228","242679","0.0-1.0-310.0","0","0","75500","","null","","","null","34","","NaN","","","","","","","","","","","","","",""
"","response","","html-keyboard-response","229","242946","0.0-1.0-311.0-0.0","0","0","75500","","266","","","75","34","","","1","34","training","adjacent","FE","6","5","Q.jpg","R.jpg","0","0","1","",""
"","feedback","","html-keyboard-response","230","243950","0.0-1.0-312.0-0.0","0","0","75500","","null","","","null","34","","","","","","","","","","","","","","","",""
"","ITI","","html-keyboard-response","231","244953","0.0-1.0-315.0","0","0","75500","","null","","","null","34","","","","","","","","","","","","","","","NaN",""
"","S1","","html-keyboard-response","232","245207","0.0-1.0-317.0","0","0","75500","","null","","","null","35","","","","","","","","","","","","","","","",""
"","ISI","","html-keyboard-response","233","246211","0.0-1.0-318.0","0","0","75500","","null","","","null","35","NaN","","","","","","","","","","","","","","",""
"","S2","","html-keyboard-response","234","246463","0.0-1.0-319.0","0","0","75500","","null","","","null","35","","NaN","","","","","","","","","","","","","",""
"","response","","html-keyboard-response","235","246635","0.0-1.0-320.0-0.0","0","0","75500","","168","","","75","35","","","1","35","training","adjacent","FG","6","7","Q.jpg","N.jpg","0","1","0","",""
"","feedback","","html-keyboard-response","236","247639","0.0-1.0-321.0-0.0","0","0","75500","","null","","","null","35","","","","","","","","","","","","","","","",""
"","time_out","","html-keyboard-response","237","249643","0.0-1.0-323.0-0.0","0","0","75500","","null","","","null","35","","","","","","","","","","","","","","","",""
"","ITI","","html-keyboard-response","238","250647","0.0-1.0-324.0","0","0","75500","","null","","","null","35","","","","","","","","","","","","","","","NaN",""
"","S1","","html-keyboard-response","239","250901","0.0-1.0-326.0","0","0","75500","","null","","","null","36","","","","","","","","","","","","","","","",""
"","ISI","","html-keyboard-response","240","251903","0.0-1.0-327.0","0","0","75500","","null","","","null","36","NaN","","","","","","","","","","","","","","",""
"","S2","","html-keyboard-response","241","252156","0.0-1.0-328.0","0","0","75500","","null","","","null","36","","NaN","","","","","","","","","","","","","",""
"","response","","html-keyboard-response","242","252641","0.0-1.0-329.0-0.0","0","0","75500","","483","","","68","36","","","1","36","training","adjacent","CD","3","4","O.jpg","P.jpg","1","1","1","",""
"","feedback","","html-keyboard-response","243","253645","0.0-1.0-330.0-0.0","0","0","75500","","null","","","null","36","","","","","","","","","","","","","","","",""
"","ITI","","html-keyboard-response","244","254649","0.0-1.0-333.0","0","0","75500","","null","","","null","36","","","","","","","","","","","","","","","NaN",""
"","S1","","html-keyboard-response","245","254903","0.0-1.0-335.0","0","0","75500","","null","","","null","37","","","","","","","","","","","","","","","",""
"","ISI","","html-keyboard-response","246","255907","0.0-1.0-336.0","0","0","75500","","null","","","null","37","NaN","","","","","","","","","","","","","","",""
"","S2","","html-keyboard-response","247","256161","0.0-1.0-337.0","0","0","75500","","null","","","null","37","","NaN","","","","","","","","","","","","","",""
"","response","","html-keyboard-response","248","256520","0.0-1.0-338.0-0.0","0","0","75500","","356","","","68","37","","","1","37","training","adjacent","DC","4","3","P.jpg","O.jpg","1","0","0","",""
"","feedback","","html-keyboard-response","249","257523","0.0-1.0-339.0-0.0","0","0","75500","","null","","","null","37","","","","","","","","","","","","","","","",""
"","time_out","","html-keyboard-response","250","259526","0.0-1.0-341.0-0.0","0","0","75500","","null","","","null","37","","","","","","","","","","","","","","","",""
"","ITI","","html-keyboard-response","251","260529","0.0-1.0-342.0","0","0","75500","","null","","","null","37","","","","","","","","","","","","","","","NaN",""
"","S1","","html-keyboard-response","252","260782","0.0-1.0-344.0","0","0","75500","","null","","","null","38","","","","","","","","","","","","","","","",""
"","ISI","","html-keyboard-response","253","261785","0.0-1.0-345.0","0","0","75500","","null","","","null","38","NaN","","","","","","","","","","","","","","",""
"","S2","","html-keyboard-response","254","262039","0.0-1.0-346.0","0","0","75500","","null","","","null","38","","NaN","","","","","","","","","","","","","",""
"","response","","html-keyboard-response","255","262332","0.0-1.0-347.0-0.0","0","0","75500","","290","","","68","38","","","1","38","training","adjacent","CB","3","2","O.jpg","M.jpg","1","0","0","",""
"","feedback","","html-keyboard-response","256","263334","0.0-1.0-348.0-0.0","0","0","75500","","null","","","null","38","","","","","","","","","","","","","","","",""
"","time_out","","html-keyboard-response","257","265336","0.0-1.0-350.0-0.0","0","0","75500","","null","","","null","38","","","","","","","","","","","","","","","",""
"","ITI","","html-keyboard-response","258","266339","0.0-1.0-351.0","0","0","75500","","null","","","null","38","","","","","","","","","","","","","","","NaN",""
"","S1","","html-keyboard-response","259","266593","0.0-1.0-353.0","0","0","75500","","null","","","null","39","","","","","","","","","","","","","","","",""
"","ISI","","html-keyboard-response","260","267596","0.0-1.0-354.0","0","0","75500","","null","","","null","39","NaN","","","","","","","","","","","","","","",""
"","S2","","html-keyboard-response","261","267849","0.0-1.0-355.0","0","0","75500","","null","","","null","39","","NaN","","","","","","","","","","","","","",""
"","response","","html-keyboard-response","262","268126","0.0-1.0-356.0-0.0","0","0","75500","","275","","","68","39","","","1","39","training","adjacent","AB","1","2","L.jpg","M.jpg","1","1","1","",""
"","feedback","","html-keyboard-response","263","269129","0.0-1.0-357.0-0.0","0","0","75500","","null","","","null","39","","","","","","","","","","","","","","","",""
"","ITI","","html-keyboard-response","264","270133","0.0-1.0-360.0","0","0","75500","","null","","","null","39","","","","","","","","","","","","","","","NaN",""
"","S1","","html-keyboard-response","265","270388","0.0-1.0-362.0","0","0","75500","","null","","","null","40","","","","","","","","","","","","","","","",""
"","ISI","","html-keyboard-response","266","271391","0.0-1.0-363.0","0","0","75500","","null","","","null","40","NaN","","","","","","","","","","","","","","",""
"","S2","","html-keyboard-response","267","271644","0.0-1.0-364.0","0","0","75500","","null","","","null","40","","NaN","","","","","","","","","","","","","",""
"","response","","html-keyboard-response","268","272109","0.0-1.0-365.0-0.0","0","0","75500","","463","","","75","40","","","1","40","training","adjacent","FG","6","7","Q.jpg","N.jpg","0","1","0","",""
"","feedback","","html-keyboard-response","269","273113","0.0-1.0-366.0-0.0","0","0","75500","","null","","","null","40","","","","","","","","","","","","","","","",""
"","time_out","","html-keyboard-response","270","275115","0.0-1.0-368.0-0.0","0","0","75500","","null","","","null","40","","","","","","","","","","","","","","","",""
"","ITI","","html-keyboard-response","271","276119","0.0-1.0-369.0","0","0","75500","","null","","","null","40","","","","","","","","","","","","","","","NaN",""
"","S1","","html-keyboard-response","272","276372","0.0-1.0-371.0","0","0","75500","","null","","","null","41","","","","","","","","","","","","","","","",""
"","ISI","","html-keyboard-response","273","277376","0.0-1.0-372.0","0","0","75500","","null","","","null","41","NaN","","","","","","","","","","","","","","",""
"","S2","","html-keyboard-response","274","277629","0.0-1.0-373.0","0","0","75500","","null","","","null","41","","NaN","","","","","","","","","","","","","",""
"","response","","html-keyboard-response","275","277971","0.0-1.0-374.0-0.0","0","0","75500","","340","","","68","41","","","1","41","training","adjacent","DE","4","5","P.jpg","R.jpg","1","1","1","",""
"","feedback","","html-keyboard-response","276","278982","0.0-1.0-375.0-0.0","0","0","75500","","null","","","null","41","","","","","","","","","","","","","","","",""
"","ITI","","html-keyboard-response","277","279985","0.0-1.0-378.0","0","0","75500","","null","","","null","41","","","","","","","","","","","","","","","NaN",""
"","S1","","html-keyboard-response","278","280239","0.0-1.0-380.0","0","0","75500","","null","","","null","42","","","","","","","","","","","","","","","",""
"","ISI","","html-keyboard-response","279","281242","0.0-1.0-381.0","0","0","75500","","null","","","null","42","NaN","","","","","","","","","","","","","","",""
"","S2","","html-keyboard-response","280","281497","0.0-1.0-382.0","0","0","75500","","null","","","null","42","","NaN","","","","","","","","","","","","","",""
"","response","","html-keyboard-response","281","281911","0.0-1.0-383.0-0.0","0","0","75500","","410","","","68","42","","","1","42","training","adjacent","DE","4","5","P.jpg","R.jpg","1","1","1","",""
"","feedback","","html-keyboard-response","282","282915","0.0-1.0-384.0-0.0","0","0","75500","","null","","","null","42","","","","","","","","","","","","","","","",""
"","ITI","","html-keyboard-response","283","283919","0.0-1.0-387.0","0","0","75500","","null","","","null","42","","","","","","","","","","","","","","","NaN",""
"","S1","","html-keyboard-response","284","284172","0.0-1.0-389.0","0","0","75500","","null","","","null","43","","","","","","","","","","","","","","","",""
"","ISI","","html-keyboard-response","285","285184","0.0-1.0-390.0","0","0","75500","","null","","","null","43","NaN","","","","","","","","","","","","","","",""
"","S2","","html-keyboard-response","286","285438","0.0-1.0-391.0","0","0","75500","","null","","","null","43","","NaN","","","","","","","","","","","","","",""
"","response","","html-keyboard-response","287","285888","0.0-1.0-392.0-0.0","0","0","75500","","449","","","68","43","","","1","43","training","adjacent","FG","6","7","Q.jpg","N.jpg","1","1","1","",""
"","feedback","","html-keyboard-response","288","286892","0.0-1.0-393.0-0.0","0","0","75500","","null","","","null","43","","","","","","","","","","","","","","","",""
"","ITI","","html-keyboard-response","289","287894","0.0-1.0-396.0","0","0","75500","","null","","","null","43","","","","","","","","","","","","","","","NaN",""
"","S1","","html-keyboard-response","290","288147","0.0-1.0-398.0","0","0","75500","","null","","","null","44","","","","","","","","","","","","","","","",""
"","ISI","","html-keyboard-response","291","289151","0.0-1.0-399.0","0","0","75500","","null","","","null","44","NaN","","","","","","","","","","","","","","",""
"","S2","","html-keyboard-response","292","289405","0.0-1.0-400.0","0","0","75500","","null","","","null","44","","NaN","","","","","","","","","","","","","",""
"","response","","html-keyboard-response","293","289890","0.0-1.0-401.0-0.0","0","0","75500","","483","","","75","44","","","1","44","training","adjacent","BC","2","3","M.jpg","O.jpg","0","1","0","",""
"","feedback","","html-keyboard-response","294","290892","0.0-1.0-402.0-0.0","0","0","75500","","null","","","null","44","","","","","","","","","","","","","","","",""
"","time_out","","html-keyboard-response","295","292895","0.0-1.0-404.0-0.0","0","0","75500","","null","","","null","44","","","","","","","","","","","","","","","",""
"","ITI","","html-keyboard-response","296","293898","0.0-1.0-405.0","0","0","75500","","null","","","null","44","","","","","","","","","","","","","","","NaN",""
"","S1","","html-keyboard-response","297","294152","0.0-1.0-407.0","0","0","75500","","null","","","null","45","","","","","","","","","","","","","","","",""
"","ISI","","html-keyboard-response","298","295156","0.0-1.0-408.0","0","0","75500","","null","","","null","45","NaN","","","","","","","","","","","","","","",""
"","S2","","html-keyboard-response","299","295409","0.0-1.0-409.0","0","0","75500","","null","","","null","45","","NaN","","","","","","","","","","","","","",""
"","response","","html-keyboard-response","300","295835","0.0-1.0-410.0-0.0","0","0","75500","","424","","","68","45","","","1","45","training","adjacent","CB","3","2","O.jpg","M.jpg","1","0","0","",""
"","feedback","","html-keyboard-response","301","296838","0.0-1.0-411.0-0.0","0","0","75500","","null","","","null","45","","","","","","","","","","","","","","","",""
"","time_out","","html-keyboard-response","302","298841","0.0-1.0-413.0-0.0","0","0","75500","","null","","","null","45","","","","","","","","","","","","","","","",""
"","ITI","","html-keyboard-response","303","299843","0.0-1.0-414.0","0","0","75500","","null","","","null","45","","","","","","","","","","","","","","","NaN",""
"","S1","","html-keyboard-response","304","300097","0.0-1.0-416.0","0","0","75500","","null","","","null","46","","","","","","","","","","","","","","","",""
"","ISI","","html-keyboard-response","305","301099","0.0-1.0-417.0","0","0","75500","","null","","","null","46","NaN","","","","","","","","","","","","","","",""
"","S2","","html-keyboard-response","306","301353","0.0-1.0-418.0","0","0","75500","","null","","","null","46","","NaN","","","","","","","","","","","","","",""
"","response","","html-keyboard-response","307","302014","0.0-1.0-419.0-0.0","0","0","75500","","658","","","68","46","","","1","46","training","adjacent","DC","4","3","P.jpg","O.jpg","1","0","0","",""
"","feedback","","html-keyboard-response","308","303018","0.0-1.0-420.0-0.0","0","0","75500","","null","","","null","46","","","","","","","","","","","","","","","",""
"","time_out","","html-keyboard-response","309","305022","0.0-1.0-422.0-0.0","0","0","75500","","null","","","null","46","","","","","","","","","","","","","","","",""
"","ITI","","html-keyboard-response","310","306025","0.0-1.0-423.0","0","0","75500","","null","","","null","46","","","","","","","","","","","","","","","NaN",""
"","S1","","html-keyboard-response","311","306277","0.0-1.0-425.0","0","0","75500","","null","","","null","47","","","","","","","","","","","","","","","",""
"","ISI","","html-keyboard-response","312","307280","0.0-1.0-426.0","0","0","75500","","null","","","null","47","NaN","","","","","","","","","","","","","","",""
"","S2","","html-keyboard-response","313","307532","0.0-1.0-427.0","0","0","75500","","null","","","null","47","","NaN","","","","","","","","","","","","","",""
"","response","","html-keyboard-response","314","307772","0.0-1.0-428.0-0.0","0","0","75500","","237","","","75","47","","","1","47","training","adjacent","BA","2","1","M.jpg","L.jpg","0","0","1","",""
"","feedback","","html-keyboard-response","315","308776","0.0-1.0-429.0-0.0","0","0","75500","","null","","","null","47","","","","","","","","","","","","","","","",""
"","ITI","","html-keyboard-response","316","309780","0.0-1.0-432.0","0","0","75500","","null","","","null","47","","","","","","","","","","","","","","","NaN",""
"","block_over","","html-keyboard-response","317","337248","0.0-1.0-433.0-0.0","0","0","75500","","27465","","","32","47","","","","","","","","","","","","","","","",""
"","S1","","html-keyboard-response","318","337501","0.0-1.0-434.0","0","0","75500","","null","","","null","48","","","","","","","","","","","","","","","",""
"","ISI","","html-keyboard-response","319","338504","0.0-1.0-435.0","0","0","75500","","null","","","null","48","NaN","","","","","","","","","","","","","","",""
"","S2","","html-keyboard-response","320","338759","0.0-1.0-436.0","0","0","75500","","null","","","null","48","","NaN","","","","","","","","","","","","","",""
"","response","","html-keyboard-response","321","339416","0.0-1.0-437.0-0.0","0","0","75500","","652","","","68","48","","","2","48","training","adjacent","ED","5","4","R.jpg","P.jpg","1","0","0","",""
"","feedback","","html-keyboard-response","322","340420","0.0-1.0-438.0-0.0","0","0","75500","","null","","","null","48","","","","","","","","","","","","","","","",""
"","time_out","","html-keyboard-response","323","342424","0.0-1.0-440.0-0.0","0","0","75500","","null","","","null","48","","","","","","","","","","","","","","","",""
"","ITI","","html-keyboard-response","324","343426","0.0-1.0-441.0","0","0","75500","","null","","","null","48","","","","","","","","","","","","","","","NaN",""
"","S1","","html-keyboard-response","325","343680","0.0-1.0-443.0","0","0","75500","","null","","","null","49","","","","","","","","","","","","","","","",""
"","ISI","","html-keyboard-response","326","344682","0.0-1.0-444.0","0","0","75500","","null","","","null","49","NaN","","","","","","","","","","","","","","",""
"","S2","","html-keyboard-response","327","344935","0.0-1.0-445.0","0","0","75500","","null","","","null","49","","NaN","","","","","","","","","","","","","",""
"","response","","html-keyboard-response","328","345049","0.0-1.0-446.0-0.0","0","0","75500","","113","","","75","49","","","2","49","training","adjacent","BA","2","1","M.jpg","L.jpg","0","0","1","",""
"","feedback","","html-keyboard-response","329","346052","0.0-1.0-447.0-0.0","0","0","75500","","null","","","null","49","","","","","","","","","","","","","","","",""
"","ITI","","html-keyboard-response","330","347054","0.0-1.0-450.0","0","0","75500","","null","","","null","49","","","","","","","","","","","","","","","NaN",""
"","S1","","html-keyboard-response","331","347306","0.0-1.0-452.0","0","0","75500","","null","","","null","50","","","","","","","","","","","","","","","",""
"","ISI","","html-keyboard-response","332","348309","0.0-1.0-453.0","0","0","75500","","null","","","null","50","NaN","","","","","","","","","","","","","","",""
"","S2","","html-keyboard-response","333","348563","0.0-1.0-454.0","0","0","75500","","null","","","null","50","","NaN","","","","","","","","","","","","","",""
"","response","","html-keyboard-response","334","348845","0.0-1.0-455.0-0.0","0","0","75500","","280","","","68","50","","","2","50","training","adjacent","CB","3","2","O.jpg","M.jpg","1","0","0","",""
"","feedback","","html-keyboard-response","335","349849","0.0-1.0-456.0-0.0","0","0","75500","","null","","","null","50","","","","","","","","","","","","","","","",""
"","time_out","","html-keyboard-response","336","351851","0.0-1.0-458.0-0.0","0","0","75500","","null","","","null","50","","","","","","","","","","","","","","","",""
"","ITI","","html-keyboard-response","337","352854","0.0-1.0-459.0","0","0","75500","","null","","","null","50","","","","","","","","","","","","","","","NaN",""
"","S1","","html-keyboard-response","338","353106","0.0-1.0-461.0","0","0","75500","","null","","","null","51","","","","","","","","","","","","","","","",""
"","ISI","","html-keyboard-response","339","354109","0.0-1.0-462.0","0","0","75500","","null","","","null","51","NaN","","","","","","","","","","","","","","",""
"","S2","","html-keyboard-response","340","354362","0.0-1.0-463.0","0","0","75500","","null","","","null","51","","NaN","","","","","","","","","","","","","",""
"","response","","html-keyboard-response","341","354754","0.0-1.0-464.0-0.0","0","0","75500","","391","","","68","51","","","2","51","training","adjacent","FG","6","7","Q.jpg","N.jpg","1","1","1","",""
"","feedback","","html-keyboard-response","342","355757","0.0-1.0-465.0-0.0","0","0","75500","","null","","","null","51","","","","","","","","","","","","","","","",""
"","ITI","","html-keyboard-response","343","356762","0.0-1.0-468.0","0","0","75500","","null","","","null","51","","","","","","","","","","","","","","","NaN",""
"","S1","","html-keyboard-response","344","357015","0.0-1.0-470.0","0","0","75500","","null","","","null","52","","","","","","","","","","","","","","","",""
"","ISI","","html-keyboard-response","345","358019","0.0-1.0-471.0","0","0","75500","","null","","","null","52","NaN","","","","","","","","","","","","","","",""
"","S2","","html-keyboard-response","346","358271","0.0-1.0-472.0","0","0","75500","","null","","","null","52","","NaN","","","","","","","","","","","","","",""
"","response","","html-keyboard-response","347","358700","0.0-1.0-473.0-0.0","0","0","75500","","427","","","75","52","","","2","52","training","adjacent","FE","6","5","Q.jpg","R.jpg","0","0","1","",""
"","feedback","","html-keyboard-response","348","359704","0.0-1.0-474.0-0.0","0","0","75500","","null","","","null","52","","","","","","","","","","","","","","","",""
"","ITI","","html-keyboard-response","349","360707","0.0-1.0-477.0","0","0","75500","","null","","","null","52","","","","","","","","","","","","","","","NaN",""
"","S1","","html-keyboard-response","350","360960","0.0-1.0-479.0","0","0","75500","","null","","","null","53","","","","","","","","","","","","","","","",""
"","ISI","","html-keyboard-response","351","361963","0.0-1.0-480.0","0","0","75500","","null","","","null","53","NaN","","","","","","","","","","","","","","",""
"","S2","","html-keyboard-response","352","362216","0.0-1.0-481.0","0","0","75500","","null","","","null","53","","NaN","","","","","","","","","","","","","",""
"","response","","html-keyboard-response","353","362577","0.0-1.0-482.0-0.0","0","0","75500","","359","","","75","53","","","2","53","training","adjacent","BC","2","3","M.jpg","O.jpg","0","1","0","",""
"","feedback","","html-keyboard-response","354","363580","0.0-1.0-483.0-0.0","0","0","75500","","null","","","null","53","","","","","","","","","","","","","","","",""
"","time_out","","html-keyboard-response","355","365583","0.0-1.0-485.0-0.0","0","0","75500","","null","","","null","53","","","","","","","","","","","","","","","",""
"","ITI","","html-keyboard-response","356","366587","0.0-1.0-486.0","0","0","75500","","null","","","null","53","","","","","","","","","","","","","","","NaN",""
"","S1","","html-keyboard-response","357","366840","0.0-1.0-488.0","0","0","75500","","null","","","null","54","","","","","","","","","","","","","","","",""
"","ISI","","html-keyboard-response","358","367842","0.0-1.0-489.0","0","0","75500","","null","","","null","54","NaN","","","","","","","","","","","","","","",""
"","S2","","html-keyboard-response","359","368094","0.0-1.0-490.0","0","0","75500","","null","","","null","54","","NaN","","","","","","","","","","","","","",""
"","response","","html-keyboard-response","360","368448","0.0-1.0-491.0-0.0","0","0","75500","","351","","","68","54","","","2","54","training","adjacent","DE","4","5","P.jpg","R.jpg","1","1","1","",""
"","feedback","","html-keyboard-response","361","369451","0.0-1.0-492.0-0.0","0","0","75500","","null","","","null","54","","","","","","","","","","","","","","","",""
"","ITI","","html-keyboard-response","362","370453","0.0-1.0-495.0","0","0","75500","","null","","","null","54","","","","","","","","","","","","","","","NaN",""
"","S1","","html-keyboard-response","363","370706","0.0-1.0-497.0","0","0","75500","","null","","","null","55","","","","","","","","","","","","","","","",""
"","ISI","","html-keyboard-response","364","371709","0.0-1.0-498.0","0","0","75500","","null","","","null","55","NaN","","","","","","","","","","","","","","",""
"","S2","","html-keyboard-response","365","371961","0.0-1.0-499.0","0","0","75500","","null","","","null","55","","NaN","","","","","","","","","","","","","",""
"","response","","html-keyboard-response","366","372336","0.0-1.0-500.0-0.0","0","0","75500","","373","","","75","55","","","2","55","training","adjacent","DC","4","3","P.jpg","O.jpg","0","0","1","",""
"","feedback","","html-keyboard-response","367","373339","0.0-1.0-501.0-0.0","0","0","75500","","null","","","null","55","","","","","","","","","","","","","","","",""
"","ITI","","html-keyboard-response","368","374342","0.0-1.0-504.0","0","0","75500","","null","","","null","55","","","","","","","","","","","","","","","NaN",""
"","S1","","html-keyboard-response","369","374597","0.0-1.0-506.0","0","0","75500","","null","","","null","56","","","","","","","","","","","","","","","",""
"","ISI","","html-keyboard-response","370","375599","0.0-1.0-507.0","0","0","75500","","null","","","null","56","NaN","","","","","","","","","","","","","","",""
"","S2","","html-keyboard-response","371","375851","0.0-1.0-508.0","0","0","75500","","null","","","null","56","","NaN","","","","","","","","","","","","","",""
"","response","","html-keyboard-response","372","375932","0.0-1.0-509.0-0.0","0","0","75500","","78","","","75","56","","","2","56","training","adjacent","GF","7","6","N.jpg","Q.jpg","0","0","1","",""
"","feedback","","html-keyboard-response","373","376935","0.0-1.0-510.0-0.0","0","0","75500","","null","","","null","56","","","","","","","","","","","","","","","",""
"","ITI","","html-keyboard-response","374","377937","0.0-1.0-513.0","0","0","75500","","null","","","null","56","","","","","","","","","","","","","","","NaN",""
"","S1","","html-keyboard-response","375","378190","0.0-1.0-515.0","0","0","75500","","null","","","null","57","","","","","","","","","","","","","","","",""
"","ISI","","html-keyboard-response","376","379193","0.0-1.0-516.0","0","0","75500","","null","","","null","57","NaN","","","","","","","","","","","","","","",""
"","S2","","html-keyboard-response","377","379446","0.0-1.0-517.0","0","0","75500","","null","","","null","57","","NaN","","","","","","","","","","","","","",""
"","response","","html-keyboard-response","378","379528","0.0-1.0-518.0-0.0","0","0","75500","","80","","","75","57","","","2","57","training","adjacent","FE","6","5","Q.jpg","R.jpg","0","0","1","",""
"","feedback","","html-keyboard-response","379","380532","0.0-1.0-519.0-0.0","0","0","75500","","null","","","null","57","","","","","","","","","","","","","","","",""
"","ITI","","html-keyboard-response","380","381535","0.0-1.0-522.0","0","0","75500","","null","","","null","57","","","","","","","","","","","","","","","NaN",""
"","S1","","html-keyboard-response","381","381787","0.0-1.0-524.0","0","0","75500","","null","","","null","58","","","","","","","","","","","","","","","",""
"","ISI","","html-keyboard-response","382","382790","0.0-1.0-525.0","0","0","75500","","null","","","null","58","NaN","","","","","","","","","","","","","","",""
"","S2","","html-keyboard-response","383","383042","0.0-1.0-526.0","0","0","75500","","null","","","null","58","","NaN","","","","","","","","","","","","","",""
"","response","","html-keyboard-response","384","383312","0.0-1.0-527.0-0.0","0","0","75500","","268","","","68","58","","","2","58","training","adjacent","CB","3","2","O.jpg","M.jpg","1","0","0","",""
"","feedback","","html-keyboard-response","385","384314","0.0-1.0-528.0-0.0","0","0","75500","","null","","","null","58","","","","","","","","","","","","","","","",""
"","time_out","","html-keyboard-response","386","386316","0.0-1.0-530.0-0.0","0","0","75500","","null","","","null","58","","","","","","","","","","","","","","","",""
"","ITI","","html-keyboard-response","387","387319","0.0-1.0-531.0","0","0","75500","","null","","","null","58","","","","","","","","","","","","","","","NaN",""
"","S1","","html-keyboard-response","388","387573","0.0-1.0-533.0","0","0","75500","","null","","","null","59","","","","","","","","","","","","","","","",""
"","ISI","","html-keyboard-response","389","388576","0.0-1.0-534.0","0","0","75500","","null","","","null","59","NaN","","","","","","","","","","","","","","",""
"","S2","","html-keyboard-response","390","388829","0.0-1.0-535.0","0","0","75500","","null","","","null","59","","NaN","","","","","","","","","","","","","",""
"","response","","html-keyboard-response","391","389293","0.0-1.0-536.0-0.0","0","0","75500","","463","","","68","59","","","2","59","training","adjacent","FG","6","7","Q.jpg","N.jpg","1","1","1","",""
"","feedback","","html-keyboard-response","392","390296","0.0-1.0-537.0-0.0","0","0","75500","","null","","","null","59","","","","","","","","","","","","","","","",""
"","ITI","","html-keyboard-response","393","391299","0.0-1.0-540.0","0","0","75500","","null","","","null","59","","","","","","","","","","","","","","","NaN",""
"","S1","","html-keyboard-response","394","391553","0.0-1.0-542.0","0","0","75500","","null","","","null","60","","","","","","","","","","","","","","","",""
"","ISI","","html-keyboard-response","395","392555","0.0-1.0-543.0","0","0","75500","","null","","","null","60","NaN","","","","","","","","","","","","","","",""
"","S2","","html-keyboard-response","396","392809","0.0-1.0-544.0","0","0","75500","","null","","","null","60","","NaN","","","","","","","","","","","","","",""
"","response","","html-keyboard-response","397","392892","0.0-1.0-545.0-0.0","0","0","75500","","80","","","75","60","","","2","60","training","adjacent","GF","7","6","N.jpg","Q.jpg","0","0","1","",""
"","feedback","","html-keyboard-response","398","393895","0.0-1.0-546.0-0.0","0","0","75500","","null","","","null","60","","","","","","","","","","","","","","","",""
"","ITI","","html-keyboard-response","399","394899","0.0-1.0-549.0","0","0","75500","","null","","","null","60","","","","","","","","","","","","","","","NaN",""
"","S1","","html-keyboard-response","400","395152","0.0-1.0-551.0","0","0","75500","","null","","","null","61","","","","","","","","","","","","","","","",""
"","ISI","","html-keyboard-response","401","396157","0.0-1.0-552.0","0","0","75500","","null","","","null","61","NaN","","","","","","","","","","","","","","",""
"","S2","","html-keyboard-response","402","396411","0.0-1.0-553.0","0","0","75500","","null","","","null","61","","NaN","","","","","","","","","","","","","",""
"","response","","html-keyboard-response","403","396871","0.0-1.0-554.0-0.0","0","0","75500","","458","","","68","61","","","2","61","training","adjacent","CD","3","4","O.jpg","P.jpg","1","1","1","",""
"","feedback","","html-keyboard-response","404","397873","0.0-1.0-555.0-0.0","0","0","75500","","null","","","null","61","","","","","","","","","","","","","","","",""
"","ITI","","html-keyboard-response","405","398876","0.0-1.0-558.0","0","0","75500","","null","","","null","61","","","","","","","","","","","","","","","NaN",""
"","S1","","html-keyboard-response","406","399129","0.0-1.0-560.0","0","0","75500","","null","","","null","62","","","","","","","","","","","","","","","",""
"","ISI","","html-keyboard-response","407","400131","0.0-1.0-561.0","0","0","75500","","null","","","null","62","NaN","","","","","","","","","","","","","","",""
"","S2","","html-keyboard-response","408","400383","0.0-1.0-562.0","0","0","75500","","null","","","null","62","","NaN","","","","","","","","","","","","","",""
"","response","","html-keyboard-response","409","400460","0.0-1.0-563.0-0.0","0","0","75500","","75","","","75","62","","","2","62","training","adjacent","FE","6","5","Q.jpg","R.jpg","0","0","1","",""
"","feedback","","html-keyboard-response","410","401463","0.0-1.0-564.0-0.0","0","0","75500","","null","","","null","62","","","","","","","","","","","","","","","",""
"","ITI","","html-keyboard-response","411","402466","0.0-1.0-567.0","0","0","75500","","null","","","null","62","","","","","","","","","","","","","","","NaN",""
"","S1","","html-keyboard-response","412","402718","0.0-1.0-569.0","0","0","75500","","null","","","null","63","","","","","","","","","","","","","","","",""
"","ISI","","html-keyboard-response","413","403722","0.0-1.0-570.0","0","0","75500","","null","","","null","63","NaN","","","","","","","","","","","","","","",""
"","S2","","html-keyboard-response","414","403975","0.0-1.0-571.0","0","0","75500","","null","","","null","63","","NaN","","","","","","","","","","","","","",""
"","response","","html-keyboard-response","415","404161","0.0-1.0-572.0-0.0","0","0","75500","","183","","","75","63","","","2","63","training","adjacent","ED","5","4","R.jpg","P.jpg","0","0","1","",""
"","feedback","","html-keyboard-response","416","405177","0.0-1.0-573.0-0.0","0","0","75500","","null","","","null","63","","","","","","","","","","","","","","","",""
"","ITI","","html-keyboard-response","417","406181","0.0-1.0-576.0","0","0","75500","","null","","","null","63","","","","","","","","","","","","","","","NaN",""
"","S1","","html-keyboard-response","418","406435","0.0-1.0-578.0","0","0","75500","","null","","","null","64","","","","","","","","","","","","","","","",""
"","ISI","","html-keyboard-response","419","407439","0.0-1.0-579.0","0","0","75500","","null","","","null","64","NaN","","","","","","","","","","","","","","",""
"","S2","","html-keyboard-response","420","407692","0.0-1.0-580.0","0","0","75500","","null","","","null","64","","NaN","","","","","","","","","","","","","",""
"","response","","html-keyboard-response","421","407891","0.0-1.0-581.0-0.0","0","0","75500","","198","","","68","64","","","2","64","training","adjacent","AB","1","2","L.jpg","M.jpg","1","1","1","",""
"","feedback","","html-keyboard-response","422","408893","0.0-1.0-582.0-0.0","0","0","75500","","null","","","null","64","","","","","","","","","","","","","","","",""
"","ITI","","html-keyboard-response","423","409896","0.0-1.0-585.0","0","0","75500","","null","","","null","64","","","","","","","","","","","","","","","NaN",""
"","S1","","html-keyboard-response","424","410149","0.0-1.0-587.0","0","0","75500","","null","","","null","65","","","","","","","","","","","","","","","",""
"","ISI","","html-keyboard-response","425","411151","0.0-1.0-588.0","0","0","75500","","null","","","null","65","NaN","","","","","","","","","","","","","","",""
"","S2","","html-keyboard-response","426","411405","0.0-1.0-589.0","0","0","75500","","null","","","null","65","","NaN","","","","","","","","","","","","","",""
"","response","","html-keyboard-response","427","411773","0.0-1.0-590.0-0.0","0","0","75500","","364","","","68","65","","","2","65","training","adjacent","EF","5","6","R.jpg","Q.jpg","1","1","1","",""
"","feedback","","html-keyboard-response","428","412777","0.0-1.0-591.0-0.0","0","0","75500","","null","","","null","65","","","","","","","","","","","","","","","",""
"","ITI","","html-keyboard-response","429","413781","0.0-1.0-594.0","0","0","75500","","null","","","null","65","","","","","","","","","","","","","","","NaN",""
"","S1","","html-keyboard-response","430","414034","0.0-1.0-596.0","0","0","75500","","null","","","null","66","","","","","","","","","","","","","","","",""
"","ISI","","html-keyboard-response","431","415038","0.0-1.0-597.0","0","0","75500","","null","","","null","66","NaN","","","","","","","","","","","","","","",""
"","S2","","html-keyboard-response","432","415292","0.0-1.0-598.0","0","0","75500","","null","","","null","66","","NaN","","","","","","","","","","","","","",""
"","response","","html-keyboard-response","433","415572","0.0-1.0-599.0-0.0","0","0","75500","","278","","","68","66","","","2","66","training","adjacent","EF","5","6","R.jpg","Q.jpg","1","1","1","",""
"","feedback","","html-keyboard-response","434","416576","0.0-1.0-600.0-0.0","0","0","75500","","null","","","null","66","","","","","","","","","","","","","","","",""
"","ITI","","html-keyboard-response","435","417578","0.0-1.0-603.0","0","0","75500","","null","","","null","66","","","","","","","","","","","","","","","NaN",""
"","S1","","html-keyboard-response","436","417832","0.0-1.0-605.0","0","0","75500","","null","","","null","67","","","","","","","","","","","","","","","",""
"","ISI","","html-keyboard-response","437","418834","0.0-1.0-606.0","0","0","75500","","null","","","null","67","NaN","","","","","","","","","","","","","","",""
"","S2","","html-keyboard-response","438","419086","0.0-1.0-607.0","0","0","75500","","null","","","null","67","","NaN","","","","","","","","","","","","","",""
"","response","","html-keyboard-response","439","419521","0.0-1.0-608.0-0.0","0","0","75500","","431","","","75","67","","","2","67","training","adjacent","BC","2","3","M.jpg","O.jpg","0","1","0","",""
"","feedback","","html-keyboard-response","440","420526","0.0-1.0-609.0-0.0","0","0","75500","","null","","","null","67","","","","","","","","","","","","","","","",""
"","time_out","","html-keyboard-response","441","422530","0.0-1.0-611.0-0.0","0","0","75500","","null","","","null","67","","","","","","","","","","","","","","","",""
"","ITI","","html-keyboard-response","442","423534","0.0-1.0-612.0","0","0","75500","","null","","","null","67","","","","","","","","","","","","","","","NaN",""
"","S1","","html-keyboard-response","443","423788","0.0-1.0-614.0","0","0","75500","","null","","","null","68","","","","","","","","","","","","","","","",""
"","ISI","","html-keyboard-response","444","424791","0.0-1.0-615.0","0","0","75500","","null","","","null","68","NaN","","","","","","","","","","","","","","",""
"","S2","","html-keyboard-response","445","425043","0.0-1.0-616.0","0","0","75500","","null","","","null","68","","NaN","","","","","","","","","","","","","",""
"","response","","html-keyboard-response","446","425743","0.0-1.0-617.0-0.0","0","0","75500","","699","","","75","68","","","2","68","training","adjacent","DC","4","3","P.jpg","O.jpg","0","0","1","",""
"","feedback","","html-keyboard-response","447","426745","0.0-1.0-618.0-0.0","0","0","75500","","null","","","null","68","","","","","","","","","","","","","","","",""
"","ITI","","html-keyboard-response","448","427748","0.0-1.0-621.0","0","0","75500","","null","","","null","68","","","","","","","","","","","","","","","NaN",""
"","S1","","html-keyboard-response","449","428000","0.0-1.0-623.0","0","0","75500","","null","","","null","69","","","","","","","","","","","","","","","",""
"","ISI","","html-keyboard-response","450","429004","0.0-1.0-624.0","0","0","75500","","null","","","null","69","NaN","","","","","","","","","","","","","","",""
"","S2","","html-keyboard-response","451","429257","0.0-1.0-625.0","0","0","75500","","null","","","null","69","","NaN","","","","","","","","","","","","","",""
"","response","","html-keyboard-response","452","429601","0.0-1.0-626.0-0.0","0","0","75500","","342","","","68","69","","","2","69","training","adjacent","CD","3","4","O.jpg","P.jpg","1","1","1","",""
"","feedback","","html-keyboard-response","453","430605","0.0-1.0-627.0-0.0","0","0","75500","","null","","","null","69","","","","","","","","","","","","","","","",""
"","ITI","","html-keyboard-response","454","431608","0.0-1.0-630.0","0","0","75500","","null","","","null","69","","","","","","","","","","","","","","","NaN",""
"","S1","","html-keyboard-response","455","431860","0.0-1.0-632.0","0","0","75500","","null","","","null","70","","","","","","","","","","","","","","","",""
"","ISI","","html-keyboard-response","456","432863","0.0-1.0-633.0","0","0","75500","","null","","","null","70","NaN","","","","","","","","","","","","","","",""
"","S2","","html-keyboard-response","457","433117","0.0-1.0-634.0","0","0","75500","","null","","","null","70","","NaN","","","","","","","","","","","","","",""
"","response","","html-keyboard-response","458","433334","0.0-1.0-635.0-0.0","0","0","75500","","216","","","68","70","","","2","70","training","adjacent","FG","6","7","Q.jpg","N.jpg","1","1","1","",""
"","feedback","","html-keyboard-response","459","434336","0.0-1.0-636.0-0.0","0","0","75500","","null","","","null","70","","","","","","","","","","","","","","","",""
"","ITI","","html-keyboard-response","460","435339","0.0-1.0-639.0","0","0","75500","","null","","","null","70","","","","","","","","","","","","","","","NaN",""
"","S1","","html-keyboard-response","461","435594","0.0-1.0-641.0","0","0","75500","","null","","","null","71","","","","","","","","","","","","","","","",""
"","ISI","","html-keyboard-response","462","436597","0.0-1.0-642.0","0","0","75500","","null","","","null","71","NaN","","","","","","","","","","","","","","",""
"","S2","","html-keyboard-response","463","436849","0.0-1.0-643.0","0","0","75500","","null","","","null","71","","NaN","","","","","","","","","","","","","",""
"","response","","html-keyboard-response","464","437268","0.0-1.0-644.0-0.0","0","0","75500","","418","","","68","71","","","2","71","training","adjacent","DE","4","5","P.jpg","R.jpg","1","1","1","",""
"","feedback","","html-keyboard-response","465","438271","0.0-1.0-645.0-0.0","0","0","75500","","null","","","null","71","","","","","","","","","","","","","","","",""
"","ITI","","html-keyboard-response","466","439275","0.0-1.0-648.0","0","0","75500","","null","","","null","71","","","","","","","","","","","","","","","NaN",""
"","S1","","html-keyboard-response","467","439529","0.0-1.0-650.0","0","0","75500","","null","","","null","72","","","","","","","","","","","","","","","",""
"","ISI","","html-keyboard-response","468","440532","0.0-1.0-651.0","0","0","75500","","null","","","null","72","NaN","","","","","","","","","","","","","","",""
"","S2","","html-keyboard-response","469","440785","0.0-1.0-652.0","0","0","75500","","null","","","null","72","","NaN","","","","","","","","","","","","","",""
"","response","","html-keyboard-response","470","441069","0.0-1.0-653.0-0.0","0","0","75500","","280","","","68","72","","","2","72","training","adjacent","EF","5","6","R.jpg","Q.jpg","1","1","1","",""
"","feedback","","html-keyboard-response","471","442072","0.0-1.0-654.0-0.0","0","0","75500","","null","","","null","72","","","","","","","","","","","","","","","",""
"","ITI","","html-keyboard-response","472","443075","0.0-1.0-657.0","0","0","75500","","null","","","null","72","","","","","","","","","","","","","","","NaN",""
"","S1","","html-keyboard-response","473","443328","0.0-1.0-659.0","0","0","75500","","null","","","null","73","","","","","","","","","","","","","","","",""
"","ISI","","html-keyboard-response","474","444330","0.0-1.0-660.0","0","0","75500","","null","","","null","73","NaN","","","","","","","","","","","","","","",""
"","S2","","html-keyboard-response","475","444585","0.0-1.0-661.0","0","0","75500","","null","","","null","73","","NaN","","","","","","","","","","","","","",""
"","response","","html-keyboard-response","476","444878","0.0-1.0-662.0-0.0","0","0","75500","","289","","","75","73","","","2","73","training","adjacent","BC","2","3","M.jpg","O.jpg","0","1","0","",""
"","feedback","","html-keyboard-response","477","445881","0.0-1.0-663.0-0.0","0","0","75500","","null","","","null","73","","","","","","","","","","","","","","","",""
"","time_out","","html-keyboard-response","478","447885","0.0-1.0-665.0-0.0","0","0","75500","","null","","","null","73","","","","","","","","","","","","","","","",""
"","ITI","","html-keyboard-response","479","448888","0.0-1.0-666.0","0","0","75500","","null","","","null","73","","","","","","","","","","","","","","","NaN",""
"","S1","","html-keyboard-response","480","449142","0.0-1.0-668.0","0","0","75500","","null","","","null","74","","","","","","","","","","","","","","","",""
"","ISI","","html-keyboard-response","481","450144","0.0-1.0-669.0","0","0","75500","","null","","","null","74","NaN","","","","","","","","","","","","","","",""
"","S2","","html-keyboard-response","482","450396","0.0-1.0-670.0","0","0","75500","","null","","","null","74","","NaN","","","","","","","","","","","","","",""
"","response","","html-keyboard-response","483","450808","0.0-1.0-671.0-0.0","0","0","75500","","410","","","68","74","","","2","74","training","adjacent","CB","3","2","O.jpg","M.jpg","1","0","0","",""
"","feedback","","html-keyboard-response","484","451812","0.0-1.0-672.0-0.0","0","0","75500","","null","","","null","74","","","","","","","","","","","","","","","",""
"","time_out","","html-keyboard-response","485","453815","0.0-1.0-674.0-0.0","0","0","75500","","null","","","null","74","","","","","","","","","","","","","","","",""
"","ITI","","html-keyboard-response","486","454818","0.0-1.0-675.0","0","0","75500","","null","","","null","74","","","","","","","","","","","","","","","NaN",""
"","S1","","html-keyboard-response","487","455071","0.0-1.0-677.0","0","0","75500","","null","","","null","75","","","","","","","","","","","","","","","",""
"","ISI","","html-keyboard-response","488","456075","0.0-1.0-678.0","0","0","75500","","null","","","null","75","NaN","","","","","","","","","","","","","","",""
"","S2","","html-keyboard-response","489","456329","0.0-1.0-679.0","0","0","75500","","null","","","null","75","","NaN","","","","","","","","","","","","","",""
"","response","","html-keyboard-response","490","456673","0.0-1.0-680.0-0.0","0","0","75500","","341","","","68","75","","","2","75","training","adjacent","FG","6","7","Q.jpg","N.jpg","1","1","1","",""
"","feedback","","html-keyboard-response","491","457678","0.0-1.0-681.0-0.0","0","0","75500","","null","","","null","75","","","","","","","","","","","","","","","",""
"","ITI","","html-keyboard-response","492","458680","0.0-1.0-684.0","0","0","75500","","null","","","null","75","","","","","","","","","","","","","","","NaN",""
"","S1","","html-keyboard-response","493","458933","0.0-1.0-686.0","0","0","75500","","null","","","null","76","","","","","","","","","","","","","","","",""
"","ISI","","html-keyboard-response","494","459936","0.0-1.0-687.0","0","0","75500","","null","","","null","76","NaN","","","","","","","","","","","","","","",""
"","S2","","html-keyboard-response","495","460131","0.0-1.0-688.0","0","0","75500","","194","","","68","76","","d","2","76","training","adjacent","AB","1","2","L.jpg","M.jpg","1","1","1","",""
"","feedback","","html-keyboard-response","496","461135","0.0-1.0-690.0-0.0","0","0","75500","","null","","","null","76","","","","","","","","","","","","","","","",""
"","ITI","","html-keyboard-response","497","462140","0.0-1.0-693.0","0","0","75500","","null","","","null","76","","","","","","","","","","","","","","","NaN",""
"","S1","","html-keyboard-response","498","462392","0.0-1.0-695.0","0","0","75500","","null","","","null","77","","","","","","","","","","","","","","","",""
"","ISI","","html-keyboard-response","499","463396","0.0-1.0-696.0","0","0","75500","","null","","","null","77","NaN","","","","","","","","","","","","","","",""
"","S2","","html-keyboard-response","500","463649","0.0-1.0-697.0","0","0","75500","","null","","","null","77","","NaN","","","","","","","","","","","","","",""
"","response","","html-keyboard-response","501","463796","0.0-1.0-698.0-0.0","0","0","75500","","144","","","75","77","","","2","77","training","adjacent","BA","2","1","M.jpg","L.jpg","0","0","1","",""
"","feedback","","html-keyboard-response","502","464799","0.0-1.0-699.0-0.0","0","0","75500","","null","","","null","77","","","","","","","","","","","","","","","",""
"","ITI","","html-keyboard-response","503","465802","0.0-1.0-702.0","0","0","75500","","null","","","null","77","","","","","","","","","","","","","","","NaN",""
"","S1","","html-keyboard-response","504","466056","0.0-1.0-704.0","0","0","75500","","null","","","null","78","","","","","","","","","","","","","","","",""
"","ISI","","html-keyboard-response","505","467060","0.0-1.0-705.0","0","0","75500","","null","","","null","78","NaN","","","","","","","","","","","","","","",""
"","S2","","html-keyboard-response","506","467313","0.0-1.0-706.0","0","0","75500","","null","","","null","78","","NaN","","","","","","","","","","","","","",""
"","response","","html-keyboard-response","507","467484","0.0-1.0-707.0-0.0","0","0","75500","","167","","","75","78","","","2","78","training","adjacent","BA","2","1","M.jpg","L.jpg","0","0","1","",""
"","feedback","","html-keyboard-response","508","468488","0.0-1.0-708.0-0.0","0","0","75500","","null","","","null","78","","","","","","","","","","","","","","","",""
"","ITI","","html-keyboard-response","509","469492","0.0-1.0-711.0","0","0","75500","","null","","","null","78","","","","","","","","","","","","","","","NaN",""
"","S1","","html-keyboard-response","510","469746","0.0-1.0-713.0","0","0","75500","","null","","","null","79","","","","","","","","","","","","","","","",""
"","ISI","","html-keyboard-response","511","470750","0.0-1.0-714.0","0","0","75500","","null","","","null","79","NaN","","","","","","","","","","","","","","",""
"","S2","","html-keyboard-response","512","470950","0.0-1.0-715.0","0","0","75500","","198","","","75","79","","k","2","79","training","adjacent","GF","7","6","N.jpg","Q.jpg","0","0","1","",""
"","feedback","","html-keyboard-response","513","471953","0.0-1.0-717.0-0.0","0","0","75500","","null","","","null","79","","","","","","","","","","","","","","","",""
"","ITI","","html-keyboard-response","514","472955","0.0-1.0-720.0","0","0","75500","","null","","","null","79","","","","","","","","","","","","","","","NaN",""
"","S1","","html-keyboard-response","515","473209","0.0-1.0-722.0","0","0","75500","","null","","","null","80","","","","","","","","","","","","","","","",""
"","ISI","","html-keyboard-response","516","474211","0.0-1.0-723.0","0","0","75500","","null","","","null","80","NaN","","","","","","","","","","","","","","",""
"","S2","","html-keyboard-response","517","474464","0.0-1.0-724.0","0","0","75500","","null","","","null","80","","NaN","","","","","","","","","","","","","",""
"","response","","html-keyboard-response","518","474565","0.0-1.0-725.0-0.0","0","0","75500","","100","","","68","80","","","2","80","training","adjacent","CB","3","2","O.jpg","M.jpg","1","0","0","",""
"","feedback","","html-keyboard-response","519","475568","0.0-1.0-726.0-0.0","0","0","75500","","null","","","null","80","","","","","","","","","","","","","","","",""
"","time_out","","html-keyboard-response","520","477571","0.0-1.0-728.0-0.0","0","0","75500","","null","","","null","80","","","","","","","","","","","","","","","",""
"","ITI","","html-keyboard-response","521","478573","0.0-1.0-729.0","0","0","75500","","null","","","null","80","","","","","","","","","","","","","","","NaN",""
"","S1","","html-keyboard-response","522","478829","0.0-1.0-731.0","0","0","75500","","null","","","null","81","","","","","","","","","","","","","","","",""
"","ISI","","html-keyboard-response","523","479831","0.0-1.0-732.0","0","0","75500","","null","","","null","81","NaN","","","","","","","","","","","","","","",""
"","S2","","html-keyboard-response","524","480084","0.0-1.0-733.0","0","0","75500","","null","","","null","81","","NaN","","","","","","","","","","","","","",""
"","response","","html-keyboard-response","525","480383","0.0-1.0-734.0-0.0","0","0","75500","","296","","","75","81","","","2","81","training","adjacent","ED","5","4","R.jpg","P.jpg","0","0","1","",""
"","feedback","","html-keyboard-response","526","481386","0.0-1.0-735.0-0.0","0","0","75500","","null","","","null","81","","","","","","","","","","","","","","","",""
"","ITI","","html-keyboard-response","527","482390","0.0-1.0-738.0","0","0","75500","","null","","","null","81","","","","","","","","","","","","","","","NaN",""
"","S1","","html-keyboard-response","528","482656","0.0-1.0-740.0","0","0","75500","","null","","","null","82","","","","","","","","","","","","","","","",""
"","ISI","","html-keyboard-response","529","483658","0.0-1.0-741.0","0","0","75500","","null","","","null","82","NaN","","","","","","","","","","","","","","",""
"","S2","","html-keyboard-response","530","483911","0.0-1.0-742.0","0","0","75500","","null","","","null","82","","NaN","","","","","","","","","","","","","",""
"","response","","html-keyboard-response","531","484024","0.0-1.0-743.0-0.0","0","0","75500","","110","","","75","82","","","2","82","training","adjacent","CD","3","4","O.jpg","P.jpg","0","1","0","",""
"","feedback","","html-keyboard-response","532","485028","0.0-1.0-744.0-0.0","0","0","75500","","null","","","null","82","","","","","","","","","","","","","","","",""
"","time_out","","html-keyboard-response","533","487031","0.0-1.0-746.0-0.0","0","0","75500","","null","","","null","82","","","","","","","","","","","","","","","",""
"","ITI","","html-keyboard-response","534","488034","0.0-1.0-747.0","0","0","75500","","null","","","null","82","","","","","","","","","","","","","","","NaN",""
"","S1","","html-keyboard-response","535","488289","0.0-1.0-749.0","0","0","75500","","null","","","null","83","","","","","","","","","","","","","","","",""
"","ISI","","html-keyboard-response","536","489290","0.0-1.0-750.0","0","0","75500","","null","","","null","83","NaN","","","","","","","","","","","","","","",""
"","S2","","html-keyboard-response","537","489542","0.0-1.0-751.0","0","0","75500","","null","","","null","83","","NaN","","","","","","","","","","","","","",""
"","response","","html-keyboard-response","538","489893","0.0-1.0-752.0-0.0","0","0","75500","","348","","","68","83","","","2","83","training","adjacent","DC","4","3","P.jpg","O.jpg","1","0","0","",""
"","feedback","","html-keyboard-response","539","490898","0.0-1.0-753.0-0.0","0","0","75500","","null","","","null","83","","","","","","","","","","","","","","","",""
"","time_out","","html-keyboard-response","540","492901","0.0-1.0-755.0-0.0","0","0","75500","","null","","","null","83","","","","","","","","","","","","","","","",""
"","ITI","","html-keyboard-response","541","493913","0.0-1.0-756.0","0","0","75500","","null","","","null","83","","","","","","","","","","","","","","","NaN",""
"","S1","","html-keyboard-response","542","494167","0.0-1.0-758.0","0","0","75500","","null","","","null","84","","","","","","","","","","","","","","","",""
"","ISI","","html-keyboard-response","543","495171","0.0-1.0-759.0","0","0","75500","","null","","","null","84","NaN","","","","","","","","","","","","","","",""
"","S2","","html-keyboard-response","544","495393","0.0-1.0-760.0","0","0","75500","","218","","","68","84","","d","2","84","training","adjacent","AB","1","2","L.jpg","M.jpg","1","1","1","",""
"","feedback","","html-keyboard-response","545","496398","0.0-1.0-762.0-0.0","0","0","75500","","null","","","null","84","","","","","","","","","","","","","","","",""
"","ITI","","html-keyboard-response","546","497401","0.0-1.0-765.0","0","0","75500","","null","","","null","84","","","","","","","","","","","","","","","NaN",""
"","S1","","html-keyboard-response","547","497653","0.0-1.0-767.0","0","0","75500","","null","","","null","85","","","","","","","","","","","","","","","",""
"","ISI","","html-keyboard-response","548","498656","0.0-1.0-768.0","0","0","75500","","null","","","null","85","NaN","","","","","","","","","","","","","","",""
"","S2","","html-keyboard-response","549","498910","0.0-1.0-769.0","0","0","75500","","null","","","null","85","","NaN","","","","","","","","","","","","","",""
"","response","","html-keyboard-response","550","499238","0.0-1.0-770.0-0.0","0","0","75500","","324","","","68","85","","","2","85","training","adjacent","FE","6","5","Q.jpg","R.jpg","1","0","0","",""
"","feedback","","html-keyboard-response","551","500242","0.0-1.0-771.0-0.0","0","0","75500","","null","","","null","85","","","","","","","","","","","","","","","",""
"","time_out","","html-keyboard-response","552","502246","0.0-1.0-773.0-0.0","0","0","75500","","null","","","null","85","","","","","","","","","","","","","","","",""
"","ITI","","html-keyboard-response","553","503250","0.0-1.0-774.0","0","0","75500","","null","","","null","85","","","","","","","","","","","","","","","NaN",""
"","S1","","html-keyboard-response","554","503504","0.0-1.0-776.0","0","0","75500","","null","","","null","86","","","","","","","","","","","","","","","",""
"","ISI","","html-keyboard-response","555","504507","0.0-1.0-777.0","0","0","75500","","null","","","null","86","NaN","","","","","","","","","","","","","","",""
"","S2","","html-keyboard-response","556","504760","0.0-1.0-778.0","0","0","75500","","null","","","null","86","","NaN","","","","","","","","","","","","","",""
"","response","","html-keyboard-response","557","505110","0.0-1.0-779.0-0.0","0","0","75500","","348","","","68","86","","","2","86","training","adjacent","BC","2","3","M.jpg","O.jpg","1","1","1","",""
"","feedback","","html-keyboard-response","558","506124","0.0-1.0-780.0-0.0","0","0","75500","","null","","","null","86","","","","","","","","","","","","","","","",""
"","ITI","","html-keyboard-response","559","507130","0.0-1.0-783.0","0","0","75500","","null","","","null","86","","","","","","","","","","","","","","","NaN",""
"","S1","","html-keyboard-response","560","507385","0.0-1.0-785.0","0","0","75500","","null","","","null","87","","","","","","","","","","","","","","","",""
"","ISI","","html-keyboard-response","561","508387","0.0-1.0-786.0","0","0","75500","","null","","","null","87","NaN","","","","","","","","","","","","","","",""
"","S2","","html-keyboard-response","562","508611","0.0-1.0-787.0","0","0","75500","","221","","","75","87","","k","2","87","training","adjacent","GF","7","6","N.jpg","Q.jpg","0","0","1","",""
"","feedback","","html-keyboard-response","563","509615","0.0-1.0-789.0-0.0","0","0","75500","","null","","","null","87","","","","","","","","","","","","","","","",""
"","ITI","","html-keyboard-response","564","510618","0.0-1.0-792.0","0","0","75500","","null","","","null","87","","","","","","","","","","","","","","","NaN",""
"","S1","","html-keyboard-response","565","510871","0.0-1.0-794.0","0","0","75500","","null","","","null","88","","","","","","","","","","","","","","","",""
"","ISI","","html-keyboard-response","566","511874","0.0-1.0-795.0","0","0","75500","","null","","","null","88","NaN","","","","","","","","","","","","","","",""
"","S2","","html-keyboard-response","567","512128","0.0-1.0-796.0","0","0","75500","","null","","","null","88","","NaN","","","","","","","","","","","","","",""
"","response","","html-keyboard-response","568","512583","0.0-1.0-797.0-0.0","0","0","75500","","451","","","68","88","","","2","88","training","adjacent","DE","4","5","P.jpg","R.jpg","1","1","1","",""
"","feedback","","html-keyboard-response","569","513587","0.0-1.0-798.0-0.0","0","0","75500","","null","","","null","88","","","","","","","","","","","","","","","",""
"","ITI","","html-keyboard-response","570","514590","0.0-1.0-801.0","0","0","75500","","null","","","null","88","","","","","","","","","","","","","","","NaN",""
"","S1","","html-keyboard-response","571","514845","0.0-1.0-803.0","0","0","75500","","null","","","null","89","","","","","","","","","","","","","","","",""
"","ISI","","html-keyboard-response","572","515847","0.0-1.0-804.0","0","0","75500","","null","","","null","89","NaN","","","","","","","","","","","","","","",""
"","S2","","html-keyboard-response","573","516099","0.0-1.0-805.0","0","0","75500","","null","","","null","89","","NaN","","","","","","","","","","","","","",""
"","response","","html-keyboard-response","574","516389","0.0-1.0-806.0-0.0","0","0","75500","","289","","","68","89","","","2","89","training","adjacent","DC","4","3","P.jpg","O.jpg","1","0","0","",""
"","feedback","","html-keyboard-response","575","517392","0.0-1.0-807.0-0.0","0","0","75500","","null","","","null","89","","","","","","","","","","","","","","","",""
"","time_out","","html-keyboard-response","576","519394","0.0-1.0-809.0-0.0","0","0","75500","","null","","","null","89","","","","","","","","","","","","","","","",""
"","ITI","","html-keyboard-response","577","520396","0.0-1.0-810.0","0","0","75500","","null","","","null","89","","","","","","","","","","","","","","","NaN",""
"","S1","","html-keyboard-response","578","520648","0.0-1.0-812.0","0","0","75500","","null","","","null","90","","","","","","","","","","","","","","","",""
"","ISI","","html-keyboard-response","579","521653","0.0-1.0-813.0","0","0","75500","","null","","","null","90","NaN","","","","","","","","","","","","","","",""
"","S2","","html-keyboard-response","580","521908","0.0-1.0-814.0","0","0","75500","","null","","","null","90","","NaN","","","","","","","","","","","","","",""
