"success","ttype","start_time","trial_type","trial_index","time_elapsed","internal_node_id","warning","missed_checkup","PID","view_history","rt","responses","repeat_instructions","key_press","index","keypress_isi","keypress_S2","block","trial_num","phase","group_type","pair_type","S1_stim","S2_stim","S1_img","S2_img","S1_chosen","S1_higher","accuracy","keypress_iti","total_bonus_tally"
"true","full_screen","d08052022hr1525","fullscreen","0","6174","0.0-0.0","0","0","90041","","","","","","","","","","","","","","","","","","","","","",""
"","instructions","","instructions","1","27449","0.0-1.0-0.0-0.0","0","0","90041","[{""page_index"":0,""viewing_time"":5235},{""page_index"":1,""viewing_time"":3031},{""page_index"":2,""viewing_time"":10873},{""page_index"":3,""viewing_time"":2131}]","21271","","","","","","","","","","","","","","","","","","","",""
"","comprehension_check","","survey-multi-choice","2","54712","0.0-1.0-0.0-1.0","0","0","90041","","27255","{""Q0"":""True"",""Q1"":""D"",""Q2"":""Only when the screen 'MAKE A CHOICE' is shown"",""Q3"":""Green mark"",""Q4"":""either D or K""}","1","","","","","","","","","","","","","","","","","",""
"","missed_instruction_checkup","","html-keyboard-response","3","56461","0.0-1.0-0.0-2.0-0.0","0","1","90041","","1743","","","32","","","","","","","","","","","","","","","","",""
"","instructions","","instructions","4","70152","0.0-1.0-0.1-0.1","0","0","90041","[{""page_index"":0,""viewing_time"":1666},{""page_index"":1,""viewing_time"":6379},{""page_index"":2,""viewing_time"":4735},{""page_index"":3,""viewing_time"":909}]","13689","","","","","","","","","","","","","","","","","","","",""
"","comprehension_check","","survey-multi-choice","5","87453","0.0-1.0-0.1-1.1","0","0","90041","","17291","{""Q0"":""True"",""Q1"":""K"",""Q2"":""Only when the screen 'MAKE A CHOICE' is shown"",""Q3"":""Green mark"",""Q4"":""either D or K""}","1","","","","","","","","","","","","","","","","","",""
"","missed_instruction_checkup","","html-keyboard-response","6","88372","0.0-1.0-0.1-2.1-0.1","0","1","90041","","914","","","32","","","","","","","","","","","","","","","","",""
"","instructions","","instructions","7","100386","0.0-1.0-0.2-0.2","0","0","90041","[{""page_index"":0,""viewing_time"":3584},{""page_index"":1,""viewing_time"":6979},{""page_index"":2,""viewing_time"":652},{""page_index"":3,""viewing_time"":796}]","12012","","","","","","","","","","","","","","","","","","","",""
"","comprehension_check","","survey-multi-choice","8","120327","0.0-1.0-0.2-1.2","0","0","90041","","19928","{""Q0"":""True"",""Q1"":""K"",""Q2"":""Once the second image appears and while the screen 'MAKE A CHOICE' is shown"",""Q3"":""Green mark"",""Q4"":""either D or K""}","0","","","","","","","","","","","","","","","","","",""
"","start_exp","","html-keyboard-response","9","121293","0.0-1.0-1.0","0","0","90041","","963","","","32","","","","","","","","","","","","","","","","",""
"","S1","","html-keyboard-response","10","121555","0.0-1.0-2.0","0","0","90041","","null","","","null","0","","","","","","","","","","","","","","","",""
"","ISI","","html-keyboard-response","11","123558","0.0-1.0-3.0","0","0","90041","","1901","","","32","0","space","","","","","","","","","","","","","","",""
"","S2","","html-keyboard-response","12","123813","0.0-1.0-4.0","0","0","90041","","null","","","null","0","","NaN","","","","","","","","","","","","","",""
"","response","","html-keyboard-response","13","125071","0.0-1.0-5.0-0.0","0","0","90041","","1255","","","75","0","","","1","0","training","adjacent","EF","5","6","P.jpg","R.jpg","1","1","1","",""
"","feedback","","html-keyboard-response","14","126075","0.0-1.0-6.0-0.0","0","0","90041","","null","","","null","0","","","","","","","","","","","","","","","",""
"","ITI","","html-keyboard-response","15","127080","0.0-1.0-9.0","0","0","90041","","879","","","75","0","","","","","","","","","","","","","","","k",""
"","S1","","html-keyboard-response","16","127335","0.0-1.0-11.0","0","0","90041","","null","","","null","1","","","","","","","","","","","","","","","",""
"","ISI","","html-keyboard-response","17","129343","0.0-1.0-12.0","0","0","90041","","84","","","32","1","space","","","","","","","","","","","","","","",""
"","S2","","html-keyboard-response","18","129589","0.0-1.0-13.0","0","0","90041","","243","","","68","1","","d","1","1","training","adjacent","CD","3","4","O.jpg","N.jpg","0","1","0","",""
"","feedback","","html-keyboard-response","19","130592","0.0-1.0-15.0-0.0","0","0","90041","","null","","","null","1","","","","","","","","","","","","","","","",""
"","time_out","","html-keyboard-response","20","132596","0.0-1.0-17.0-0.0","0","0","90041","","null","","","null","1","","","","","","","","","","","","","","","",""
"","ITI","","html-keyboard-response","21","133600","0.0-1.0-18.0","0","0","90041","","2","","","32","1","","","","","","","","","","","","","","","space",""
"","S1","","html-keyboard-response","22","133854","0.0-1.0-20.0","0","0","90041","","null","","","null","2","","","","","","","","","","","","","","","",""
"","ISI","","html-keyboard-response","23","135872","0.0-1.0-21.0","0","0","90041","","183","","","32","2","space","","","","","","","","","","","","","","",""
"","S2","","html-keyboard-response","24","136131","0.0-1.0-22.0","0","0","90041","","null","","","null","2","","NaN","","","","","","","","","","","","","",""
"","response","","html-keyboard-response","25","136384","0.0-1.0-23.0-0.0","0","0","90041","","252","","","68","2","","","1","2","training","adjacent","GF","7","6","L.jpg","R.jpg","0","0","1","",""
"","feedback","","html-keyboard-response","26","137401","0.0-1.0-24.0-0.0","0","0","90041","","null","","","null","2","","","","","","","","","","","","","","","",""
"","ITI","","html-keyboard-response","27","138405","0.0-1.0-27.0","0","0","90041","","987","","","32","2","","","","","","","","","","","","","","","space",""
"","S1","","html-keyboard-response","28","138660","0.0-1.0-29.0","0","0","90041","","null","","","null","3","","","","","","","","","","","","","","","",""
"","ISI","","html-keyboard-response","29","140666","0.0-1.0-30.0","0","0","90041","","868","","","32","3","space","","","","","","","","","","","","","","",""
"","S2","","html-keyboard-response","30","140919","0.0-1.0-31.0","0","0","90041","","null","","","null","3","","NaN","","","","","","","","","","","","","",""
"","response","","html-keyboard-response","31","140992","0.0-1.0-32.0-0.0","0","0","90041","","71","","","75","3","","","1","3","training","adjacent","FE","6","5","R.jpg","P.jpg","1","0","0","",""
"","feedback","","html-keyboard-response","32","141994","0.0-1.0-33.0-0.0","0","0","90041","","null","","","null","3","","","","","","","","","","","","","","","",""
"","time_out","","html-keyboard-response","33","144000","0.0-1.0-35.0-0.0","0","0","90041","","null","","","null","3","","","","","","","","","","","","","","","",""
"","ITI","","html-keyboard-response","34","145005","0.0-1.0-36.0","0","0","90041","","15","","","32","3","","","","","","","","","","","","","","","space",""
"","S1","","html-keyboard-response","35","145259","0.0-1.0-38.0","0","0","90041","","null","","","null","4","","","","","","","","","","","","","","","",""
"","ISI","","html-keyboard-response","36","147264","0.0-1.0-39.0","0","0","90041","","429","","","32","4","space","","","","","","","","","","","","","","",""
"","S2","","html-keyboard-response","37","147517","0.0-1.0-40.0","0","0","90041","","null","","","null","4","","NaN","","","","","","","","","","","","","",""
"","response","","html-keyboard-response","38","147710","0.0-1.0-41.0-0.0","0","0","90041","","191","","","75","4","","","1","4","training","adjacent","BC","2","3","Q.jpg","O.jpg","1","1","1","",""
"","feedback","","html-keyboard-response","39","148717","0.0-1.0-42.0-0.0","0","0","90041","","null","","","null","4","","","","","","","","","","","","","","","",""
"","ITI","","html-keyboard-response","40","149721","0.0-1.0-45.0","0","0","90041","","null","","","null","4","","","","","","","","","","","","","","","NaN",""
"","S1","","html-keyboard-response","41","149976","0.0-1.0-47.0","0","0","90041","","null","","","null","5","","","","","","","","","","","","","","","",""
"","ISI","","html-keyboard-response","42","151980","0.0-1.0-48.0","0","0","90041","","2","","","32","5","space","","","","","","","","","","","","","","",""
"","S2","","html-keyboard-response","43","152077","0.0-1.0-49.0","0","0","90041","","95","","","68","5","","d","1","5","training","adjacent","BA","2","1","Q.jpg","M.jpg","0","0","1","",""
"","feedback","","html-keyboard-response","44","153080","0.0-1.0-51.0-0.0","0","0","90041","","null","","","null","5","","","","","","","","","","","","","","","",""
"","ITI","","html-keyboard-response","45","154083","0.0-1.0-54.0","0","0","90041","","297","","","32","5","","","","","","","","","","","","","","","space",""
"","S1","","html-keyboard-response","46","154337","0.0-1.0-56.0","0","0","90041","","null","","","null","6","","","","","","","","","","","","","","","",""
"","ISI","","html-keyboard-response","47","156343","0.0-1.0-57.0","0","0","90041","","43","","","32","6","space","","","","","","","","","","","","","","",""
"","S2","","html-keyboard-response","48","156497","0.0-1.0-58.0","0","0","90041","","152","","","75","6","","k","1","6","training","adjacent","DE","4","5","N.jpg","P.jpg","1","1","1","",""
"","feedback","","html-keyboard-response","49","157501","0.0-1.0-60.0-0.0","0","0","90041","","null","","","null","6","","","","","","","","","","","","","","","",""
"","ITI","","html-keyboard-response","50","158504","0.0-1.0-63.0","0","0","90041","","175","","","32","6","","","","","","","","","","","","","","","space",""
"","S1","","html-keyboard-response","51","158759","0.0-1.0-65.0","0","0","90041","","null","","","null","7","","","","","","","","","","","","","","","",""
"","ISI","","html-keyboard-response","52","160763","0.0-1.0-66.0","0","0","90041","","60","","","68","7","d","","","","","","","","","","","","","","",""
"","S2","","html-keyboard-response","53","160811","0.0-1.0-67.0","0","0","90041","","46","","","75","7","","k","1","7","training","adjacent","DE","4","5","N.jpg","P.jpg","1","1","1","",""
"","feedback","","html-keyboard-response","54","161817","0.0-1.0-69.0-0.0","0","0","90041","","null","","","null","7","","","","","","","","","","","","","","","",""
"","ITI","","html-keyboard-response","55","162821","0.0-1.0-72.0","0","0","90041","","176","","","75","7","","","","","","","","","","","","","","","k",""
"","S1","","html-keyboard-response","56","163075","0.0-1.0-74.0","0","0","90041","","null","","","null","8","","","","","","","","","","","","","","","",""
"","ISI","","html-keyboard-response","57","165081","0.0-1.0-75.0","0","0","90041","","9","","","68","8","d","","","","","","","","","","","","","","",""
"","S2","","html-keyboard-response","58","165247","0.0-1.0-76.0","0","0","90041","","165","","","68","8","","d","1","8","training","adjacent","FG","6","7","R.jpg","L.jpg","0","1","0","",""
"","feedback","","html-keyboard-response","59","166251","0.0-1.0-78.0-0.0","0","0","90041","","null","","","null","8","","","","","","","","","","","","","","","",""
"","time_out","","html-keyboard-response","60","168254","0.0-1.0-80.0-0.0","0","0","90041","","null","","","null","8","","","","","","","","","","","","","","","",""
"","ITI","","html-keyboard-response","61","169258","0.0-1.0-81.0","0","0","90041","","176","","","32","8","","","","","","","","","","","","","","","space",""
"","S1","","html-keyboard-response","62","169513","0.0-1.0-83.0","0","0","90041","","null","","","null","9","","","","","","","","","","","","","","","",""
"","ISI","","html-keyboard-response","63","171517","0.0-1.0-84.0","0","0","90041","","115","","","32","9","space","","","","","","","","","","","","","","",""
"","S2","","html-keyboard-response","64","171771","0.0-1.0-85.0","0","0","90041","","null","","","null","9","","NaN","","","","","","","","","","","","","",""
"","response","","html-keyboard-response","65","171783","0.0-1.0-86.0-0.0","0","0","90041","","10","","","75","9","","","1","9","training","adjacent","ED","5","4","P.jpg","N.jpg","1","0","0","",""
"","feedback","","html-keyboard-response","66","172787","0.0-1.0-87.0-0.0","0","0","90041","","null","","","null","9","","","","","","","","","","","","","","","",""
"","time_out","","html-keyboard-response","67","174792","0.0-1.0-89.0-0.0","0","0","90041","","null","","","null","9","","","","","","","","","","","","","","","",""
"","ITI","","html-keyboard-response","68","175797","0.0-1.0-90.0","0","0","90041","","50","","","32","9","","","","","","","","","","","","","","","space",""
"","S1","","html-keyboard-response","69","176051","0.0-1.0-92.0","0","0","90041","","null","","","null","10","","","","","","","","","","","","","","","",""
"","ISI","","html-keyboard-response","70","178059","0.0-1.0-93.0","0","0","90041","","105","","","32","10","space","","","","","","","","","","","","","","",""
"","S2","","html-keyboard-response","71","178324","0.0-1.0-94.0","0","0","90041","","null","","","null","10","","NaN","","","","","","","","","","","","","",""
"","response","","html-keyboard-response","72","178331","0.0-1.0-95.0-0.0","0","0","90041","","5","","","68","10","","","1","10","training","adjacent","CB","3","2","O.jpg","Q.jpg","0","0","1","",""
"","feedback","","html-keyboard-response","73","179337","0.0-1.0-96.0-0.0","0","0","90041","","null","","","null","10","","","","","","","","","","","","","","","",""
"","ITI","","html-keyboard-response","74","180342","0.0-1.0-99.0","0","0","90041","","289","","","32","10","","","","","","","","","","","","","","","space",""
"","S1","","html-keyboard-response","75","180596","0.0-1.0-101.0","0","0","90041","","null","","","null","11","","","","","","","","","","","","","","","",""
"","ISI","","html-keyboard-response","76","182600","0.0-1.0-102.0","0","0","90041","","47","","","32","11","space","","","","","","","","","","","","","","",""
"","S2","","html-keyboard-response","77","182854","0.0-1.0-103.0","0","0","90041","","null","","","null","11","","NaN","","","","","","","","","","","","","",""
"","response","","html-keyboard-response","78","183196","0.0-1.0-104.0-0.0","0","0","90041","","341","","","75","11","","","1","11","training","adjacent","ED","5","4","P.jpg","N.jpg","1","0","0","",""
"","feedback","","html-keyboard-response","79","184217","0.0-1.0-105.0-0.0","0","0","90041","","null","","","null","11","","","","","","","","","","","","","","","",""
"","time_out","","html-keyboard-response","80","186222","0.0-1.0-107.0-0.0","0","0","90041","","null","","","null","11","","","","","","","","","","","","","","","",""
"","ITI","","html-keyboard-response","81","187233","0.0-1.0-108.0","0","0","90041","","282","","","32","11","","","","","","","","","","","","","","","space",""
"","S1","","html-keyboard-response","82","187487","0.0-1.0-110.0","0","0","90041","","null","","","null","12","","","","","","","","","","","","","","","",""
"","ISI","","html-keyboard-response","83","189490","0.0-1.0-111.0","0","0","90041","","167","","","32","12","space","","","","","","","","","","","","","","",""
"","S2","","html-keyboard-response","84","189509","0.0-1.0-112.0","0","0","90041","","18","","","68","12","","d","1","12","training","adjacent","DC","4","3","N.jpg","O.jpg","0","0","1","",""
"","feedback","","html-keyboard-response","85","190512","0.0-1.0-114.0-0.0","0","0","90041","","null","","","null","12","","","","","","","","","","","","","","","",""
"","ITI","","html-keyboard-response","86","191516","0.0-1.0-117.0","0","0","90041","","807","","","68","12","","","","","","","","","","","","","","","d",""
"","S1","","html-keyboard-response","87","191769","0.0-1.0-119.0","0","0","90041","","null","","","null","13","","","","","","","","","","","","","","","",""
"","ISI","","html-keyboard-response","88","193776","0.0-1.0-120.0","0","0","90041","","89","","","74","13","j","","","","","","","","","","","","","","",""
"","S2","","html-keyboard-response","89","194033","0.0-1.0-121.0","0","0","90041","","null","","","null","13","","NaN","","","","","","","","","","","","","",""
"","response","","html-keyboard-response","90","194514","0.0-1.0-122.0-0.0","0","0","90041","","480","","","68","13","","","1","13","training","adjacent","DC","4","3","N.jpg","O.jpg","0","0","1","",""
"","feedback","","html-keyboard-response","91","195517","0.0-1.0-123.0-0.0","0","0","90041","","null","","","null","13","","","","","","","","","","","","","","","",""
"","ITI","","html-keyboard-response","92","196523","0.0-1.0-126.0","0","0","90041","","null","","","null","13","","","","","","","","","","","","","","","NaN",""
"","S1","","html-keyboard-response","93","196776","0.0-1.0-128.0","0","0","90041","","null","","","null","14","","","","","","","","","","","","","","","",""
"","ISI","","html-keyboard-response","94","198779","0.0-1.0-129.0","0","0","90041","","845","","","68","14","d","","","","","","","","","","","","","","",""
"","S2","","html-keyboard-response","95","199037","0.0-1.0-130.0","0","0","90041","","null","","","null","14","","NaN","","","","","","","","","","","","","",""
"","response","","html-keyboard-response","96","199456","0.0-1.0-131.0-0.0","0","0","90041","","417","","","68","14","","","1","14","training","adjacent","AB","1","2","M.jpg","Q.jpg","0","1","0","",""
"","feedback","","html-keyboard-response","97","200464","0.0-1.0-132.0-0.0","0","0","90041","","null","","","null","14","","","","","","","","","","","","","","","",""
"","time_out","","html-keyboard-response","98","202466","0.0-1.0-134.0-0.0","0","0","90041","","null","","","null","14","","","","","","","","","","","","","","","",""
"","ITI","","html-keyboard-response","99","203470","0.0-1.0-135.0","0","0","90041","","41","","","74","14","","","","","","","","","","","","","","","j",""
"","S1","","html-keyboard-response","100","203725","0.0-1.0-137.0","0","0","90041","","null","","","null","15","","","","","","","","","","","","","","","",""
"","ISI","","html-keyboard-response","101","205731","0.0-1.0-138.0","0","0","90041","","6","","","74","15","j","","","","","","","","","","","","","","",""
"","S2","","html-keyboard-response","102","205986","0.0-1.0-139.0","0","0","90041","","null","","","null","15","","NaN","","","","","","","","","","","","","",""
"","response","","html-keyboard-response","103","206031","0.0-1.0-140.0-0.0","0","0","90041","","42","","","68","15","","","1","15","training","adjacent","GF","7","6","L.jpg","R.jpg","0","0","1","",""
"","feedback","","html-keyboard-response","104","207037","0.0-1.0-141.0-0.0","0","0","90041","","null","","","null","15","","","","","","","","","","","","","","","",""
"","ITI","","html-keyboard-response","105","208053","0.0-1.0-144.0","0","0","90041","","null","","","null","15","","","","","","","","","","","","","","","NaN",""
"","S1","","html-keyboard-response","106","208311","0.0-1.0-146.0","0","0","90041","","null","","","null","16","","","","","","","","","","","","","","","",""
"","ISI","","html-keyboard-response","107","210320","0.0-1.0-147.0","0","0","90041","","135","","","74","16","j","","","","","","","","","","","","","","",""
"","S2","","html-keyboard-response","108","210429","0.0-1.0-148.0","0","0","90041","","107","","","68","16","","d","1","16","training","adjacent","EF","5","6","P.jpg","R.jpg","0","1","0","",""
"","feedback","","html-keyboard-response","109","211434","0.0-1.0-150.0-0.0","0","0","90041","","null","","","null","16","","","","","","","","","","","","","","","",""
"","time_out","","html-keyboard-response","110","213437","0.0-1.0-152.0-0.0","0","0","90041","","null","","","null","16","","","","","","","","","","","","","","","",""
"","ITI","","html-keyboard-response","111","214441","0.0-1.0-153.0","0","0","90041","","48","","","68","16","","","","","","","","","","","","","","","d",""
"","S1","","html-keyboard-response","112","214697","0.0-1.0-155.0","0","0","90041","","null","","","null","17","","","","","","","","","","","","","","","",""
"","ISI","","html-keyboard-response","113","216703","0.0-1.0-156.0","0","0","90041","","43","","","74","17","j","","","","","","","","","","","","","","",""
"","S2","","html-keyboard-response","114","216758","0.0-1.0-157.0","0","0","90041","","53","","","68","17","","d","1","17","training","adjacent","CB","3","2","O.jpg","Q.jpg","0","0","1","",""
"","feedback","","html-keyboard-response","115","217762","0.0-1.0-159.0-0.0","0","0","90041","","null","","","null","17","","","","","","","","","","","","","","","",""
"","ITI","","html-keyboard-response","116","218766","0.0-1.0-162.0","0","0","90041","","144","","","74","17","","","","","","","","","","","","","","","j",""
"","S1","","html-keyboard-response","117","219020","0.0-1.0-164.0","0","0","90041","","null","","","null","18","","","","","","","","","","","","","","","",""
"","ISI","","html-keyboard-response","118","221026","0.0-1.0-165.0","0","0","90041","","597","","","68","18","d","","","","","","","","","","","","","","",""
"","S2","","html-keyboard-response","119","221105","0.0-1.0-166.0","0","0","90041","","77","","","68","18","","d","1","18","training","adjacent","GF","7","6","L.jpg","R.jpg","0","0","1","",""
"","feedback","","html-keyboard-response","120","222112","0.0-1.0-168.0-0.0","0","0","90041","","null","","","null","18","","","","","","","","","","","","","","","",""
"","ITI","","html-keyboard-response","121","223117","0.0-1.0-171.0","0","0","90041","","90","","","74","18","","","","","","","","","","","","","","","j",""
"","S1","","html-keyboard-response","122","223371","0.0-1.0-173.0","0","0","90041","","null","","","null","19","","","","","","","","","","","","","","","",""
"","ISI","","html-keyboard-response","123","225374","0.0-1.0-174.0","0","0","90041","","193","","","68","19","d","","","","","","","","","","","","","","",""
"","S2","","html-keyboard-response","124","225627","0.0-1.0-175.0","0","0","90041","","null","","","null","19","","NaN","","","","","","","","","","","","","",""
"","response","","html-keyboard-response","125","225776","0.0-1.0-176.0-0.0","0","0","90041","","147","","","68","19","","","1","19","training","adjacent","BA","2","1","Q.jpg","M.jpg","0","0","1","",""
"","feedback","","html-keyboard-response","126","226778","0.0-1.0-177.0-0.0","0","0","90041","","null","","","null","19","","","","","","","","","","","","","","","",""
"","ITI","","html-keyboard-response","127","227782","0.0-1.0-180.0","0","0","90041","","227","","","74","19","","","","","","","","","","","","","","","j",""
"","S1","","html-keyboard-response","128","228037","0.0-1.0-182.0","0","0","90041","","null","","","null","20","","","","","","","","","","","","","","","",""
"","ISI","","html-keyboard-response","129","230042","0.0-1.0-183.0","0","0","90041","","251","","","68","20","d","","","","","","","","","","","","","","",""
"","S2","","html-keyboard-response","130","230075","0.0-1.0-184.0","0","0","90041","","31","","","68","20","","d","1","20","training","adjacent","ED","5","4","P.jpg","N.jpg","0","0","1","",""
"","feedback","","html-keyboard-response","131","231078","0.0-1.0-186.0-0.0","0","0","90041","","null","","","null","20","","","","","","","","","","","","","","","",""
"","ITI","","html-keyboard-response","132","232092","0.0-1.0-189.0","0","0","90041","","176","","","74","20","","","","","","","","","","","","","","","j",""
"","S1","","html-keyboard-response","133","232348","0.0-1.0-191.0","0","0","90041","","null","","","null","21","","","","","","","","","","","","","","","",""
"","ISI","","html-keyboard-response","134","234353","0.0-1.0-192.0","0","0","90041","","156","","","68","21","d","","","","","","","","","","","","","","",""
"","S2","","html-keyboard-response","135","234367","0.0-1.0-193.0","0","0","90041","","12","","","68","21","","d","1","21","training","adjacent","BC","2","3","Q.jpg","O.jpg","0","1","0","",""
"","feedback","","html-keyboard-response","136","235376","0.0-1.0-195.0-0.0","0","0","90041","","null","","","null","21","","","","","","","","","","","","","","","",""
"","time_out","","html-keyboard-response","137","237382","0.0-1.0-197.0-0.0","0","0","90041","","null","","","null","21","","","","","","","","","","","","","","","",""
"","ITI","","html-keyboard-response","138","238395","0.0-1.0-198.0","0","0","90041","","504","","","74","21","","","","","","","","","","","","","","","j",""
"","S1","","html-keyboard-response","139","238652","0.0-1.0-200.0","0","0","90041","","null","","","null","22","","","","","","","","","","","","","","","",""
"","ISI","","html-keyboard-response","140","240658","0.0-1.0-201.0","0","0","90041","","141","","","68","22","d","","","","","","","","","","","","","","",""
"","S2","","html-keyboard-response","141","240746","0.0-1.0-202.0","0","0","90041","","87","","","68","22","","d","1","22","training","adjacent","FE","6","5","R.jpg","P.jpg","0","0","1","",""
"","feedback","","html-keyboard-response","142","241751","0.0-1.0-204.0-0.0","0","0","90041","","null","","","null","22","","","","","","","","","","","","","","","",""
"","ITI","","html-keyboard-response","143","242754","0.0-1.0-207.0","0","0","90041","","198","","","68","22","","","","","","","","","","","","","","","d",""
"","S1","","html-keyboard-response","144","243007","0.0-1.0-209.0","0","0","90041","","null","","","null","23","","","","","","","","","","","","","","","",""
"","ISI","","html-keyboard-response","145","245011","0.0-1.0-210.0","0","0","90041","","0","","","74","23","j","","","","","","","","","","","","","","",""
"","S2","","html-keyboard-response","146","245162","0.0-1.0-211.0","0","0","90041","","149","","","68","23","","d","1","23","training","adjacent","CB","3","2","O.jpg","Q.jpg","0","0","1","",""
"","feedback","","html-keyboard-response","147","246165","0.0-1.0-213.0-0.0","0","0","90041","","null","","","null","23","","","","","","","","","","","","","","","",""
"","ITI","","html-keyboard-response","148","247168","0.0-1.0-216.0","0","0","90041","","167","","","68","23","","","","","","","","","","","","","","","d",""
"","S1","","html-keyboard-response","149","247424","0.0-1.0-218.0","0","0","90041","","null","","","null","24","","","","","","","","","","","","","","","",""
"","ISI","","html-keyboard-response","150","249428","0.0-1.0-219.0","0","0","90041","","107","","","74","24","j","","","","","","","","","","","","","","",""
"","S2","","html-keyboard-response","151","249449","0.0-1.0-220.0","0","0","90041","","19","","","68","24","","d","1","24","training","adjacent","FE","6","5","R.jpg","P.jpg","0","0","1","",""
"","feedback","","html-keyboard-response","152","250457","0.0-1.0-222.0-0.0","0","0","90041","","null","","","null","24","","","","","","","","","","","","","","","",""
"","ITI","","html-keyboard-response","153","251474","0.0-1.0-225.0","0","0","90041","","163","","","68","24","","","","","","","","","","","","","","","d",""
"","S1","","html-keyboard-response","154","251727","0.0-1.0-227.0","0","0","90041","","null","","","null","25","","","","","","","","","","","","","","","",""
"","ISI","","html-keyboard-response","155","253732","0.0-1.0-228.0","0","0","90041","","145","","","74","25","j","","","","","","","","","","","","","","",""
"","S2","","html-keyboard-response","156","253827","0.0-1.0-229.0","0","0","90041","","93","","","68","25","","d","1","25","training","adjacent","AB","1","2","M.jpg","Q.jpg","0","1","0","",""
"","feedback","","html-keyboard-response","157","254830","0.0-1.0-231.0-0.0","0","0","90041","","null","","","null","25","","","","","","","","","","","","","","","",""
"","time_out","","html-keyboard-response","158","256836","0.0-1.0-233.0-0.0","0","0","90041","","null","","","null","25","","","","","","","","","","","","","","","",""
"","ITI","","html-keyboard-response","159","257840","0.0-1.0-234.0","0","0","90041","","5","","","74","25","","","","","","","","","","","","","","","j",""
"","S1","","html-keyboard-response","160","258095","0.0-1.0-236.0","0","0","90041","","null","","","null","26","","","","","","","","","","","","","","","",""
"","ISI","","html-keyboard-response","161","260097","0.0-1.0-237.0","0","0","90041","","184","","","68","26","d","","","","","","","","","","","","","","",""
"","S2","","html-keyboard-response","162","260350","0.0-1.0-238.0","0","0","90041","","null","","","null","26","","NaN","","","","","","","","","","","","","",""
"","response","","html-keyboard-response","163","260647","0.0-1.0-239.0-0.0","0","0","90041","","295","","","68","26","","","1","26","training","adjacent","FG","6","7","R.jpg","L.jpg","0","1","0","",""
"","feedback","","html-keyboard-response","164","261653","0.0-1.0-240.0-0.0","0","0","90041","","null","","","null","26","","","","","","","","","","","","","","","",""
"","time_out","","html-keyboard-response","165","263656","0.0-1.0-242.0-0.0","0","0","90041","","null","","","null","26","","","","","","","","","","","","","","","",""
"","ITI","","html-keyboard-response","166","264659","0.0-1.0-243.0","0","0","90041","","344","","","68","26","","","","","","","","","","","","","","","d",""
"","S1","","html-keyboard-response","167","264914","0.0-1.0-245.0","0","0","90041","","null","","","null","27","","","","","","","","","","","","","","","",""
"","ISI","","html-keyboard-response","168","266920","0.0-1.0-246.0","0","0","90041","","70","","","75","27","k","","","","","","","","","","","","","","",""
"","S2","","html-keyboard-response","169","266944","0.0-1.0-247.0","0","0","90041","","22","","","75","27","","k","1","27","training","adjacent","DC","4","3","N.jpg","O.jpg","1","0","0","",""
"","feedback","","html-keyboard-response","170","267948","0.0-1.0-249.0-0.0","0","0","90041","","null","","","null","27","","","","","","","","","","","","","","","",""
"","time_out","","html-keyboard-response","171","269950","0.0-1.0-251.0-0.0","0","0","90041","","null","","","null","27","","","","","","","","","","","","","","","",""
"","ITI","","html-keyboard-response","172","270954","0.0-1.0-252.0","0","0","90041","","94","","","74","27","","","","","","","","","","","","","","","j",""
"","S1","","html-keyboard-response","173","271208","0.0-1.0-254.0","0","0","90041","","null","","","null","28","","","","","","","","","","","","","","","",""
"","ISI","","html-keyboard-response","174","273210","0.0-1.0-255.0","0","0","90041","","160","","","74","28","j","","","","","","","","","","","","","","",""
"","S2","","html-keyboard-response","175","273408","0.0-1.0-256.0","0","0","90041","","196","","","68","28","","d","1","28","training","adjacent","DE","4","5","N.jpg","P.jpg","0","1","0","",""
"","feedback","","html-keyboard-response","176","274413","0.0-1.0-258.0-0.0","0","0","90041","","null","","","null","28","","","","","","","","","","","","","","","",""
"","time_out","","html-keyboard-response","177","276419","0.0-1.0-260.0-0.0","0","0","90041","","null","","","null","28","","","","","","","","","","","","","","","",""
"","ITI","","html-keyboard-response","178","277423","0.0-1.0-261.0","0","0","90041","","53","","","74","28","","","","","","","","","","","","","","","j",""
"","S1","","html-keyboard-response","179","277677","0.0-1.0-263.0","0","0","90041","","null","","","null","29","","","","","","","","","","","","","","","",""
"","ISI","","html-keyboard-response","180","279686","0.0-1.0-264.0","0","0","90041","","175","","","74","29","j","","","","","","","","","","","","","","",""
"","S2","","html-keyboard-response","181","279940","0.0-1.0-265.0","0","0","90041","","null","","","null","29","","NaN","","","","","","","","","","","","","",""
"","response","","html-keyboard-response","182","281340","0.0-1.0-266.0-0.0","0","0","90041","","1398","","","68","29","","","1","29","training","adjacent","AB","1","2","M.jpg","Q.jpg","0","1","0","",""
"","feedback","","html-keyboard-response","183","282343","0.0-1.0-267.0-0.0","0","0","90041","","null","","","null","29","","","","","","","","","","","","","","","",""
"","time_out","","html-keyboard-response","184","284348","0.0-1.0-269.0-0.0","0","0","90041","","null","","","null","29","","","","","","","","","","","","","","","",""
"","ITI","","html-keyboard-response","185","285351","0.0-1.0-270.0","0","0","90041","","116","","","75","29","","","","","","","","","","","","","","","k",""
"","S1","","html-keyboard-response","186","285606","0.0-1.0-272.0","0","0","90041","","null","","","null","30","","","","","","","","","","","","","","","",""
"","ISI","","html-keyboard-response","187","287610","0.0-1.0-273.0","0","0","90041","","171","","","75","30","k","","","","","","","","","","","","","","",""
"","S2","","html-keyboard-response","188","287634","0.0-1.0-274.0","0","0","90041","","21","","","75","30","","k","1","30","training","adjacent","BA","2","1","Q.jpg","M.jpg","1","0","0","",""
"","feedback","","html-keyboard-response","189","288641","0.0-1.0-276.0-0.0","0","0","90041","","null","","","null","30","","","","","","","","","","","","","","","",""
"","time_out","","html-keyboard-response","190","290644","0.0-1.0-278.0-0.0","0","0","90041","","null","","","null","30","","","","","","","","","","","","","","","",""
"","ITI","","html-keyboard-response","191","291648","0.0-1.0-279.0","0","0","90041","","68","","","75","30","","","","","","","","","","","","","","","k",""
"","S1","","html-keyboard-response","192","291902","0.0-1.0-281.0","0","0","90041","","null","","","null","31","","","","","","","","","","","","","","","",""
"","ISI","","html-keyboard-response","193","293908","0.0-1.0-282.0","0","0","90041","","191","","","75","31","k","","","","","","","","","","","","","","",""
"","S2","","html-keyboard-response","194","294097","0.0-1.0-283.0","0","0","90041","","186","","","68","31","","d","1","31","training","adjacent","ED","5","4","P.jpg","N.jpg","0","0","1","",""
"","feedback","","html-keyboard-response","195","295101","0.0-1.0-285.0-0.0","0","0","90041","","null","","","null","31","","","","","","","","","","","","","","","",""
"","ITI","","html-keyboard-response","196","296106","0.0-1.0-288.0","0","0","90041","","82","","","75","31","","","","","","","","","","","","","","","k",""
"","S1","","html-keyboard-response","197","296360","0.0-1.0-290.0","0","0","90041","","null","","","null","32","","","","","","","","","","","","","","","",""
"","ISI","","html-keyboard-response","198","298364","0.0-1.0-291.0","0","0","90041","","84","","","68","32","d","","","","","","","","","","","","","","",""
"","S2","","html-keyboard-response","199","298385","0.0-1.0-292.0","0","0","90041","","19","","","75","32","","k","1","32","training","adjacent","GF","7","6","L.jpg","R.jpg","1","0","0","",""
"","feedback","","html-keyboard-response","200","299389","0.0-1.0-294.0-0.0","0","0","90041","","null","","","null","32","","","","","","","","","","","","","","","",""
"","time_out","","html-keyboard-response","201","301393","0.0-1.0-296.0-0.0","0","0","90041","","null","","","null","32","","","","","","","","","","","","","","","",""
"","ITI","","html-keyboard-response","202","302397","0.0-1.0-297.0","0","0","90041","","41","","","68","32","","","","","","","","","","","","","","","d",""
"","S1","","html-keyboard-response","203","302652","0.0-1.0-299.0","0","0","90041","","null","","","null","33","","","","","","","","","","","","","","","",""
"","ISI","","html-keyboard-response","204","304657","0.0-1.0-300.0","0","0","90041","","0","","","75","33","k","","","","","","","","","","","","","","",""
"","S2","","html-keyboard-response","205","304748","0.0-1.0-301.0","0","0","90041","","89","","","68","33","","d","1","33","training","adjacent","EF","5","6","P.jpg","R.jpg","0","1","0","",""
"","feedback","","html-keyboard-response","206","305767","0.0-1.0-303.0-0.0","0","0","90041","","null","","","null","33","","","","","","","","","","","","","","","",""
"","time_out","","html-keyboard-response","207","307772","0.0-1.0-305.0-0.0","0","0","90041","","null","","","null","33","","","","","","","","","","","","","","","",""
"","ITI","","html-keyboard-response","208","308776","0.0-1.0-306.0","0","0","90041","","95","","","68","33","","","","","","","","","","","","","","","d",""
"","S1","","html-keyboard-response","209","309030","0.0-1.0-308.0","0","0","90041","","null","","","null","34","","","","","","","","","","","","","","","",""
"","ISI","","html-keyboard-response","210","311034","0.0-1.0-309.0","0","0","90041","","0","","","68","34","d","","","","","","","","","","","","","","",""
"","S2","","html-keyboard-response","211","311191","0.0-1.0-310.0","0","0","90041","","154","","","68","34","","d","1","34","training","adjacent","BA","2","1","Q.jpg","M.jpg","0","0","1","",""
"","feedback","","html-keyboard-response","212","312196","0.0-1.0-312.0-0.0","0","0","90041","","null","","","null","34","","","","","","","","","","","","","","","",""
"","ITI","","html-keyboard-response","213","313201","0.0-1.0-315.0","0","0","90041","","132","","","75","34","","","","","","","","","","","","","","","k",""
"","S1","","html-keyboard-response","214","313455","0.0-1.0-317.0","0","0","90041","","null","","","null","35","","","","","","","","","","","","","","","",""
"","ISI","","html-keyboard-response","215","315460","0.0-1.0-318.0","0","0","90041","","168","","","75","35","k","","","","","","","","","","","","","","",""
"","S2","","html-keyboard-response","216","315476","0.0-1.0-319.0","0","0","90041","","13","","","75","35","","k","1","35","training","adjacent","FG","6","7","R.jpg","L.jpg","1","1","1","",""
"","feedback","","html-keyboard-response","217","316480","0.0-1.0-321.0-0.0","0","0","90041","","null","","","null","35","","","","","","","","","","","","","","","",""
"","ITI","","html-keyboard-response","218","317485","0.0-1.0-324.0","0","0","90041","","55","","","75","35","","","","","","","","","","","","","","","k",""
"","S1","","html-keyboard-response","219","317739","0.0-1.0-326.0","0","0","90041","","null","","","null","36","","","","","","","","","","","","","","","",""
"","ISI","","html-keyboard-response","220","319743","0.0-1.0-327.0","0","0","90041","","3","","","75","36","k","","","","","","","","","","","","","","",""
"","S2","","html-keyboard-response","221","319774","0.0-1.0-328.0","0","0","90041","","30","","","75","36","","k","1","36","training","adjacent","BC","2","3","Q.jpg","O.jpg","1","1","1","",""
"","feedback","","html-keyboard-response","222","320777","0.0-1.0-330.0-0.0","0","0","90041","","null","","","null","36","","","","","","","","","","","","","","","",""
"","ITI","","html-keyboard-response","223","321780","0.0-1.0-333.0","0","0","90041","","129","","","68","36","","","","","","","","","","","","","","","d",""
"","S1","","html-keyboard-response","224","322033","0.0-1.0-335.0","0","0","90041","","null","","","null","37","","","","","","","","","","","","","","","",""
"","ISI","","html-keyboard-response","225","324038","0.0-1.0-336.0","0","0","90041","","100","","","75","37","k","","","","","","","","","","","","","","",""
"","S2","","html-keyboard-response","226","324093","0.0-1.0-337.0","0","0","90041","","53","","","75","37","","k","1","37","training","adjacent","AB","1","2","M.jpg","Q.jpg","1","1","1","",""
"","feedback","","html-keyboard-response","227","325098","0.0-1.0-339.0-0.0","0","0","90041","","null","","","null","37","","","","","","","","","","","","","","","",""
"","ITI","","html-keyboard-response","228","326102","0.0-1.0-342.0","0","0","90041","","29","","","68","37","","","","","","","","","","","","","","","d",""
"","S1","","html-keyboard-response","229","326354","0.0-1.0-344.0","0","0","90041","","null","","","null","38","","","","","","","","","","","","","","","",""
"","ISI","","html-keyboard-response","230","328360","0.0-1.0-345.0","0","0","90041","","138","","","75","38","k","","","","","","","","","","","","","","",""
"","S2","","html-keyboard-response","231","328441","0.0-1.0-346.0","0","0","90041","","78","","","68","38","","d","1","38","training","adjacent","CB","3","2","O.jpg","Q.jpg","0","0","1","",""
"","feedback","","html-keyboard-response","232","329444","0.0-1.0-348.0-0.0","0","0","90041","","null","","","null","38","","","","","","","","","","","","","","","",""
"","ITI","","html-keyboard-response","233","330447","0.0-1.0-351.0","0","0","90041","","113","","","68","38","","","","","","","","","","","","","","","d",""
"","S1","","html-keyboard-response","234","330700","0.0-1.0-353.0","0","0","90041","","null","","","null","39","","","","","","","","","","","","","","","",""
"","ISI","","html-keyboard-response","235","332705","0.0-1.0-354.0","0","0","90041","","40","","","75","39","k","","","","","","","","","","","","","","",""
"","S2","","html-keyboard-response","236","332849","0.0-1.0-355.0","0","0","90041","","141","","","75","39","","k","1","39","training","adjacent","CD","3","4","O.jpg","N.jpg","1","1","1","",""
"","feedback","","html-keyboard-response","237","333855","0.0-1.0-357.0-0.0","0","0","90041","","null","","","null","39","","","","","","","","","","","","","","","",""
"","ITI","","html-keyboard-response","238","334859","0.0-1.0-360.0","0","0","90041","","154","","","75","39","","","","","","","","","","","","","","","k",""
"","S1","","html-keyboard-response","239","335113","0.0-1.0-362.0","0","0","90041","","null","","","null","40","","","","","","","","","","","","","","","",""
"","ISI","","html-keyboard-response","240","337117","0.0-1.0-363.0","0","0","90041","","27","","","68","40","d","","","","","","","","","","","","","","",""
"","S2","","html-keyboard-response","241","337219","0.0-1.0-364.0","0","0","90041","","100","","","75","40","","k","1","40","training","adjacent","DE","4","5","N.jpg","P.jpg","1","1","1","",""
"","feedback","","html-keyboard-response","242","338226","0.0-1.0-366.0-0.0","0","0","90041","","null","","","null","40","","","","","","","","","","","","","","","",""
"","ITI","","html-keyboard-response","243","339230","0.0-1.0-369.0","0","0","90041","","42","","","75","40","","","","","","","","","","","","","","","k",""
"","S1","","html-keyboard-response","244","339483","0.0-1.0-371.0","0","0","90041","","null","","","null","41","","","","","","","","","","","","","","","",""
"","ISI","","html-keyboard-response","245","341488","0.0-1.0-372.0","0","0","90041","","1","","","68","41","d","","","","","","","","","","","","","","",""
"","S2","","html-keyboard-response","246","341572","0.0-1.0-373.0","0","0","90041","","82","","","75","41","","k","1","41","training","adjacent","FG","6","7","R.jpg","L.jpg","1","1","1","",""
"","feedback","","html-keyboard-response","247","342575","0.0-1.0-375.0-0.0","0","0","90041","","null","","","null","41","","","","","","","","","","","","","","","",""
"","ITI","","html-keyboard-response","248","343579","0.0-1.0-378.0","0","0","90041","","67","","","75","41","","","","","","","","","","","","","","","k",""
"","S1","","html-keyboard-response","249","343834","0.0-1.0-380.0","0","0","90041","","null","","","null","42","","","","","","","","","","","","","","","",""
"","ISI","","html-keyboard-response","250","345837","0.0-1.0-381.0","0","0","90041","","46","","","68","42","d","","","","","","","","","","","","","","",""
"","S2","","html-keyboard-response","251","345916","0.0-1.0-382.0","0","0","90041","","76","","","75","42","","k","1","42","training","adjacent","FE","6","5","R.jpg","P.jpg","1","0","0","",""
"","feedback","","html-keyboard-response","252","346921","0.0-1.0-384.0-0.0","0","0","90041","","null","","","null","42","","","","","","","","","","","","","","","",""
"","time_out","","html-keyboard-response","253","348926","0.0-1.0-386.0-0.0","0","0","90041","","null","","","null","42","","","","","","","","","","","","","","","",""
"","ITI","","html-keyboard-response","254","349930","0.0-1.0-387.0","0","0","90041","","10","","","68","42","","","","","","","","","","","","","","","d",""
"","S1","","html-keyboard-response","255","350184","0.0-1.0-389.0","0","0","90041","","null","","","null","43","","","","","","","","","","","","","","","",""
"","ISI","","html-keyboard-response","256","352188","0.0-1.0-390.0","0","0","90041","","43","","","75","43","k","","","","","","","","","","","","","","",""
"","S2","","html-keyboard-response","257","352203","0.0-1.0-391.0","0","0","90041","","13","","","75","43","","k","1","43","training","adjacent","EF","5","6","P.jpg","R.jpg","1","1","1","",""
"","feedback","","html-keyboard-response","258","353209","0.0-1.0-393.0-0.0","0","0","90041","","null","","","null","43","","","","","","","","","","","","","","","",""
"","ITI","","html-keyboard-response","259","354212","0.0-1.0-396.0","0","0","90041","","74","","","75","43","","","","","","","","","","","","","","","k",""
"","S1","","html-keyboard-response","260","354475","0.0-1.0-398.0","0","0","90041","","null","","","null","44","","","","","","","","","","","","","","","",""
"","ISI","","html-keyboard-response","261","356479","0.0-1.0-399.0","0","0","90041","","17","","","75","44","k","","","","","","","","","","","","","","",""
"","S2","","html-keyboard-response","262","356610","0.0-1.0-400.0","0","0","90041","","129","","","75","44","","k","1","44","training","adjacent","BC","2","3","Q.jpg","O.jpg","1","1","1","",""
"","feedback","","html-keyboard-response","263","357617","0.0-1.0-402.0-0.0","0","0","90041","","null","","","null","44","","","","","","","","","","","","","","","",""
"","ITI","","html-keyboard-response","264","358621","0.0-1.0-405.0","0","0","90041","","18","","","68","44","","","","","","","","","","","","","","","d",""
"","S1","","html-keyboard-response","265","358875","0.0-1.0-407.0","0","0","90041","","null","","","null","45","","","","","","","","","","","","","","","",""
"","ISI","","html-keyboard-response","266","360879","0.0-1.0-408.0","0","0","90041","","64","","","75","45","k","","","","","","","","","","","","","","",""
"","S2","","html-keyboard-response","267","360903","0.0-1.0-409.0","0","0","90041","","20","","","75","45","","k","1","45","training","adjacent","DC","4","3","N.jpg","O.jpg","1","0","0","",""
"","feedback","","html-keyboard-response","268","361905","0.0-1.0-411.0-0.0","0","0","90041","","null","","","null","45","","","","","","","","","","","","","","","",""
"","time_out","","html-keyboard-response","269","363912","0.0-1.0-413.0-0.0","0","0","90041","","null","","","null","45","","","","","","","","","","","","","","","",""
"","ITI","","html-keyboard-response","270","364917","0.0-1.0-414.0","0","0","90041","","55","","","68","45","","","","","","","","","","","","","","","d",""
"","S1","","html-keyboard-response","271","365171","0.0-1.0-416.0","0","0","90041","","null","","","null","46","","","","","","","","","","","","","","","",""
"","ISI","","html-keyboard-response","272","367179","0.0-1.0-417.0","0","0","90041","","23","","","75","46","k","","","","","","","","","","","","","","",""
"","S2","","html-keyboard-response","273","367262","0.0-1.0-418.0","0","0","90041","","80","","","68","46","","d","1","46","training","adjacent","CD","3","4","O.jpg","N.jpg","0","1","0","",""
"","feedback","","html-keyboard-response","274","368266","0.0-1.0-420.0-0.0","0","0","90041","","null","","","null","46","","","","","","","","","","","","","","","",""
"","time_out","","html-keyboard-response","275","370275","0.0-1.0-422.0-0.0","0","0","90041","","null","","","null","46","","","","","","","","","","","","","","","",""
"","ITI","","html-keyboard-response","276","371279","0.0-1.0-423.0","0","0","90041","","45","","","75","46","","","","","","","","","","","","","","","k",""
"","S1","","html-keyboard-response","277","371533","0.0-1.0-425.0","0","0","90041","","null","","","null","47","","","","","","","","","","","","","","","",""
"","ISI","","html-keyboard-response","278","373537","0.0-1.0-426.0","0","0","90041","","51","","","75","47","k","","","","","","","","","","","","","","",""
"","S2","","html-keyboard-response","279","373603","0.0-1.0-427.0","0","0","90041","","64","","","68","47","","d","1","47","training","adjacent","CD","3","4","O.jpg","N.jpg","0","1","0","",""
"","feedback","","html-keyboard-response","280","374608","0.0-1.0-429.0-0.0","0","0","90041","","null","","","null","47","","","","","","","","","","","","","","","",""
"","time_out","","html-keyboard-response","281","376612","0.0-1.0-431.0-0.0","0","0","90041","","null","","","null","47","","","","","","","","","","","","","","","",""
"","ITI","","html-keyboard-response","282","377616","0.0-1.0-432.0","0","0","90041","","24","","","75","47","","","","","","","","","","","","","","","k",""
"","block_over","","html-keyboard-response","283","379626","0.0-1.0-433.0-0.0","0","0","90041","","2007","","","32","47","","","","","","","","","","","","","","","",""
"","S1","","html-keyboard-response","284","379879","0.0-1.0-434.0","0","0","90041","","null","","","null","48","","","","","","","","","","","","","","","",""
"","ISI","","html-keyboard-response","285","381882","0.0-1.0-435.0","0","0","90041","","123","","","75","48","k","","","","","","","","","","","","","","",""
"","S2","","html-keyboard-response","286","381915","0.0-1.0-436.0","0","0","90041","","30","","","68","48","","d","2","48","training","adjacent","AB","1","2","M.jpg","Q.jpg","0","1","0","",""
"","feedback","","html-keyboard-response","287","382917","0.0-1.0-438.0-0.0","0","0","90041","","null","","","null","48","","","","","","","","","","","","","","","",""
"","time_out","","html-keyboard-response","288","384920","0.0-1.0-440.0-0.0","0","0","90041","","null","","","null","48","","","","","","","","","","","","","","","",""
"","ITI","","html-keyboard-response","289","385925","0.0-1.0-441.0","0","0","90041","","79","","","74","48","","","","","","","","","","","","","","","j",""
"","S1","","html-keyboard-response","290","386178","0.0-1.0-443.0","0","0","90041","","null","","","null","49","","","","","","","","","","","","","","","",""
"","ISI","","html-keyboard-response","291","388180","0.0-1.0-444.0","0","0","90041","","116","","","74","49","j","","","","","","","","","","","","","","",""
"","S2","","html-keyboard-response","292","388401","0.0-1.0-445.0","0","0","90041","","220","","","68","49","","d","2","49","training","adjacent","FE","6","5","R.jpg","P.jpg","0","0","1","",""
"","feedback","","html-keyboard-response","293","389411","0.0-1.0-447.0-0.0","0","0","90041","","null","","","null","49","","","","","","","","","","","","","","","",""
"","ITI","","html-keyboard-response","294","390415","0.0-1.0-450.0","0","0","90041","","111","","","75","49","","","","","","","","","","","","","","","k",""
"","S1","","html-keyboard-response","295","390670","0.0-1.0-452.0","0","0","90041","","null","","","null","50","","","","","","","","","","","","","","","",""
"","ISI","","html-keyboard-response","296","392673","0.0-1.0-453.0","0","0","90041","","155","","","75","50","k","","","","","","","","","","","","","","",""
"","S2","","html-keyboard-response","297","392817","0.0-1.0-454.0","0","0","90041","","141","","","75","50","","k","2","50","training","adjacent","EF","5","6","P.jpg","R.jpg","1","1","1","",""
"","feedback","","html-keyboard-response","298","393820","0.0-1.0-456.0-0.0","0","0","90041","","null","","","null","50","","","","","","","","","","","","","","","",""
"","ITI","","html-keyboard-response","299","394825","0.0-1.0-459.0","0","0","90041","","123","","","75","50","","","","","","","","","","","","","","","k",""
"","S1","","html-keyboard-response","300","395078","0.0-1.0-461.0","0","0","90041","","null","","","null","51","","","","","","","","","","","","","","","",""
"","ISI","","html-keyboard-response","301","397082","0.0-1.0-462.0","0","0","90041","","143","","","75","51","k","","","","","","","","","","","","","","",""
"","S2","","html-keyboard-response","302","397100","0.0-1.0-463.0","0","0","90041","","17","","","75","51","","k","2","51","training","adjacent","ED","5","4","P.jpg","N.jpg","1","0","0","",""
"","feedback","","html-keyboard-response","303","398103","0.0-1.0-465.0-0.0","0","0","90041","","null","","","null","51","","","","","","","","","","","","","","","",""
"","time_out","","html-keyboard-response","304","400107","0.0-1.0-467.0-0.0","0","0","90041","","null","","","null","51","","","","","","","","","","","","","","","",""
"","ITI","","html-keyboard-response","305","401111","0.0-1.0-468.0","0","0","90041","","86","","","75","51","","","","","","","","","","","","","","","k",""
"","S1","","html-keyboard-response","306","401365","0.0-1.0-470.0","0","0","90041","","null","","","null","52","","","","","","","","","","","","","","","",""
"","ISI","","html-keyboard-response","307","403370","0.0-1.0-471.0","0","0","90041","","65","","","75","52","k","","","","","","","","","","","","","","",""
"","S2","","html-keyboard-response","308","403626","0.0-1.0-472.0","0","0","90041","","null","","","null","52","","NaN","","","","","","","","","","","","","",""
"","response","","html-keyboard-response","309","403965","0.0-1.0-473.0-0.0","0","0","90041","","337","","","75","52","","","2","52","training","adjacent","FE","6","5","R.jpg","P.jpg","1","0","0","",""
"","feedback","","html-keyboard-response","310","404969","0.0-1.0-474.0-0.0","0","0","90041","","null","","","null","52","","","","","","","","","","","","","","","",""
"","time_out","","html-keyboard-response","311","406973","0.0-1.0-476.0-0.0","0","0","90041","","null","","","null","52","","","","","","","","","","","","","","","",""
"","ITI","","html-keyboard-response","312","407988","0.0-1.0-477.0","0","0","90041","","401","","","68","52","","","","","","","","","","","","","","","d",""
"","S1","","html-keyboard-response","313","408240","0.0-1.0-479.0","0","0","90041","","null","","","null","53","","","","","","","","","","","","","","","",""
"","ISI","","html-keyboard-response","314","410244","0.0-1.0-480.0","0","0","90041","","54","","","68","53","d","","","","","","","","","","","","","","",""
"","S2","","html-keyboard-response","315","410498","0.0-1.0-481.0","0","0","90041","","null","","","null","53","","NaN","","","","","","","","","","","","","",""
"","response","","html-keyboard-response","316","411278","0.0-1.0-482.0-0.0","0","0","90041","","778","","","75","53","","","2","53","training","adjacent","FG","6","7","R.jpg","L.jpg","1","1","1","",""
"","feedback","","html-keyboard-response","317","412290","0.0-1.0-483.0-0.0","0","0","90041","","null","","","null","53","","","","","","","","","","","","","","","",""
"","ITI","","html-keyboard-response","318","413294","0.0-1.0-486.0","0","0","90041","","null","","","null","53","","","","","","","","","","","","","","","NaN",""
"","S1","","html-keyboard-response","319","413548","0.0-1.0-488.0","0","0","90041","","null","","","null","54","","","","","","","","","","","","","","","",""
"","ISI","","html-keyboard-response","320","415555","0.0-1.0-489.0","0","0","90041","","null","","","null","54","NaN","","","","","","","","","","","","","","",""
"","S2","","html-keyboard-response","321","415807","0.0-1.0-490.0","0","0","90041","","null","","","null","54","","NaN","","","","","","","","","","","","","",""
"","response","","html-keyboard-response","322","416216","0.0-1.0-491.0-0.0","0","0","90041","","407","","","68","54","","","2","54","training","adjacent","DE","4","5","N.jpg","P.jpg","0","1","0","",""
"","feedback","","html-keyboard-response","323","417219","0.0-1.0-492.0-0.0","0","0","90041","","null","","","null","54","","","","","","","","","","","","","","","",""
"","time_out","","html-keyboard-response","324","419237","0.0-1.0-494.0-0.0","0","0","90041","","null","","","null","54","","","","","","","","","","","","","","","",""
"","ITI","","html-keyboard-response","325","420242","0.0-1.0-495.0","0","0","90041","","129","","","75","54","","","","","","","","","","","","","","","k",""
"","S1","","html-keyboard-response","326","420498","0.0-1.0-497.0","0","0","90041","","null","","","null","55","","","","","","","","","","","","","","","",""
"","ISI","","html-keyboard-response","327","422500","0.0-1.0-498.0","0","0","90041","","15","","","75","55","k","","","","","","","","","","","","","","",""
"","S2","","html-keyboard-response","328","422540","0.0-1.0-499.0","0","0","90041","","39","","","68","55","","d","2","55","training","adjacent","EF","5","6","P.jpg","R.jpg","0","1","0","",""
"","feedback","","html-keyboard-response","329","423544","0.0-1.0-501.0-0.0","0","0","90041","","null","","","null","55","","","","","","","","","","","","","","","",""
"","time_out","","html-keyboard-response","330","425548","0.0-1.0-503.0-0.0","0","0","90041","","null","","","null","55","","","","","","","","","","","","","","","",""
"","ITI","","html-keyboard-response","331","426553","0.0-1.0-504.0","0","0","90041","","156","","","75","55","","","","","","","","","","","","","","","k",""
"","S1","","html-keyboard-response","332","426806","0.0-1.0-506.0","0","0","90041","","null","","","null","56","","","","","","","","","","","","","","","",""
"","ISI","","html-keyboard-response","333","428810","0.0-1.0-507.0","0","0","90041","","8","","","68","56","d","","","","","","","","","","","","","","",""
"","S2","","html-keyboard-response","334","428946","0.0-1.0-508.0","0","0","90041","","134","","","75","56","","k","2","56","training","adjacent","CB","3","2","O.jpg","Q.jpg","1","0","0","",""
"","feedback","","html-keyboard-response","335","429949","0.0-1.0-510.0-0.0","0","0","90041","","null","","","null","56","","","","","","","","","","","","","","","",""
"","time_out","","html-keyboard-response","336","431952","0.0-1.0-512.0-0.0","0","0","90041","","null","","","null","56","","","","","","","","","","","","","","","",""
"","ITI","","html-keyboard-response","337","432957","0.0-1.0-513.0","0","0","90041","","139","","","75","56","","","","","","","","","","","","","","","k",""
"","S1","","html-keyboard-response","338","433211","0.0-1.0-515.0","0","0","90041","","null","","","null","57","","","","","","","","","","","","","","","",""
"","ISI","","html-keyboard-response","339","435215","0.0-1.0-516.0","0","0","90041","","12","","","75","57","k","","","","","","","","","","","","","","",""
"","S2","","html-keyboard-response","340","435244","0.0-1.0-517.0","0","0","90041","","27","","","75","57","","k","2","57","training","adjacent","ED","5","4","P.jpg","N.jpg","1","0","0","",""
"","feedback","","html-keyboard-response","341","436248","0.0-1.0-519.0-0.0","0","0","90041","","null","","","null","57","","","","","","","","","","","","","","","",""
"","time_out","","html-keyboard-response","342","438253","0.0-1.0-521.0-0.0","0","0","90041","","null","","","null","57","","","","","","","","","","","","","","","",""
"","ITI","","html-keyboard-response","343","439255","0.0-1.0-522.0","0","0","90041","","103","","","75","57","","","","","","","","","","","","","","","k",""
"","S1","","html-keyboard-response","344","439510","0.0-1.0-524.0","0","0","90041","","null","","","null","58","","","","","","","","","","","","","","","",""
"","ISI","","html-keyboard-response","345","441514","0.0-1.0-525.0","0","0","90041","","45","","","68","58","d","","","","","","","","","","","","","","",""
"","S2","","html-keyboard-response","346","441686","0.0-1.0-526.0","0","0","90041","","170","","","75","58","","k","2","58","training","adjacent","AB","1","2","M.jpg","Q.jpg","1","1","1","",""
"","feedback","","html-keyboard-response","347","442690","0.0-1.0-528.0-0.0","0","0","90041","","null","","","null","58","","","","","","","","","","","","","","","",""
"","ITI","","html-keyboard-response","348","443694","0.0-1.0-531.0","0","0","90041","","221","","","75","58","","","","","","","","","","","","","","","k",""
"","S1","","html-keyboard-response","349","443949","0.0-1.0-533.0","0","0","90041","","null","","","null","59","","","","","","","","","","","","","","","",""
"","ISI","","html-keyboard-response","350","445952","0.0-1.0-534.0","0","0","90041","","114","","","75","59","k","","","","","","","","","","","","","","",""
"","S2","","html-keyboard-response","351","446164","0.0-1.0-535.0","0","0","90041","","210","","","75","59","","k","2","59","training","adjacent","DC","4","3","N.jpg","O.jpg","1","0","0","",""
"","feedback","","html-keyboard-response","352","447169","0.0-1.0-537.0-0.0","0","0","90041","","null","","","null","59","","","","","","","","","","","","","","","",""
"","time_out","","html-keyboard-response","353","449175","0.0-1.0-539.0-0.0","0","0","90041","","null","","","null","59","","","","","","","","","","","","","","","",""
"","ITI","","html-keyboard-response","354","450180","0.0-1.0-540.0","0","0","90041","","126","","","75","59","","","","","","","","","","","","","","","k",""
"","S1","","html-keyboard-response","355","450435","0.0-1.0-542.0","0","0","90041","","null","","","null","60","","","","","","","","","","","","","","","",""
"","ISI","","html-keyboard-response","356","452441","0.0-1.0-543.0","0","0","90041","","139","","","68","60","d","","","","","","","","","","","","","","",""
"","S2","","html-keyboard-response","357","452633","0.0-1.0-544.0","0","0","90041","","189","","","75","60","","k","2","60","training","adjacent","FG","6","7","R.jpg","L.jpg","1","1","1","",""
"","feedback","","html-keyboard-response","358","453637","0.0-1.0-546.0-0.0","0","0","90041","","null","","","null","60","","","","","","","","","","","","","","","",""
"","ITI","","html-keyboard-response","359","454639","0.0-1.0-549.0","0","0","90041","","133","","","75","60","","","","","","","","","","","","","","","k",""
"","S1","","html-keyboard-response","360","454894","0.0-1.0-551.0","0","0","90041","","null","","","null","61","","","","","","","","","","","","","","","",""
"","ISI","","html-keyboard-response","361","456897","0.0-1.0-552.0","0","0","90041","","24","","","68","61","d","","","","","","","","","","","","","","",""
"","S2","","html-keyboard-response","362","457097","0.0-1.0-553.0","0","0","90041","","199","","","75","61","","k","2","61","training","adjacent","CD","3","4","O.jpg","N.jpg","1","1","1","",""
"","feedback","","html-keyboard-response","363","458102","0.0-1.0-555.0-0.0","0","0","90041","","null","","","null","61","","","","","","","","","","","","","","","",""
"","ITI","","html-keyboard-response","364","459106","0.0-1.0-558.0","0","0","90041","","55","","","75","61","","","","","","","","","","","","","","","k",""
"","S1","","html-keyboard-response","365","459360","0.0-1.0-560.0","0","0","90041","","null","","","null","62","","","","","","","","","","","","","","","",""
"","ISI","","html-keyboard-response","366","461364","0.0-1.0-561.0","0","0","90041","","480","","","75","62","k","","","","","","","","","","","","","","",""
"","S2","","html-keyboard-response","367","461373","0.0-1.0-562.0","0","0","90041","","7","","","75","62","","k","2","62","training","adjacent","BA","2","1","Q.jpg","M.jpg","1","0","0","",""
"","feedback","","html-keyboard-response","368","462376","0.0-1.0-564.0-0.0","0","0","90041","","null","","","null","62","","","","","","","","","","","","","","","",""
"","time_out","","html-keyboard-response","369","464381","0.0-1.0-566.0-0.0","0","0","90041","","null","","","null","62","","","","","","","","","","","","","","","",""
"","ITI","","html-keyboard-response","370","465387","0.0-1.0-567.0","0","0","90041","","15","","","68","62","","","","","","","","","","","","","","","d",""
"","S1","","html-keyboard-response","371","465643","0.0-1.0-569.0","0","0","90041","","null","","","null","63","","","","","","","","","","","","","","","",""
"","ISI","","html-keyboard-response","372","467648","0.0-1.0-570.0","0","0","90041","","2","","","75","63","k","","","","","","","","","","","","","","",""
"","S2","","html-keyboard-response","373","467785","0.0-1.0-571.0","0","0","90041","","135","","","75","63","","k","2","63","training","adjacent","BC","2","3","Q.jpg","O.jpg","1","1","1","",""
"","feedback","","html-keyboard-response","374","468789","0.0-1.0-573.0-0.0","0","0","90041","","null","","","null","63","","","","","","","","","","","","","","","",""
"","ITI","","html-keyboard-response","375","469795","0.0-1.0-576.0","0","0","90041","","51","","","75","63","","","","","","","","","","","","","","","k",""
"","S1","","html-keyboard-response","376","470048","0.0-1.0-578.0","0","0","90041","","null","","","null","64","","","","","","","","","","","","","","","",""
"","ISI","","html-keyboard-response","377","472052","0.0-1.0-579.0","0","0","90041","","53","","","75","64","k","","","","","","","","","","","","","","",""
"","S2","","html-keyboard-response","378","472058","0.0-1.0-580.0","0","0","90041","","3","","","68","64","","d","2","64","training","adjacent","BC","2","3","Q.jpg","O.jpg","0","1","0","",""
"","feedback","","html-keyboard-response","379","473064","0.0-1.0-582.0-0.0","0","0","90041","","null","","","null","64","","","","","","","","","","","","","","","",""
"","time_out","","html-keyboard-response","380","475069","0.0-1.0-584.0-0.0","0","0","90041","","null","","","null","64","","","","","","","","","","","","","","","",""
"","ITI","","html-keyboard-response","381","476072","0.0-1.0-585.0","0","0","90041","","109","","","75","64","","","","","","","","","","","","","","","k",""
"","S1","","html-keyboard-response","382","476328","0.0-1.0-587.0","0","0","90041","","null","","","null","65","","","","","","","","","","","","","","","",""
"","ISI","","html-keyboard-response","383","478332","0.0-1.0-588.0","0","0","90041","","114","","","75","65","k","","","","","","","","","","","","","","",""
"","S2","","html-keyboard-response","384","478337","0.0-1.0-589.0","0","0","90041","","2","","","75","65","","k","2","65","training","adjacent","DC","4","3","N.jpg","O.jpg","1","0","0","",""
"","feedback","","html-keyboard-response","385","479344","0.0-1.0-591.0-0.0","0","0","90041","","null","","","null","65","","","","","","","","","","","","","","","",""
"","time_out","","html-keyboard-response","386","481351","0.0-1.0-593.0-0.0","0","0","90041","","null","","","null","65","","","","","","","","","","","","","","","",""
"","ITI","","html-keyboard-response","387","482355","0.0-1.0-594.0","0","0","90041","","103","","","75","65","","","","","","","","","","","","","","","k",""
"","S1","","html-keyboard-response","388","482608","0.0-1.0-596.0","0","0","90041","","null","","","null","66","","","","","","","","","","","","","","","",""
"","ISI","","html-keyboard-response","389","484613","0.0-1.0-597.0","0","0","90041","","17","","","68","66","d","","","","","","","","","","","","","","",""
"","S2","","html-keyboard-response","390","484774","0.0-1.0-598.0","0","0","90041","","159","","","75","66","","k","2","66","training","adjacent","BC","2","3","Q.jpg","O.jpg","1","1","1","",""
"","feedback","","html-keyboard-response","391","485780","0.0-1.0-600.0-0.0","0","0","90041","","null","","","null","66","","","","","","","","","","","","","","","",""
"","ITI","","html-keyboard-response","392","486785","0.0-1.0-603.0","0","0","90041","","40","","","75","66","","","","","","","","","","","","","","","k",""
"","S1","","html-keyboard-response","393","487051","0.0-1.0-605.0","0","0","90041","","null","","","null","67","","","","","","","","","","","","","","","",""
"","ISI","","html-keyboard-response","394","489055","0.0-1.0-606.0","0","0","90041","","21","","","75","67","k","","","","","","","","","","","","","","",""
"","S2","","html-keyboard-response","395","489234","0.0-1.0-607.0","0","0","90041","","176","","","75","67","","k","2","67","training","adjacent","BC","2","3","Q.jpg","O.jpg","1","1","1","",""
"","feedback","","html-keyboard-response","396","490240","0.0-1.0-609.0-0.0","0","0","90041","","null","","","null","67","","","","","","","","","","","","","","","",""
"","ITI","","html-keyboard-response","397","491246","0.0-1.0-612.0","0","0","90041","","61","","","75","67","","","","","","","","","","","","","","","k",""
"","S1","","html-keyboard-response","398","491502","0.0-1.0-614.0","0","0","90041","","null","","","null","68","","","","","","","","","","","","","","","",""
"","ISI","","html-keyboard-response","399","493505","0.0-1.0-615.0","0","0","90041","","7","","","68","68","d","","","","","","","","","","","","","","",""
"","S2","","html-keyboard-response","400","493506","0.0-1.0-616.0","0","0","90041","","1","","","75","68","","k","2","68","training","adjacent","GF","7","6","L.jpg","R.jpg","1","0","0","",""
"","feedback","","html-keyboard-response","401","494509","0.0-1.0-618.0-0.0","0","0","90041","","null","","","null","68","","","","","","","","","","","","","","","",""
"","time_out","","html-keyboard-response","402","496513","0.0-1.0-620.0-0.0","0","0","90041","","null","","","null","68","","","","","","","","","","","","","","","",""
"","ITI","","html-keyboard-response","403","497517","0.0-1.0-621.0","0","0","90041","","47","","","68","68","","","","","","","","","","","","","","","d",""
"","S1","","html-keyboard-response","404","497772","0.0-1.0-623.0","0","0","90041","","null","","","null","69","","","","","","","","","","","","","","","",""
"","ISI","","html-keyboard-response","405","499779","0.0-1.0-624.0","0","0","90041","","0","","","68","69","d","","","","","","","","","","","","","","",""
"","S2","","html-keyboard-response","406","499811","0.0-1.0-625.0","0","0","90041","","30","","","75","69","","k","2","69","training","adjacent","CD","3","4","O.jpg","N.jpg","1","1","1","",""
"","feedback","","html-keyboard-response","407","500819","0.0-1.0-627.0-0.0","0","0","90041","","null","","","null","69","","","","","","","","","","","","","","","",""
"","ITI","","html-keyboard-response","408","501824","0.0-1.0-630.0","0","0","90041","","1","","","75","69","","","","","","","","","","","","","","","k",""
"","S1","","html-keyboard-response","409","502076","0.0-1.0-632.0","0","0","90041","","null","","","null","70","","","","","","","","","","","","","","","",""
"","ISI","","html-keyboard-response","410","504084","0.0-1.0-633.0","0","0","90041","","174","","","75","70","k","","","","","","","","","","","","","","",""
"","S2","","html-keyboard-response","411","504118","0.0-1.0-634.0","0","0","90041","","32","","","68","70","","d","2","70","training","adjacent","DC","4","3","N.jpg","O.jpg","0","0","1","",""
"","feedback","","html-keyboard-response","412","505123","0.0-1.0-636.0-0.0","0","0","90041","","null","","","null","70","","","","","","","","","","","","","","","",""
"","ITI","","html-keyboard-response","413","506136","0.0-1.0-639.0","0","0","90041","","12","","","75","70","","","","","","","","","","","","","","","k",""
"","S1","","html-keyboard-response","414","506392","0.0-1.0-641.0","0","0","90041","","null","","","null","71","","","","","","","","","","","","","","","",""
"","ISI","","html-keyboard-response","415","508396","0.0-1.0-642.0","0","0","90041","","412","","","75","71","k","","","","","","","","","","","","","","",""
"","S2","","html-keyboard-response","416","508413","0.0-1.0-643.0","0","0","90041","","14","","","68","71","","d","2","71","training","adjacent","FG","6","7","R.jpg","L.jpg","0","1","0","",""
"","feedback","","html-keyboard-response","417","509417","0.0-1.0-645.0-0.0","0","0","90041","","null","","","null","71","","","","","","","","","","","","","","","",""
"","time_out","","html-keyboard-response","418","511421","0.0-1.0-647.0-0.0","0","0","90041","","null","","","null","71","","","","","","","","","","","","","","","",""
"","ITI","","html-keyboard-response","419","512426","0.0-1.0-648.0","0","0","90041","","60","","","75","71","","","","","","","","","","","","","","","k",""
"","S1","","html-keyboard-response","420","512684","0.0-1.0-650.0","0","0","90041","","null","","","null","72","","","","","","","","","","","","","","","",""
"","ISI","","html-keyboard-response","421","514686","0.0-1.0-651.0","0","0","90041","","72","","","75","72","k","","","","","","","","","","","","","","",""
"","S2","","html-keyboard-response","422","514720","0.0-1.0-652.0","0","0","90041","","32","","","68","72","","d","2","72","training","adjacent","EF","5","6","P.jpg","R.jpg","0","1","0","",""
"","feedback","","html-keyboard-response","423","515725","0.0-1.0-654.0-0.0","0","0","90041","","null","","","null","72","","","","","","","","","","","","","","","",""
"","time_out","","html-keyboard-response","424","517729","0.0-1.0-656.0-0.0","0","0","90041","","null","","","null","72","","","","","","","","","","","","","","","",""
"","ITI","","html-keyboard-response","425","518734","0.0-1.0-657.0","0","0","90041","","24","","","68","72","","","","","","","","","","","","","","","d",""
"","S1","","html-keyboard-response","426","518987","0.0-1.0-659.0","0","0","90041","","null","","","null","73","","","","","","","","","","","","","","","",""
"","ISI","","html-keyboard-response","427","520993","0.0-1.0-660.0","0","0","90041","","47","","","68","73","d","","","","","","","","","","","","","","",""
"","S2","","html-keyboard-response","428","521136","0.0-1.0-661.0","0","0","90041","","141","","","75","73","","k","2","73","training","adjacent","DE","4","5","N.jpg","P.jpg","1","1","1","",""
"","feedback","","html-keyboard-response","429","522142","0.0-1.0-663.0-0.0","0","0","90041","","null","","","null","73","","","","","","","","","","","","","","","",""
"","ITI","","html-keyboard-response","430","523147","0.0-1.0-666.0","0","0","90041","","101","","","75","73","","","","","","","","","","","","","","","k",""
"","S1","","html-keyboard-response","431","523400","0.0-1.0-668.0","0","0","90041","","null","","","null","74","","","","","","","","","","","","","","","",""
"","ISI","","html-keyboard-response","432","525408","0.0-1.0-669.0","0","0","90041","","100","","","75","74","k","","","","","","","","","","","","","","",""
"","S2","","html-keyboard-response","433","525489","0.0-1.0-670.0","0","0","90041","","78","","","75","74","","k","2","74","training","adjacent","CB","3","2","O.jpg","Q.jpg","1","0","0","",""
"","feedback","","html-keyboard-response","434","526495","0.0-1.0-672.0-0.0","0","0","90041","","null","","","null","74","","","","","","","","","","","","","","","",""
"","time_out","","html-keyboard-response","435","528498","0.0-1.0-674.0-0.0","0","0","90041","","null","","","null","74","","","","","","","","","","","","","","","",""
"","ITI","","html-keyboard-response","436","529500","0.0-1.0-675.0","0","0","90041","","862","","","68","74","","","","","","","","","","","","","","","d",""
"","S1","","html-keyboard-response","437","529753","0.0-1.0-677.0","0","0","90041","","null","","","null","75","","","","","","","","","","","","","","","",""
"","ISI","","html-keyboard-response","438","531759","0.0-1.0-678.0","0","0","90041","","34","","","75","75","k","","","","","","","","","","","","","","",""
"","S2","","html-keyboard-response","439","532012","0.0-1.0-679.0","0","0","90041","","null","","","null","75","","NaN","","","","","","","","","","","","","",""
"","response","","html-keyboard-response","440","532958","0.0-1.0-680.0-0.0","0","0","90041","","944","","","68","75","","","2","75","training","adjacent","ED","5","4","P.jpg","N.jpg","0","0","1","",""
"","feedback","","html-keyboard-response","441","533960","0.0-1.0-681.0-0.0","0","0","90041","","null","","","null","75","","","","","","","","","","","","","","","",""
"","ITI","","html-keyboard-response","442","534963","0.0-1.0-684.0","0","0","90041","","null","","","null","75","","","","","","","","","","","","","","","NaN",""
"","S1","","html-keyboard-response","443","535217","0.0-1.0-686.0","0","0","90041","","null","","","null","76","","","","","","","","","","","","","","","",""
"","ISI","","html-keyboard-response","444","537225","0.0-1.0-687.0","0","0","90041","","null","","","null","76","NaN","","","","","","","","","","","","","","",""
"","S2","","html-keyboard-response","445","537483","0.0-1.0-688.0","0","0","90041","","null","","","null","76","","NaN","","","","","","","","","","","","","",""
"","response","","html-keyboard-response","446","538705","0.0-1.0-689.0-0.0","0","0","90041","","1220","","","68","76","","","2","76","training","adjacent","GF","7","6","L.jpg","R.jpg","0","0","1","",""
"","feedback","","html-keyboard-response","447","539712","0.0-1.0-690.0-0.0","0","0","90041","","null","","","null","76","","","","","","","","","","","","","","","",""
"","ITI","","html-keyboard-response","448","540716","0.0-1.0-693.0","0","0","90041","","null","","","null","76","","","","","","","","","","","","","","","NaN",""
"","S1","","html-keyboard-response","449","540973","0.0-1.0-695.0","0","0","90041","","null","","","null","77","","","","","","","","","","","","","","","",""
"","ISI","","html-keyboard-response","450","542976","0.0-1.0-696.0","0","0","90041","","524","","","75","77","k","","","","","","","","","","","","","","",""
"","S2","","html-keyboard-response","451","542986","0.0-1.0-697.0","0","0","90041","","6","","","68","77","","d","2","77","training","adjacent","BA","2","1","Q.jpg","M.jpg","0","0","1","",""
"","feedback","","html-keyboard-response","452","543995","0.0-1.0-699.0-0.0","0","0","90041","","null","","","null","77","","","","","","","","","","","","","","","",""
"","ITI","","html-keyboard-response","453","545004","0.0-1.0-702.0","0","0","90041","","0","","","68","77","","","","","","","","","","","","","","","d",""
"","S1","","html-keyboard-response","454","545258","0.0-1.0-704.0","0","0","90041","","null","","","null","78","","","","","","","","","","","","","","","",""
"","ISI","","html-keyboard-response","455","547263","0.0-1.0-705.0","0","0","90041","","160","","","75","78","k","","","","","","","","","","","","","","",""
"","S2","","html-keyboard-response","456","547395","0.0-1.0-706.0","0","0","90041","","131","","","68","78","","d","2","78","training","adjacent","CB","3","2","O.jpg","Q.jpg","0","0","1","",""
"","feedback","","html-keyboard-response","457","548400","0.0-1.0-708.0-0.0","0","0","90041","","null","","","null","78","","","","","","","","","","","","","","","",""
"","ITI","","html-keyboard-response","458","549404","0.0-1.0-711.0","0","0","90041","","151","","","75","78","","","","","","","","","","","","","","","k",""
"","S1","","html-keyboard-response","459","549658","0.0-1.0-713.0","0","0","90041","","null","","","null","79","","","","","","","","","","","","","","","",""
"","ISI","","html-keyboard-response","460","551661","0.0-1.0-714.0","0","0","90041","","593","","","68","79","d","","","","","","","","","","","","","","",""
"","S2","","html-keyboard-response","461","551663","0.0-1.0-715.0","0","0","90041","","0","","","68","79","","d","2","79","training","adjacent","DC","4","3","N.jpg","O.jpg","0","0","1","",""
"","feedback","","html-keyboard-response","462","552667","0.0-1.0-717.0-0.0","0","0","90041","","null","","","null","79","","","","","","","","","","","","","","","",""
"","ITI","","html-keyboard-response","463","553670","0.0-1.0-720.0","0","0","90041","","17","","","68","79","","","","","","","","","","","","","","","d",""
"","S1","","html-keyboard-response","464","553924","0.0-1.0-722.0","0","0","90041","","null","","","null","80","","","","","","","","","","","","","","","",""
"","ISI","","html-keyboard-response","465","555931","0.0-1.0-723.0","0","0","90041","","117","","","75","80","k","","","","","","","","","","","","","","",""
"","S2","","html-keyboard-response","466","555951","0.0-1.0-724.0","0","0","90041","","19","","","75","80","","k","2","80","training","adjacent","BA","2","1","Q.jpg","M.jpg","1","0","0","",""
"","feedback","","html-keyboard-response","467","556956","0.0-1.0-726.0-0.0","0","0","90041","","null","","","null","80","","","","","","","","","","","","","","","",""
"","time_out","","html-keyboard-response","468","558958","0.0-1.0-728.0-0.0","0","0","90041","","null","","","null","80","","","","","","","","","","","","","","","",""
"","ITI","","html-keyboard-response","469","559959","0.0-1.0-729.0","0","0","90041","","33","","","68","80","","","","","","","","","","","","","","","d",""
"","S1","","html-keyboard-response","470","560215","0.0-1.0-731.0","0","0","90041","","null","","","null","81","","","","","","","","","","","","","","","",""
"","ISI","","html-keyboard-response","471","562219","0.0-1.0-732.0","0","0","90041","","34","","","75","81","k","","","","","","","","","","","","","","",""
"","S2","","html-keyboard-response","472","562299","0.0-1.0-733.0","0","0","90041","","78","","","75","81","","k","2","81","training","adjacent","FG","6","7","R.jpg","L.jpg","1","1","1","",""
"","feedback","","html-keyboard-response","473","563308","0.0-1.0-735.0-0.0","0","0","90041","","null","","","null","81","","","","","","","","","","","","","","","",""
"","ITI","","html-keyboard-response","474","564319","0.0-1.0-738.0","0","0","90041","","63","","","75","81","","","","","","","","","","","","","","","k",""
"","S1","","html-keyboard-response","475","564573","0.0-1.0-740.0","0","0","90041","","null","","","null","82","","","","","","","","","","","","","","","",""
"","ISI","","html-keyboard-response","476","566585","0.0-1.0-741.0","0","0","90041","","226","","","68","82","d","","","","","","","","","","","","","","",""
"","S2","","html-keyboard-response","477","566630","0.0-1.0-742.0","0","0","90041","","42","","","68","82","","d","2","82","training","adjacent","CD","3","4","O.jpg","N.jpg","0","1","0","",""
"","feedback","","html-keyboard-response","478","567635","0.0-1.0-744.0-0.0","0","0","90041","","null","","","null","82","","","","","","","","","","","","","","","",""
"","time_out","","html-keyboard-response","479","569639","0.0-1.0-746.0-0.0","0","0","90041","","null","","","null","82","","","","","","","","","","","","","","","",""
"","ITI","","html-keyboard-response","480","570643","0.0-1.0-747.0","0","0","90041","","2","","","68","82","","","","","","","","","","","","","","","d",""
"","S1","","html-keyboard-response","481","570899","0.0-1.0-749.0","0","0","90041","","null","","","null","83","","","","","","","","","","","","","","","",""
"","ISI","","html-keyboard-response","482","572914","0.0-1.0-750.0","0","0","90041","","75","","","68","83","d","","","","","","","","","","","","","","",""
"","S2","","html-keyboard-response","483","572985","0.0-1.0-751.0","0","0","90041","","69","","","75","83","","k","2","83","training","adjacent","ED","5","4","P.jpg","N.jpg","1","0","0","",""
"","feedback","","html-keyboard-response","484","573989","0.0-1.0-753.0-0.0","0","0","90041","","null","","","null","83","","","","","","","","","","","","","","","",""
"","time_out","","html-keyboard-response","485","575993","0.0-1.0-755.0-0.0","0","0","90041","","null","","","null","83","","","","","","","","","","","","","","","",""
"","ITI","","html-keyboard-response","486","576996","0.0-1.0-756.0","0","0","90041","","35","","","68","83","","","","","","","","","","","","","","","d",""
"","S1","","html-keyboard-response","487","577252","0.0-1.0-758.0","0","0","90041","","null","","","null","84","","","","","","","","","","","","","","","",""
"","ISI","","html-keyboard-response","488","579254","0.0-1.0-759.0","0","0","90041","","77","","","75","84","k","","","","","","","","","","","","","","",""
"","S2","","html-keyboard-response","489","579361","0.0-1.0-760.0","0","0","90041","","105","","","75","84","","k","2","84","training","adjacent","AB","1","2","M.jpg","Q.jpg","1","1","1","",""
"","feedback","","html-keyboard-response","490","580376","0.0-1.0-762.0-0.0","0","0","90041","","null","","","null","84","","","","","","","","","","","","","","","",""
"","ITI","","html-keyboard-response","491","581381","0.0-1.0-765.0","0","0","90041","","8","","","75","84","","","","","","","","","","","","","","","k",""
"","S1","","html-keyboard-response","492","581635","0.0-1.0-767.0","0","0","90041","","null","","","null","85","","","","","","","","","","","","","","","",""
"","ISI","","html-keyboard-response","493","583640","0.0-1.0-768.0","0","0","90041","","4","","","75","85","k","","","","","","","","","","","","","","",""
"","S2","","html-keyboard-response","494","583778","0.0-1.0-769.0","0","0","90041","","135","","","75","85","","k","2","85","training","adjacent","AB","1","2","M.jpg","Q.jpg","1","1","1","",""
"","feedback","","html-keyboard-response","495","584781","0.0-1.0-771.0-0.0","0","0","90041","","null","","","null","85","","","","","","","","","","","","","","","",""
"","ITI","","html-keyboard-response","496","585797","0.0-1.0-774.0","0","0","90041","","8","","","75","85","","","","","","","","","","","","","","","k",""
"","S1","","html-keyboard-response","497","586051","0.0-1.0-776.0","0","0","90041","","null","","","null","86","","","","","","","","","","","","","","","",""
"","ISI","","html-keyboard-response","498","588054","0.0-1.0-777.0","0","0","90041","","189","","","68","86","d","","","","","","","","","","","","","","",""
"","S2","","html-keyboard-response","499","588157","0.0-1.0-778.0","0","0","90041","","99","","","75","86","","k","2","86","training","adjacent","GF","7","6","L.jpg","R.jpg","1","0","0","",""
"","feedback","","html-keyboard-response","500","589165","0.0-1.0-780.0-0.0","0","0","90041","","null","","","null","86","","","","","","","","","","","","","","","",""
"","time_out","","html-keyboard-response","501","591169","0.0-1.0-782.0-0.0","0","0","90041","","null","","","null","86","","","","","","","","","","","","","","","",""
"","ITI","","html-keyboard-response","502","592174","0.0-1.0-783.0","0","0","90041","","3","","","68","86","","","","","","","","","","","","","","","d",""
"","S1","","html-keyboard-response","503","592430","0.0-1.0-785.0","0","0","90041","","null","","","null","87","","","","","","","","","","","","","","","",""
"","ISI","","html-keyboard-response","504","594436","0.0-1.0-786.0","0","0","90041","","98","","","68","87","d","","","","","","","","","","","","","","",""
"","S2","","html-keyboard-response","505","594517","0.0-1.0-787.0","0","0","90041","","79","","","68","87","","d","2","87","training","adjacent","DE","4","5","N.jpg","P.jpg","0","1","0","",""
"","feedback","","html-keyboard-response","506","595522","0.0-1.0-789.0-0.0","0","0","90041","","null","","","null","87","","","","","","","","","","","","","","","",""
"","time_out","","html-keyboard-response","507","597527","0.0-1.0-791.0-0.0","0","0","90041","","null","","","null","87","","","","","","","","","","","","","","","",""
"","ITI","","html-keyboard-response","508","598533","0.0-1.0-792.0","0","0","90041","","18","","","68","87","","","","","","","","","","","","","","","d",""
"","S1","","html-keyboard-response","509","598788","0.0-1.0-794.0","0","0","90041","","null","","","null","88","","","","","","","","","","","","","","","",""
"","ISI","","html-keyboard-response","510","600792","0.0-1.0-795.0","0","0","90041","","106","","","75","88","k","","","","","","","","","","","","","","",""
"","S2","","html-keyboard-response","511","600820","0.0-1.0-796.0","0","0","90041","","25","","","68","88","","d","2","88","training","adjacent","FE","6","5","R.jpg","P.jpg","0","0","1","",""
"","feedback","","html-keyboard-response","512","601826","0.0-1.0-798.0-0.0","0","0","90041","","null","","","null","88","","","","","","","","","","","","","","","",""
"","ITI","","html-keyboard-response","513","602832","0.0-1.0-801.0","0","0","90041","","13","","","75","88","","","","","","","","","","","","","","","k",""
"","S1","","html-keyboard-response","514","603086","0.0-1.0-803.0","0","0","90041","","null","","","null","89","","","","","","","","","","","","","","","",""
"","ISI","","html-keyboard-response","515","605090","0.0-1.0-804.0","0","0","90041","","143","","","75","89","k","","","","","","","","","","","","","","",""
"","S2","","html-keyboard-response","516","605194","0.0-1.0-805.0","0","0","90041","","101","","","75","89","","k","2","89","training","adjacent","EF","5","6","P.jpg","R.jpg","1","1","1","",""
"","feedback","","html-keyboard-response","517","606198","0.0-1.0-807.0-0.0","0","0","90041","","null","","","null","89","","","","","","","","","","","","","","","",""
"","ITI","","html-keyboard-response","518","607203","0.0-1.0-810.0","0","0","90041","","150","","","75","89","","","","","","","","","","","","","","","k",""
"","S1","","html-keyboard-response","519","607457","0.0-1.0-812.0","0","0","90041","","null","","","null","90","","","","","","","","","","","","","","","",""
"","ISI","","html-keyboard-response","520","609466","0.0-1.0-813.0","0","0","90041","","88","","","75","90","k","","","","","","","","","","","","","","",""
"","S2","","html-keyboard-response","521","609516","0.0-1.0-814.0","0","0","90041","","47","","","75","90","","k","2","90","training","adjacent","GF","7","6","L.jpg","R.jpg","1","0","0","",""
"","feedback","","html-keyboard-response","522","610520","0.0-1.0-816.0-0.0","0","0","90041","","null","","","null","90","","","","","","","","","","","","","","","",""
"","time_out","","html-keyboard-response","523","612526","0.0-1.0-818.0-0.0","0","0","90041","","null","","","null","90","","","","","","","","","","","","","","","",""
"","ITI","","html-keyboard-response","524","613530","0.0-1.0-819.0","0","0","90041","","12","","","68","90","","","","","","","","","","","","","","","d",""
"","S1","","html-keyboard-response","525","613784","0.0-1.0-821.0","0","0","90041","","null","","","null","91","","","","","","","","","","","","","","","",""
"","ISI","","html-keyboard-response","526","615788","0.0-1.0-822.0","0","0","90041","","60","","","75","91","k","","","","","","","","","","","","","","",""
"","S2","","html-keyboard-response","527","615823","0.0-1.0-823.0","0","0","90041","","33","","","75","91","","k","2","91","training","adjacent","FE","6","5","R.jpg","P.jpg","1","0","0","",""
"","feedback","","html-keyboard-response","528","616830","0.0-1.0-825.0-0.0","0","0","90041","","null","","","null","91","","","","","","","","","","","","","","","",""
"","time_out","","html-keyboard-response","529","618835","0.0-1.0-827.0-0.0","0","0","90041","","null","","","null","91","","","","","","","","","","","","","","","",""
"","ITI","","html-keyboard-response","530","619839","0.0-1.0-828.0","0","0","90041","","65","","","75","91","","","","","","","","","","","","","","","k",""
"","S1","","html-keyboard-response","531","620092","0.0-1.0-830.0","0","0","90041","","null","","","null","92","","","","","","","","","","","","","","","",""
"","ISI","","html-keyboard-response","532","622107","0.0-1.0-831.0","0","0","90041","","49","","","68","92","d","","","","","","","","","","","","","","",""
"","S2","","html-keyboard-response","533","622114","0.0-1.0-832.0","0","0","90041","","5","","","75","92","","k","2","92","training","adjacent","DE","4","5","N.jpg","P.jpg","1","1","1","",""
"","feedback","","html-keyboard-response","534","623117","0.0-1.0-834.0-0.0","0","0","90041","","null","","","null","92","","","","","","","","","","","","","","","",""
"","ITI","","html-keyboard-response","535","624121","0.0-1.0-837.0","0","0","90041","","22","","","68","92","","","","","","","","","","","","","","","d",""
"","S1","","html-keyboard-response","536","624376","0.0-1.0-839.0","0","0","90041","","null","","","null","93","","","","","","","","","","","","","","","",""
"","ISI","","html-keyboard-response","537","626385","0.0-1.0-840.0","0","0","90041","","16","","","68","93","d","","","","","","","","","","","","","","",""
"","S2","","html-keyboard-response","538","626444","0.0-1.0-841.0","0","0","90041","","57","","","75","93","","k","2","93","training","adjacent","BA","2","1","Q.jpg","M.jpg","1","0","0","",""
"","feedback","","html-keyboard-response","539","627447","0.0-1.0-843.0-0.0","0","0","90041","","null","","","null","93","","","","","","","","","","","","","","","",""
"","time_out","","html-keyboard-response","540","629453","0.0-1.0-845.0-0.0","0","0","90041","","null","","","null","93","","","","","","","","","","","","","","","",""
"","ITI","","html-keyboard-response","541","630455","0.0-1.0-846.0","0","0","90041","","33","","","75","93","","","","","","","","","","","","","","","k",""
"","S1","","html-keyboard-response","542","630712","0.0-1.0-848.0","0","0","90041","","null","","","null","94","","","","","","","","","","","","","","","",""
"","ISI","","html-keyboard-response","543","632717","0.0-1.0-849.0","0","0","90041","","0","","","75","94","k","","","","","","","","","","","","","","",""
"","S2","","html-keyboard-response","544","632731","0.0-1.0-850.0","0","0","90041","","12","","","75","94","","k","2","94","training","adjacent","CB","3","2","O.jpg","Q.jpg","1","0","0","",""
"","feedback","","html-keyboard-response","545","633738","0.0-1.0-852.0-0.0","0","0","90041","","null","","","null","94","","","","","","","","","","","","","","","",""
"","time_out","","html-keyboard-response","546","635747","0.0-1.0-854.0-0.0","0","0","90041","","null","","","null","94","","","","","","","","","","","","","","","",""
"","ITI","","html-keyboard-response","547","636753","0.0-1.0-855.0","0","0","90041","","34","","","75","94","","","","","","","","","","","","","","","k",""
"","S1","","html-keyboard-response","548","637008","0.0-1.0-857.0","0","0","90041","","null","","","null","95","","","","","","","","","","","","","","","",""
"","ISI","","html-keyboard-response","549","639013","0.0-1.0-858.0","0","0","90041","","47","","","75","95","k","","","","","","","","","","","","","","",""
"","S2","","html-keyboard-response","550","639109","0.0-1.0-859.0","0","0","90041","","93","","","75","95","","k","2","95","training","adjacent","CD","3","4","O.jpg","N.jpg","1","1","1","",""
"","feedback","","html-keyboard-response","551","640113","0.0-1.0-861.0-0.0","0","0","90041","","null","","","null","95","","","","","","","","","","","","","","","",""
"","ITI","","html-keyboard-response","552","641119","0.0-1.0-864.0","0","0","90041","","0","","","75","95","","","","","","","","","","","","","","","k",""
"","block_over","","html-keyboard-response","553","642447","0.0-1.0-865.0-0.0","0","0","90041","","1326","","","32","95","","","","","","","","","","","","","","","",""
"","S1","","html-keyboard-response","554","642703","0.0-1.0-866.0","0","0","90041","","null","","","null","96","","","","","","","","","","","","","","","",""
"","ISI","","html-keyboard-response","555","644714","0.0-1.0-867.0","0","0","90041","","98","","","75","96","k","","","","","","","","","","","","","","",""
"","S2","","html-keyboard-response","556","644725","0.0-1.0-868.0","0","0","90041","","9","","","68","96","","d","3","96","training","adjacent","CB","3","2","O.jpg","Q.jpg","0","0","1","",""
"","feedback","","html-keyboard-response","557","645735","0.0-1.0-870.0-0.0","0","0","90041","","null","","","null","96","","","","","","","","","","","","","","","",""
"","ITI","","html-keyboard-response","558","646742","0.0-1.0-873.0","0","0","90041","","20","","","75","96","","","","","","","","","","","","","","","k",""
"","S1","","html-keyboard-response","559","646997","0.0-1.0-875.0","0","0","90041","","null","","","null","97","","","","","","","","","","","","","","","",""
"","ISI","","html-keyboard-response","560","649001","0.0-1.0-876.0","0","0","90041","","73","","","68","97","d","","","","","","","","","","","","","","",""
"","S2","","html-keyboard-response","561","649046","0.0-1.0-877.0","0","0","90041","","43","","","68","97","","d","3","97","training","adjacent","CB","3","2","O.jpg","Q.jpg","0","0","1","",""
"","feedback","","html-keyboard-response","562","650050","0.0-1.0-879.0-0.0","0","0","90041","","null","","","null","97","","","","","","","","","","","","","","","",""
"","ITI","","html-keyboard-response","563","651055","0.0-1.0-882.0","0","0","90041","","37","","","68","97","","","","","","","","","","","","","","","d",""
"","S1","","html-keyboard-response","564","651313","0.0-1.0-884.0","0","0","90041","","null","","","null","98","","","","","","","","","","","","","","","",""
"","ISI","","html-keyboard-response","565","653319","0.0-1.0-885.0","0","0","90041","","34","","","75","98","k","","","","","","","","","","","","","","",""
"","S2","","html-keyboard-response","566","653418","0.0-1.0-886.0","0","0","90041","","96","","","68","98","","d","3","98","training","adjacent","BA","2","1","Q.jpg","M.jpg","0","0","1","",""
"","feedback","","html-keyboard-response","567","654423","0.0-1.0-888.0-0.0","0","0","90041","","null","","","null","98","","","","","","","","","","","","","","","",""
"","ITI","","html-keyboard-response","568","655429","0.0-1.0-891.0","0","0","90041","","34","","","68","98","","","","","","","","","","","","","","","d",""
"","S1","","html-keyboard-response","569","655685","0.0-1.0-893.0","0","0","90041","","null","","","null","99","","","","","","","","","","","","","","","",""
"","ISI","","html-keyboard-response","570","657688","0.0-1.0-894.0","0","0","90041","","3","","","75","99","k","","","","","","","","","","","","","","",""
"","S2","","html-keyboard-response","571","657717","0.0-1.0-895.0","0","0","90041","","26","","","75","99","","k","3","99","training","adjacent","EF","5","6","P.jpg","R.jpg","1","1","1","",""
"","feedback","","html-keyboard-response","572","658721","0.0-1.0-897.0-0.0","0","0","90041","","null","","","null","99","","","","","","","","","","","","","","","",""
"","ITI","","html-keyboard-response","573","659729","0.0-1.0-900.0","0","0","90041","","59","","","75","99","","","","","","","","","","","","","","","k",""
"","S1","","html-keyboard-response","574","659984","0.0-1.0-902.0","0","0","90041","","null","","","null","100","","","","","","","","","","","","","","","",""
"","ISI","","html-keyboard-response","575","661987","0.0-1.0-903.0","0","0","90041","","4","","","68","100","d","","","","","","","","","","","","","","",""
"","S2","","html-keyboard-response","576","662088","0.0-1.0-904.0","0","0","90041","","98","","","75","100","","k","3","100","training","adjacent","ED","5","4","P.jpg","N.jpg","1","0","0","",""
"","feedback","","html-keyboard-response","577","663093","0.0-1.0-906.0-0.0","0","0","90041","","null","","","null","100","","","","","","","","","","","","","","","",""
"","time_out","","html-keyboard-response","578","665099","0.0-1.0-908.0-0.0","0","0","90041","","null","","","null","100","","","","","","","","","","","","","","","",""
"","ITI","","html-keyboard-response","579","666108","0.0-1.0-909.0","0","0","90041","","71","","","75","100","","","","","","","","","","","","","","","k",""
"","S1","","html-keyboard-response","580","666363","0.0-1.0-911.0","0","0","90041","","null","","","null","101","","","","","","","","","","","","","","","",""
"","ISI","","html-keyboard-response","581","668368","0.0-1.0-912.0","0","0","90041","","64","","","68","101","d","","","","","","","","","","","","","","",""
"","S2","","html-keyboard-response","582","668441","0.0-1.0-913.0","0","0","90041","","70","","","75","101","","k","3","101","training","adjacent","DE","4","5","N.jpg","P.jpg","1","1","1","",""
"","feedback","","html-keyboard-response","583","669448","0.0-1.0-915.0-0.0","0","0","90041","","null","","","null","101","","","","","","","","","","","","","","","",""
"","ITI","","html-keyboard-response","584","670452","0.0-1.0-918.0","0","0","90041","","0","","","68","101","","","","","","","","","","","","","","","d",""
"","S1","","html-keyboard-response","585","670707","0.0-1.0-920.0","0","0","90041","","null","","","null","102","","","","","","","","","","","","","","","",""
"","ISI","","html-keyboard-response","586","672721","0.0-1.0-921.0","0","0","90041","","46","","","75","102","k","","","","","","","","","","","","","","",""
