"success","ttype","start_time","trial_type","trial_index","time_elapsed","internal_node_id","warning","missed_checkup","PID","view_history","rt","responses","repeat_instructions","key_press","index","keypress_isi","keypress_S2","block","trial_num","phase","group_type","pair_type","S1_stim","S2_stim","S1_img","S2_img","S1_chosen","S1_higher","accuracy","keypress_iti","total_bonus_tally"
"true","full_screen","d04162023hr0015","fullscreen","0","17771","0.0-0.0","0","0","96603","","","","","","","","","","","","","","","","","","","","","",""
"","instructions","","instructions","1","97136","0.0-1.0-0.0-0.0","0","0","96603","[{""page_index"":0,""viewing_time"":6875},{""page_index"":1,""viewing_time"":35591},{""page_index"":2,""viewing_time"":35049},{""page_index"":3,""viewing_time"":1844}]","79361","","","","","","","","","","","","","","","","","","","",""
"","comprehension_check","","survey-multi-choice","2","134223","0.0-1.0-0.0-1.0","0","0","96603","","37075","{""Q0"":""True"",""Q1"":""D"",""Q2"":""Only when the screen 'MAKE A CHOICE' is shown"",""Q3"":""Green mark"",""Q4"":""either D or K""}","1","","","","","","","","","","","","","","","","","",""
"","missed_instruction_checkup","","html-keyboard-response","3","136956","0.0-1.0-0.0-2.0-0.0","0","1","96603","","2730","","","32","","","","","","","","","","","","","","","","",""
"","instructions","","instructions","4","163129","0.0-1.0-0.1-0.1","0","0","96603","[{""page_index"":0,""viewing_time"":3199},{""page_index"":1,""viewing_time"":21301},{""page_index"":2,""viewing_time"":938},{""page_index"":3,""viewing_time"":733}]","26171","","","","","","","","","","","","","","","","","","","",""
"","comprehension_check","","survey-multi-choice","5","182423","0.0-1.0-0.1-1.1","0","0","96603","","19287","{""Q0"":""True"",""Q1"":""D"",""Q2"":""Once the second image appears and while the screen 'MAKE A CHOICE' is shown"",""Q3"":""Green mark"",""Q4"":""either D or K""}","1","","","","","","","","","","","","","","","","","",""
"","missed_instruction_checkup","","html-keyboard-response","6","184586","0.0-1.0-0.1-2.1-0.1","0","1","96603","","2156","","","32","","","","","","","","","","","","","","","","",""
"","instructions","","instructions","7","242865","0.0-1.0-0.2-0.2","0","0","96603","[{""page_index"":0,""viewing_time"":3886},{""page_index"":1,""viewing_time"":50813},{""page_index"":2,""viewing_time"":2309},{""page_index"":3,""viewing_time"":1268}]","58277","","","","","","","","","","","","","","","","","","","",""
"","comprehension_check","","survey-multi-choice","8","250731","0.0-1.0-0.2-1.2","0","0","96603","","7857","{""Q0"":""True"",""Q1"":""K"",""Q2"":""Once the second image appears and while the screen 'MAKE A CHOICE' is shown"",""Q3"":""Green mark"",""Q4"":""either D or K""}","0","","","","","","","","","","","","","","","","","",""
"","start_exp","","html-keyboard-response","9","252507","0.0-1.0-1.0","0","0","96603","","1774","","","32","","","","","","","","","","","","","","","","",""
"","S1","","html-keyboard-response","10","252761","0.0-1.0-2.0","0","0","96603","","null","","","null","0","","","","","","","","","","","","","","","",""
"","ISI","","html-keyboard-response","11","253765","0.0-1.0-3.0","0","0","96603","","null","","","null","0","NaN","","","","","","","","","","","","","","",""
"","S2","","html-keyboard-response","12","254021","0.0-1.0-4.0","0","0","96603","","null","","","null","0","","NaN","","","","","","","","","","","","","",""
"","response","","html-keyboard-response","13","255776","0.0-1.0-5.0-0.0","0","0","96603","","null","","","null","0","","","1","0","training","adjacent","CB","3","2","P.jpg","Q.jpg","NaN","0","0","",""
"","too_slow_prompt","","html-keyboard-response","14","256780","0.0-1.0-7.0-0.0","1","0","96603","","null","","","null","","","","","","","","","","","","","","","","",""
"","time_out","","html-keyboard-response","15","258784","0.0-1.0-8.0-0.0","0","0","96603","","null","","","null","0","","","","","","","","","","","","","","","",""
"","ITI","","html-keyboard-response","16","259788","0.0-1.0-9.0","0","0","96603","","null","","","null","0","","","","","","","","","","","","","","","NaN",""
"","S1","","html-keyboard-response","17","260042","0.0-1.0-11.0","0","0","96603","","null","","","null","1","","","","","","","","","","","","","","","",""
"","ISI","","html-keyboard-response","18","261047","0.0-1.0-12.0","0","0","96603","","null","","","null","1","NaN","","","","","","","","","","","","","","",""
"","S2","","html-keyboard-response","19","261301","0.0-1.0-13.0","0","0","96603","","null","","","null","1","","NaN","","","","","","","","","","","","","",""
"","response","","html-keyboard-response","20","261522","0.0-1.0-14.0-0.0","0","0","96603","","219","","","75","1","","","1","1","training","adjacent","FG","6","7","N.jpg","M.jpg","1","1","1","",""
"","feedback","","html-keyboard-response","21","262527","0.0-1.0-15.0-0.0","0","0","96603","","null","","","null","1","","","","","","","","","","","","","","","",""
"","ITI","","html-keyboard-response","22","263530","0.0-1.0-18.0","0","0","96603","","null","","","null","1","","","","","","","","","","","","","","","NaN",""
"","S1","","html-keyboard-response","23","263785","0.0-1.0-20.0","0","0","96603","","null","","","null","2","","","","","","","","","","","","","","","",""
"","ISI","","html-keyboard-response","24","264788","0.0-1.0-21.0","0","0","96603","","null","","","null","2","NaN","","","","","","","","","","","","","","",""
"","S2","","html-keyboard-response","25","265044","0.0-1.0-22.0","0","0","96603","","null","","","null","2","","NaN","","","","","","","","","","","","","",""
"","response","","html-keyboard-response","26","265273","0.0-1.0-23.0-0.0","0","0","96603","","226","","","68","2","","","1","2","training","adjacent","GF","7","6","M.jpg","N.jpg","0","0","1","",""
"","feedback","","html-keyboard-response","27","266276","0.0-1.0-24.0-0.0","0","0","96603","","null","","","null","2","","","","","","","","","","","","","","","",""
"","ITI","","html-keyboard-response","28","267281","0.0-1.0-27.0","0","0","96603","","null","","","null","2","","","","","","","","","","","","","","","NaN",""
"","S1","","html-keyboard-response","29","267534","0.0-1.0-29.0","0","0","96603","","null","","","null","3","","","","","","","","","","","","","","","",""
"","ISI","","html-keyboard-response","30","268537","0.0-1.0-30.0","0","0","96603","","null","","","null","3","NaN","","","","","","","","","","","","","","",""
"","S2","","html-keyboard-response","31","268791","0.0-1.0-31.0","0","0","96603","","null","","","null","3","","NaN","","","","","","","","","","","","","",""
"","response","","html-keyboard-response","32","269222","0.0-1.0-32.0-0.0","0","0","96603","","430","","","75","3","","","1","3","training","adjacent","CB","3","2","P.jpg","Q.jpg","1","0","0","",""
"","feedback","","html-keyboard-response","33","270227","0.0-1.0-33.0-0.0","0","0","96603","","null","","","null","3","","","","","","","","","","","","","","","",""
"","time_out","","html-keyboard-response","34","272232","0.0-1.0-35.0-0.0","0","0","96603","","null","","","null","3","","","","","","","","","","","","","","","",""
"","ITI","","html-keyboard-response","35","273237","0.0-1.0-36.0","0","0","96603","","null","","","null","3","","","","","","","","","","","","","","","NaN",""
"","S1","","html-keyboard-response","36","273492","0.0-1.0-38.0","0","0","96603","","null","","","null","4","","","","","","","","","","","","","","","",""
"","ISI","","html-keyboard-response","37","274496","0.0-1.0-39.0","0","0","96603","","null","","","null","4","NaN","","","","","","","","","","","","","","",""
"","S2","","html-keyboard-response","38","274750","0.0-1.0-40.0","0","0","96603","","null","","","null","4","","NaN","","","","","","","","","","","","","",""
"","response","","html-keyboard-response","39","275169","0.0-1.0-41.0-0.0","0","0","96603","","416","","","75","4","","","1","4","training","adjacent","ED","5","4","L.jpg","O.jpg","1","0","0","",""
"","feedback","","html-keyboard-response","40","276174","0.0-1.0-42.0-0.0","0","0","96603","","null","","","null","4","","","","","","","","","","","","","","","",""
"","time_out","","html-keyboard-response","41","278178","0.0-1.0-44.0-0.0","0","0","96603","","null","","","null","4","","","","","","","","","","","","","","","",""
"","ITI","","html-keyboard-response","42","279183","0.0-1.0-45.0","0","0","96603","","null","","","null","4","","","","","","","","","","","","","","","NaN",""
"","S1","","html-keyboard-response","43","279437","0.0-1.0-47.0","0","0","96603","","null","","","null","5","","","","","","","","","","","","","","","",""
"","ISI","","html-keyboard-response","44","280440","0.0-1.0-48.0","0","0","96603","","null","","","null","5","NaN","","","","","","","","","","","","","","",""
"","S2","","html-keyboard-response","45","280694","0.0-1.0-49.0","0","0","96603","","null","","","null","5","","NaN","","","","","","","","","","","","","",""
"","response","","html-keyboard-response","46","280828","0.0-1.0-50.0-0.0","0","0","96603","","130","","","75","5","","","1","5","training","adjacent","FE","6","5","N.jpg","L.jpg","1","0","0","",""
"","feedback","","html-keyboard-response","47","281833","0.0-1.0-51.0-0.0","0","0","96603","","null","","","null","5","","","","","","","","","","","","","","","",""
"","time_out","","html-keyboard-response","48","283838","0.0-1.0-53.0-0.0","0","0","96603","","null","","","null","5","","","","","","","","","","","","","","","",""
"","ITI","","html-keyboard-response","49","284841","0.0-1.0-54.0","0","0","96603","","null","","","null","5","","","","","","","","","","","","","","","NaN",""
"","S1","","html-keyboard-response","50","285094","0.0-1.0-56.0","0","0","96603","","null","","","null","6","","","","","","","","","","","","","","","",""
"","ISI","","html-keyboard-response","51","286097","0.0-1.0-57.0","0","0","96603","","null","","","null","6","NaN","","","","","","","","","","","","","","",""
"","S2","","html-keyboard-response","52","286352","0.0-1.0-58.0","0","0","96603","","null","","","null","6","","NaN","","","","","","","","","","","","","",""
"","response","","html-keyboard-response","53","287060","0.0-1.0-59.0-0.0","0","0","96603","","704","","","68","6","","","1","6","training","adjacent","DE","4","5","O.jpg","L.jpg","0","1","0","",""
"","feedback","","html-keyboard-response","54","288064","0.0-1.0-60.0-0.0","0","0","96603","","null","","","null","6","","","","","","","","","","","","","","","",""
"","time_out","","html-keyboard-response","55","290068","0.0-1.0-62.0-0.0","0","0","96603","","null","","","null","6","","","","","","","","","","","","","","","",""
"","ITI","","html-keyboard-response","56","291073","0.0-1.0-63.0","0","0","96603","","null","","","null","6","","","","","","","","","","","","","","","NaN",""
"","S1","","html-keyboard-response","57","291329","0.0-1.0-65.0","0","0","96603","","null","","","null","7","","","","","","","","","","","","","","","",""
"","ISI","","html-keyboard-response","58","292333","0.0-1.0-66.0","0","0","96603","","null","","","null","7","NaN","","","","","","","","","","","","","","",""
"","S2","","html-keyboard-response","59","292588","0.0-1.0-67.0","0","0","96603","","null","","","null","7","","NaN","","","","","","","","","","","","","",""
"","response","","html-keyboard-response","60","292890","0.0-1.0-68.0-0.0","0","0","96603","","299","","","75","7","","","1","7","training","adjacent","CD","3","4","P.jpg","O.jpg","1","1","1","",""
"","feedback","","html-keyboard-response","61","293895","0.0-1.0-69.0-0.0","0","0","96603","","null","","","null","7","","","","","","","","","","","","","","","",""
"","ITI","","html-keyboard-response","62","294899","0.0-1.0-72.0","0","0","96603","","null","","","null","7","","","","","","","","","","","","","","","NaN",""
"","S1","","html-keyboard-response","63","295154","0.0-1.0-74.0","0","0","96603","","null","","","null","8","","","","","","","","","","","","","","","",""
"","ISI","","html-keyboard-response","64","296157","0.0-1.0-75.0","0","0","96603","","null","","","null","8","NaN","","","","","","","","","","","","","","",""
"","S2","","html-keyboard-response","65","296412","0.0-1.0-76.0","0","0","96603","","null","","","null","8","","NaN","","","","","","","","","","","","","",""
"","response","","html-keyboard-response","66","296628","0.0-1.0-77.0-0.0","0","0","96603","","212","","","75","8","","","1","8","training","adjacent","AB","1","2","R.jpg","Q.jpg","1","1","1","",""
"","feedback","","html-keyboard-response","67","297635","0.0-1.0-78.0-0.0","0","0","96603","","null","","","null","8","","","","","","","","","","","","","","","",""
"","ITI","","html-keyboard-response","68","298639","0.0-1.0-81.0","0","0","96603","","null","","","null","8","","","","","","","","","","","","","","","NaN",""
"","S1","","html-keyboard-response","69","298893","0.0-1.0-83.0","0","0","96603","","null","","","null","9","","","","","","","","","","","","","","","",""
"","ISI","","html-keyboard-response","70","299897","0.0-1.0-84.0","0","0","96603","","null","","","null","9","NaN","","","","","","","","","","","","","","",""
"","S2","","html-keyboard-response","71","300150","0.0-1.0-85.0","0","0","96603","","null","","","null","9","","NaN","","","","","","","","","","","","","",""
"","response","","html-keyboard-response","72","300216","0.0-1.0-86.0-0.0","0","0","96603","","63","","","75","9","","","1","9","training","adjacent","EF","5","6","L.jpg","N.jpg","1","1","1","",""
"","feedback","","html-keyboard-response","73","301221","0.0-1.0-87.0-0.0","0","0","96603","","null","","","null","9","","","","","","","","","","","","","","","",""
"","ITI","","html-keyboard-response","74","302225","0.0-1.0-90.0","0","0","96603","","null","","","null","9","","","","","","","","","","","","","","","NaN",""
"","S1","","html-keyboard-response","75","302479","0.0-1.0-92.0","0","0","96603","","null","","","null","10","","","","","","","","","","","","","","","",""
"","ISI","","html-keyboard-response","76","303481","0.0-1.0-93.0","0","0","96603","","349","","","75","10","k","","","","","","","","","","","","","","",""
"","S2","","html-keyboard-response","77","303734","0.0-1.0-94.0","0","0","96603","","null","","","null","10","","NaN","","","","","","","","","","","","","",""
"","response","","html-keyboard-response","78","304084","0.0-1.0-95.0-0.0","0","0","96603","","347","","","75","10","","","1","10","training","adjacent","DC","4","3","O.jpg","P.jpg","1","0","0","",""
"","feedback","","html-keyboard-response","79","305098","0.0-1.0-96.0-0.0","0","0","96603","","null","","","null","10","","","","","","","","","","","","","","","",""
"","time_out","","html-keyboard-response","80","307104","0.0-1.0-98.0-0.0","0","0","96603","","null","","","null","10","","","","","","","","","","","","","","","",""
"","ITI","","html-keyboard-response","81","308108","0.0-1.0-99.0","0","0","96603","","null","","","null","10","","","","","","","","","","","","","","","NaN",""
"","S1","","html-keyboard-response","82","308363","0.0-1.0-101.0","0","0","96603","","null","","","null","11","","","","","","","","","","","","","","","",""
"","ISI","","html-keyboard-response","83","309366","0.0-1.0-102.0","0","0","96603","","null","","","null","11","NaN","","","","","","","","","","","","","","",""
"","S2","","html-keyboard-response","84","309618","0.0-1.0-103.0","0","0","96603","","null","","","null","11","","NaN","","","","","","","","","","","","","",""
"","response","","html-keyboard-response","85","310112","0.0-1.0-104.0-0.0","0","0","96603","","490","","","68","11","","","1","11","training","adjacent","FE","6","5","N.jpg","L.jpg","0","0","1","",""
"","feedback","","html-keyboard-response","86","311117","0.0-1.0-105.0-0.0","0","0","96603","","null","","","null","11","","","","","","","","","","","","","","","",""
"","ITI","","html-keyboard-response","87","312122","0.0-1.0-108.0","0","0","96603","","null","","","null","11","","","","","","","","","","","","","","","NaN",""
"","S1","","html-keyboard-response","88","312376","0.0-1.0-110.0","0","0","96603","","null","","","null","12","","","","","","","","","","","","","","","",""
"","ISI","","html-keyboard-response","89","313381","0.0-1.0-111.0","0","0","96603","","null","","","null","12","NaN","","","","","","","","","","","","","","",""
"","S2","","html-keyboard-response","90","313635","0.0-1.0-112.0","0","0","96603","","null","","","null","12","","NaN","","","","","","","","","","","","","",""
"","response","","html-keyboard-response","91","313989","0.0-1.0-113.0-0.0","0","0","96603","","350","","","75","12","","","1","12","training","adjacent","DC","4","3","O.jpg","P.jpg","1","0","0","",""
"","feedback","","html-keyboard-response","92","314995","0.0-1.0-114.0-0.0","0","0","96603","","null","","","null","12","","","","","","","","","","","","","","","",""
"","time_out","","html-keyboard-response","93","316999","0.0-1.0-116.0-0.0","0","0","96603","","null","","","null","12","","","","","","","","","","","","","","","",""
"","ITI","","html-keyboard-response","94","318003","0.0-1.0-117.0","0","0","96603","","null","","","null","12","","","","","","","","","","","","","","","NaN",""
"","S1","","html-keyboard-response","95","318258","0.0-1.0-119.0","0","0","96603","","null","","","null","13","","","","","","","","","","","","","","","",""
"","ISI","","html-keyboard-response","96","319262","0.0-1.0-120.0","0","0","96603","","null","","","null","13","NaN","","","","","","","","","","","","","","",""
"","S2","","html-keyboard-response","97","319516","0.0-1.0-121.0","0","0","96603","","null","","","null","13","","NaN","","","","","","","","","","","","","",""
"","response","","html-keyboard-response","98","320035","0.0-1.0-122.0-0.0","0","0","96603","","515","","","75","13","","","1","13","training","adjacent","FG","6","7","N.jpg","M.jpg","1","1","1","",""
"","feedback","","html-keyboard-response","99","321047","0.0-1.0-123.0-0.0","0","0","96603","","null","","","null","13","","","","","","","","","","","","","","","",""
"","ITI","","html-keyboard-response","100","322052","0.0-1.0-126.0","0","0","96603","","null","","","null","13","","","","","","","","","","","","","","","NaN",""
"","S1","","html-keyboard-response","101","322306","0.0-1.0-128.0","0","0","96603","","null","","","null","14","","","","","","","","","","","","","","","",""
"","ISI","","html-keyboard-response","102","323311","0.0-1.0-129.0","0","0","96603","","null","","","null","14","NaN","","","","","","","","","","","","","","",""
"","S2","","html-keyboard-response","103","323566","0.0-1.0-130.0","0","0","96603","","null","","","null","14","","NaN","","","","","","","","","","","","","",""
"","response","","html-keyboard-response","104","324003","0.0-1.0-131.0-0.0","0","0","96603","","432","","","75","14","","","1","14","training","adjacent","EF","5","6","L.jpg","N.jpg","1","1","1","",""
"","feedback","","html-keyboard-response","105","325023","0.0-1.0-132.0-0.0","0","0","96603","","null","","","null","14","","","","","","","","","","","","","","","",""
"","ITI","","html-keyboard-response","106","326027","0.0-1.0-135.0","0","0","96603","","null","","","null","14","","","","","","","","","","","","","","","NaN",""
"","S1","","html-keyboard-response","107","326281","0.0-1.0-137.0","0","0","96603","","null","","","null","15","","","","","","","","","","","","","","","",""
"","ISI","","html-keyboard-response","108","327285","0.0-1.0-138.0","0","0","96603","","null","","","null","15","NaN","","","","","","","","","","","","","","",""
"","S2","","html-keyboard-response","109","327540","0.0-1.0-139.0","0","0","96603","","null","","","null","15","","NaN","","","","","","","","","","","","","",""
"","response","","html-keyboard-response","110","328166","0.0-1.0-140.0-0.0","0","0","96603","","621","","","75","15","","","1","15","training","adjacent","GF","7","6","M.jpg","N.jpg","1","0","0","",""
"","feedback","","html-keyboard-response","111","329172","0.0-1.0-141.0-0.0","0","0","96603","","null","","","null","15","","","","","","","","","","","","","","","",""
"","time_out","","html-keyboard-response","112","331175","0.0-1.0-143.0-0.0","0","0","96603","","null","","","null","15","","","","","","","","","","","","","","","",""
"","ITI","","html-keyboard-response","113","332187","0.0-1.0-144.0","0","0","96603","","null","","","null","15","","","","","","","","","","","","","","","NaN",""
"","S1","","html-keyboard-response","114","332440","0.0-1.0-146.0","0","0","96603","","null","","","null","16","","","","","","","","","","","","","","","",""
"","ISI","","html-keyboard-response","115","333442","0.0-1.0-147.0","0","0","96603","","null","","","null","16","NaN","","","","","","","","","","","","","","",""
"","S2","","html-keyboard-response","116","333696","0.0-1.0-148.0","0","0","96603","","null","","","null","16","","NaN","","","","","","","","","","","","","",""
"","response","","html-keyboard-response","117","334720","0.0-1.0-149.0-0.0","0","0","96603","","1020","","","68","16","","","1","16","training","adjacent","CD","3","4","P.jpg","O.jpg","0","1","0","",""
"","feedback","","html-keyboard-response","118","335724","0.0-1.0-150.0-0.0","0","0","96603","","null","","","null","16","","","","","","","","","","","","","","","",""
"","time_out","","html-keyboard-response","119","337726","0.0-1.0-152.0-0.0","0","0","96603","","null","","","null","16","","","","","","","","","","","","","","","",""
"","ITI","","html-keyboard-response","120","338730","0.0-1.0-153.0","0","0","96603","","null","","","null","16","","","","","","","","","","","","","","","NaN",""
"","S1","","html-keyboard-response","121","338985","0.0-1.0-155.0","0","0","96603","","null","","","null","17","","","","","","","","","","","","","","","",""
"","ISI","","html-keyboard-response","122","339988","0.0-1.0-156.0","0","0","96603","","null","","","null","17","NaN","","","","","","","","","","","","","","",""
"","S2","","html-keyboard-response","123","340242","0.0-1.0-157.0","0","0","96603","","null","","","null","17","","NaN","","","","","","","","","","","","","",""
"","response","","html-keyboard-response","124","341213","0.0-1.0-158.0-0.0","0","0","96603","","967","","","68","17","","","1","17","training","adjacent","DE","4","5","O.jpg","L.jpg","0","1","0","",""
"","feedback","","html-keyboard-response","125","342218","0.0-1.0-159.0-0.0","0","0","96603","","null","","","null","17","","","","","","","","","","","","","","","",""
"","time_out","","html-keyboard-response","126","344222","0.0-1.0-161.0-0.0","0","0","96603","","null","","","null","17","","","","","","","","","","","","","","","",""
"","ITI","","html-keyboard-response","127","345225","0.0-1.0-162.0","0","0","96603","","null","","","null","17","","","","","","","","","","","","","","","NaN",""
"","S1","","html-keyboard-response","128","345479","0.0-1.0-164.0","0","0","96603","","null","","","null","18","","","","","","","","","","","","","","","",""
"","ISI","","html-keyboard-response","129","346485","0.0-1.0-165.0","0","0","96603","","null","","","null","18","NaN","","","","","","","","","","","","","","",""
"","S2","","html-keyboard-response","130","346740","0.0-1.0-166.0","0","0","96603","","null","","","null","18","","NaN","","","","","","","","","","","","","",""
"","response","","html-keyboard-response","131","347429","0.0-1.0-167.0-0.0","0","0","96603","","686","","","75","18","","","1","18","training","adjacent","FG","6","7","N.jpg","M.jpg","1","1","1","",""
"","feedback","","html-keyboard-response","132","348433","0.0-1.0-168.0-0.0","0","0","96603","","null","","","null","18","","","","","","","","","","","","","","","",""
"","ITI","","html-keyboard-response","133","349437","0.0-1.0-171.0","0","0","96603","","null","","","null","18","","","","","","","","","","","","","","","NaN",""
"","S1","","html-keyboard-response","134","349690","0.0-1.0-173.0","0","0","96603","","null","","","null","19","","","","","","","","","","","","","","","",""
"","ISI","","html-keyboard-response","135","350695","0.0-1.0-174.0","0","0","96603","","null","","","null","19","NaN","","","","","","","","","","","","","","",""
"","S2","","html-keyboard-response","136","350949","0.0-1.0-175.0","0","0","96603","","null","","","null","19","","NaN","","","","","","","","","","","","","",""
"","response","","html-keyboard-response","137","351652","0.0-1.0-176.0-0.0","0","0","96603","","700","","","75","19","","","1","19","training","adjacent","CB","3","2","P.jpg","Q.jpg","1","0","0","",""
"","feedback","","html-keyboard-response","138","352656","0.0-1.0-177.0-0.0","0","0","96603","","null","","","null","19","","","","","","","","","","","","","","","",""
"","time_out","","html-keyboard-response","139","354660","0.0-1.0-179.0-0.0","0","0","96603","","null","","","null","19","","","","","","","","","","","","","","","",""
"","ITI","","html-keyboard-response","140","355663","0.0-1.0-180.0","0","0","96603","","null","","","null","19","","","","","","","","","","","","","","","NaN",""
"","S1","","html-keyboard-response","141","355917","0.0-1.0-182.0","0","0","96603","","null","","","null","20","","","","","","","","","","","","","","","",""
"","ISI","","html-keyboard-response","142","356921","0.0-1.0-183.0","0","0","96603","","null","","","null","20","NaN","","","","","","","","","","","","","","",""
"","S2","","html-keyboard-response","143","357174","0.0-1.0-184.0","0","0","96603","","null","","","null","20","","NaN","","","","","","","","","","","","","",""
"","response","","html-keyboard-response","144","358132","0.0-1.0-185.0-0.0","0","0","96603","","954","","","75","20","","","1","20","training","adjacent","DE","4","5","O.jpg","L.jpg","1","1","1","",""
"","feedback","","html-keyboard-response","145","359137","0.0-1.0-186.0-0.0","0","0","96603","","null","","","null","20","","","","","","","","","","","","","","","",""
"","ITI","","html-keyboard-response","146","360141","0.0-1.0-189.0","0","0","96603","","null","","","null","20","","","","","","","","","","","","","","","NaN",""
"","S1","","html-keyboard-response","147","360396","0.0-1.0-191.0","0","0","96603","","null","","","null","21","","","","","","","","","","","","","","","",""
"","ISI","","html-keyboard-response","148","361400","0.0-1.0-192.0","0","0","96603","","null","","","null","21","NaN","","","","","","","","","","","","","","",""
"","S2","","html-keyboard-response","149","361655","0.0-1.0-193.0","0","0","96603","","null","","","null","21","","NaN","","","","","","","","","","","","","",""
"","response","","html-keyboard-response","150","362531","0.0-1.0-194.0-0.0","0","0","96603","","874","","","75","21","","","1","21","training","adjacent","BA","2","1","Q.jpg","R.jpg","1","0","0","",""
"","feedback","","html-keyboard-response","151","363534","0.0-1.0-195.0-0.0","0","0","96603","","null","","","null","21","","","","","","","","","","","","","","","",""
"","time_out","","html-keyboard-response","152","365537","0.0-1.0-197.0-0.0","0","0","96603","","null","","","null","21","","","","","","","","","","","","","","","",""
"","ITI","","html-keyboard-response","153","366541","0.0-1.0-198.0","0","0","96603","","null","","","null","21","","","","","","","","","","","","","","","NaN",""
"","S1","","html-keyboard-response","154","366795","0.0-1.0-200.0","0","0","96603","","null","","","null","22","","","","","","","","","","","","","","","",""
"","ISI","","html-keyboard-response","155","367798","0.0-1.0-201.0","0","0","96603","","null","","","null","22","NaN","","","","","","","","","","","","","","",""
"","S2","","html-keyboard-response","156","368052","0.0-1.0-202.0","0","0","96603","","null","","","null","22","","NaN","","","","","","","","","","","","","",""
"","response","","html-keyboard-response","157","368853","0.0-1.0-203.0-0.0","0","0","96603","","797","","","75","22","","","1","22","training","adjacent","BA","2","1","Q.jpg","R.jpg","1","0","0","",""
"","feedback","","html-keyboard-response","158","369858","0.0-1.0-204.0-0.0","0","0","96603","","null","","","null","22","","","","","","","","","","","","","","","",""
"","time_out","","html-keyboard-response","159","371862","0.0-1.0-206.0-0.0","0","0","96603","","null","","","null","22","","","","","","","","","","","","","","","",""
"","ITI","","html-keyboard-response","160","372866","0.0-1.0-207.0","0","0","96603","","null","","","null","22","","","","","","","","","","","","","","","NaN",""
"","S1","","html-keyboard-response","161","373121","0.0-1.0-209.0","0","0","96603","","null","","","null","23","","","","","","","","","","","","","","","",""
"","ISI","","html-keyboard-response","162","374141","0.0-1.0-210.0","0","0","96603","","null","","","null","23","NaN","","","","","","","","","","","","","","",""
"","S2","","html-keyboard-response","163","374396","0.0-1.0-211.0","0","0","96603","","null","","","null","23","","NaN","","","","","","","","","","","","","",""
"","response","","html-keyboard-response","164","375116","0.0-1.0-212.0-0.0","0","0","96603","","717","","","75","23","","","1","23","training","adjacent","BC","2","3","Q.jpg","P.jpg","1","1","1","",""
"","feedback","","html-keyboard-response","165","376120","0.0-1.0-213.0-0.0","0","0","96603","","null","","","null","23","","","","","","","","","","","","","","","",""
"","ITI","","html-keyboard-response","166","377126","0.0-1.0-216.0","0","0","96603","","null","","","null","23","","","","","","","","","","","","","","","NaN",""
"","S1","","html-keyboard-response","167","377381","0.0-1.0-218.0","0","0","96603","","null","","","null","24","","","","","","","","","","","","","","","",""
"","ISI","","html-keyboard-response","168","378384","0.0-1.0-219.0","0","0","96603","","null","","","null","24","NaN","","","","","","","","","","","","","","",""
"","S2","","html-keyboard-response","169","378640","0.0-1.0-220.0","0","0","96603","","null","","","null","24","","NaN","","","","","","","","","","","","","",""
"","response","","html-keyboard-response","170","379649","0.0-1.0-221.0-0.0","0","0","96603","","1005","","","68","24","","","1","24","training","adjacent","EF","5","6","L.jpg","N.jpg","0","1","0","",""
"","feedback","","html-keyboard-response","171","380653","0.0-1.0-222.0-0.0","0","0","96603","","null","","","null","24","","","","","","","","","","","","","","","",""
"","time_out","","html-keyboard-response","172","382658","0.0-1.0-224.0-0.0","0","0","96603","","null","","","null","24","","","","","","","","","","","","","","","",""
"","ITI","","html-keyboard-response","173","383662","0.0-1.0-225.0","0","0","96603","","null","","","null","24","","","","","","","","","","","","","","","NaN",""
"","S1","","html-keyboard-response","174","383916","0.0-1.0-227.0","0","0","96603","","null","","","null","25","","","","","","","","","","","","","","","",""
"","ISI","","html-keyboard-response","175","384921","0.0-1.0-228.0","0","0","96603","","null","","","null","25","NaN","","","","","","","","","","","","","","",""
"","S2","","html-keyboard-response","176","385176","0.0-1.0-229.0","0","0","96603","","null","","","null","25","","NaN","","","","","","","","","","","","","",""
"","response","","html-keyboard-response","177","386146","0.0-1.0-230.0-0.0","0","0","96603","","966","","","75","25","","","1","25","training","adjacent","BC","2","3","Q.jpg","P.jpg","1","1","1","",""
"","feedback","","html-keyboard-response","178","387152","0.0-1.0-231.0-0.0","0","0","96603","","null","","","null","25","","","","","","","","","","","","","","","",""
"","ITI","","html-keyboard-response","179","388156","0.0-1.0-234.0","0","0","96603","","null","","","null","25","","","","","","","","","","","","","","","NaN",""
"","S1","","html-keyboard-response","180","388410","0.0-1.0-236.0","0","0","96603","","null","","","null","26","","","","","","","","","","","","","","","",""
"","ISI","","html-keyboard-response","181","389415","0.0-1.0-237.0","0","0","96603","","null","","","null","26","NaN","","","","","","","","","","","","","","",""
"","S2","","html-keyboard-response","182","389670","0.0-1.0-238.0","0","0","96603","","null","","","null","26","","NaN","","","","","","","","","","","","","",""
"","response","","html-keyboard-response","183","390173","0.0-1.0-239.0-0.0","0","0","96603","","500","","","75","26","","","1","26","training","adjacent","ED","5","4","L.jpg","O.jpg","1","0","0","",""
"","feedback","","html-keyboard-response","184","391181","0.0-1.0-240.0-0.0","0","0","96603","","null","","","null","26","","","","","","","","","","","","","","","",""
"","time_out","","html-keyboard-response","185","393184","0.0-1.0-242.0-0.0","0","0","96603","","null","","","null","26","","","","","","","","","","","","","","","",""
"","ITI","","html-keyboard-response","186","394189","0.0-1.0-243.0","0","0","96603","","null","","","null","26","","","","","","","","","","","","","","","NaN",""
"","S1","","html-keyboard-response","187","394442","0.0-1.0-245.0","0","0","96603","","null","","","null","27","","","","","","","","","","","","","","","",""
"","ISI","","html-keyboard-response","188","395445","0.0-1.0-246.0","0","0","96603","","null","","","null","27","NaN","","","","","","","","","","","","","","",""
"","S2","","html-keyboard-response","189","395700","0.0-1.0-247.0","0","0","96603","","null","","","null","27","","NaN","","","","","","","","","","","","","",""
"","response","","html-keyboard-response","190","396642","0.0-1.0-248.0-0.0","0","0","96603","","940","","","68","27","","","1","27","training","adjacent","CB","3","2","P.jpg","Q.jpg","0","0","1","",""
"","feedback","","html-keyboard-response","191","397645","0.0-1.0-249.0-0.0","0","0","96603","","null","","","null","27","","","","","","","","","","","","","","","",""
"","ITI","","html-keyboard-response","192","398650","0.0-1.0-252.0","0","0","96603","","null","","","null","27","","","","","","","","","","","","","","","NaN",""
"","S1","","html-keyboard-response","193","398905","0.0-1.0-254.0","0","0","96603","","null","","","null","28","","","","","","","","","","","","","","","",""
"","ISI","","html-keyboard-response","194","399909","0.0-1.0-255.0","0","0","96603","","null","","","null","28","NaN","","","","","","","","","","","","","","",""
"","S2","","html-keyboard-response","195","400164","0.0-1.0-256.0","0","0","96603","","null","","","null","28","","NaN","","","","","","","","","","","","","",""
"","response","","html-keyboard-response","196","400978","0.0-1.0-257.0-0.0","0","0","96603","","808","","","68","28","","","1","28","training","adjacent","FE","6","5","N.jpg","L.jpg","0","0","1","",""
"","feedback","","html-keyboard-response","197","401983","0.0-1.0-258.0-0.0","0","0","96603","","null","","","null","28","","","","","","","","","","","","","","","",""
"","ITI","","html-keyboard-response","198","402988","0.0-1.0-261.0","0","0","96603","","null","","","null","28","","","","","","","","","","","","","","","NaN",""
"","S1","","html-keyboard-response","199","403242","0.0-1.0-263.0","0","0","96603","","null","","","null","29","","","","","","","","","","","","","","","",""
"","ISI","","html-keyboard-response","200","404247","0.0-1.0-264.0","0","0","96603","","null","","","null","29","NaN","","","","","","","","","","","","","","",""
"","S2","","html-keyboard-response","201","404500","0.0-1.0-265.0","0","0","96603","","null","","","null","29","","NaN","","","","","","","","","","","","","",""
"","response","","html-keyboard-response","202","404927","0.0-1.0-266.0-0.0","0","0","96603","","424","","","75","29","","","1","29","training","adjacent","FE","6","5","N.jpg","L.jpg","1","0","0","",""
"","feedback","","html-keyboard-response","203","405931","0.0-1.0-267.0-0.0","0","0","96603","","null","","","null","29","","","","","","","","","","","","","","","",""
"","time_out","","html-keyboard-response","204","407934","0.0-1.0-269.0-0.0","0","0","96603","","null","","","null","29","","","","","","","","","","","","","","","",""
"","ITI","","html-keyboard-response","205","408938","0.0-1.0-270.0","0","0","96603","","null","","","null","29","","","","","","","","","","","","","","","NaN",""
"","S1","","html-keyboard-response","206","409191","0.0-1.0-272.0","0","0","96603","","null","","","null","30","","","","","","","","","","","","","","","",""
"","ISI","","html-keyboard-response","207","410196","0.0-1.0-273.0","0","0","96603","","null","","","null","30","NaN","","","","","","","","","","","","","","",""
"","S2","","html-keyboard-response","208","410450","0.0-1.0-274.0","0","0","96603","","null","","","null","30","","NaN","","","","","","","","","","","","","",""
"","response","","html-keyboard-response","209","411535","0.0-1.0-275.0-0.0","0","0","96603","","1083","","","68","30","","","1","30","training","adjacent","BC","2","3","Q.jpg","P.jpg","0","1","0","",""
"","feedback","","html-keyboard-response","210","412537","0.0-1.0-276.0-0.0","0","0","96603","","null","","","null","30","","","","","","","","","","","","","","","",""
"","time_out","","html-keyboard-response","211","414540","0.0-1.0-278.0-0.0","0","0","96603","","null","","","null","30","","","","","","","","","","","","","","","",""
"","ITI","","html-keyboard-response","212","415543","0.0-1.0-279.0","0","0","96603","","null","","","null","30","","","","","","","","","","","","","","","NaN",""
"","S1","","html-keyboard-response","213","415796","0.0-1.0-281.0","0","0","96603","","null","","","null","31","","","","","","","","","","","","","","","",""
"","ISI","","html-keyboard-response","214","416800","0.0-1.0-282.0","0","0","96603","","null","","","null","31","NaN","","","","","","","","","","","","","","",""
"","S2","","html-keyboard-response","215","417054","0.0-1.0-283.0","0","0","96603","","null","","","null","31","","NaN","","","","","","","","","","","","","",""
"","response","","html-keyboard-response","216","417917","0.0-1.0-284.0-0.0","0","0","96603","","861","","","68","31","","","1","31","training","adjacent","BA","2","1","Q.jpg","R.jpg","0","0","1","",""
"","feedback","","html-keyboard-response","217","418923","0.0-1.0-285.0-0.0","0","0","96603","","null","","","null","31","","","","","","","","","","","","","","","",""
"","ITI","","html-keyboard-response","218","419927","0.0-1.0-288.0","0","0","96603","","null","","","null","31","","","","","","","","","","","","","","","NaN",""
"","S1","","html-keyboard-response","219","420181","0.0-1.0-290.0","0","0","96603","","null","","","null","32","","","","","","","","","","","","","","","",""
"","ISI","","html-keyboard-response","220","421185","0.0-1.0-291.0","0","0","96603","","null","","","null","32","NaN","","","","","","","","","","","","","","",""
"","S2","","html-keyboard-response","221","421439","0.0-1.0-292.0","0","0","96603","","null","","","null","32","","NaN","","","","","","","","","","","","","",""
"","response","","html-keyboard-response","222","422433","0.0-1.0-293.0-0.0","0","0","96603","","991","","","68","32","","","1","32","training","adjacent","GF","7","6","M.jpg","N.jpg","0","0","1","",""
"","feedback","","html-keyboard-response","223","423438","0.0-1.0-294.0-0.0","0","0","96603","","null","","","null","32","","","","","","","","","","","","","","","",""
"","ITI","","html-keyboard-response","224","424442","0.0-1.0-297.0","0","0","96603","","null","","","null","32","","","","","","","","","","","","","","","NaN",""
"","S1","","html-keyboard-response","225","424696","0.0-1.0-299.0","0","0","96603","","null","","","null","33","","","","","","","","","","","","","","","",""
"","ISI","","html-keyboard-response","226","425700","0.0-1.0-300.0","0","0","96603","","null","","","null","33","NaN","","","","","","","","","","","","","","",""
"","S2","","html-keyboard-response","227","425954","0.0-1.0-301.0","0","0","96603","","null","","","null","33","","NaN","","","","","","","","","","","","","",""
"","response","","html-keyboard-response","228","426294","0.0-1.0-302.0-0.0","0","0","96603","","337","","","75","33","","","1","33","training","adjacent","DC","4","3","O.jpg","P.jpg","1","0","0","",""
"","feedback","","html-keyboard-response","229","427299","0.0-1.0-303.0-0.0","0","0","96603","","null","","","null","33","","","","","","","","","","","","","","","",""
"","time_out","","html-keyboard-response","230","429302","0.0-1.0-305.0-0.0","0","0","96603","","null","","","null","33","","","","","","","","","","","","","","","",""
"","ITI","","html-keyboard-response","231","430304","0.0-1.0-306.0","0","0","96603","","null","","","null","33","","","","","","","","","","","","","","","NaN",""
"","S1","","html-keyboard-response","232","430558","0.0-1.0-308.0","0","0","96603","","null","","","null","34","","","","","","","","","","","","","","","",""
"","ISI","","html-keyboard-response","233","431561","0.0-1.0-309.0","0","0","96603","","null","","","null","34","NaN","","","","","","","","","","","","","","",""
"","S2","","html-keyboard-response","234","431815","0.0-1.0-310.0","0","0","96603","","null","","","null","34","","NaN","","","","","","","","","","","","","",""
"","response","","html-keyboard-response","235","432091","0.0-1.0-311.0-0.0","0","0","96603","","273","","","75","34","","","1","34","training","adjacent","AB","1","2","R.jpg","Q.jpg","1","1","1","",""
"","feedback","","html-keyboard-response","236","433096","0.0-1.0-312.0-0.0","0","0","96603","","null","","","null","34","","","","","","","","","","","","","","","",""
"","ITI","","html-keyboard-response","237","434101","0.0-1.0-315.0","0","0","96603","","null","","","null","34","","","","","","","","","","","","","","","NaN",""
"","S1","","html-keyboard-response","238","434355","0.0-1.0-317.0","0","0","96603","","null","","","null","35","","","","","","","","","","","","","","","",""
"","ISI","","html-keyboard-response","239","435359","0.0-1.0-318.0","0","0","96603","","null","","","null","35","NaN","","","","","","","","","","","","","","",""
"","S2","","html-keyboard-response","240","435615","0.0-1.0-319.0","0","0","96603","","null","","","null","35","","NaN","","","","","","","","","","","","","",""
"","response","","html-keyboard-response","241","436305","0.0-1.0-320.0-0.0","0","0","96603","","686","","","68","35","","","1","35","training","adjacent","ED","5","4","L.jpg","O.jpg","0","0","1","",""
"","feedback","","html-keyboard-response","242","437310","0.0-1.0-321.0-0.0","0","0","96603","","null","","","null","35","","","","","","","","","","","","","","","",""
"","ITI","","html-keyboard-response","243","438314","0.0-1.0-324.0","0","0","96603","","null","","","null","35","","","","","","","","","","","","","","","NaN",""
"","S1","","html-keyboard-response","244","438567","0.0-1.0-326.0","0","0","96603","","null","","","null","36","","","","","","","","","","","","","","","",""
"","ISI","","html-keyboard-response","245","439571","0.0-1.0-327.0","0","0","96603","","null","","","null","36","NaN","","","","","","","","","","","","","","",""
"","S2","","html-keyboard-response","246","439823","0.0-1.0-328.0","0","0","96603","","null","","","null","36","","NaN","","","","","","","","","","","","","",""
"","response","","html-keyboard-response","247","440720","0.0-1.0-329.0-0.0","0","0","96603","","895","","","68","36","","","1","36","training","adjacent","FG","6","7","N.jpg","M.jpg","0","1","0","",""
"","feedback","","html-keyboard-response","248","441724","0.0-1.0-330.0-0.0","0","0","96603","","null","","","null","36","","","","","","","","","","","","","","","",""
"","time_out","","html-keyboard-response","249","443728","0.0-1.0-332.0-0.0","0","0","96603","","null","","","null","36","","","","","","","","","","","","","","","",""
"","ITI","","html-keyboard-response","250","444733","0.0-1.0-333.0","0","0","96603","","null","","","null","36","","","","","","","","","","","","","","","NaN",""
"","S1","","html-keyboard-response","251","444987","0.0-1.0-335.0","0","0","96603","","null","","","null","37","","","","","","","","","","","","","","","",""
"","ISI","","html-keyboard-response","252","445991","0.0-1.0-336.0","0","0","96603","","null","","","null","37","NaN","","","","","","","","","","","","","","",""
"","S2","","html-keyboard-response","253","446245","0.0-1.0-337.0","0","0","96603","","null","","","null","37","","NaN","","","","","","","","","","","","","",""
"","response","","html-keyboard-response","254","447181","0.0-1.0-338.0-0.0","0","0","96603","","933","","","68","37","","","1","37","training","adjacent","EF","5","6","L.jpg","N.jpg","0","1","0","",""
"","feedback","","html-keyboard-response","255","448186","0.0-1.0-339.0-0.0","0","0","96603","","null","","","null","37","","","","","","","","","","","","","","","",""
"","time_out","","html-keyboard-response","256","450192","0.0-1.0-341.0-0.0","0","0","96603","","null","","","null","37","","","","","","","","","","","","","","","",""
"","ITI","","html-keyboard-response","257","451196","0.0-1.0-342.0","0","0","96603","","null","","","null","37","","","","","","","","","","","","","","","NaN",""
"","S1","","html-keyboard-response","258","451449","0.0-1.0-344.0","0","0","96603","","null","","","null","38","","","","","","","","","","","","","","","",""
"","ISI","","html-keyboard-response","259","452452","0.0-1.0-345.0","0","0","96603","","null","","","null","38","NaN","","","","","","","","","","","","","","",""
"","S2","","html-keyboard-response","260","452707","0.0-1.0-346.0","0","0","96603","","null","","","null","38","","NaN","","","","","","","","","","","","","",""
"","response","","html-keyboard-response","261","453347","0.0-1.0-347.0-0.0","0","0","96603","","637","","","75","38","","","1","38","training","adjacent","DC","4","3","O.jpg","P.jpg","1","0","0","",""
"","feedback","","html-keyboard-response","262","454352","0.0-1.0-348.0-0.0","0","0","96603","","null","","","null","38","","","","","","","","","","","","","","","",""
"","time_out","","html-keyboard-response","263","456357","0.0-1.0-350.0-0.0","0","0","96603","","null","","","null","38","","","","","","","","","","","","","","","",""
"","ITI","","html-keyboard-response","264","457361","0.0-1.0-351.0","0","0","96603","","null","","","null","38","","","","","","","","","","","","","","","NaN",""
"","S1","","html-keyboard-response","265","457616","0.0-1.0-353.0","0","0","96603","","null","","","null","39","","","","","","","","","","","","","","","",""
"","ISI","","html-keyboard-response","266","458619","0.0-1.0-354.0","0","0","96603","","555","","","75","39","k","","","","","","","","","","","","","","",""
"","S2","","html-keyboard-response","267","458873","0.0-1.0-355.0","0","0","96603","","null","","","null","39","","NaN","","","","","","","","","","","","","",""
"","response","","html-keyboard-response","268","458975","0.0-1.0-356.0-0.0","0","0","96603","","99","","","75","39","","","1","39","training","adjacent","AB","1","2","R.jpg","Q.jpg","1","1","1","",""
"","feedback","","html-keyboard-response","269","459978","0.0-1.0-357.0-0.0","0","0","96603","","null","","","null","39","","","","","","","","","","","","","","","",""
"","ITI","","html-keyboard-response","270","460982","0.0-1.0-360.0","0","0","96603","","null","","","null","39","","","","","","","","","","","","","","","NaN",""
"","S1","","html-keyboard-response","271","461237","0.0-1.0-362.0","0","0","96603","","null","","","null","40","","","","","","","","","","","","","","","",""
"","ISI","","html-keyboard-response","272","462241","0.0-1.0-363.0","0","0","96603","","null","","","null","40","NaN","","","","","","","","","","","","","","",""
"","S2","","html-keyboard-response","273","462496","0.0-1.0-364.0","0","0","96603","","null","","","null","40","","NaN","","","","","","","","","","","","","",""
"","response","","html-keyboard-response","274","463122","0.0-1.0-365.0-0.0","0","0","96603","","622","","","68","40","","","1","40","training","adjacent","DE","4","5","O.jpg","L.jpg","0","1","0","",""
"","feedback","","html-keyboard-response","275","464140","0.0-1.0-366.0-0.0","0","0","96603","","null","","","null","40","","","","","","","","","","","","","","","",""
"","time_out","","html-keyboard-response","276","466144","0.0-1.0-368.0-0.0","0","0","96603","","null","","","null","40","","","","","","","","","","","","","","","",""
"","ITI","","html-keyboard-response","277","467149","0.0-1.0-369.0","0","0","96603","","null","","","null","40","","","","","","","","","","","","","","","NaN",""
"","S1","","html-keyboard-response","278","467404","0.0-1.0-371.0","0","0","96603","","null","","","null","41","","","","","","","","","","","","","","","",""
"","ISI","","html-keyboard-response","279","468407","0.0-1.0-372.0","0","0","96603","","null","","","null","41","NaN","","","","","","","","","","","","","","",""
"","S2","","html-keyboard-response","280","468662","0.0-1.0-373.0","0","0","96603","","null","","","null","41","","NaN","","","","","","","","","","","","","",""
"","response","","html-keyboard-response","281","469499","0.0-1.0-374.0-0.0","0","0","96603","","834","","","68","41","","","1","41","training","adjacent","BA","2","1","Q.jpg","R.jpg","0","0","1","",""
"","feedback","","html-keyboard-response","282","470504","0.0-1.0-375.0-0.0","0","0","96603","","null","","","null","41","","","","","","","","","","","","","","","",""
"","ITI","","html-keyboard-response","283","471511","0.0-1.0-378.0","0","0","96603","","null","","","null","41","","","","","","","","","","","","","","","NaN",""
"","S1","","html-keyboard-response","284","471766","0.0-1.0-380.0","0","0","96603","","null","","","null","42","","","","","","","","","","","","","","","",""
"","ISI","","html-keyboard-response","285","472769","0.0-1.0-381.0","0","0","96603","","null","","","null","42","NaN","","","","","","","","","","","","","","",""
"","S2","","html-keyboard-response","286","473024","0.0-1.0-382.0","0","0","96603","","null","","","null","42","","NaN","","","","","","","","","","","","","",""
"","response","","html-keyboard-response","287","473882","0.0-1.0-383.0-0.0","0","0","96603","","855","","","68","42","","","1","42","training","adjacent","CD","3","4","P.jpg","O.jpg","0","1","0","",""
"","feedback","","html-keyboard-response","288","474886","0.0-1.0-384.0-0.0","0","0","96603","","null","","","null","42","","","","","","","","","","","","","","","",""
"","time_out","","html-keyboard-response","289","476890","0.0-1.0-386.0-0.0","0","0","96603","","null","","","null","42","","","","","","","","","","","","","","","",""
"","ITI","","html-keyboard-response","290","477893","0.0-1.0-387.0","0","0","96603","","null","","","null","42","","","","","","","","","","","","","","","NaN",""
"","S1","","html-keyboard-response","291","478147","0.0-1.0-389.0","0","0","96603","","null","","","null","43","","","","","","","","","","","","","","","",""
"","ISI","","html-keyboard-response","292","479151","0.0-1.0-390.0","0","0","96603","","null","","","null","43","NaN","","","","","","","","","","","","","","",""
"","S2","","html-keyboard-response","293","479404","0.0-1.0-391.0","0","0","96603","","null","","","null","43","","NaN","","","","","","","","","","","","","",""
"","response","","html-keyboard-response","294","480253","0.0-1.0-392.0-0.0","0","0","96603","","846","","","75","43","","","1","43","training","adjacent","CD","3","4","P.jpg","O.jpg","1","1","1","",""
"","feedback","","html-keyboard-response","295","481259","0.0-1.0-393.0-0.0","0","0","96603","","null","","","null","43","","","","","","","","","","","","","","","",""
"","ITI","","html-keyboard-response","296","482266","0.0-1.0-396.0","0","0","96603","","null","","","null","43","","","","","","","","","","","","","","","NaN",""
"","S1","","html-keyboard-response","297","482520","0.0-1.0-398.0","0","0","96603","","null","","","null","44","","","","","","","","","","","","","","","",""
"","ISI","","html-keyboard-response","298","483525","0.0-1.0-399.0","0","0","96603","","null","","","null","44","NaN","","","","","","","","","","","","","","",""
"","S2","","html-keyboard-response","299","483779","0.0-1.0-400.0","0","0","96603","","null","","","null","44","","NaN","","","","","","","","","","","","","",""
"","response","","html-keyboard-response","300","484346","0.0-1.0-401.0-0.0","0","0","96603","","563","","","68","44","","","1","44","training","adjacent","BC","2","3","Q.jpg","P.jpg","0","1","0","",""
"","feedback","","html-keyboard-response","301","485351","0.0-1.0-402.0-0.0","0","0","96603","","null","","","null","44","","","","","","","","","","","","","","","",""
"","time_out","","html-keyboard-response","302","487355","0.0-1.0-404.0-0.0","0","0","96603","","null","","","null","44","","","","","","","","","","","","","","","",""
"","ITI","","html-keyboard-response","303","488360","0.0-1.0-405.0","0","0","96603","","null","","","null","44","","","","","","","","","","","","","","","NaN",""
"","S1","","html-keyboard-response","304","488616","0.0-1.0-407.0","0","0","96603","","null","","","null","45","","","","","","","","","","","","","","","",""
"","ISI","","html-keyboard-response","305","489621","0.0-1.0-408.0","0","0","96603","","363","","","75","45","k","","","","","","","","","","","","","","",""
"","S2","","html-keyboard-response","306","489875","0.0-1.0-409.0","0","0","96603","","null","","","null","45","","NaN","","","","","","","","","","","","","",""
"","response","","html-keyboard-response","307","490053","0.0-1.0-410.0-0.0","0","0","96603","","174","","","75","45","","","1","45","training","adjacent","AB","1","2","R.jpg","Q.jpg","1","1","1","",""
"","feedback","","html-keyboard-response","308","491059","0.0-1.0-411.0-0.0","0","0","96603","","null","","","null","45","","","","","","","","","","","","","","","",""
"","ITI","","html-keyboard-response","309","492062","0.0-1.0-414.0","0","0","96603","","null","","","null","45","","","","","","","","","","","","","","","NaN",""
"","S1","","html-keyboard-response","310","492317","0.0-1.0-416.0","0","0","96603","","null","","","null","46","","","","","","","","","","","","","","","",""
"","ISI","","html-keyboard-response","311","493321","0.0-1.0-417.0","0","0","96603","","null","","","null","46","NaN","","","","","","","","","","","","","","",""
"","S2","","html-keyboard-response","312","493576","0.0-1.0-418.0","0","0","96603","","null","","","null","46","","NaN","","","","","","","","","","","","","",""
"","response","","html-keyboard-response","313","494197","0.0-1.0-419.0-0.0","0","0","96603","","617","","","75","46","","","1","46","training","adjacent","GF","7","6","M.jpg","N.jpg","1","0","0","",""
"","feedback","","html-keyboard-response","314","495202","0.0-1.0-420.0-0.0","0","0","96603","","null","","","null","46","","","","","","","","","","","","","","","",""
"","time_out","","html-keyboard-response","315","497206","0.0-1.0-422.0-0.0","0","0","96603","","null","","","null","46","","","","","","","","","","","","","","","",""
"","ITI","","html-keyboard-response","316","498217","0.0-1.0-423.0","0","0","96603","","null","","","null","46","","","","","","","","","","","","","","","NaN",""
"","S1","","html-keyboard-response","317","498471","0.0-1.0-425.0","0","0","96603","","null","","","null","47","","","","","","","","","","","","","","","",""
"","ISI","","html-keyboard-response","318","499475","0.0-1.0-426.0","0","0","96603","","null","","","null","47","NaN","","","","","","","","","","","","","","",""
"","S2","","html-keyboard-response","319","499729","0.0-1.0-427.0","0","0","96603","","null","","","null","47","","NaN","","","","","","","","","","","","","",""
"","response","","html-keyboard-response","320","500417","0.0-1.0-428.0-0.0","0","0","96603","","682","","","68","47","","","1","47","training","adjacent","ED","5","4","L.jpg","O.jpg","0","0","1","",""
"","feedback","","html-keyboard-response","321","501424","0.0-1.0-429.0-0.0","0","0","96603","","null","","","null","47","","","","","","","","","","","","","","","",""
"","ITI","","html-keyboard-response","322","502429","0.0-1.0-432.0","0","0","96603","","null","","","null","47","","","","","","","","","","","","","","","NaN",""
"","block_over","","html-keyboard-response","323","510924","0.0-1.0-433.0-0.0","0","0","96603","","8491","","","32","47","","","","","","","","","","","","","","","",""
"","S1","","html-keyboard-response","324","511179","0.0-1.0-434.0","0","0","96603","","null","","","null","48","","","","","","","","","","","","","","","",""
"","ISI","","html-keyboard-response","325","512182","0.0-1.0-435.0","0","0","96603","","null","","","null","48","NaN","","","","","","","","","","","","","","",""
"","S2","","html-keyboard-response","326","512435","0.0-1.0-436.0","0","0","96603","","null","","","null","48","","NaN","","","","","","","","","","","","","",""
"","response","","html-keyboard-response","327","512898","0.0-1.0-437.0-0.0","0","0","96603","","459","","","68","48","","","2","48","training","adjacent","CD","3","4","P.jpg","O.jpg","0","1","0","",""
"","feedback","","html-keyboard-response","328","513904","0.0-1.0-438.0-0.0","0","0","96603","","null","","","null","48","","","","","","","","","","","","","","","",""
"","time_out","","html-keyboard-response","329","515908","0.0-1.0-440.0-0.0","0","0","96603","","null","","","null","48","","","","","","","","","","","","","","","",""
"","ITI","","html-keyboard-response","330","516911","0.0-1.0-441.0","0","0","96603","","null","","","null","48","","","","","","","","","","","","","","","NaN",""
"","S1","","html-keyboard-response","331","517165","0.0-1.0-443.0","0","0","96603","","null","","","null","49","","","","","","","","","","","","","","","",""
"","ISI","","html-keyboard-response","332","518168","0.0-1.0-444.0","0","0","96603","","null","","","null","49","NaN","","","","","","","","","","","","","","",""
"","S2","","html-keyboard-response","333","518422","0.0-1.0-445.0","0","0","96603","","null","","","null","49","","NaN","","","","","","","","","","","","","",""
"","response","","html-keyboard-response","334","518955","0.0-1.0-446.0-0.0","0","0","96603","","529","","","75","49","","","2","49","training","adjacent","FE","6","5","N.jpg","L.jpg","1","0","0","",""
"","feedback","","html-keyboard-response","335","519959","0.0-1.0-447.0-0.0","0","0","96603","","null","","","null","49","","","","","","","","","","","","","","","",""
"","time_out","","html-keyboard-response","336","521964","0.0-1.0-449.0-0.0","0","0","96603","","null","","","null","49","","","","","","","","","","","","","","","",""
"","ITI","","html-keyboard-response","337","522969","0.0-1.0-450.0","0","0","96603","","null","","","null","49","","","","","","","","","","","","","","","NaN",""
"","S1","","html-keyboard-response","338","523223","0.0-1.0-452.0","0","0","96603","","null","","","null","50","","","","","","","","","","","","","","","",""
"","ISI","","html-keyboard-response","339","524227","0.0-1.0-453.0","0","0","96603","","null","","","null","50","NaN","","","","","","","","","","","","","","",""
"","S2","","html-keyboard-response","340","524483","0.0-1.0-454.0","0","0","96603","","null","","","null","50","","NaN","","","","","","","","","","","","","",""
"","response","","html-keyboard-response","341","524844","0.0-1.0-455.0-0.0","0","0","96603","","357","","","68","50","","","2","50","training","adjacent","BA","2","1","Q.jpg","R.jpg","0","0","1","",""
"","feedback","","html-keyboard-response","342","525849","0.0-1.0-456.0-0.0","0","0","96603","","null","","","null","50","","","","","","","","","","","","","","","",""
"","ITI","","html-keyboard-response","343","526855","0.0-1.0-459.0","0","0","96603","","null","","","null","50","","","","","","","","","","","","","","","NaN",""
"","S1","","html-keyboard-response","344","527109","0.0-1.0-461.0","0","0","96603","","null","","","null","51","","","","","","","","","","","","","","","",""
"","ISI","","html-keyboard-response","345","528112","0.0-1.0-462.0","0","0","96603","","null","","","null","51","NaN","","","","","","","","","","","","","","",""
"","S2","","html-keyboard-response","346","528367","0.0-1.0-463.0","0","0","96603","","null","","","null","51","","NaN","","","","","","","","","","","","","",""
"","response","","html-keyboard-response","347","528385","0.0-1.0-464.0-0.0","0","0","96603","","14","","","75","51","","","2","51","training","adjacent","AB","1","2","R.jpg","Q.jpg","1","1","1","",""
"","feedback","","html-keyboard-response","348","529391","0.0-1.0-465.0-0.0","0","0","96603","","null","","","null","51","","","","","","","","","","","","","","","",""
"","ITI","","html-keyboard-response","349","530395","0.0-1.0-468.0","0","0","96603","","null","","","null","51","","","","","","","","","","","","","","","NaN",""
"","S1","","html-keyboard-response","350","530650","0.0-1.0-470.0","0","0","96603","","null","","","null","52","","","","","","","","","","","","","","","",""
"","ISI","","html-keyboard-response","351","531654","0.0-1.0-471.0","0","0","96603","","null","","","null","52","NaN","","","","","","","","","","","","","","",""
"","S2","","html-keyboard-response","352","531909","0.0-1.0-472.0","0","0","96603","","null","","","null","52","","NaN","","","","","","","","","","","","","",""
"","response","","html-keyboard-response","353","531998","0.0-1.0-473.0-0.0","0","0","96603","","84","","","68","52","","","2","52","training","adjacent","BA","2","1","Q.jpg","R.jpg","0","0","1","",""
"","feedback","","html-keyboard-response","354","533003","0.0-1.0-474.0-0.0","0","0","96603","","null","","","null","52","","","","","","","","","","","","","","","",""
"","ITI","","html-keyboard-response","355","534008","0.0-1.0-477.0","0","0","96603","","null","","","null","52","","","","","","","","","","","","","","","NaN",""
"","S1","","html-keyboard-response","356","534261","0.0-1.0-479.0","0","0","96603","","null","","","null","53","","","","","","","","","","","","","","","",""
"","ISI","","html-keyboard-response","357","535265","0.0-1.0-480.0","0","0","96603","","null","","","null","53","NaN","","","","","","","","","","","","","","",""
"","S2","","html-keyboard-response","358","535520","0.0-1.0-481.0","0","0","96603","","null","","","null","53","","NaN","","","","","","","","","","","","","",""
"","response","","html-keyboard-response","359","535625","0.0-1.0-482.0-0.0","0","0","96603","","103","","","75","53","","","2","53","training","adjacent","AB","1","2","R.jpg","Q.jpg","1","1","1","",""
"","feedback","","html-keyboard-response","360","536629","0.0-1.0-483.0-0.0","0","0","96603","","null","","","null","53","","","","","","","","","","","","","","","",""
"","ITI","","html-keyboard-response","361","537633","0.0-1.0-486.0","0","0","96603","","null","","","null","53","","","","","","","","","","","","","","","NaN",""
"","S1","","html-keyboard-response","362","537887","0.0-1.0-488.0","0","0","96603","","null","","","null","54","","","","","","","","","","","","","","","",""
"","ISI","","html-keyboard-response","363","538891","0.0-1.0-489.0","0","0","96603","","null","","","null","54","NaN","","","","","","","","","","","","","","",""
"","S2","","html-keyboard-response","364","539143","0.0-1.0-490.0","0","0","96603","","null","","","null","54","","NaN","","","","","","","","","","","","","",""
"","response","","html-keyboard-response","365","539447","0.0-1.0-491.0-0.0","0","0","96603","","300","","","68","54","","","2","54","training","adjacent","ED","5","4","L.jpg","O.jpg","0","0","1","",""
"","feedback","","html-keyboard-response","366","540452","0.0-1.0-492.0-0.0","0","0","96603","","null","","","null","54","","","","","","","","","","","","","","","",""
"","ITI","","html-keyboard-response","367","541457","0.0-1.0-495.0","0","0","96603","","null","","","null","54","","","","","","","","","","","","","","","NaN",""
"","S1","","html-keyboard-response","368","541712","0.0-1.0-497.0","0","0","96603","","null","","","null","55","","","","","","","","","","","","","","","",""
"","ISI","","html-keyboard-response","369","542715","0.0-1.0-498.0","0","0","96603","","null","","","null","55","NaN","","","","","","","","","","","","","","",""
"","S2","","html-keyboard-response","370","542969","0.0-1.0-499.0","0","0","96603","","null","","","null","55","","NaN","","","","","","","","","","","","","",""
"","response","","html-keyboard-response","371","543046","0.0-1.0-500.0-0.0","0","0","96603","","75","","","68","55","","","2","55","training","adjacent","BC","2","3","Q.jpg","P.jpg","0","1","0","",""
"","feedback","","html-keyboard-response","372","544051","0.0-1.0-501.0-0.0","0","0","96603","","null","","","null","55","","","","","","","","","","","","","","","",""
"","time_out","","html-keyboard-response","373","546055","0.0-1.0-503.0-0.0","0","0","96603","","null","","","null","55","","","","","","","","","","","","","","","",""
"","ITI","","html-keyboard-response","374","547059","0.0-1.0-504.0","0","0","96603","","null","","","null","55","","","","","","","","","","","","","","","NaN",""
"","S1","","html-keyboard-response","375","547313","0.0-1.0-506.0","0","0","96603","","null","","","null","56","","","","","","","","","","","","","","","",""
"","ISI","","html-keyboard-response","376","548317","0.0-1.0-507.0","0","0","96603","","null","","","null","56","NaN","","","","","","","","","","","","","","",""
"","S2","","html-keyboard-response","377","548571","0.0-1.0-508.0","0","0","96603","","null","","","null","56","","NaN","","","","","","","","","","","","","",""
"","response","","html-keyboard-response","378","549181","0.0-1.0-509.0-0.0","0","0","96603","","606","","","75","56","","","2","56","training","adjacent","EF","5","6","L.jpg","N.jpg","1","1","1","",""
"","feedback","","html-keyboard-response","379","550187","0.0-1.0-510.0-0.0","0","0","96603","","null","","","null","56","","","","","","","","","","","","","","","",""
"","ITI","","html-keyboard-response","380","551191","0.0-1.0-513.0","0","0","96603","","null","","","null","56","","","","","","","","","","","","","","","NaN",""
"","S1","","html-keyboard-response","381","551446","0.0-1.0-515.0","0","0","96603","","null","","","null","57","","","","","","","","","","","","","","","",""
"","ISI","","html-keyboard-response","382","552451","0.0-1.0-516.0","0","0","96603","","null","","","null","57","NaN","","","","","","","","","","","","","","",""
"","S2","","html-keyboard-response","383","552704","0.0-1.0-517.0","0","0","96603","","null","","","null","57","","NaN","","","","","","","","","","","","","",""
"","response","","html-keyboard-response","384","553196","0.0-1.0-518.0-0.0","0","0","96603","","488","","","68","57","","","2","57","training","adjacent","BC","2","3","Q.jpg","P.jpg","0","1","0","",""
"","feedback","","html-keyboard-response","385","554204","0.0-1.0-519.0-0.0","0","0","96603","","null","","","null","57","","","","","","","","","","","","","","","",""
"","time_out","","html-keyboard-response","386","556209","0.0-1.0-521.0-0.0","0","0","96603","","null","","","null","57","","","","","","","","","","","","","","","",""
"","ITI","","html-keyboard-response","387","557212","0.0-1.0-522.0","0","0","96603","","null","","","null","57","","","","","","","","","","","","","","","NaN",""
"","S1","","html-keyboard-response","388","557465","0.0-1.0-524.0","0","0","96603","","null","","","null","58","","","","","","","","","","","","","","","",""
"","ISI","","html-keyboard-response","389","558468","0.0-1.0-525.0","0","0","96603","","null","","","null","58","NaN","","","","","","","","","","","","","","",""
"","S2","","html-keyboard-response","390","558722","0.0-1.0-526.0","0","0","96603","","null","","","null","58","","NaN","","","","","","","","","","","","","",""
"","response","","html-keyboard-response","391","559057","0.0-1.0-527.0-0.0","0","0","96603","","332","","","68","58","","","2","58","training","adjacent","BA","2","1","Q.jpg","R.jpg","0","0","1","",""
"","feedback","","html-keyboard-response","392","560062","0.0-1.0-528.0-0.0","0","0","96603","","null","","","null","58","","","","","","","","","","","","","","","",""
"","ITI","","html-keyboard-response","393","561065","0.0-1.0-531.0","0","0","96603","","null","","","null","58","","","","","","","","","","","","","","","NaN",""
"","S1","","html-keyboard-response","394","561319","0.0-1.0-533.0","0","0","96603","","null","","","null","59","","","","","","","","","","","","","","","",""
"","ISI","","html-keyboard-response","395","562321","0.0-1.0-534.0","0","0","96603","","null","","","null","59","NaN","","","","","","","","","","","","","","",""
"","S2","","html-keyboard-response","396","562575","0.0-1.0-535.0","0","0","96603","","null","","","null","59","","NaN","","","","","","","","","","","","","",""
"","response","","html-keyboard-response","397","562834","0.0-1.0-536.0-0.0","0","0","96603","","257","","","75","59","","","2","59","training","adjacent","DE","4","5","O.jpg","L.jpg","1","1","1","",""
"","feedback","","html-keyboard-response","398","563838","0.0-1.0-537.0-0.0","0","0","96603","","null","","","null","59","","","","","","","","","","","","","","","",""
"","ITI","","html-keyboard-response","399","564841","0.0-1.0-540.0","0","0","96603","","null","","","null","59","","","","","","","","","","","","","","","NaN",""
"","S1","","html-keyboard-response","400","565095","0.0-1.0-542.0","0","0","96603","","null","","","null","60","","","","","","","","","","","","","","","",""
"","ISI","","html-keyboard-response","401","566099","0.0-1.0-543.0","0","0","96603","","null","","","null","60","NaN","","","","","","","","","","","","","","",""
"","S2","","html-keyboard-response","402","566355","0.0-1.0-544.0","0","0","96603","","null","","","null","60","","NaN","","","","","","","","","","","","","",""
"","response","","html-keyboard-response","403","566676","0.0-1.0-545.0-0.0","0","0","96603","","317","","","75","60","","","2","60","training","adjacent","DC","4","3","O.jpg","P.jpg","1","0","0","",""
"","feedback","","html-keyboard-response","404","567682","0.0-1.0-546.0-0.0","0","0","96603","","null","","","null","60","","","","","","","","","","","","","","","",""
"","time_out","","html-keyboard-response","405","569687","0.0-1.0-548.0-0.0","0","0","96603","","null","","","null","60","","","","","","","","","","","","","","","",""
"","ITI","","html-keyboard-response","406","570692","0.0-1.0-549.0","0","0","96603","","null","","","null","60","","","","","","","","","","","","","","","NaN",""
"","S1","","html-keyboard-response","407","570957","0.0-1.0-551.0","0","0","96603","","null","","","null","61","","","","","","","","","","","","","","","",""
"","ISI","","html-keyboard-response","408","571961","0.0-1.0-552.0","0","0","96603","","null","","","null","61","NaN","","","","","","","","","","","","","","",""
"","S2","","html-keyboard-response","409","572216","0.0-1.0-553.0","0","0","96603","","null","","","null","61","","NaN","","","","","","","","","","","","","",""
"","response","","html-keyboard-response","410","573031","0.0-1.0-554.0-0.0","0","0","96603","","813","","","68","61","","","2","61","training","adjacent","FE","6","5","N.jpg","L.jpg","0","0","1","",""
"","feedback","","html-keyboard-response","411","574036","0.0-1.0-555.0-0.0","0","0","96603","","null","","","null","61","","","","","","","","","","","","","","","",""
"","ITI","","html-keyboard-response","412","575041","0.0-1.0-558.0","0","0","96603","","null","","","null","61","","","","","","","","","","","","","","","NaN",""
"","S1","","html-keyboard-response","413","575296","0.0-1.0-560.0","0","0","96603","","null","","","null","62","","","","","","","","","","","","","","","",""
"","ISI","","html-keyboard-response","414","576300","0.0-1.0-561.0","0","0","96603","","null","","","null","62","NaN","","","","","","","","","","","","","","",""
"","S2","","html-keyboard-response","415","576555","0.0-1.0-562.0","0","0","96603","","null","","","null","62","","NaN","","","","","","","","","","","","","",""
"","response","","html-keyboard-response","416","577204","0.0-1.0-563.0-0.0","0","0","96603","","646","","","75","62","","","2","62","training","adjacent","CB","3","2","P.jpg","Q.jpg","1","0","0","",""
"","feedback","","html-keyboard-response","417","578209","0.0-1.0-564.0-0.0","0","0","96603","","null","","","null","62","","","","","","","","","","","","","","","",""
"","time_out","","html-keyboard-response","418","580213","0.0-1.0-566.0-0.0","0","0","96603","","null","","","null","62","","","","","","","","","","","","","","","",""
"","ITI","","html-keyboard-response","419","581222","0.0-1.0-567.0","0","0","96603","","null","","","null","62","","","","","","","","","","","","","","","NaN",""
"","S1","","html-keyboard-response","420","581475","0.0-1.0-569.0","0","0","96603","","null","","","null","63","","","","","","","","","","","","","","","",""
"","ISI","","html-keyboard-response","421","582480","0.0-1.0-570.0","0","0","96603","","null","","","null","63","NaN","","","","","","","","","","","","","","",""
"","S2","","html-keyboard-response","422","582735","0.0-1.0-571.0","0","0","96603","","null","","","null","63","","NaN","","","","","","","","","","","","","",""
"","response","","html-keyboard-response","423","583227","0.0-1.0-572.0-0.0","0","0","96603","","487","","","68","63","","","2","63","training","adjacent","DC","4","3","O.jpg","P.jpg","0","0","1","",""
"","feedback","","html-keyboard-response","424","584232","0.0-1.0-573.0-0.0","0","0","96603","","null","","","null","63","","","","","","","","","","","","","","","",""
"","ITI","","html-keyboard-response","425","585238","0.0-1.0-576.0","0","0","96603","","null","","","null","63","","","","","","","","","","","","","","","NaN",""
"","S1","","html-keyboard-response","426","585492","0.0-1.0-578.0","0","0","96603","","null","","","null","64","","","","","","","","","","","","","","","",""
"","ISI","","html-keyboard-response","427","586495","0.0-1.0-579.0","0","0","96603","","null","","","null","64","NaN","","","","","","","","","","","","","","",""
"","S2","","html-keyboard-response","428","586748","0.0-1.0-580.0","0","0","96603","","null","","","null","64","","NaN","","","","","","","","","","","","","",""
"","response","","html-keyboard-response","429","587232","0.0-1.0-581.0-0.0","0","0","96603","","481","","","68","64","","","2","64","training","adjacent","DC","4","3","O.jpg","P.jpg","0","0","1","",""
"","feedback","","html-keyboard-response","430","588236","0.0-1.0-582.0-0.0","0","0","96603","","null","","","null","64","","","","","","","","","","","","","","","",""
"","ITI","","html-keyboard-response","431","589240","0.0-1.0-585.0","0","0","96603","","null","","","null","64","","","","","","","","","","","","","","","NaN",""
"","S1","","html-keyboard-response","432","589495","0.0-1.0-587.0","0","0","96603","","null","","","null","65","","","","","","","","","","","","","","","",""
"","ISI","","html-keyboard-response","433","590499","0.0-1.0-588.0","0","0","96603","","null","","","null","65","NaN","","","","","","","","","","","","","","",""
"","S2","","html-keyboard-response","434","590755","0.0-1.0-589.0","0","0","96603","","null","","","null","65","","NaN","","","","","","","","","","","","","",""
"","response","","html-keyboard-response","435","590949","0.0-1.0-590.0-0.0","0","0","96603","","190","","","68","65","","","2","65","training","adjacent","DE","4","5","O.jpg","L.jpg","0","1","0","",""
"","feedback","","html-keyboard-response","436","591954","0.0-1.0-591.0-0.0","0","0","96603","","null","","","null","65","","","","","","","","","","","","","","","",""
"","time_out","","html-keyboard-response","437","593959","0.0-1.0-593.0-0.0","0","0","96603","","null","","","null","65","","","","","","","","","","","","","","","",""
"","ITI","","html-keyboard-response","438","594962","0.0-1.0-594.0","0","0","96603","","null","","","null","65","","","","","","","","","","","","","","","NaN",""
"","S1","","html-keyboard-response","439","595217","0.0-1.0-596.0","0","0","96603","","null","","","null","66","","","","","","","","","","","","","","","",""
"","ISI","","html-keyboard-response","440","596221","0.0-1.0-597.0","0","0","96603","","null","","","null","66","NaN","","","","","","","","","","","","","","",""
"","S2","","html-keyboard-response","441","596476","0.0-1.0-598.0","0","0","96603","","null","","","null","66","","NaN","","","","","","","","","","","","","",""
"","response","","html-keyboard-response","442","597094","0.0-1.0-599.0-0.0","0","0","96603","","616","","","75","66","","","2","66","training","adjacent","ED","5","4","L.jpg","O.jpg","1","0","0","",""
"","feedback","","html-keyboard-response","443","598098","0.0-1.0-600.0-0.0","0","0","96603","","null","","","null","66","","","","","","","","","","","","","","","",""
"","time_out","","html-keyboard-response","444","600102","0.0-1.0-602.0-0.0","0","0","96603","","null","","","null","66","","","","","","","","","","","","","","","",""
"","ITI","","html-keyboard-response","445","601106","0.0-1.0-603.0","0","0","96603","","null","","","null","66","","","","","","","","","","","","","","","NaN",""
"","S1","","html-keyboard-response","446","601359","0.0-1.0-605.0","0","0","96603","","null","","","null","67","","","","","","","","","","","","","","","",""
"","ISI","","html-keyboard-response","447","602364","0.0-1.0-606.0","0","0","96603","","null","","","null","67","NaN","","","","","","","","","","","","","","",""
"","S2","","html-keyboard-response","448","602618","0.0-1.0-607.0","0","0","96603","","null","","","null","67","","NaN","","","","","","","","","","","","","",""
"","response","","html-keyboard-response","449","603330","0.0-1.0-608.0-0.0","0","0","96603","","707","","","75","67","","","2","67","training","adjacent","ED","5","4","L.jpg","O.jpg","1","0","0","",""
"","feedback","","html-keyboard-response","450","604336","0.0-1.0-609.0-0.0","0","0","96603","","null","","","null","67","","","","","","","","","","","","","","","",""
"","time_out","","html-keyboard-response","451","606341","0.0-1.0-611.0-0.0","0","0","96603","","null","","","null","67","","","","","","","","","","","","","","","",""
"","ITI","","html-keyboard-response","452","607346","0.0-1.0-612.0","0","0","96603","","null","","","null","67","","","","","","","","","","","","","","","NaN",""
"","S1","","html-keyboard-response","453","607602","0.0-1.0-614.0","0","0","96603","","null","","","null","68","","","","","","","","","","","","","","","",""
"","ISI","","html-keyboard-response","454","608604","0.0-1.0-615.0","0","0","96603","","null","","","null","68","NaN","","","","","","","","","","","","","","",""
"","S2","","html-keyboard-response","455","608857","0.0-1.0-616.0","0","0","96603","","null","","","null","68","","NaN","","","","","","","","","","","","","",""
"","response","","html-keyboard-response","456","609405","0.0-1.0-617.0-0.0","0","0","96603","","546","","","75","68","","","2","68","training","adjacent","CB","3","2","P.jpg","Q.jpg","1","0","0","",""
"","feedback","","html-keyboard-response","457","610409","0.0-1.0-618.0-0.0","0","0","96603","","null","","","null","68","","","","","","","","","","","","","","","",""
"","time_out","","html-keyboard-response","458","612412","0.0-1.0-620.0-0.0","0","0","96603","","null","","","null","68","","","","","","","","","","","","","","","",""
"","ITI","","html-keyboard-response","459","613417","0.0-1.0-621.0","0","0","96603","","null","","","null","68","","","","","","","","","","","","","","","NaN",""
"","S1","","html-keyboard-response","460","613671","0.0-1.0-623.0","0","0","96603","","null","","","null","69","","","","","","","","","","","","","","","",""
"","ISI","","html-keyboard-response","461","614675","0.0-1.0-624.0","0","0","96603","","null","","","null","69","NaN","","","","","","","","","","","","","","",""
"","S2","","html-keyboard-response","462","614929","0.0-1.0-625.0","0","0","96603","","null","","","null","69","","NaN","","","","","","","","","","","","","",""
"","response","","html-keyboard-response","463","615482","0.0-1.0-626.0-0.0","0","0","96603","","549","","","75","69","","","2","69","training","adjacent","BC","2","3","Q.jpg","P.jpg","1","1","1","",""
"","feedback","","html-keyboard-response","464","616486","0.0-1.0-627.0-0.0","0","0","96603","","null","","","null","69","","","","","","","","","","","","","","","",""
"","ITI","","html-keyboard-response","465","617488","0.0-1.0-630.0","0","0","96603","","null","","","null","69","","","","","","","","","","","","","","","NaN",""
"","S1","","html-keyboard-response","466","617742","0.0-1.0-632.0","0","0","96603","","null","","","null","70","","","","","","","","","","","","","","","",""
"","ISI","","html-keyboard-response","467","618746","0.0-1.0-633.0","0","0","96603","","null","","","null","70","NaN","","","","","","","","","","","","","","",""
"","S2","","html-keyboard-response","468","619002","0.0-1.0-634.0","0","0","96603","","null","","","null","70","","NaN","","","","","","","","","","","","","",""
"","response","","html-keyboard-response","469","620017","0.0-1.0-635.0-0.0","0","0","96603","","1011","","","75","70","","","2","70","training","adjacent","CD","3","4","P.jpg","O.jpg","1","1","1","",""
"","feedback","","html-keyboard-response","470","621021","0.0-1.0-636.0-0.0","0","0","96603","","null","","","null","70","","","","","","","","","","","","","","","",""
"","ITI","","html-keyboard-response","471","622025","0.0-1.0-639.0","0","0","96603","","null","","","null","70","","","","","","","","","","","","","","","NaN",""
"","S1","","html-keyboard-response","472","622279","0.0-1.0-641.0","0","0","96603","","null","","","null","71","","","","","","","","","","","","","","","",""
"","ISI","","html-keyboard-response","473","623283","0.0-1.0-642.0","0","0","96603","","null","","","null","71","NaN","","","","","","","","","","","","","","",""
"","S2","","html-keyboard-response","474","623539","0.0-1.0-643.0","0","0","96603","","null","","","null","71","","NaN","","","","","","","","","","","","","",""
"","response","","html-keyboard-response","475","624399","0.0-1.0-644.0-0.0","0","0","96603","","856","","","68","71","","","2","71","training","adjacent","BC","2","3","Q.jpg","P.jpg","0","1","0","",""
"","feedback","","html-keyboard-response","476","625405","0.0-1.0-645.0-0.0","0","0","96603","","null","","","null","71","","","","","","","","","","","","","","","",""
"","time_out","","html-keyboard-response","477","627409","0.0-1.0-647.0-0.0","0","0","96603","","null","","","null","71","","","","","","","","","","","","","","","",""
"","ITI","","html-keyboard-response","478","628413","0.0-1.0-648.0","0","0","96603","","null","","","null","71","","","","","","","","","","","","","","","NaN",""
"","S1","","html-keyboard-response","479","628667","0.0-1.0-650.0","0","0","96603","","null","","","null","72","","","","","","","","","","","","","","","",""
"","ISI","","html-keyboard-response","480","629672","0.0-1.0-651.0","0","0","96603","","null","","","null","72","NaN","","","","","","","","","","","","","","",""
"","S2","","html-keyboard-response","481","629926","0.0-1.0-652.0","0","0","96603","","null","","","null","72","","NaN","","","","","","","","","","","","","",""
"","response","","html-keyboard-response","482","630696","0.0-1.0-653.0-0.0","0","0","96603","","767","","","68","72","","","2","72","training","adjacent","EF","5","6","L.jpg","N.jpg","0","1","0","",""
"","feedback","","html-keyboard-response","483","631705","0.0-1.0-654.0-0.0","0","0","96603","","null","","","null","72","","","","","","","","","","","","","","","",""
"","time_out","","html-keyboard-response","484","633710","0.0-1.0-656.0-0.0","0","0","96603","","null","","","null","72","","","","","","","","","","","","","","","",""
"","ITI","","html-keyboard-response","485","634714","0.0-1.0-657.0","0","0","96603","","null","","","null","72","","","","","","","","","","","","","","","NaN",""
"","S1","","html-keyboard-response","486","634968","0.0-1.0-659.0","0","0","96603","","null","","","null","73","","","","","","","","","","","","","","","",""
"","ISI","","html-keyboard-response","487","635984","0.0-1.0-660.0","0","0","96603","","null","","","null","73","NaN","","","","","","","","","","","","","","",""
"","S2","","html-keyboard-response","488","636239","0.0-1.0-661.0","0","0","96603","","null","","","null","73","","NaN","","","","","","","","","","","","","",""
"","response","","html-keyboard-response","489","636684","0.0-1.0-662.0-0.0","0","0","96603","","441","","","68","73","","","2","73","training","adjacent","BA","2","1","Q.jpg","R.jpg","0","0","1","",""
"","feedback","","html-keyboard-response","490","637690","0.0-1.0-663.0-0.0","0","0","96603","","null","","","null","73","","","","","","","","","","","","","","","",""
"","ITI","","html-keyboard-response","491","638695","0.0-1.0-666.0","0","0","96603","","null","","","null","73","","","","","","","","","","","","","","","NaN",""
"","S1","","html-keyboard-response","492","638949","0.0-1.0-668.0","0","0","96603","","null","","","null","74","","","","","","","","","","","","","","","",""
"","ISI","","html-keyboard-response","493","639953","0.0-1.0-669.0","0","0","96603","","null","","","null","74","NaN","","","","","","","","","","","","","","",""
"","S2","","html-keyboard-response","494","640208","0.0-1.0-670.0","0","0","96603","","null","","","null","74","","NaN","","","","","","","","","","","","","",""
"","response","","html-keyboard-response","495","640699","0.0-1.0-671.0-0.0","0","0","96603","","488","","","68","74","","","2","74","training","adjacent","GF","7","6","M.jpg","N.jpg","0","0","1","",""
"","feedback","","html-keyboard-response","496","641705","0.0-1.0-672.0-0.0","0","0","96603","","null","","","null","74","","","","","","","","","","","","","","","",""
"","ITI","","html-keyboard-response","497","642710","0.0-1.0-675.0","0","0","96603","","null","","","null","74","","","","","","","","","","","","","","","NaN",""
"","S1","","html-keyboard-response","498","642964","0.0-1.0-677.0","0","0","96603","","null","","","null","75","","","","","","","","","","","","","","","",""
"","ISI","","html-keyboard-response","499","643968","0.0-1.0-678.0","0","0","96603","","null","","","null","75","NaN","","","","","","","","","","","","","","",""
"","S2","","html-keyboard-response","500","644223","0.0-1.0-679.0","0","0","96603","","null","","","null","75","","NaN","","","","","","","","","","","","","",""
"","response","","html-keyboard-response","501","645271","0.0-1.0-680.0-0.0","0","0","96603","","1045","","","75","75","","","2","75","training","adjacent","EF","5","6","L.jpg","N.jpg","1","1","1","",""
"","feedback","","html-keyboard-response","502","646275","0.0-1.0-681.0-0.0","0","0","96603","","null","","","null","75","","","","","","","","","","","","","","","",""
"","ITI","","html-keyboard-response","503","647278","0.0-1.0-684.0","0","0","96603","","null","","","null","75","","","","","","","","","","","","","","","NaN",""
"","S1","","html-keyboard-response","504","647532","0.0-1.0-686.0","0","0","96603","","null","","","null","76","","","","","","","","","","","","","","","",""
"","ISI","","html-keyboard-response","505","648537","0.0-1.0-687.0","0","0","96603","","null","","","null","76","NaN","","","","","","","","","","","","","","",""
"","S2","","html-keyboard-response","506","648793","0.0-1.0-688.0","0","0","96603","","null","","","null","76","","NaN","","","","","","","","","","","","","",""
"","response","","html-keyboard-response","507","649290","0.0-1.0-689.0-0.0","0","0","96603","","494","","","68","76","","","2","76","training","adjacent","GF","7","6","M.jpg","N.jpg","0","0","1","",""
"","feedback","","html-keyboard-response","508","650296","0.0-1.0-690.0-0.0","0","0","96603","","null","","","null","76","","","","","","","","","","","","","","","",""
"","ITI","","html-keyboard-response","509","651301","0.0-1.0-693.0","0","0","96603","","null","","","null","76","","","","","","","","","","","","","","","NaN",""
"","S1","","html-keyboard-response","510","651554","0.0-1.0-695.0","0","0","96603","","null","","","null","77","","","","","","","","","","","","","","","",""
"","ISI","","html-keyboard-response","511","652557","0.0-1.0-696.0","0","0","96603","","null","","","null","77","NaN","","","","","","","","","","","","","","",""
"","S2","","html-keyboard-response","512","652811","0.0-1.0-697.0","0","0","96603","","null","","","null","77","","NaN","","","","","","","","","","","","","",""
"","response","","html-keyboard-response","513","653202","0.0-1.0-698.0-0.0","0","0","96603","","386","","","68","77","","","2","77","training","adjacent","GF","7","6","M.jpg","N.jpg","0","0","1","",""
"","feedback","","html-keyboard-response","514","654207","0.0-1.0-699.0-0.0","0","0","96603","","null","","","null","77","","","","","","","","","","","","","","","",""
"","ITI","","html-keyboard-response","515","655210","0.0-1.0-702.0","0","0","96603","","null","","","null","77","","","","","","","","","","","","","","","NaN",""
"","S1","","html-keyboard-response","516","655464","0.0-1.0-704.0","0","0","96603","","null","","","null","78","","","","","","","","","","","","","","","",""
"","ISI","","html-keyboard-response","517","656467","0.0-1.0-705.0","0","0","96603","","null","","","null","78","NaN","","","","","","","","","","","","","","",""
"","S2","","html-keyboard-response","518","656720","0.0-1.0-706.0","0","0","96603","","null","","","null","78","","NaN","","","","","","","","","","","","","",""
"","response","","html-keyboard-response","519","657000","0.0-1.0-707.0-0.0","0","0","96603","","276","","","75","78","","","2","78","training","adjacent","AB","1","2","R.jpg","Q.jpg","1","1","1","",""
"","feedback","","html-keyboard-response","520","658006","0.0-1.0-708.0-0.0","0","0","96603","","null","","","null","78","","","","","","","","","","","","","","","",""
"","ITI","","html-keyboard-response","521","659011","0.0-1.0-711.0","0","0","96603","","null","","","null","78","","","","","","","","","","","","","","","NaN",""
"","S1","","html-keyboard-response","522","659265","0.0-1.0-713.0","0","0","96603","","null","","","null","79","","","","","","","","","","","","","","","",""
"","ISI","","html-keyboard-response","523","660269","0.0-1.0-714.0","0","0","96603","","null","","","null","79","NaN","","","","","","","","","","","","","","",""
"","S2","","html-keyboard-response","524","660525","0.0-1.0-715.0","0","0","96603","","null","","","null","79","","NaN","","","","","","","","","","","","","",""
"","response","","html-keyboard-response","525","661581","0.0-1.0-716.0-0.0","0","0","96603","","1053","","","75","79","","","2","79","training","adjacent","FE","6","5","N.jpg","L.jpg","1","0","0","",""
"","feedback","","html-keyboard-response","526","662586","0.0-1.0-717.0-0.0","0","0","96603","","null","","","null","79","","","","","","","","","","","","","","","",""
"","time_out","","html-keyboard-response","527","664590","0.0-1.0-719.0-0.0","0","0","96603","","null","","","null","79","","","","","","","","","","","","","","","",""
"","ITI","","html-keyboard-response","528","665595","0.0-1.0-720.0","0","0","96603","","null","","","null","79","","","","","","","","","","","","","","","NaN",""
"","S1","","html-keyboard-response","529","665850","0.0-1.0-722.0","0","0","96603","","null","","","null","80","","","","","","","","","","","","","","","",""
"","ISI","","html-keyboard-response","530","666858","0.0-1.0-723.0","0","0","96603","","null","","","null","80","NaN","","","","","","","","","","","","","","",""
"","S2","","html-keyboard-response","531","667112","0.0-1.0-724.0","0","0","96603","","null","","","null","80","","NaN","","","","","","","","","","","","","",""
"","response","","html-keyboard-response","532","667594","0.0-1.0-725.0-0.0","0","0","96603","","478","","","75","80","","","2","80","training","adjacent","CB","3","2","P.jpg","Q.jpg","1","0","0","",""
"","feedback","","html-keyboard-response","533","668599","0.0-1.0-726.0-0.0","0","0","96603","","null","","","null","80","","","","","","","","","","","","","","","",""
"","time_out","","html-keyboard-response","534","670603","0.0-1.0-728.0-0.0","0","0","96603","","null","","","null","80","","","","","","","","","","","","","","","",""
"","ITI","","html-keyboard-response","535","671606","0.0-1.0-729.0","0","0","96603","","null","","","null","80","","","","","","","","","","","","","","","NaN",""
"","S1","","html-keyboard-response","536","671861","0.0-1.0-731.0","0","0","96603","","null","","","null","81","","","","","","","","","","","","","","","",""
"","ISI","","html-keyboard-response","537","672880","0.0-1.0-732.0","0","0","96603","","null","","","null","81","NaN","","","","","","","","","","","","","","",""
"","S2","","html-keyboard-response","538","673135","0.0-1.0-733.0","0","0","96603","","null","","","null","81","","NaN","","","","","","","","","","","","","",""
"","response","","html-keyboard-response","539","673566","0.0-1.0-734.0-0.0","0","0","96603","","429","","","75","81","","","2","81","training","adjacent","FG","6","7","N.jpg","M.jpg","1","1","1","",""
"","feedback","","html-keyboard-response","540","674571","0.0-1.0-735.0-0.0","0","0","96603","","null","","","null","81","","","","","","","","","","","","","","","",""
"","ITI","","html-keyboard-response","541","675577","0.0-1.0-738.0","0","0","96603","","null","","","null","81","","","","","","","","","","","","","","","NaN",""
"","S1","","html-keyboard-response","542","675832","0.0-1.0-740.0","0","0","96603","","null","","","null","82","","","","","","","","","","","","","","","",""
"","ISI","","html-keyboard-response","543","676836","0.0-1.0-741.0","0","0","96603","","null","","","null","82","NaN","","","","","","","","","","","","","","",""
"","S2","","html-keyboard-response","544","677090","0.0-1.0-742.0","0","0","96603","","null","","","null","82","","NaN","","","","","","","","","","","","","",""
"","response","","html-keyboard-response","545","677458","0.0-1.0-743.0-0.0","0","0","96603","","364","","","75","82","","","2","82","training","adjacent","FG","6","7","N.jpg","M.jpg","1","1","1","",""
"","feedback","","html-keyboard-response","546","678462","0.0-1.0-744.0-0.0","0","0","96603","","null","","","null","82","","","","","","","","","","","","","","","",""
"","ITI","","html-keyboard-response","547","679466","0.0-1.0-747.0","0","0","96603","","null","","","null","82","","","","","","","","","","","","","","","NaN",""
"","S1","","html-keyboard-response","548","679721","0.0-1.0-749.0","0","0","96603","","null","","","null","83","","","","","","","","","","","","","","","",""
"","ISI","","html-keyboard-response","549","680724","0.0-1.0-750.0","0","0","96603","","null","","","null","83","NaN","","","","","","","","","","","","","","",""
"","S2","","html-keyboard-response","550","680978","0.0-1.0-751.0","0","0","96603","","null","","","null","83","","NaN","","","","","","","","","","","","","",""
"","response","","html-keyboard-response","551","681088","0.0-1.0-752.0-0.0","0","0","96603","","107","","","68","83","","","2","83","training","adjacent","GF","7","6","M.jpg","N.jpg","0","0","1","",""
"","feedback","","html-keyboard-response","552","682093","0.0-1.0-753.0-0.0","0","0","96603","","null","","","null","83","","","","","","","","","","","","","","","",""
"","ITI","","html-keyboard-response","553","683097","0.0-1.0-756.0","0","0","96603","","null","","","null","83","","","","","","","","","","","","","","","NaN",""
"","S1","","html-keyboard-response","554","683352","0.0-1.0-758.0","0","0","96603","","null","","","null","84","","","","","","","","","","","","","","","",""
"","ISI","","html-keyboard-response","555","684356","0.0-1.0-759.0","0","0","96603","","null","","","null","84","NaN","","","","","","","","","","","","","","",""
"","S2","","html-keyboard-response","556","684612","0.0-1.0-760.0","0","0","96603","","null","","","null","84","","NaN","","","","","","","","","","","","","",""
"","response","","html-keyboard-response","557","685093","0.0-1.0-761.0-0.0","0","0","96603","","477","","","68","84","","","2","84","training","adjacent","ED","5","4","L.jpg","O.jpg","0","0","1","",""
"","feedback","","html-keyboard-response","558","686098","0.0-1.0-762.0-0.0","0","0","96603","","null","","","null","84","","","","","","","","","","","","","","","",""
"","ITI","","html-keyboard-response","559","687104","0.0-1.0-765.0","0","0","96603","","null","","","null","84","","","","","","","","","","","","","","","NaN",""
"","S1","","html-keyboard-response","560","687358","0.0-1.0-767.0","0","0","96603","","null","","","null","85","","","","","","","","","","","","","","","",""
"","ISI","","html-keyboard-response","561","688361","0.0-1.0-768.0","0","0","96603","","null","","","null","85","NaN","","","","","","","","","","","","","","",""
"","S2","","html-keyboard-response","562","688615","0.0-1.0-769.0","0","0","96603","","null","","","null","85","","NaN","","","","","","","","","","","","","",""
"","response","","html-keyboard-response","563","689053","0.0-1.0-770.0-0.0","0","0","96603","","435","","","68","85","","","2","85","training","adjacent","DC","4","3","O.jpg","P.jpg","0","0","1","",""
"","feedback","","html-keyboard-response","564","690058","0.0-1.0-771.0-0.0","0","0","96603","","null","","","null","85","","","","","","","","","","","","","","","",""
"","ITI","","html-keyboard-response","565","691062","0.0-1.0-774.0","0","0","96603","","null","","","null","85","","","","","","","","","","","","","","","NaN",""
"","S1","","html-keyboard-response","566","691316","0.0-1.0-776.0","0","0","96603","","null","","","null","86","","","","","","","","","","","","","","","",""
"","ISI","","html-keyboard-response","567","692320","0.0-1.0-777.0","0","0","96603","","null","","","null","86","NaN","","","","","","","","","","","","","","",""
"","S2","","html-keyboard-response","568","692575","0.0-1.0-778.0","0","0","96603","","null","","","null","86","","NaN","","","","","","","","","","","","","",""
"","response","","html-keyboard-response","569","692873","0.0-1.0-779.0-0.0","0","0","96603","","294","","","68","86","","","2","86","training","adjacent","CD","3","4","P.jpg","O.jpg","0","1","0","",""
"","feedback","","html-keyboard-response","570","693878","0.0-1.0-780.0-0.0","0","0","96603","","null","","","null","86","","","","","","","","","","","","","","","",""
"","time_out","","html-keyboard-response","571","695881","0.0-1.0-782.0-0.0","0","0","96603","","null","","","null","86","","","","","","","","","","","","","","","",""
"","ITI","","html-keyboard-response","572","696885","0.0-1.0-783.0","0","0","96603","","null","","","null","86","","","","","","","","","","","","","","","NaN",""
"","S1","","html-keyboard-response","573","697140","0.0-1.0-785.0","0","0","96603","","null","","","null","87","","","","","","","","","","","","","","","",""
"","ISI","","html-keyboard-response","574","698145","0.0-1.0-786.0","0","0","96603","","null","","","null","87","NaN","","","","","","","","","","","","","","",""
"","S2","","html-keyboard-response","575","698399","0.0-1.0-787.0","0","0","96603","","null","","","null","87","","NaN","","","","","","","","","","","","","",""
"","response","","html-keyboard-response","576","699070","0.0-1.0-788.0-0.0","0","0","96603","","668","","","75","87","","","2","87","training","adjacent","FE","6","5","N.jpg","L.jpg","1","0","0","",""
"","feedback","","html-keyboard-response","577","700073","0.0-1.0-789.0-0.0","0","0","96603","","null","","","null","87","","","","","","","","","","","","","","","",""
"","time_out","","html-keyboard-response","578","702076","0.0-1.0-791.0-0.0","0","0","96603","","null","","","null","87","","","","","","","","","","","","","","","",""
