"success","ttype","start_time","trial_type","trial_index","time_elapsed","internal_node_id","warning","missed_checkup","PID","view_history","rt","responses","repeat_instructions","key_press","index","keypress_isi","keypress_S2","block","trial_num","phase","group_type","pair_type","S1_stim","S2_stim","S1_img","S2_img","S1_chosen","S1_higher","accuracy","keypress_iti","total_bonus_tally"
"true","full_screen","d04132023hr2011","fullscreen","0","3599","0.0-0.0","0","0","42323","","","","","","","","","","","","","","","","","","","","","",""
"","instructions","","instructions","1","14159","0.0-1.0-0.0-0.0","0","0","42323","[{""page_index"":0,""viewing_time"":4072},{""page_index"":1,""viewing_time"":1316},{""page_index"":2,""viewing_time"":3300},{""page_index"":3,""viewing_time"":1867}]","10556","","","","","","","","","","","","","","","","","","","",""
"","comprehension_check","","survey-multi-choice","2","29028","0.0-1.0-0.0-1.0","0","0","42323","","14861","{""Q0"":""True"",""Q1"":""D"",""Q2"":""Once the second image appears and while the screen 'MAKE A CHOICE' is shown"",""Q3"":""Green mark"",""Q4"":""either D or K""}","1","","","","","","","","","","","","","","","","","",""
"","missed_instruction_checkup","","html-keyboard-response","3","31472","0.0-1.0-0.0-2.0-0.0","0","1","42323","","2439","","","32","","","","","","","","","","","","","","","","",""
"","instructions","","instructions","4","34343","0.0-1.0-0.1-0.1","0","0","42323","[{""page_index"":0,""viewing_time"":1582},{""page_index"":1,""viewing_time"":433},{""page_index"":2,""viewing_time"":400},{""page_index"":3,""viewing_time"":450}]","2866","","","","","","","","","","","","","","","","","","","",""
"","comprehension_check","","survey-multi-choice","5","56610","0.0-1.0-0.1-1.1","0","0","42323","","22260","{""Q0"":""True"",""Q1"":""K"",""Q2"":""Once the second image appears and while the screen 'MAKE A CHOICE' is shown"",""Q3"":""Green mark"",""Q4"":""either D or K""}","0","","","","","","","","","","","","","","","","","",""
"","start_exp","","html-keyboard-response","6","59089","0.0-1.0-1.0","0","0","42323","","2473","","","32","","","","","","","","","","","","","","","","",""
"","S1","","html-keyboard-response","7","59351","0.0-1.0-2.0","0","0","42323","","null","","","null","0","","","","","","","","","","","","","","","",""
"","ISI","","html-keyboard-response","8","60364","0.0-1.0-3.0","0","0","42323","","null","","","null","0","NaN","","","","","","","","","","","","","","",""
"","S2","","html-keyboard-response","9","60624","0.0-1.0-4.0","0","0","42323","","null","","","null","0","","NaN","","","","","","","","","","","","","",""
"","response","","html-keyboard-response","10","60779","0.0-1.0-5.0-0.0","0","0","42323","","148","","","75","0","","","1","0","training","adjacent","DE","4","5","N.jpg","M.jpg","1","1","1","",""
"","feedback","","html-keyboard-response","11","61788","0.0-1.0-6.0-0.0","0","0","42323","","null","","","null","0","","","","","","","","","","","","","","","",""
"","ITI","","html-keyboard-response","12","62796","0.0-1.0-9.0","0","0","42323","","492","","","68","0","","","","","","","","","","","","","","","d",""
"","S1","","html-keyboard-response","13","63063","0.0-1.0-11.0","0","0","42323","","null","","","null","1","","","","","","","","","","","","","","","",""
"","ISI","","html-keyboard-response","14","64076","0.0-1.0-12.0","0","0","42323","","819","","","75","1","k","","","","","","","","","","","","","","",""
"","S2","","html-keyboard-response","15","64343","0.0-1.0-13.0","0","0","42323","","null","","","null","1","","NaN","","","","","","","","","","","","","",""
"","response","","html-keyboard-response","16","64365","0.0-1.0-14.0-0.0","0","0","42323","","19","","","68","1","","","1","1","training","adjacent","FE","6","5","L.jpg","M.jpg","0","0","1","",""
"","feedback","","html-keyboard-response","17","65372","0.0-1.0-15.0-0.0","0","0","42323","","null","","","null","1","","","","","","","","","","","","","","","",""
"","ITI","","html-keyboard-response","18","66380","0.0-1.0-18.0","0","0","42323","","null","","","null","1","","","","","","","","","","","","","","","NaN",""
"","S1","","html-keyboard-response","19","66647","0.0-1.0-20.0","0","0","42323","","null","","","null","2","","","","","","","","","","","","","","","",""
"","ISI","","html-keyboard-response","20","67660","0.0-1.0-21.0","0","0","42323","","142","","","75","2","k","","","","","","","","","","","","","","",""
"","S2","","html-keyboard-response","21","67773","0.0-1.0-22.0","0","0","42323","","110","","","68","2","","d","1","2","training","adjacent","BA","2","1","P.jpg","O.jpg","0","0","1","",""
"","feedback","","html-keyboard-response","22","68780","0.0-1.0-24.0-0.0","0","0","42323","","null","","","null","2","","","","","","","","","","","","","","","",""
"","ITI","","html-keyboard-response","23","69788","0.0-1.0-27.0","0","0","42323","","147","","","68","2","","","","","","","","","","","","","","","d",""
"","S1","","html-keyboard-response","24","70055","0.0-1.0-29.0","0","0","42323","","null","","","null","3","","","","","","","","","","","","","","","",""
"","ISI","","html-keyboard-response","25","71068","0.0-1.0-30.0","0","0","42323","","56","","","68","3","d","","","","","","","","","","","","","","",""
"","S2","","html-keyboard-response","26","71220","0.0-1.0-31.0","0","0","42323","","146","","","68","3","","d","1","3","training","adjacent","ED","5","4","M.jpg","N.jpg","0","0","1","",""
"","feedback","","html-keyboard-response","27","72230","0.0-1.0-33.0-0.0","0","0","42323","","null","","","null","3","","","","","","","","","","","","","","","",""
"","ITI","","html-keyboard-response","28","73239","0.0-1.0-36.0","0","0","42323","","3","","","75","3","","","","","","","","","","","","","","","k",""
"","S1","","html-keyboard-response","29","73500","0.0-1.0-38.0","0","0","42323","","null","","","null","4","","","","","","","","","","","","","","","",""
"","ISI","","html-keyboard-response","30","74509","0.0-1.0-39.0","0","0","42323","","160","","","68","4","d","","","","","","","","","","","","","","",""
"","S2","","html-keyboard-response","31","74654","0.0-1.0-40.0","0","0","42323","","144","","","75","4","","k","1","4","training","adjacent","FG","6","7","L.jpg","Q.jpg","1","1","1","",""
"","feedback","","html-keyboard-response","32","75659","0.0-1.0-42.0-0.0","0","0","42323","","null","","","null","4","","","","","","","","","","","","","","","",""
"","ITI","","html-keyboard-response","33","76668","0.0-1.0-45.0","0","0","42323","","196","","","75","4","","","","","","","","","","","","","","","k",""
"","S1","","html-keyboard-response","34","76924","0.0-1.0-47.0","0","0","42323","","null","","","null","5","","","","","","","","","","","","","","","",""
"","ISI","","html-keyboard-response","35","77932","0.0-1.0-48.0","0","0","42323","","170","","","75","5","k","","","","","","","","","","","","","","",""
"","S2","","html-keyboard-response","36","77938","0.0-1.0-49.0","0","0","42323","","1","","","75","5","","k","1","5","training","adjacent","DE","4","5","N.jpg","M.jpg","1","1","1","",""
"","feedback","","html-keyboard-response","37","78949","0.0-1.0-51.0-0.0","0","0","42323","","null","","","null","5","","","","","","","","","","","","","","","",""
"","ITI","","html-keyboard-response","38","79958","0.0-1.0-54.0","0","0","42323","","148","","","75","5","","","","","","","","","","","","","","","k",""
"","S1","","html-keyboard-response","39","80219","0.0-1.0-56.0","0","0","42323","","null","","","null","6","","","","","","","","","","","","","","","",""
"","ISI","","html-keyboard-response","40","81227","0.0-1.0-57.0","0","0","42323","","121","","","68","6","d","","","","","","","","","","","","","","",""
"","S2","","html-keyboard-response","41","81462","0.0-1.0-58.0","0","0","42323","","230","","","75","6","","k","1","6","training","adjacent","FE","6","5","L.jpg","M.jpg","1","0","0","",""
"","feedback","","html-keyboard-response","42","82471","0.0-1.0-60.0-0.0","0","0","42323","","null","","","null","6","","","","","","","","","","","","","","","",""
"","time_out","","html-keyboard-response","43","84486","0.0-1.0-62.0-0.0","0","0","42323","","null","","","null","6","","","","","","","","","","","","","","","",""
"","ITI","","html-keyboard-response","44","85495","0.0-1.0-63.0","0","0","42323","","244","","","68","6","","","","","","","","","","","","","","","d",""
"","S1","","html-keyboard-response","45","85756","0.0-1.0-65.0","0","0","42323","","null","","","null","7","","","","","","","","","","","","","","","",""
"","ISI","","html-keyboard-response","46","86762","0.0-1.0-66.0","0","0","42323","","120","","","68","7","d","","","","","","","","","","","","","","",""
"","S2","","html-keyboard-response","47","87020","0.0-1.0-67.0","0","0","42323","","null","","","null","7","","NaN","","","","","","","","","","","","","",""
"","response","","html-keyboard-response","48","88574","0.0-1.0-68.0-0.0","0","0","42323","","1549","","","68","7","","","1","7","training","adjacent","CD","3","4","R.jpg","N.jpg","0","1","0","",""
"","feedback","","html-keyboard-response","49","89587","0.0-1.0-69.0-0.0","0","0","42323","","null","","","null","7","","","","","","","","","","","","","","","",""
"","time_out","","html-keyboard-response","50","91772","0.0-1.0-71.0-0.0","0","0","42323","","null","","","null","7","","","","","","","","","","","","","","","",""
"","ITI","","html-keyboard-response","51","93973","0.0-1.0-72.0","0","0","42323","","null","","","null","7","","","","","","","","","","","","","","","NaN",""
"","S1","","html-keyboard-response","52","95081","0.0-1.0-74.0","0","0","42323","","null","","","null","8","","","","","","","","","","","","","","","",""
"","ISI","","html-keyboard-response","53","96861","0.0-1.0-75.0","0","0","42323","","null","","","null","8","NaN","","","","","","","","","","","","","","",""
"","S2","","html-keyboard-response","54","98139","0.0-1.0-76.0","0","0","42323","","null","","","null","8","","NaN","","","","","","","","","","","","","",""
"","response","","html-keyboard-response","55","101561","0.0-1.0-77.0-0.0","0","0","42323","","null","","","null","8","","","1","8","training","adjacent","DE","4","5","N.jpg","M.jpg","NaN","1","0","",""
"","too_slow_prompt","","html-keyboard-response","56","103285","0.0-1.0-79.0-0.0","1","0","42323","","null","","","null","","","","","","","","","","","","","","","","",""
"","time_out","","html-keyboard-response","57","105292","0.0-1.0-80.0-0.0","0","0","42323","","null","","","null","8","","","","","","","","","","","","","","","",""
"","ITI","","html-keyboard-response","58","106300","0.0-1.0-81.0","0","0","42323","","632","","","68","8","","","","","","","","","","","","","","","d",""
"","S1","","html-keyboard-response","59","106564","0.0-1.0-83.0","0","0","42323","","null","","","null","9","","","","","","","","","","","","","","","",""
"","ISI","","html-keyboard-response","60","107575","0.0-1.0-84.0","0","0","42323","","119","","","75","9","k","","","","","","","","","","","","","","",""
"","S2","","html-keyboard-response","61","107623","0.0-1.0-85.0","0","0","42323","","46","","","75","9","","k","1","9","training","adjacent","AB","1","2","O.jpg","P.jpg","1","1","1","",""
"","feedback","","html-keyboard-response","62","108635","0.0-1.0-87.0-0.0","0","0","42323","","null","","","null","9","","","","","","","","","","","","","","","",""
"","ITI","","html-keyboard-response","63","109644","0.0-1.0-90.0","0","0","42323","","118","","","68","9","","","","","","","","","","","","","","","d",""
"","S1","","html-keyboard-response","64","109910","0.0-1.0-92.0","0","0","42323","","null","","","null","10","","","","","","","","","","","","","","","",""
"","ISI","","html-keyboard-response","65","110924","0.0-1.0-93.0","0","0","42323","","119","","","68","10","d","","","","","","","","","","","","","","",""
"","S2","","html-keyboard-response","66","111146","0.0-1.0-94.0","0","0","42323","","216","","","75","10","","k","1","10","training","adjacent","CD","3","4","R.jpg","N.jpg","1","1","1","",""
"","feedback","","html-keyboard-response","67","112154","0.0-1.0-96.0-0.0","0","0","42323","","null","","","null","10","","","","","","","","","","","","","","","",""
"","ITI","","html-keyboard-response","68","113162","0.0-1.0-99.0","0","0","42323","","218","","","75","10","","","","","","","","","","","","","","","k",""
"","S1","","html-keyboard-response","69","113421","0.0-1.0-101.0","0","0","42323","","null","","","null","11","","","","","","","","","","","","","","","",""
"","ISI","","html-keyboard-response","70","114426","0.0-1.0-102.0","0","0","42323","","167","","","75","11","k","","","","","","","","","","","","","","",""
"","S2","","html-keyboard-response","71","114519","0.0-1.0-103.0","0","0","42323","","88","","","68","11","","d","1","11","training","adjacent","FE","6","5","L.jpg","M.jpg","0","0","1","",""
"","feedback","","html-keyboard-response","72","115532","0.0-1.0-105.0-0.0","0","0","42323","","null","","","null","11","","","","","","","","","","","","","","","",""
"","ITI","","html-keyboard-response","73","116540","0.0-1.0-108.0","0","0","42323","","72","","","68","11","","","","","","","","","","","","","","","d",""
"","S1","","html-keyboard-response","74","116806","0.0-1.0-110.0","0","0","42323","","null","","","null","12","","","","","","","","","","","","","","","",""
"","ISI","","html-keyboard-response","75","117821","0.0-1.0-111.0","0","0","42323","","22","","","68","12","d","","","","","","","","","","","","","","",""
"","S2","","html-keyboard-response","76","118086","0.0-1.0-112.0","0","0","42323","","null","","","null","12","","NaN","","","","","","","","","","","","","",""
"","response","","html-keyboard-response","77","119069","0.0-1.0-113.0-0.0","0","0","42323","","979","","","68","12","","","1","12","training","adjacent","DC","4","3","N.jpg","R.jpg","0","0","1","",""
"","feedback","","html-keyboard-response","78","120076","0.0-1.0-114.0-0.0","0","0","42323","","null","","","null","12","","","","","","","","","","","","","","","",""
"","ITI","","html-keyboard-response","79","121083","0.0-1.0-117.0","0","0","42323","","999","","","68","12","","","","","","","","","","","","","","","d",""
"","S1","","html-keyboard-response","80","121339","0.0-1.0-119.0","0","0","42323","","null","","","null","13","","","","","","","","","","","","","","","",""
"","ISI","","html-keyboard-response","81","122347","0.0-1.0-120.0","0","0","42323","","0","","","75","13","k","","","","","","","","","","","","","","",""
"","S2","","html-keyboard-response","82","122577","0.0-1.0-121.0","0","0","42323","","224","","","75","13","","k","1","13","training","adjacent","BC","2","3","P.jpg","R.jpg","1","1","1","",""
"","feedback","","html-keyboard-response","83","123590","0.0-1.0-123.0-0.0","0","0","42323","","null","","","null","13","","","","","","","","","","","","","","","",""
"","ITI","","html-keyboard-response","84","124603","0.0-1.0-126.0","0","0","42323","","241","","","75","13","","","","","","","","","","","","","","","k",""
"","S1","","html-keyboard-response","85","124870","0.0-1.0-128.0","0","0","42323","","null","","","null","14","","","","","","","","","","","","","","","",""
"","ISI","","html-keyboard-response","86","125884","0.0-1.0-129.0","0","0","42323","","103","","","75","14","k","","","","","","","","","","","","","","",""
"","S2","","html-keyboard-response","87","126045","0.0-1.0-130.0","0","0","42323","","156","","","68","14","","d","1","14","training","adjacent","AB","1","2","O.jpg","P.jpg","0","1","0","",""
"","feedback","","html-keyboard-response","88","127051","0.0-1.0-132.0-0.0","0","0","42323","","null","","","null","14","","","","","","","","","","","","","","","",""
"","time_out","","html-keyboard-response","89","129062","0.0-1.0-134.0-0.0","0","0","42323","","null","","","null","14","","","","","","","","","","","","","","","",""
"","ITI","","html-keyboard-response","90","130076","0.0-1.0-135.0","0","0","42323","","49","","","75","14","","","","","","","","","","","","","","","k",""
"","S1","","html-keyboard-response","91","130331","0.0-1.0-137.0","0","0","42323","","null","","","null","15","","","","","","","","","","","","","","","",""
"","ISI","","html-keyboard-response","92","131340","0.0-1.0-138.0","0","0","42323","","436","","","75","15","k","","","","","","","","","","","","","","",""
"","S2","","html-keyboard-response","93","131558","0.0-1.0-139.0","0","0","42323","","213","","","75","15","","k","1","15","training","adjacent","CB","3","2","R.jpg","P.jpg","1","0","0","",""
"","feedback","","html-keyboard-response","94","132571","0.0-1.0-141.0-0.0","0","0","42323","","null","","","null","15","","","","","","","","","","","","","","","",""
"","time_out","","html-keyboard-response","95","134582","0.0-1.0-143.0-0.0","0","0","42323","","null","","","null","15","","","","","","","","","","","","","","","",""
"","ITI","","html-keyboard-response","96","135599","0.0-1.0-144.0","0","0","42323","","352","","","68","15","","","","","","","","","","","","","","","d",""
"","S1","","html-keyboard-response","97","135862","0.0-1.0-146.0","0","0","42323","","null","","","null","16","","","","","","","","","","","","","","","",""
"","ISI","","html-keyboard-response","98","136875","0.0-1.0-147.0","0","0","42323","","1","","","68","16","d","","","","","","","","","","","","","","",""
"","S2","","html-keyboard-response","99","137011","0.0-1.0-148.0","0","0","42323","","131","","","68","16","","d","1","16","training","adjacent","EF","5","6","M.jpg","L.jpg","0","1","0","",""
"","feedback","","html-keyboard-response","100","138022","0.0-1.0-150.0-0.0","0","0","42323","","null","","","null","16","","","","","","","","","","","","","","","",""
"","time_out","","html-keyboard-response","101","140038","0.0-1.0-152.0-0.0","0","0","42323","","null","","","null","16","","","","","","","","","","","","","","","",""
"","ITI","","html-keyboard-response","102","141051","0.0-1.0-153.0","0","0","42323","","919","","","75","16","","","","","","","","","","","","","","","k",""
"","S1","","html-keyboard-response","103","141307","0.0-1.0-155.0","0","0","42323","","null","","","null","17","","","","","","","","","","","","","","","",""
"","ISI","","html-keyboard-response","104","142315","0.0-1.0-156.0","0","0","42323","","41","","","75","17","k","","","","","","","","","","","","","","",""
"","S2","","html-keyboard-response","105","142512","0.0-1.0-157.0","0","0","42323","","192","","","68","17","","d","1","17","training","adjacent","BC","2","3","P.jpg","R.jpg","0","1","0","",""
"","feedback","","html-keyboard-response","106","143526","0.0-1.0-159.0-0.0","0","0","42323","","null","","","null","17","","","","","","","","","","","","","","","",""
"","time_out","","html-keyboard-response","107","145542","0.0-1.0-161.0-0.0","0","0","42323","","null","","","null","17","","","","","","","","","","","","","","","",""
"","ITI","","html-keyboard-response","108","146555","0.0-1.0-162.0","0","0","42323","","61","","","75","17","","","","","","","","","","","","","","","k",""
"","S1","","html-keyboard-response","109","146823","0.0-1.0-164.0","0","0","42323","","null","","","null","18","","","","","","","","","","","","","","","",""
"","ISI","","html-keyboard-response","110","147835","0.0-1.0-165.0","0","0","42323","","82","","","75","18","k","","","","","","","","","","","","","","",""
"","S2","","html-keyboard-response","111","147910","0.0-1.0-166.0","0","0","42323","","70","","","75","18","","k","1","18","training","adjacent","DC","4","3","N.jpg","R.jpg","1","0","0","",""
"","feedback","","html-keyboard-response","112","148923","0.0-1.0-168.0-0.0","0","0","42323","","null","","","null","18","","","","","","","","","","","","","","","",""
"","time_out","","html-keyboard-response","113","150935","0.0-1.0-170.0-0.0","0","0","42323","","null","","","null","18","","","","","","","","","","","","","","","",""
"","ITI","","html-keyboard-response","114","151947","0.0-1.0-171.0","0","0","42323","","93","","","75","18","","","","","","","","","","","","","","","k",""
"","S1","","html-keyboard-response","115","152203","0.0-1.0-173.0","0","0","42323","","null","","","null","19","","","","","","","","","","","","","","","",""
"","ISI","","html-keyboard-response","116","153210","0.0-1.0-174.0","0","0","42323","","90","","","75","19","k","","","","","","","","","","","","","","",""
"","S2","","html-keyboard-response","117","153237","0.0-1.0-175.0","0","0","42323","","22","","","75","19","","k","1","19","training","adjacent","AB","1","2","O.jpg","P.jpg","1","1","1","",""
"","feedback","","html-keyboard-response","118","154253","0.0-1.0-177.0-0.0","0","0","42323","","null","","","null","19","","","","","","","","","","","","","","","",""
"","ITI","","html-keyboard-response","119","155259","0.0-1.0-180.0","0","0","42323","","129","","","68","19","","","","","","","","","","","","","","","d",""
"","S1","","html-keyboard-response","120","155516","0.0-1.0-182.0","0","0","42323","","null","","","null","20","","","","","","","","","","","","","","","",""
"","ISI","","html-keyboard-response","121","156523","0.0-1.0-183.0","0","0","42323","","31","","","75","20","k","","","","","","","","","","","","","","",""
"","S2","","html-keyboard-response","122","156692","0.0-1.0-184.0","0","0","42323","","163","","","68","20","","d","1","20","training","adjacent","EF","5","6","M.jpg","L.jpg","0","1","0","",""
"","feedback","","html-keyboard-response","123","157702","0.0-1.0-186.0-0.0","0","0","42323","","null","","","null","20","","","","","","","","","","","","","","","",""
"","time_out","","html-keyboard-response","124","159706","0.0-1.0-188.0-0.0","0","0","42323","","null","","","null","20","","","","","","","","","","","","","","","",""
"","ITI","","html-keyboard-response","125","160715","0.0-1.0-189.0","0","0","42323","","208","","","75","20","","","","","","","","","","","","","","","k",""
"","S1","","html-keyboard-response","126","160981","0.0-1.0-191.0","0","0","42323","","null","","","null","21","","","","","","","","","","","","","","","",""
"","ISI","","html-keyboard-response","127","161995","0.0-1.0-192.0","0","0","42323","","149","","","68","21","d","","","","","","","","","","","","","","",""
"","S2","","html-keyboard-response","128","162128","0.0-1.0-193.0","0","0","42323","","128","","","68","21","","d","1","21","training","adjacent","CB","3","2","R.jpg","P.jpg","0","0","1","",""
"","feedback","","html-keyboard-response","129","163142","0.0-1.0-195.0-0.0","0","0","42323","","null","","","null","21","","","","","","","","","","","","","","","",""
"","ITI","","html-keyboard-response","130","164155","0.0-1.0-198.0","0","0","42323","","189","","","75","21","","","","","","","","","","","","","","","k",""
"","S1","","html-keyboard-response","131","164411","0.0-1.0-200.0","0","0","42323","","null","","","null","22","","","","","","","","","","","","","","","",""
"","ISI","","html-keyboard-response","132","165419","0.0-1.0-201.0","0","0","42323","","5","","","75","22","k","","","","","","","","","","","","","","",""
"","S2","","html-keyboard-response","133","165538","0.0-1.0-202.0","0","0","42323","","113","","","75","22","","k","1","22","training","adjacent","BC","2","3","P.jpg","R.jpg","1","1","1","",""
"","feedback","","html-keyboard-response","134","166550","0.0-1.0-204.0-0.0","0","0","42323","","null","","","null","22","","","","","","","","","","","","","","","",""
"","ITI","","html-keyboard-response","135","167563","0.0-1.0-207.0","0","0","42323","","43","","","75","22","","","","","","","","","","","","","","","k",""
"","S1","","html-keyboard-response","136","167830","0.0-1.0-209.0","0","0","42323","","null","","","null","23","","","","","","","","","","","","","","","",""
"","ISI","","html-keyboard-response","137","168843","0.0-1.0-210.0","0","0","42323","","73","","","75","23","k","","","","","","","","","","","","","","",""
"","S2","","html-keyboard-response","138","169103","0.0-1.0-211.0","0","0","42323","","254","","","68","23","","d","1","23","training","adjacent","GF","7","6","Q.jpg","L.jpg","0","0","1","",""
"","feedback","","html-keyboard-response","139","170118","0.0-1.0-213.0-0.0","0","0","42323","","null","","","null","23","","","","","","","","","","","","","","","",""
"","ITI","","html-keyboard-response","140","171131","0.0-1.0-216.0","0","0","42323","","362","","","75","23","","","","","","","","","","","","","","","k",""
"","S1","","html-keyboard-response","141","171397","0.0-1.0-218.0","0","0","42323","","null","","","null","24","","","","","","","","","","","","","","","",""
"","ISI","","html-keyboard-response","142","172405","0.0-1.0-219.0","0","0","42323","","117","","","68","24","d","","","","","","","","","","","","","","",""
"","S2","","html-keyboard-response","143","172429","0.0-1.0-220.0","0","0","42323","","19","","","68","24","","d","1","24","training","adjacent","CD","3","4","R.jpg","N.jpg","0","1","0","",""
"","feedback","","html-keyboard-response","144","173435","0.0-1.0-222.0-0.0","0","0","42323","","null","","","null","24","","","","","","","","","","","","","","","",""
"","time_out","","html-keyboard-response","145","175446","0.0-1.0-224.0-0.0","0","0","42323","","null","","","null","24","","","","","","","","","","","","","","","",""
"","ITI","","html-keyboard-response","146","176462","0.0-1.0-225.0","0","0","42323","","null","","","null","24","","","","","","","","","","","","","","","NaN",""
"","S1","","html-keyboard-response","147","176725","0.0-1.0-227.0","0","0","42323","","null","","","null","25","","","","","","","","","","","","","","","",""
"","ISI","","html-keyboard-response","148","177739","0.0-1.0-228.0","0","0","42323","","null","","","null","25","NaN","","","","","","","","","","","","","","",""
"","S2","","html-keyboard-response","149","178005","0.0-1.0-229.0","0","0","42323","","null","","","null","25","","NaN","","","","","","","","","","","","","",""
"","response","","html-keyboard-response","150","178869","0.0-1.0-230.0-0.0","0","0","42323","","859","","","68","25","","","1","25","training","adjacent","BA","2","1","P.jpg","O.jpg","0","0","1","",""
"","feedback","","html-keyboard-response","151","179883","0.0-1.0-231.0-0.0","0","0","42323","","null","","","null","25","","","","","","","","","","","","","","","",""
"","ITI","","html-keyboard-response","152","180891","0.0-1.0-234.0","0","0","42323","","null","","","null","25","","","","","","","","","","","","","","","NaN",""
"","S1","","html-keyboard-response","153","181157","0.0-1.0-236.0","0","0","42323","","null","","","null","26","","","","","","","","","","","","","","","",""
"","ISI","","html-keyboard-response","154","182173","0.0-1.0-237.0","0","0","42323","","null","","","null","26","NaN","","","","","","","","","","","","","","",""
"","S2","","html-keyboard-response","155","182437","0.0-1.0-238.0","0","0","42323","","null","","","null","26","","NaN","","","","","","","","","","","","","",""
"","response","","html-keyboard-response","156","183057","0.0-1.0-239.0-0.0","0","0","42323","","615","","","75","26","","","1","26","training","adjacent","DC","4","3","N.jpg","R.jpg","1","0","0","",""
"","feedback","","html-keyboard-response","157","184070","0.0-1.0-240.0-0.0","0","0","42323","","null","","","null","26","","","","","","","","","","","","","","","",""
"","time_out","","html-keyboard-response","158","186085","0.0-1.0-242.0-0.0","0","0","42323","","null","","","null","26","","","","","","","","","","","","","","","",""
"","ITI","","html-keyboard-response","159","187099","0.0-1.0-243.0","0","0","42323","","null","","","null","26","","","","","","","","","","","","","","","NaN",""
"","S1","","html-keyboard-response","160","187365","0.0-1.0-245.0","0","0","42323","","null","","","null","27","","","","","","","","","","","","","","","",""
"","ISI","","html-keyboard-response","161","188379","0.0-1.0-246.0","0","0","42323","","null","","","null","27","NaN","","","","","","","","","","","","","","",""
"","S2","","html-keyboard-response","162","188647","0.0-1.0-247.0","0","0","42323","","null","","","null","27","","NaN","","","","","","","","","","","","","",""
"","response","","html-keyboard-response","163","189471","0.0-1.0-248.0-0.0","0","0","42323","","820","","","75","27","","","1","27","training","adjacent","CB","3","2","R.jpg","P.jpg","1","0","0","",""
"","feedback","","html-keyboard-response","164","190485","0.0-1.0-249.0-0.0","0","0","42323","","null","","","null","27","","","","","","","","","","","","","","","",""
"","time_out","","html-keyboard-response","165","192502","0.0-1.0-251.0-0.0","0","0","42323","","null","","","null","27","","","","","","","","","","","","","","","",""
"","ITI","","html-keyboard-response","166","193514","0.0-1.0-252.0","0","0","42323","","null","","","null","27","","","","","","","","","","","","","","","NaN",""
"","S1","","html-keyboard-response","167","193770","0.0-1.0-254.0","0","0","42323","","null","","","null","28","","","","","","","","","","","","","","","",""
"","ISI","","html-keyboard-response","168","194780","0.0-1.0-255.0","0","0","42323","","null","","","null","28","NaN","","","","","","","","","","","","","","",""
"","S2","","html-keyboard-response","169","195045","0.0-1.0-256.0","0","0","42323","","null","","","null","28","","NaN","","","","","","","","","","","","","",""
"","response","","html-keyboard-response","170","195555","0.0-1.0-257.0-0.0","0","0","42323","","504","","","68","28","","","1","28","training","adjacent","ED","5","4","M.jpg","N.jpg","0","0","1","",""
"","feedback","","html-keyboard-response","171","196565","0.0-1.0-258.0-0.0","0","0","42323","","null","","","null","28","","","","","","","","","","","","","","","",""
"","ITI","","html-keyboard-response","172","197578","0.0-1.0-261.0","0","0","42323","","null","","","null","28","","","","","","","","","","","","","","","NaN",""
"","S1","","html-keyboard-response","173","197834","0.0-1.0-263.0","0","0","42323","","null","","","null","29","","","","","","","","","","","","","","","",""
"","ISI","","html-keyboard-response","174","198844","0.0-1.0-264.0","0","0","42323","","null","","","null","29","NaN","","","","","","","","","","","","","","",""
"","S2","","html-keyboard-response","175","199111","0.0-1.0-265.0","0","0","42323","","null","","","null","29","","NaN","","","","","","","","","","","","","",""
"","response","","html-keyboard-response","176","199829","0.0-1.0-266.0-0.0","0","0","42323","","712","","","68","29","","","1","29","training","adjacent","FE","6","5","L.jpg","M.jpg","0","0","1","",""
"","feedback","","html-keyboard-response","177","200844","0.0-1.0-267.0-0.0","0","0","42323","","null","","","null","29","","","","","","","","","","","","","","","",""
"","ITI","","html-keyboard-response","178","201850","0.0-1.0-270.0","0","0","42323","","null","","","null","29","","","","","","","","","","","","","","","NaN",""
"","S1","","html-keyboard-response","179","202117","0.0-1.0-272.0","0","0","42323","","null","","","null","30","","","","","","","","","","","","","","","",""
"","ISI","","html-keyboard-response","180","203135","0.0-1.0-273.0","0","0","42323","","null","","","null","30","NaN","","","","","","","","","","","","","","",""
"","S2","","html-keyboard-response","181","203397","0.0-1.0-274.0","0","0","42323","","null","","","null","30","","NaN","","","","","","","","","","","","","",""
"","response","","html-keyboard-response","182","203852","0.0-1.0-275.0-0.0","0","0","42323","","450","","","68","30","","","1","30","training","adjacent","EF","5","6","M.jpg","L.jpg","0","1","0","",""
"","feedback","","html-keyboard-response","183","204869","0.0-1.0-276.0-0.0","0","0","42323","","null","","","null","30","","","","","","","","","","","","","","","",""
"","time_out","","html-keyboard-response","184","206885","0.0-1.0-278.0-0.0","0","0","42323","","null","","","null","30","","","","","","","","","","","","","","","",""
"","ITI","","html-keyboard-response","185","207898","0.0-1.0-279.0","0","0","42323","","null","","","null","30","","","","","","","","","","","","","","","NaN",""
"","S1","","html-keyboard-response","186","208165","0.0-1.0-281.0","0","0","42323","","null","","","null","31","","","","","","","","","","","","","","","",""
"","ISI","","html-keyboard-response","187","209179","0.0-1.0-282.0","0","0","42323","","null","","","null","31","NaN","","","","","","","","","","","","","","",""
"","S2","","html-keyboard-response","188","209446","0.0-1.0-283.0","0","0","42323","","null","","","null","31","","NaN","","","","","","","","","","","","","",""
"","response","","html-keyboard-response","189","209534","0.0-1.0-284.0-0.0","0","0","42323","","82","","","75","31","","","1","31","training","adjacent","FG","6","7","L.jpg","Q.jpg","1","1","1","",""
"","feedback","","html-keyboard-response","190","210549","0.0-1.0-285.0-0.0","0","0","42323","","null","","","null","31","","","","","","","","","","","","","","","",""
"","ITI","","html-keyboard-response","191","211567","0.0-1.0-288.0","0","0","42323","","null","","","null","31","","","","","","","","","","","","","","","NaN",""
"","S1","","html-keyboard-response","192","211829","0.0-1.0-290.0","0","0","42323","","null","","","null","32","","","","","","","","","","","","","","","",""
"","ISI","","html-keyboard-response","193","212845","0.0-1.0-291.0","0","0","42323","","839","","","75","32","k","","","","","","","","","","","","","","",""
"","S2","","html-keyboard-response","194","213109","0.0-1.0-292.0","0","0","42323","","null","","","null","32","","NaN","","","","","","","","","","","","","",""
"","response","","html-keyboard-response","195","213249","0.0-1.0-293.0-0.0","0","0","42323","","135","","","75","32","","","1","32","training","adjacent","BA","2","1","P.jpg","O.jpg","1","0","0","",""
"","feedback","","html-keyboard-response","196","214261","0.0-1.0-294.0-0.0","0","0","42323","","null","","","null","32","","","","","","","","","","","","","","","",""
"","time_out","","html-keyboard-response","197","216278","0.0-1.0-296.0-0.0","0","0","42323","","null","","","null","32","","","","","","","","","","","","","","","",""
"","ITI","","html-keyboard-response","198","217290","0.0-1.0-297.0","0","0","42323","","479","","","75","32","","","","","","","","","","","","","","","k",""
"","S1","","html-keyboard-response","199","217550","0.0-1.0-299.0","0","0","42323","","null","","","null","33","","","","","","","","","","","","","","","",""
"","ISI","","html-keyboard-response","200","218565","0.0-1.0-300.0","0","0","42323","","308","","","75","33","k","","","","","","","","","","","","","","",""
"","S2","","html-keyboard-response","201","218828","0.0-1.0-301.0","0","0","42323","","null","","","null","33","","NaN","","","","","","","","","","","","","",""
"","response","","html-keyboard-response","202","218994","0.0-1.0-302.0-0.0","0","0","42323","","161","","","75","33","","","1","33","training","adjacent","FG","6","7","L.jpg","Q.jpg","1","1","1","",""
"","feedback","","html-keyboard-response","203","220005","0.0-1.0-303.0-0.0","0","0","42323","","null","","","null","33","","","","","","","","","","","","","","","",""
"","ITI","","html-keyboard-response","204","221018","0.0-1.0-306.0","0","0","42323","","115","","","75","33","","","","","","","","","","","","","","","k",""
"","S1","","html-keyboard-response","205","221285","0.0-1.0-308.0","0","0","42323","","null","","","null","34","","","","","","","","","","","","","","","",""
"","ISI","","html-keyboard-response","206","222298","0.0-1.0-309.0","0","0","42323","","468","","","75","34","k","","","","","","","","","","","","","","",""
"","S2","","html-keyboard-response","207","222566","0.0-1.0-310.0","0","0","42323","","null","","","null","34","","NaN","","","","","","","","","","","","","",""
"","response","","html-keyboard-response","208","222829","0.0-1.0-311.0-0.0","0","0","42323","","258","","","75","34","","","1","34","training","adjacent","ED","5","4","M.jpg","N.jpg","1","0","0","",""
"","feedback","","html-keyboard-response","209","223844","0.0-1.0-312.0-0.0","0","0","42323","","null","","","null","34","","","","","","","","","","","","","","","",""
"","time_out","","html-keyboard-response","210","225860","0.0-1.0-314.0-0.0","0","0","42323","","null","","","null","34","","","","","","","","","","","","","","","",""
"","ITI","","html-keyboard-response","211","226875","0.0-1.0-315.0","0","0","42323","","8","","","75","34","","","","","","","","","","","","","","","k",""
"","S1","","html-keyboard-response","212","227136","0.0-1.0-317.0","0","0","42323","","null","","","null","35","","","","","","","","","","","","","","","",""
"","ISI","","html-keyboard-response","213","228150","0.0-1.0-318.0","0","0","42323","","22","","","75","35","k","","","","","","","","","","","","","","",""
"","S2","","html-keyboard-response","214","228264","0.0-1.0-319.0","0","0","42323","","107","","","68","35","","d","1","35","training","adjacent","GF","7","6","Q.jpg","L.jpg","0","0","1","",""
"","feedback","","html-keyboard-response","215","229275","0.0-1.0-321.0-0.0","0","0","42323","","null","","","null","35","","","","","","","","","","","","","","","",""
"","ITI","","html-keyboard-response","216","230282","0.0-1.0-324.0","0","0","42323","","159","","","75","35","","","","","","","","","","","","","","","k",""
"","S1","","html-keyboard-response","217","230549","0.0-1.0-326.0","0","0","42323","","null","","","null","36","","","","","","","","","","","","","","","",""
"","ISI","","html-keyboard-response","218","231564","0.0-1.0-327.0","0","0","42323","","77","","","68","36","d","","","","","","","","","","","","","","",""
"","S2","","html-keyboard-response","219","231698","0.0-1.0-328.0","0","0","42323","","129","","","75","36","","k","1","36","training","adjacent","EF","5","6","M.jpg","L.jpg","1","1","1","",""
"","feedback","","html-keyboard-response","220","232707","0.0-1.0-330.0-0.0","0","0","42323","","null","","","null","36","","","","","","","","","","","","","","","",""
"","ITI","","html-keyboard-response","221","233716","0.0-1.0-333.0","0","0","42323","","217","","","75","36","","","","","","","","","","","","","","","k",""
"","S1","","html-keyboard-response","222","233979","0.0-1.0-335.0","0","0","42323","","null","","","null","37","","","","","","","","","","","","","","","",""
"","ISI","","html-keyboard-response","223","234983","0.0-1.0-336.0","0","0","42323","","426","","","68","37","d","","","","","","","","","","","","","","",""
"","S2","","html-keyboard-response","224","235244","0.0-1.0-337.0","0","0","42323","","null","","","null","37","","NaN","","","","","","","","","","","","","",""
"","response","","html-keyboard-response","225","235285","0.0-1.0-338.0-0.0","0","0","42323","","37","","","75","37","","","1","37","training","adjacent","CB","3","2","R.jpg","P.jpg","1","0","0","",""
"","feedback","","html-keyboard-response","226","236298","0.0-1.0-339.0-0.0","0","0","42323","","null","","","null","37","","","","","","","","","","","","","","","",""
"","time_out","","html-keyboard-response","227","238309","0.0-1.0-341.0-0.0","0","0","42323","","null","","","null","37","","","","","","","","","","","","","","","",""
"","ITI","","html-keyboard-response","228","239323","0.0-1.0-342.0","0","0","42323","","132","","","75","37","","","","","","","","","","","","","","","k",""
"","S1","","html-keyboard-response","229","239588","0.0-1.0-344.0","0","0","42323","","null","","","null","38","","","","","","","","","","","","","","","",""
"","ISI","","html-keyboard-response","230","240603","0.0-1.0-345.0","0","0","42323","","280","","","75","38","k","","","","","","","","","","","","","","",""
"","S2","","html-keyboard-response","231","240868","0.0-1.0-346.0","0","0","42323","","null","","","null","38","","NaN","","","","","","","","","","","","","",""
"","response","","html-keyboard-response","232","240894","0.0-1.0-347.0-0.0","0","0","42323","","21","","","75","38","","","1","38","training","adjacent","DC","4","3","N.jpg","R.jpg","1","0","0","",""
"","feedback","","html-keyboard-response","233","241908","0.0-1.0-348.0-0.0","0","0","42323","","null","","","null","38","","","","","","","","","","","","","","","",""
"","time_out","","html-keyboard-response","234","243926","0.0-1.0-350.0-0.0","0","0","42323","","null","","","null","38","","","","","","","","","","","","","","","",""
"","ITI","","html-keyboard-response","235","244938","0.0-1.0-351.0","0","0","42323","","null","","","null","38","","","","","","","","","","","","","","","NaN",""
"","S1","","html-keyboard-response","236","245204","0.0-1.0-353.0","0","0","42323","","null","","","null","39","","","","","","","","","","","","","","","",""
"","ISI","","html-keyboard-response","237","246218","0.0-1.0-354.0","0","0","42323","","null","","","null","39","NaN","","","","","","","","","","","","","","",""
"","S2","","html-keyboard-response","238","246484","0.0-1.0-355.0","0","0","42323","","null","","","null","39","","NaN","","","","","","","","","","","","","",""
"","response","","html-keyboard-response","239","246618","0.0-1.0-356.0-0.0","0","0","42323","","130","","","68","39","","","1","39","training","adjacent","GF","7","6","Q.jpg","L.jpg","0","0","1","",""
"","feedback","","html-keyboard-response","240","247625","0.0-1.0-357.0-0.0","0","0","42323","","null","","","null","39","","","","","","","","","","","","","","","",""
"","ITI","","html-keyboard-response","241","248634","0.0-1.0-360.0","0","0","42323","","null","","","null","39","","","","","","","","","","","","","","","NaN",""
"","S1","","html-keyboard-response","242","248900","0.0-1.0-362.0","0","0","42323","","null","","","null","40","","","","","","","","","","","","","","","",""
"","ISI","","html-keyboard-response","243","249910","0.0-1.0-363.0","0","0","42323","","294","","","68","40","d","","","","","","","","","","","","","","",""
"","S2","","html-keyboard-response","244","250032","0.0-1.0-364.0","0","0","42323","","117","","","68","40","","d","1","40","training","adjacent","AB","1","2","O.jpg","P.jpg","0","1","0","",""
"","feedback","","html-keyboard-response","245","251044","0.0-1.0-366.0-0.0","0","0","42323","","null","","","null","40","","","","","","","","","","","","","","","",""
"","time_out","","html-keyboard-response","246","253062","0.0-1.0-368.0-0.0","0","0","42323","","null","","","null","40","","","","","","","","","","","","","","","",""
"","ITI","","html-keyboard-response","247","254071","0.0-1.0-369.0","0","0","42323","","286","","","75","40","","","","","","","","","","","","","","","k",""
"","S1","","html-keyboard-response","248","254330","0.0-1.0-371.0","0","0","42323","","null","","","null","41","","","","","","","","","","","","","","","",""
"","ISI","","html-keyboard-response","249","255342","0.0-1.0-372.0","0","0","42323","","27","","","75","41","k","","","","","","","","","","","","","","",""
"","S2","","html-keyboard-response","250","255420","0.0-1.0-373.0","0","0","42323","","72","","","75","41","","k","1","41","training","adjacent","GF","7","6","Q.jpg","L.jpg","1","0","0","",""
"","feedback","","html-keyboard-response","251","256436","0.0-1.0-375.0-0.0","0","0","42323","","null","","","null","41","","","","","","","","","","","","","","","",""
"","time_out","","html-keyboard-response","252","258452","0.0-1.0-377.0-0.0","0","0","42323","","null","","","null","41","","","","","","","","","","","","","","","",""
"","ITI","","html-keyboard-response","253","259465","0.0-1.0-378.0","0","0","42323","","89","","","68","41","","","","","","","","","","","","","","","d",""
"","S1","","html-keyboard-response","254","259723","0.0-1.0-380.0","0","0","42323","","null","","","null","42","","","","","","","","","","","","","","","",""
"","ISI","","html-keyboard-response","255","260730","0.0-1.0-381.0","0","0","42323","","332","","","68","42","d","","","","","","","","","","","","","","",""
"","S2","","html-keyboard-response","256","260996","0.0-1.0-382.0","0","0","42323","","null","","","null","42","","NaN","","","","","","","","","","","","","",""
"","response","","html-keyboard-response","257","261347","0.0-1.0-383.0-0.0","0","0","42323","","346","","","68","42","","","1","42","training","adjacent","BA","2","1","P.jpg","O.jpg","0","0","1","",""
"","feedback","","html-keyboard-response","258","262362","0.0-1.0-384.0-0.0","0","0","42323","","null","","","null","42","","","","","","","","","","","","","","","",""
"","ITI","","html-keyboard-response","259","263370","0.0-1.0-387.0","0","0","42323","","null","","","null","42","","","","","","","","","","","","","","","NaN",""
"","S1","","html-keyboard-response","260","263636","0.0-1.0-389.0","0","0","42323","","null","","","null","43","","","","","","","","","","","","","","","",""
"","ISI","","html-keyboard-response","261","264650","0.0-1.0-390.0","0","0","42323","","46","","","68","43","d","","","","","","","","","","","","","","",""
"","S2","","html-keyboard-response","262","264804","0.0-1.0-391.0","0","0","42323","","149","","","75","43","","k","1","43","training","adjacent","DE","4","5","N.jpg","M.jpg","1","1","1","",""
"","feedback","","html-keyboard-response","263","265818","0.0-1.0-393.0-0.0","0","0","42323","","null","","","null","43","","","","","","","","","","","","","","","",""
"","ITI","","html-keyboard-response","264","266830","0.0-1.0-396.0","0","0","42323","","139","","","75","43","","","","","","","","","","","","","","","k",""
"","S1","","html-keyboard-response","265","267093","0.0-1.0-398.0","0","0","42323","","null","","","null","44","","","","","","","","","","","","","","","",""
"","ISI","","html-keyboard-response","266","268105","0.0-1.0-399.0","0","0","42323","","79","","","75","44","k","","","","","","","","","","","","","","",""
"","S2","","html-keyboard-response","267","268165","0.0-1.0-400.0","0","0","42323","","53","","","68","44","","d","1","44","training","adjacent","FG","6","7","L.jpg","Q.jpg","0","1","0","",""
"","feedback","","html-keyboard-response","268","269177","0.0-1.0-402.0-0.0","0","0","42323","","null","","","null","44","","","","","","","","","","","","","","","",""
"","time_out","","html-keyboard-response","269","271188","0.0-1.0-404.0-0.0","0","0","42323","","null","","","null","44","","","","","","","","","","","","","","","",""
"","ITI","","html-keyboard-response","270","272196","0.0-1.0-405.0","0","0","42323","","8","","","68","44","","","","","","","","","","","","","","","d",""
"","S1","","html-keyboard-response","271","272457","0.0-1.0-407.0","0","0","42323","","null","","","null","45","","","","","","","","","","","","","","","",""
"","ISI","","html-keyboard-response","272","273465","0.0-1.0-408.0","0","0","42323","","94","","","68","45","d","","","","","","","","","","","","","","",""
"","S2","","html-keyboard-response","273","273526","0.0-1.0-409.0","0","0","42323","","55","","","75","45","","k","1","45","training","adjacent","BC","2","3","P.jpg","R.jpg","1","1","1","",""
"","feedback","","html-keyboard-response","274","274537","0.0-1.0-411.0-0.0","0","0","42323","","null","","","null","45","","","","","","","","","","","","","","","",""
"","ITI","","html-keyboard-response","275","275546","0.0-1.0-414.0","0","0","42323","","1","","","68","45","","","","","","","","","","","","","","","d",""
"","S1","","html-keyboard-response","276","275812","0.0-1.0-416.0","0","0","42323","","null","","","null","46","","","","","","","","","","","","","","","",""
"","ISI","","html-keyboard-response","277","276825","0.0-1.0-417.0","0","0","42323","","229","","","75","46","k","","","","","","","","","","","","","","",""
"","S2","","html-keyboard-response","278","276880","0.0-1.0-418.0","0","0","42323","","48","","","68","46","","d","1","46","training","adjacent","ED","5","4","M.jpg","N.jpg","0","0","1","",""
"","feedback","","html-keyboard-response","279","277891","0.0-1.0-420.0-0.0","0","0","42323","","null","","","null","46","","","","","","","","","","","","","","","",""
"","ITI","","html-keyboard-response","280","278900","0.0-1.0-423.0","0","0","42323","","116","","","68","46","","","","","","","","","","","","","","","d",""
"","S1","","html-keyboard-response","281","279161","0.0-1.0-425.0","0","0","42323","","null","","","null","47","","","","","","","","","","","","","","","",""
"","ISI","","html-keyboard-response","282","280169","0.0-1.0-426.0","0","0","42323","","120","","","75","47","k","","","","","","","","","","","","","","",""
"","S2","","html-keyboard-response","283","280367","0.0-1.0-427.0","0","0","42323","","193","","","75","47","","k","1","47","training","adjacent","CD","3","4","R.jpg","N.jpg","1","1","1","",""
"","feedback","","html-keyboard-response","284","281380","0.0-1.0-429.0-0.0","0","0","42323","","null","","","null","47","","","","","","","","","","","","","","","",""
"","ITI","","html-keyboard-response","285","282394","0.0-1.0-432.0","0","0","42323","","51","","","75","47","","","","","","","","","","","","","","","k",""
"","block_over","","html-keyboard-response","286","287941","0.0-1.0-433.0-0.0","0","0","42323","","5541","","","32","47","","","","","","","","","","","","","","","",""
"","S1","","html-keyboard-response","287","288202","0.0-1.0-434.0","0","0","42323","","null","","","null","48","","","","","","","","","","","","","","","",""
"","ISI","","html-keyboard-response","288","289207","0.0-1.0-435.0","0","0","42323","","260","","","75","48","k","","","","","","","","","","","","","","",""
"","S2","","html-keyboard-response","289","289377","0.0-1.0-436.0","0","0","42323","","168","","","68","48","","d","2","48","training","adjacent","CB","3","2","R.jpg","P.jpg","0","0","1","",""
"","feedback","","html-keyboard-response","290","290387","0.0-1.0-438.0-0.0","0","0","42323","","null","","","null","48","","","","","","","","","","","","","","","",""
"","ITI","","html-keyboard-response","291","291400","0.0-1.0-441.0","0","0","42323","","235","","","75","48","","","","","","","","","","","","","","","k",""
"","S1","","html-keyboard-response","292","291659","0.0-1.0-443.0","0","0","42323","","null","","","null","49","","","","","","","","","","","","","","","",""
"","ISI","","html-keyboard-response","293","292665","0.0-1.0-444.0","0","0","42323","","null","","","null","49","NaN","","","","","","","","","","","","","","",""
"","S2","","html-keyboard-response","294","292932","0.0-1.0-445.0","0","0","42323","","null","","","null","49","","NaN","","","","","","","","","","","","","",""
"","response","","html-keyboard-response","295","293184","0.0-1.0-446.0-0.0","0","0","42323","","246","","","68","49","","","2","49","training","adjacent","FE","6","5","L.jpg","M.jpg","0","0","1","",""
"","feedback","","html-keyboard-response","296","294197","0.0-1.0-447.0-0.0","0","0","42323","","null","","","null","49","","","","","","","","","","","","","","","",""
"","ITI","","html-keyboard-response","297","295212","0.0-1.0-450.0","0","0","42323","","null","","","null","49","","","","","","","","","","","","","","","NaN",""
"","S1","","html-keyboard-response","298","295476","0.0-1.0-452.0","0","0","42323","","null","","","null","50","","","","","","","","","","","","","","","",""
"","ISI","","html-keyboard-response","299","296489","0.0-1.0-453.0","0","0","42323","","401","","","75","50","k","","","","","","","","","","","","","","",""
"","S2","","html-keyboard-response","300","296688","0.0-1.0-454.0","0","0","42323","","193","","","68","50","","d","2","50","training","adjacent","AB","1","2","O.jpg","P.jpg","0","1","0","",""
"","feedback","","html-keyboard-response","301","297699","0.0-1.0-456.0-0.0","0","0","42323","","null","","","null","50","","","","","","","","","","","","","","","",""
"","time_out","","html-keyboard-response","302","299716","0.0-1.0-458.0-0.0","0","0","42323","","null","","","null","50","","","","","","","","","","","","","","","",""
"","ITI","","html-keyboard-response","303","300729","0.0-1.0-459.0","0","0","42323","","140","","","75","50","","","","","","","","","","","","","","","k",""
"","S1","","html-keyboard-response","304","300985","0.0-1.0-461.0","0","0","42323","","null","","","null","51","","","","","","","","","","","","","","","",""
"","ISI","","html-keyboard-response","305","301997","0.0-1.0-462.0","0","0","42323","","176","","","68","51","d","","","","","","","","","","","","","","",""
"","S2","","html-keyboard-response","306","302246","0.0-1.0-463.0","0","0","42323","","244","","","68","51","","d","2","51","training","adjacent","BA","2","1","P.jpg","O.jpg","0","0","1","",""
"","feedback","","html-keyboard-response","307","303257","0.0-1.0-465.0-0.0","0","0","42323","","null","","","null","51","","","","","","","","","","","","","","","",""
"","ITI","","html-keyboard-response","308","304265","0.0-1.0-468.0","0","0","42323","","108","","","68","51","","","","","","","","","","","","","","","d",""
"","S1","","html-keyboard-response","309","304532","0.0-1.0-470.0","0","0","42323","","null","","","null","52","","","","","","","","","","","","","","","",""
"","ISI","","html-keyboard-response","310","305545","0.0-1.0-471.0","0","0","42323","","223","","","75","52","k","","","","","","","","","","","","","","",""
"","S2","","html-keyboard-response","311","305694","0.0-1.0-472.0","0","0","42323","","144","","","68","52","","d","2","52","training","adjacent","CD","3","4","R.jpg","N.jpg","0","1","0","",""
"","feedback","","html-keyboard-response","312","306707","0.0-1.0-474.0-0.0","0","0","42323","","null","","","null","52","","","","","","","","","","","","","","","",""
"","time_out","","html-keyboard-response","313","308725","0.0-1.0-476.0-0.0","0","0","42323","","null","","","null","52","","","","","","","","","","","","","","","",""
"","ITI","","html-keyboard-response","314","309737","0.0-1.0-477.0","0","0","42323","","23","","","75","52","","","","","","","","","","","","","","","k",""
"","S1","","html-keyboard-response","315","310005","0.0-1.0-479.0","0","0","42323","","null","","","null","53","","","","","","","","","","","","","","","",""
"","ISI","","html-keyboard-response","316","311018","0.0-1.0-480.0","0","0","42323","","76","","","68","53","d","","","","","","","","","","","","","","",""
"","S2","","html-keyboard-response","317","311284","0.0-1.0-481.0","0","0","42323","","null","","","null","53","","NaN","","","","","","","","","","","","","",""
"","response","","html-keyboard-response","318","311293","0.0-1.0-482.0-0.0","0","0","42323","","8","","","75","53","","","2","53","training","adjacent","FE","6","5","L.jpg","M.jpg","1","0","0","",""
"","feedback","","html-keyboard-response","319","312309","0.0-1.0-483.0-0.0","0","0","42323","","null","","","null","53","","","","","","","","","","","","","","","",""
"","time_out","","html-keyboard-response","320","314323","0.0-1.0-485.0-0.0","0","0","42323","","null","","","null","53","","","","","","","","","","","","","","","",""
"","ITI","","html-keyboard-response","321","315338","0.0-1.0-486.0","0","0","42323","","null","","","null","53","","","","","","","","","","","","","","","NaN",""
"","S1","","html-keyboard-response","322","315604","0.0-1.0-488.0","0","0","42323","","null","","","null","54","","","","","","","","","","","","","","","",""
"","ISI","","html-keyboard-response","323","316617","0.0-1.0-489.0","0","0","42323","","null","","","null","54","NaN","","","","","","","","","","","","","","",""
"","S2","","html-keyboard-response","324","316884","0.0-1.0-490.0","0","0","42323","","null","","","null","54","","NaN","","","","","","","","","","","","","",""
"","response","","html-keyboard-response","325","316933","0.0-1.0-491.0-0.0","0","0","42323","","45","","","68","54","","","2","54","training","adjacent","BC","2","3","P.jpg","R.jpg","0","1","0","",""
"","feedback","","html-keyboard-response","326","317943","0.0-1.0-492.0-0.0","0","0","42323","","null","","","null","54","","","","","","","","","","","","","","","",""
"","time_out","","html-keyboard-response","327","319955","0.0-1.0-494.0-0.0","0","0","42323","","null","","","null","54","","","","","","","","","","","","","","","",""
"","ITI","","html-keyboard-response","328","320970","0.0-1.0-495.0","0","0","42323","","null","","","null","54","","","","","","","","","","","","","","","NaN",""
"","S1","","html-keyboard-response","329","321235","0.0-1.0-497.0","0","0","42323","","null","","","null","55","","","","","","","","","","","","","","","",""
"","ISI","","html-keyboard-response","330","322249","0.0-1.0-498.0","0","0","42323","","null","","","null","55","NaN","","","","","","","","","","","","","","",""
"","S2","","html-keyboard-response","331","322506","0.0-1.0-499.0","0","0","42323","","null","","","null","55","","NaN","","","","","","","","","","","","","",""
"","response","","html-keyboard-response","332","322879","0.0-1.0-500.0-0.0","0","0","42323","","368","","","75","55","","","2","55","training","adjacent","GF","7","6","Q.jpg","L.jpg","1","0","0","",""
"","feedback","","html-keyboard-response","333","323892","0.0-1.0-501.0-0.0","0","0","42323","","null","","","null","55","","","","","","","","","","","","","","","",""
"","time_out","","html-keyboard-response","334","325907","0.0-1.0-503.0-0.0","0","0","42323","","null","","","null","55","","","","","","","","","","","","","","","",""
"","ITI","","html-keyboard-response","335","326922","0.0-1.0-504.0","0","0","42323","","null","","","null","55","","","","","","","","","","","","","","","NaN",""
"","S1","","html-keyboard-response","336","327187","0.0-1.0-506.0","0","0","42323","","null","","","null","56","","","","","","","","","","","","","","","",""
"","ISI","","html-keyboard-response","337","328201","0.0-1.0-507.0","0","0","42323","","null","","","null","56","NaN","","","","","","","","","","","","","","",""
"","S2","","html-keyboard-response","338","328467","0.0-1.0-508.0","0","0","42323","","null","","","null","56","","NaN","","","","","","","","","","","","","",""
"","response","","html-keyboard-response","339","328643","0.0-1.0-509.0-0.0","0","0","42323","","170","","","68","56","","","2","56","training","adjacent","ED","5","4","M.jpg","N.jpg","0","0","1","",""
"","feedback","","html-keyboard-response","340","329656","0.0-1.0-510.0-0.0","0","0","42323","","null","","","null","56","","","","","","","","","","","","","","","",""
"","ITI","","html-keyboard-response","341","330665","0.0-1.0-513.0","0","0","42323","","null","","","null","56","","","","","","","","","","","","","","","NaN",""
"","S1","","html-keyboard-response","342","330932","0.0-1.0-515.0","0","0","42323","","null","","","null","57","","","","","","","","","","","","","","","",""
"","ISI","","html-keyboard-response","343","331946","0.0-1.0-516.0","0","0","42323","","null","","","null","57","NaN","","","","","","","","","","","","","","",""
"","S2","","html-keyboard-response","344","332211","0.0-1.0-517.0","0","0","42323","","null","","","null","57","","NaN","","","","","","","","","","","","","",""
"","response","","html-keyboard-response","345","332846","0.0-1.0-518.0-0.0","0","0","42323","","630","","","68","57","","","2","57","training","adjacent","DC","4","3","N.jpg","R.jpg","0","0","1","",""
"","feedback","","html-keyboard-response","346","333859","0.0-1.0-519.0-0.0","0","0","42323","","null","","","null","57","","","","","","","","","","","","","","","",""
"","ITI","","html-keyboard-response","347","334872","0.0-1.0-522.0","0","0","42323","","null","","","null","57","","","","","","","","","","","","","","","NaN",""
"","S1","","html-keyboard-response","348","335139","0.0-1.0-524.0","0","0","42323","","null","","","null","58","","","","","","","","","","","","","","","",""
"","ISI","","html-keyboard-response","349","336152","0.0-1.0-525.0","0","0","42323","","null","","","null","58","NaN","","","","","","","","","","","","","","",""
"","S2","","html-keyboard-response","350","336408","0.0-1.0-526.0","0","0","42323","","null","","","null","58","","NaN","","","","","","","","","","","","","",""
"","response","","html-keyboard-response","351","336796","0.0-1.0-527.0-0.0","0","0","42323","","384","","","75","58","","","2","58","training","adjacent","CD","3","4","R.jpg","N.jpg","1","1","1","",""
"","feedback","","html-keyboard-response","352","337811","0.0-1.0-528.0-0.0","0","0","42323","","null","","","null","58","","","","","","","","","","","","","","","",""
"","ITI","","html-keyboard-response","353","338825","0.0-1.0-531.0","0","0","42323","","null","","","null","58","","","","","","","","","","","","","","","NaN",""
"","S1","","html-keyboard-response","354","339089","0.0-1.0-533.0","0","0","42323","","null","","","null","59","","","","","","","","","","","","","","","",""
"","ISI","","html-keyboard-response","355","340099","0.0-1.0-534.0","0","0","42323","","null","","","null","59","NaN","","","","","","","","","","","","","","",""
"","S2","","html-keyboard-response","356","340360","0.0-1.0-535.0","0","0","42323","","null","","","null","59","","NaN","","","","","","","","","","","","","",""
"","response","","html-keyboard-response","357","340941","0.0-1.0-536.0-0.0","0","0","42323","","574","","","75","59","","","2","59","training","adjacent","CB","3","2","R.jpg","P.jpg","1","0","0","",""
"","feedback","","html-keyboard-response","358","341956","0.0-1.0-537.0-0.0","0","0","42323","","null","","","null","59","","","","","","","","","","","","","","","",""
"","time_out","","html-keyboard-response","359","343973","0.0-1.0-539.0-0.0","0","0","42323","","null","","","null","59","","","","","","","","","","","","","","","",""
"","ITI","","html-keyboard-response","360","344986","0.0-1.0-540.0","0","0","42323","","null","","","null","59","","","","","","","","","","","","","","","NaN",""
"","S1","","html-keyboard-response","361","345251","0.0-1.0-542.0","0","0","42323","","null","","","null","60","","","","","","","","","","","","","","","",""
"","ISI","","html-keyboard-response","362","346266","0.0-1.0-543.0","0","0","42323","","192","","","68","60","d","","","","","","","","","","","","","","",""
"","S2","","html-keyboard-response","363","346491","0.0-1.0-544.0","0","0","42323","","218","","","68","60","","d","2","60","training","adjacent","BA","2","1","P.jpg","O.jpg","0","0","1","",""
"","feedback","","html-keyboard-response","364","347507","0.0-1.0-546.0-0.0","0","0","42323","","null","","","null","60","","","","","","","","","","","","","","","",""
"","ITI","","html-keyboard-response","365","348520","0.0-1.0-549.0","0","0","42323","","211","","","75","60","","","","","","","","","","","","","","","k",""
"","S1","","html-keyboard-response","366","348787","0.0-1.0-551.0","0","0","42323","","null","","","null","61","","","","","","","","","","","","","","","",""
"","ISI","","html-keyboard-response","367","349800","0.0-1.0-552.0","0","0","42323","","54","","","75","61","k","","","","","","","","","","","","","","",""
"","S2","","html-keyboard-response","368","349998","0.0-1.0-553.0","0","0","42323","","192","","","75","61","","k","2","61","training","adjacent","BA","2","1","P.jpg","O.jpg","1","0","0","",""
"","feedback","","html-keyboard-response","369","351011","0.0-1.0-555.0-0.0","0","0","42323","","null","","","null","61","","","","","","","","","","","","","","","",""
"","time_out","","html-keyboard-response","370","353029","0.0-1.0-557.0-0.0","0","0","42323","","null","","","null","61","","","","","","","","","","","","","","","",""
"","ITI","","html-keyboard-response","371","354040","0.0-1.0-558.0","0","0","42323","","null","","","null","61","","","","","","","","","","","","","","","NaN",""
"","S1","","html-keyboard-response","372","354307","0.0-1.0-560.0","0","0","42323","","null","","","null","62","","","","","","","","","","","","","","","",""
"","ISI","","html-keyboard-response","373","355320","0.0-1.0-561.0","0","0","42323","","288","","","68","62","d","","","","","","","","","","","","","","",""
"","S2","","html-keyboard-response","374","355397","0.0-1.0-562.0","0","0","42323","","71","","","75","62","","k","2","62","training","adjacent","FE","6","5","L.jpg","M.jpg","1","0","0","",""
"","feedback","","html-keyboard-response","375","356408","0.0-1.0-564.0-0.0","0","0","42323","","null","","","null","62","","","","","","","","","","","","","","","",""
"","time_out","","html-keyboard-response","376","358419","0.0-1.0-566.0-0.0","0","0","42323","","null","","","null","62","","","","","","","","","","","","","","","",""
"","ITI","","html-keyboard-response","377","359432","0.0-1.0-567.0","0","0","42323","","220","","","68","62","","","","","","","","","","","","","","","d",""
"","S1","","html-keyboard-response","378","359688","0.0-1.0-569.0","0","0","42323","","null","","","null","63","","","","","","","","","","","","","","","",""
"","ISI","","html-keyboard-response","379","360696","0.0-1.0-570.0","0","0","42323","","288","","","75","63","k","","","","","","","","","","","","","","",""
"","S2","","html-keyboard-response","380","360963","0.0-1.0-571.0","0","0","42323","","null","","","null","63","","NaN","","","","","","","","","","","","","",""
"","response","","html-keyboard-response","381","361512","0.0-1.0-572.0-0.0","0","0","42323","","544","","","68","63","","","2","63","training","adjacent","FG","6","7","L.jpg","Q.jpg","0","1","0","",""
"","feedback","","html-keyboard-response","382","362518","0.0-1.0-573.0-0.0","0","0","42323","","null","","","null","63","","","","","","","","","","","","","","","",""
"","time_out","","html-keyboard-response","383","364530","0.0-1.0-575.0-0.0","0","0","42323","","null","","","null","63","","","","","","","","","","","","","","","",""
"","ITI","","html-keyboard-response","384","365544","0.0-1.0-576.0","0","0","42323","","null","","","null","63","","","","","","","","","","","","","","","NaN",""
"","S1","","html-keyboard-response","385","365811","0.0-1.0-578.0","0","0","42323","","null","","","null","64","","","","","","","","","","","","","","","",""
"","ISI","","html-keyboard-response","386","366824","0.0-1.0-579.0","0","0","42323","","null","","","null","64","NaN","","","","","","","","","","","","","","",""
"","S2","","html-keyboard-response","387","367091","0.0-1.0-580.0","0","0","42323","","null","","","null","64","","NaN","","","","","","","","","","","","","",""
"","response","","html-keyboard-response","388","367836","0.0-1.0-581.0-0.0","0","0","42323","","739","","","68","64","","","2","64","training","adjacent","FG","6","7","L.jpg","Q.jpg","0","1","0","",""
"","feedback","","html-keyboard-response","389","368851","0.0-1.0-582.0-0.0","0","0","42323","","null","","","null","64","","","","","","","","","","","","","","","",""
"","time_out","","html-keyboard-response","390","370867","0.0-1.0-584.0-0.0","0","0","42323","","null","","","null","64","","","","","","","","","","","","","","","",""
"","ITI","","html-keyboard-response","391","371880","0.0-1.0-585.0","0","0","42323","","null","","","null","64","","","","","","","","","","","","","","","NaN",""
"","S1","","html-keyboard-response","392","372147","0.0-1.0-587.0","0","0","42323","","null","","","null","65","","","","","","","","","","","","","","","",""
"","ISI","","html-keyboard-response","393","373159","0.0-1.0-588.0","0","0","42323","","109","","","68","65","d","","","","","","","","","","","","","","",""
"","S2","","html-keyboard-response","394","373382","0.0-1.0-589.0","0","0","42323","","218","","","68","65","","d","2","65","training","adjacent","EF","5","6","M.jpg","L.jpg","0","1","0","",""
"","feedback","","html-keyboard-response","395","374392","0.0-1.0-591.0-0.0","0","0","42323","","null","","","null","65","","","","","","","","","","","","","","","",""
"","time_out","","html-keyboard-response","396","376402","0.0-1.0-593.0-0.0","0","0","42323","","null","","","null","65","","","","","","","","","","","","","","","",""
"","ITI","","html-keyboard-response","397","377416","0.0-1.0-594.0","0","0","42323","","24","","","68","65","","","","","","","","","","","","","","","d",""
"","S1","","html-keyboard-response","398","377682","0.0-1.0-596.0","0","0","42323","","null","","","null","66","","","","","","","","","","","","","","","",""
"","ISI","","html-keyboard-response","399","378696","0.0-1.0-597.0","0","0","42323","","75","","","75","66","k","","","","","","","","","","","","","","",""
"","S2","","html-keyboard-response","400","378919","0.0-1.0-598.0","0","0","42323","","217","","","75","66","","k","2","66","training","adjacent","FG","6","7","L.jpg","Q.jpg","1","1","1","",""
"","feedback","","html-keyboard-response","401","379928","0.0-1.0-600.0-0.0","0","0","42323","","null","","","null","66","","","","","","","","","","","","","","","",""
"","ITI","","html-keyboard-response","402","380936","0.0-1.0-603.0","0","0","42323","","139","","","75","66","","","","","","","","","","","","","","","k",""
"","S1","","html-keyboard-response","403","381202","0.0-1.0-605.0","0","0","42323","","null","","","null","67","","","","","","","","","","","","","","","",""
"","ISI","","html-keyboard-response","404","382210","0.0-1.0-606.0","0","0","42323","","1","","","75","67","k","","","","","","","","","","","","","","",""
"","S2","","html-keyboard-response","405","382279","0.0-1.0-607.0","0","0","42323","","62","","","75","67","","k","2","67","training","adjacent","BC","2","3","P.jpg","R.jpg","1","1","1","",""
"","feedback","","html-keyboard-response","406","383287","0.0-1.0-609.0-0.0","0","0","42323","","null","","","null","67","","","","","","","","","","","","","","","",""
"","ITI","","html-keyboard-response","407","384299","0.0-1.0-612.0","0","0","42323","","116","","","75","67","","","","","","","","","","","","","","","k",""
"","S1","","html-keyboard-response","408","384562","0.0-1.0-614.0","0","0","42323","","null","","","null","68","","","","","","","","","","","","","","","",""
"","ISI","","html-keyboard-response","409","385575","0.0-1.0-615.0","0","0","42323","","29","","","68","68","d","","","","","","","","","","","","","","",""
"","S2","","html-keyboard-response","410","385807","0.0-1.0-616.0","0","0","42323","","226","","","68","68","","d","2","68","training","adjacent","DE","4","5","N.jpg","M.jpg","0","1","0","",""
"","feedback","","html-keyboard-response","411","386818","0.0-1.0-618.0-0.0","0","0","42323","","null","","","null","68","","","","","","","","","","","","","","","",""
"","time_out","","html-keyboard-response","412","388824","0.0-1.0-620.0-0.0","0","0","42323","","null","","","null","68","","","","","","","","","","","","","","","",""
"","ITI","","html-keyboard-response","413","389831","0.0-1.0-621.0","0","0","42323","","446","","","68","68","","","","","","","","","","","","","","","d",""
"","S1","","html-keyboard-response","414","390088","0.0-1.0-623.0","0","0","42323","","null","","","null","69","","","","","","","","","","","","","","","",""
"","ISI","","html-keyboard-response","415","391097","0.0-1.0-624.0","0","0","42323","","91","","","68","69","d","","","","","","","","","","","","","","",""
"","S2","","html-keyboard-response","416","391362","0.0-1.0-625.0","0","0","42323","","null","","","null","69","","NaN","","","","","","","","","","","","","",""
"","response","","html-keyboard-response","417","391464","0.0-1.0-626.0-0.0","0","0","42323","","96","","","68","69","","","2","69","training","adjacent","DC","4","3","N.jpg","R.jpg","0","0","1","",""
"","feedback","","html-keyboard-response","418","392472","0.0-1.0-627.0-0.0","0","0","42323","","null","","","null","69","","","","","","","","","","","","","","","",""
"","ITI","","html-keyboard-response","419","393480","0.0-1.0-630.0","0","0","42323","","null","","","null","69","","","","","","","","","","","","","","","NaN",""
"","S1","","html-keyboard-response","420","393746","0.0-1.0-632.0","0","0","42323","","null","","","null","70","","","","","","","","","","","","","","","",""
"","ISI","","html-keyboard-response","421","394759","0.0-1.0-633.0","0","0","42323","","null","","","null","70","NaN","","","","","","","","","","","","","","",""
"","S2","","html-keyboard-response","422","395015","0.0-1.0-634.0","0","0","42323","","null","","","null","70","","NaN","","","","","","","","","","","","","",""
"","response","","html-keyboard-response","423","395440","0.0-1.0-635.0-0.0","0","0","42323","","421","","","68","70","","","2","70","training","adjacent","FE","6","5","L.jpg","M.jpg","0","0","1","",""
"","feedback","","html-keyboard-response","424","396450","0.0-1.0-636.0-0.0","0","0","42323","","null","","","null","70","","","","","","","","","","","","","","","",""
"","ITI","","html-keyboard-response","425","397463","0.0-1.0-639.0","0","0","42323","","null","","","null","70","","","","","","","","","","","","","","","NaN",""
"","S1","","html-keyboard-response","426","397722","0.0-1.0-641.0","0","0","42323","","null","","","null","71","","","","","","","","","","","","","","","",""
"","ISI","","html-keyboard-response","427","398728","0.0-1.0-642.0","0","0","42323","","null","","","null","71","NaN","","","","","","","","","","","","","","",""
"","S2","","html-keyboard-response","428","398994","0.0-1.0-643.0","0","0","42323","","null","","","null","71","","NaN","","","","","","","","","","","","","",""
"","response","","html-keyboard-response","429","399476","0.0-1.0-644.0-0.0","0","0","42323","","477","","","75","71","","","2","71","training","adjacent","DE","4","5","N.jpg","M.jpg","1","1","1","",""
"","feedback","","html-keyboard-response","430","400487","0.0-1.0-645.0-0.0","0","0","42323","","null","","","null","71","","","","","","","","","","","","","","","",""
"","ITI","","html-keyboard-response","431","401497","0.0-1.0-648.0","0","0","42323","","null","","","null","71","","","","","","","","","","","","","","","NaN",""
"","S1","","html-keyboard-response","432","401762","0.0-1.0-650.0","0","0","42323","","null","","","null","72","","","","","","","","","","","","","","","",""
"","ISI","","html-keyboard-response","433","402775","0.0-1.0-651.0","0","0","42323","","null","","","null","72","NaN","","","","","","","","","","","","","","",""
"","S2","","html-keyboard-response","434","403042","0.0-1.0-652.0","0","0","42323","","null","","","null","72","","NaN","","","","","","","","","","","","","",""
"","response","","html-keyboard-response","435","403239","0.0-1.0-653.0-0.0","0","0","42323","","192","","","68","72","","","2","72","training","adjacent","GF","7","6","Q.jpg","L.jpg","0","0","1","",""
"","feedback","","html-keyboard-response","436","404247","0.0-1.0-654.0-0.0","0","0","42323","","null","","","null","72","","","","","","","","","","","","","","","",""
"","ITI","","html-keyboard-response","437","405255","0.0-1.0-657.0","0","0","42323","","null","","","null","72","","","","","","","","","","","","","","","NaN",""
"","S1","","html-keyboard-response","438","405511","0.0-1.0-659.0","0","0","42323","","null","","","null","73","","","","","","","","","","","","","","","",""
"","ISI","","html-keyboard-response","439","406519","0.0-1.0-660.0","0","0","42323","","null","","","null","73","NaN","","","","","","","","","","","","","","",""
"","S2","","html-keyboard-response","440","406786","0.0-1.0-661.0","0","0","42323","","null","","","null","73","","NaN","","","","","","","","","","","","","",""
"","response","","html-keyboard-response","441","406902","0.0-1.0-662.0-0.0","0","0","42323","","111","","","75","73","","","2","73","training","adjacent","DE","4","5","N.jpg","M.jpg","1","1","1","",""
"","feedback","","html-keyboard-response","442","407911","0.0-1.0-663.0-0.0","0","0","42323","","null","","","null","73","","","","","","","","","","","","","","","",""
"","ITI","","html-keyboard-response","443","408919","0.0-1.0-666.0","0","0","42323","","null","","","null","73","","","","","","","","","","","","","","","NaN",""
"","S1","","html-keyboard-response","444","409186","0.0-1.0-668.0","0","0","42323","","null","","","null","74","","","","","","","","","","","","","","","",""
"","ISI","","html-keyboard-response","445","410199","0.0-1.0-669.0","0","0","42323","","null","","","null","74","NaN","","","","","","","","","","","","","","",""
"","S2","","html-keyboard-response","446","410466","0.0-1.0-670.0","0","0","42323","","null","","","null","74","","NaN","","","","","","","","","","","","","",""
"","response","","html-keyboard-response","447","410956","0.0-1.0-671.0-0.0","0","0","42323","","485","","","68","74","","","2","74","training","adjacent","ED","5","4","M.jpg","N.jpg","0","0","1","",""
"","feedback","","html-keyboard-response","448","411969","0.0-1.0-672.0-0.0","0","0","42323","","null","","","null","74","","","","","","","","","","","","","","","",""
"","ITI","","html-keyboard-response","449","412983","0.0-1.0-675.0","0","0","42323","","null","","","null","74","","","","","","","","","","","","","","","NaN",""
"","S1","","html-keyboard-response","450","413240","0.0-1.0-677.0","0","0","42323","","null","","","null","75","","","","","","","","","","","","","","","",""
"","ISI","","html-keyboard-response","451","414247","0.0-1.0-678.0","0","0","42323","","null","","","null","75","NaN","","","","","","","","","","","","","","",""
"","S2","","html-keyboard-response","452","414503","0.0-1.0-679.0","0","0","42323","","null","","","null","75","","NaN","","","","","","","","","","","","","",""
"","response","","html-keyboard-response","453","414887","0.0-1.0-680.0-0.0","0","0","42323","","379","","","68","75","","","2","75","training","adjacent","DC","4","3","N.jpg","R.jpg","0","0","1","",""
"","feedback","","html-keyboard-response","454","415896","0.0-1.0-681.0-0.0","0","0","42323","","null","","","null","75","","","","","","","","","","","","","","","",""
"","ITI","","html-keyboard-response","455","416904","0.0-1.0-684.0","0","0","42323","","null","","","null","75","","","","","","","","","","","","","","","NaN",""
"","S1","","html-keyboard-response","456","417170","0.0-1.0-686.0","0","0","42323","","null","","","null","76","","","","","","","","","","","","","","","",""
"","ISI","","html-keyboard-response","457","418183","0.0-1.0-687.0","0","0","42323","","null","","","null","76","NaN","","","","","","","","","","","","","","",""
"","S2","","html-keyboard-response","458","418450","0.0-1.0-688.0","0","0","42323","","null","","","null","76","","NaN","","","","","","","","","","","","","",""
"","response","","html-keyboard-response","459","418753","0.0-1.0-689.0-0.0","0","0","42323","","297","","","75","76","","","2","76","training","adjacent","DC","4","3","N.jpg","R.jpg","1","0","0","",""
"","feedback","","html-keyboard-response","460","419763","0.0-1.0-690.0-0.0","0","0","42323","","null","","","null","76","","","","","","","","","","","","","","","",""
"","time_out","","html-keyboard-response","461","421779","0.0-1.0-692.0-0.0","0","0","42323","","null","","","null","76","","","","","","","","","","","","","","","",""
"","ITI","","html-keyboard-response","462","422791","0.0-1.0-693.0","0","0","42323","","null","","","null","76","","","","","","","","","","","","","","","NaN",""
"","S1","","html-keyboard-response","463","423057","0.0-1.0-695.0","0","0","42323","","null","","","null","77","","","","","","","","","","","","","","","",""
"","ISI","","html-keyboard-response","464","424066","0.0-1.0-696.0","0","0","42323","","null","","","null","77","NaN","","","","","","","","","","","","","","",""
"","S2","","html-keyboard-response","465","424327","0.0-1.0-697.0","0","0","42323","","null","","","null","77","","NaN","","","","","","","","","","","","","",""
"","response","","html-keyboard-response","466","424596","0.0-1.0-698.0-0.0","0","0","42323","","264","","","68","77","","","2","77","training","adjacent","CD","3","4","R.jpg","N.jpg","0","1","0","",""
"","feedback","","html-keyboard-response","467","425606","0.0-1.0-699.0-0.0","0","0","42323","","null","","","null","77","","","","","","","","","","","","","","","",""
"","time_out","","html-keyboard-response","468","427618","0.0-1.0-701.0-0.0","0","0","42323","","null","","","null","77","","","","","","","","","","","","","","","",""
"","ITI","","html-keyboard-response","469","428631","0.0-1.0-702.0","0","0","42323","","null","","","null","77","","","","","","","","","","","","","","","NaN",""
"","S1","","html-keyboard-response","470","428897","0.0-1.0-704.0","0","0","42323","","null","","","null","78","","","","","","","","","","","","","","","",""
"","ISI","","html-keyboard-response","471","429911","0.0-1.0-705.0","0","0","42323","","198","","","75","78","k","","","","","","","","","","","","","","",""
"","S2","","html-keyboard-response","472","430178","0.0-1.0-706.0","0","0","42323","","null","","","null","78","","NaN","","","","","","","","","","","","","",""
"","response","","html-keyboard-response","473","430181","0.0-1.0-707.0-0.0","0","0","42323","","0","","","75","78","","","2","78","training","adjacent","BA","2","1","P.jpg","O.jpg","1","0","0","",""
"","feedback","","html-keyboard-response","474","431191","0.0-1.0-708.0-0.0","0","0","42323","","null","","","null","78","","","","","","","","","","","","","","","",""
"","time_out","","html-keyboard-response","475","433201","0.0-1.0-710.0-0.0","0","0","42323","","null","","","null","78","","","","","","","","","","","","","","","",""
"","ITI","","html-keyboard-response","476","434215","0.0-1.0-711.0","0","0","42323","","null","","","null","78","","","","","","","","","","","","","","","NaN",""
"","S1","","html-keyboard-response","477","434481","0.0-1.0-713.0","0","0","42323","","null","","","null","79","","","","","","","","","","","","","","","",""
"","ISI","","html-keyboard-response","478","435494","0.0-1.0-714.0","0","0","42323","","null","","","null","79","NaN","","","","","","","","","","","","","","",""
"","S2","","html-keyboard-response","479","435751","0.0-1.0-715.0","0","0","42323","","null","","","null","79","","NaN","","","","","","","","","","","","","",""
"","response","","html-keyboard-response","480","436406","0.0-1.0-716.0-0.0","0","0","42323","","649","","","75","79","","","2","79","training","adjacent","AB","1","2","O.jpg","P.jpg","1","1","1","",""
"","feedback","","html-keyboard-response","481","437415","0.0-1.0-717.0-0.0","0","0","42323","","null","","","null","79","","","","","","","","","","","","","","","",""
"","ITI","","html-keyboard-response","482","438423","0.0-1.0-720.0","0","0","42323","","null","","","null","79","","","","","","","","","","","","","","","NaN",""
"","S1","","html-keyboard-response","483","438690","0.0-1.0-722.0","0","0","42323","","null","","","null","80","","","","","","","","","","","","","","","",""
"","ISI","","html-keyboard-response","484","439703","0.0-1.0-723.0","0","0","42323","","null","","","null","80","NaN","","","","","","","","","","","","","","",""
"","S2","","html-keyboard-response","485","439970","0.0-1.0-724.0","0","0","42323","","null","","","null","80","","NaN","","","","","","","","","","","","","",""
"","response","","html-keyboard-response","486","440378","0.0-1.0-725.0-0.0","0","0","42323","","403","","","68","80","","","2","80","training","adjacent","CB","3","2","R.jpg","P.jpg","0","0","1","",""
"","feedback","","html-keyboard-response","487","441393","0.0-1.0-726.0-0.0","0","0","42323","","null","","","null","80","","","","","","","","","","","","","","","",""
"","ITI","","html-keyboard-response","488","442407","0.0-1.0-729.0","0","0","42323","","null","","","null","80","","","","","","","","","","","","","","","NaN",""
"","S1","","html-keyboard-response","489","442674","0.0-1.0-731.0","0","0","42323","","null","","","null","81","","","","","","","","","","","","","","","",""
"","ISI","","html-keyboard-response","490","443680","0.0-1.0-732.0","0","0","42323","","null","","","null","81","NaN","","","","","","","","","","","","","","",""
"","S2","","html-keyboard-response","491","443947","0.0-1.0-733.0","0","0","42323","","null","","","null","81","","NaN","","","","","","","","","","","","","",""
"","response","","html-keyboard-response","492","444316","0.0-1.0-734.0-0.0","0","0","42323","","363","","","68","81","","","2","81","training","adjacent","DE","4","5","N.jpg","M.jpg","0","1","0","",""
"","feedback","","html-keyboard-response","493","445326","0.0-1.0-735.0-0.0","0","0","42323","","null","","","null","81","","","","","","","","","","","","","","","",""
"","time_out","","html-keyboard-response","494","447339","0.0-1.0-737.0-0.0","0","0","42323","","null","","","null","81","","","","","","","","","","","","","","","",""
"","ITI","","html-keyboard-response","495","448354","0.0-1.0-738.0","0","0","42323","","null","","","null","81","","","","","","","","","","","","","","","NaN",""
"","S1","","html-keyboard-response","496","448615","0.0-1.0-740.0","0","0","42323","","null","","","null","82","","","","","","","","","","","","","","","",""
"","ISI","","html-keyboard-response","497","449623","0.0-1.0-741.0","0","0","42323","","32","","","68","82","d","","","","","","","","","","","","","","",""
"","S2","","html-keyboard-response","498","449889","0.0-1.0-742.0","0","0","42323","","null","","","null","82","","NaN","","","","","","","","","","","","","",""
"","response","","html-keyboard-response","499","450249","0.0-1.0-743.0-0.0","0","0","42323","","355","","","75","82","","","2","82","training","adjacent","ED","5","4","M.jpg","N.jpg","1","0","0","",""
"","feedback","","html-keyboard-response","500","451266","0.0-1.0-744.0-0.0","0","0","42323","","null","","","null","82","","","","","","","","","","","","","","","",""
"","time_out","","html-keyboard-response","501","453281","0.0-1.0-746.0-0.0","0","0","42323","","null","","","null","82","","","","","","","","","","","","","","","",""
"","ITI","","html-keyboard-response","502","454295","0.0-1.0-747.0","0","0","42323","","null","","","null","82","","","","","","","","","","","","","","","NaN",""
"","S1","","html-keyboard-response","503","454563","0.0-1.0-749.0","0","0","42323","","null","","","null","83","","","","","","","","","","","","","","","",""
"","ISI","","html-keyboard-response","504","455575","0.0-1.0-750.0","0","0","42323","","null","","","null","83","NaN","","","","","","","","","","","","","","",""
"","S2","","html-keyboard-response","505","455843","0.0-1.0-751.0","0","0","42323","","null","","","null","83","","NaN","","","","","","","","","","","","","",""
"","response","","html-keyboard-response","506","456236","0.0-1.0-752.0-0.0","0","0","42323","","388","","","68","83","","","2","83","training","adjacent","CB","3","2","R.jpg","P.jpg","0","0","1","",""
"","feedback","","html-keyboard-response","507","457249","0.0-1.0-753.0-0.0","0","0","42323","","null","","","null","83","","","","","","","","","","","","","","","",""
"","ITI","","html-keyboard-response","508","458262","0.0-1.0-756.0","0","0","42323","","null","","","null","83","","","","","","","","","","","","","","","NaN",""
"","S1","","html-keyboard-response","509","458529","0.0-1.0-758.0","0","0","42323","","null","","","null","84","","","","","","","","","","","","","","","",""
"","ISI","","html-keyboard-response","510","459542","0.0-1.0-759.0","0","0","42323","","null","","","null","84","NaN","","","","","","","","","","","","","","",""
"","S2","","html-keyboard-response","511","459809","0.0-1.0-760.0","0","0","42323","","null","","","null","84","","NaN","","","","","","","","","","","","","",""
"","response","","html-keyboard-response","512","460199","0.0-1.0-761.0-0.0","0","0","42323","","386","","","68","84","","","2","84","training","adjacent","GF","7","6","Q.jpg","L.jpg","0","0","1","",""
"","feedback","","html-keyboard-response","513","461207","0.0-1.0-762.0-0.0","0","0","42323","","null","","","null","84","","","","","","","","","","","","","","","",""
"","ITI","","html-keyboard-response","514","462214","0.0-1.0-765.0","0","0","42323","","null","","","null","84","","","","","","","","","","","","","","","NaN",""
"","S1","","html-keyboard-response","515","462481","0.0-1.0-767.0","0","0","42323","","null","","","null","85","","","","","","","","","","","","","","","",""
"","ISI","","html-keyboard-response","516","463494","0.0-1.0-768.0","0","0","42323","","null","","","null","85","NaN","","","","","","","","","","","","","","",""
"","S2","","html-keyboard-response","517","463761","0.0-1.0-769.0","0","0","42323","","null","","","null","85","","NaN","","","","","","","","","","","","","",""
"","response","","html-keyboard-response","518","464025","0.0-1.0-770.0-0.0","0","0","42323","","258","","","75","85","","","2","85","training","adjacent","EF","5","6","M.jpg","L.jpg","1","1","1","",""
"","feedback","","html-keyboard-response","519","465041","0.0-1.0-771.0-0.0","0","0","42323","","null","","","null","85","","","","","","","","","","","","","","","",""
"","ITI","","html-keyboard-response","520","466054","0.0-1.0-774.0","0","0","42323","","null","","","null","85","","","","","","","","","","","","","","","NaN",""
"","S1","","html-keyboard-response","521","466321","0.0-1.0-776.0","0","0","42323","","null","","","null","86","","","","","","","","","","","","","","","",""
"","ISI","","html-keyboard-response","522","467334","0.0-1.0-777.0","0","0","42323","","null","","","null","86","NaN","","","","","","","","","","","","","","",""
"","S2","","html-keyboard-response","523","467601","0.0-1.0-778.0","0","0","42323","","null","","","null","86","","NaN","","","","","","","","","","","","","",""
"","response","","html-keyboard-response","524","467941","0.0-1.0-779.0-0.0","0","0","42323","","334","","","68","86","","","2","86","training","adjacent","BC","2","3","P.jpg","R.jpg","0","1","0","",""
"","feedback","","html-keyboard-response","525","468951","0.0-1.0-780.0-0.0","0","0","42323","","null","","","null","86","","","","","","","","","","","","","","","",""
"","time_out","","html-keyboard-response","526","470961","0.0-1.0-782.0-0.0","0","0","42323","","null","","","null","86","","","","","","","","","","","","","","","",""
"","ITI","","html-keyboard-response","527","471973","0.0-1.0-783.0","0","0","42323","","null","","","null","86","","","","","","","","","","","","","","","NaN",""
"","S1","","html-keyboard-response","528","472229","0.0-1.0-785.0","0","0","42323","","null","","","null","87","","","","","","","","","","","","","","","",""
"","ISI","","html-keyboard-response","529","473238","0.0-1.0-786.0","0","0","42323","","null","","","null","87","NaN","","","","","","","","","","","","","","",""
"","S2","","html-keyboard-response","530","473503","0.0-1.0-787.0","0","0","42323","","null","","","null","87","","NaN","","","","","","","","","","","","","",""
"","response","","html-keyboard-response","531","473584","0.0-1.0-788.0-0.0","0","0","42323","","75","","","75","87","","","2","87","training","adjacent","EF","5","6","M.jpg","L.jpg","1","1","1","",""
"","feedback","","html-keyboard-response","532","474593","0.0-1.0-789.0-0.0","0","0","42323","","null","","","null","87","","","","","","","","","","","","","","","",""
"","ITI","","html-keyboard-response","533","475611","0.0-1.0-792.0","0","0","42323","","null","","","null","87","","","","","","","","","","","","","","","NaN",""
"","S1","","html-keyboard-response","534","475873","0.0-1.0-794.0","0","0","42323","","null","","","null","88","","","","","","","","","","","","","","","",""
"","ISI","","html-keyboard-response","535","476886","0.0-1.0-795.0","0","0","42323","","null","","","null","88","NaN","","","","","","","","","","","","","","",""
"","S2","","html-keyboard-response","536","477153","0.0-1.0-796.0","0","0","42323","","null","","","null","88","","NaN","","","","","","","","","","","","","",""
"","response","","html-keyboard-response","537","477455","0.0-1.0-797.0-0.0","0","0","42323","","300","","","68","88","","","2","88","training","adjacent","BC","2","3","P.jpg","R.jpg","0","1","0","",""
"","feedback","","html-keyboard-response","538","478463","0.0-1.0-798.0-0.0","0","0","42323","","null","","","null","88","","","","","","","","","","","","","","","",""
"","time_out","","html-keyboard-response","539","480468","0.0-1.0-800.0-0.0","0","0","42323","","null","","","null","88","","","","","","","","","","","","","","","",""
"","ITI","","html-keyboard-response","540","481477","0.0-1.0-801.0","0","0","42323","","null","","","null","88","","","","","","","","","","","","","","","NaN",""
"","S1","","html-keyboard-response","541","481733","0.0-1.0-803.0","0","0","42323","","null","","","null","89","","","","","","","","","","","","","","","",""
"","ISI","","html-keyboard-response","542","482744","0.0-1.0-804.0","0","0","42323","","null","","","null","89","NaN","","","","","","","","","","","","","","",""
"","S2","","html-keyboard-response","543","483007","0.0-1.0-805.0","0","0","42323","","null","","","null","89","","NaN","","","","","","","","","","","","","",""
"","response","","html-keyboard-response","544","483115","0.0-1.0-806.0-0.0","0","0","42323","","105","","","75","89","","","2","89","training","adjacent","ED","5","4","M.jpg","N.jpg","1","0","0","",""
"","feedback","","html-keyboard-response","545","484128","0.0-1.0-807.0-0.0","0","0","42323","","null","","","null","89","","","","","","","","","","","","","","","",""
"","time_out","","html-keyboard-response","546","486132","0.0-1.0-809.0-0.0","0","0","42323","","null","","","null","89","","","","","","","","","","","","","","","",""
"","ITI","","html-keyboard-response","547","487140","0.0-1.0-810.0","0","0","42323","","null","","","null","89","","","","","","","","","","","","","","","NaN",""
"","S1","","html-keyboard-response","548","487396","0.0-1.0-812.0","0","0","42323","","null","","","null","90","","","","","","","","","","","","","","","",""
"","ISI","","html-keyboard-response","549","488404","0.0-1.0-813.0","0","0","42323","","null","","","null","90","NaN","","","","","","","","","","","","","","",""
"","S2","","html-keyboard-response","550","488660","0.0-1.0-814.0","0","0","42323","","null","","","null","90","","NaN","","","","","","","","","","","","","",""
"","response","","html-keyboard-response","551","488744","0.0-1.0-815.0-0.0","0","0","42323","","78","","","68","90","","","2","90","training","adjacent","GF","7","6","Q.jpg","L.jpg","0","0","1","",""
"","feedback","","html-keyboard-response","552","489750","0.0-1.0-816.0-0.0","0","0","42323","","null","","","null","90","","","","","","","","","","","","","","","",""
"","ITI","","html-keyboard-response","553","490758","0.0-1.0-819.0","0","0","42323","","null","","","null","90","","","","","","","","","","","","","","","NaN",""
"","S1","","html-keyboard-response","554","491026","0.0-1.0-821.0","0","0","42323","","null","","","null","91","","","","","","","","","","","","","","","",""
"","ISI","","html-keyboard-response","555","492036","0.0-1.0-822.0","0","0","42323","","null","","","null","91","NaN","","","","","","","","","","","","","","",""
"","S2","","html-keyboard-response","556","492292","0.0-1.0-823.0","0","0","42323","","null","","","null","91","","NaN","","","","","","","","","","","","","",""
"","response","","html-keyboard-response","557","492713","0.0-1.0-824.0-0.0","0","0","42323","","419","","","75","91","","","2","91","training","adjacent","EF","5","6","M.jpg","L.jpg","1","1","1","",""
"","feedback","","html-keyboard-response","558","493727","0.0-1.0-825.0-0.0","0","0","42323","","null","","","null","91","","","","","","","","","","","","","","","",""
"","ITI","","html-keyboard-response","559","494735","0.0-1.0-828.0","0","0","42323","","null","","","null","91","","","","","","","","","","","","","","","NaN",""
"","S1","","html-keyboard-response","560","494996","0.0-1.0-830.0","0","0","42323","","null","","","null","92","","","","","","","","","","","","","","","",""
"","ISI","","html-keyboard-response","561","496005","0.0-1.0-831.0","0","0","42323","","null","","","null","92","NaN","","","","","","","","","","","","","","",""
"","S2","","html-keyboard-response","562","496261","0.0-1.0-832.0","0","0","42323","","null","","","null","92","","NaN","","","","","","","","","","","","","",""
"","response","","html-keyboard-response","563","496755","0.0-1.0-833.0-0.0","0","0","42323","","491","","","68","92","","","2","92","training","adjacent","CD","3","4","R.jpg","N.jpg","0","1","0","",""
"","feedback","","html-keyboard-response","564","497764","0.0-1.0-834.0-0.0","0","0","42323","","null","","","null","92","","","","","","","","","","","","","","","",""
"","time_out","","html-keyboard-response","565","499774","0.0-1.0-836.0-0.0","0","0","42323","","null","","","null","92","","","","","","","","","","","","","","","",""
"","ITI","","html-keyboard-response","566","500783","0.0-1.0-837.0","0","0","42323","","null","","","null","92","","","","","","","","","","","","","","","NaN",""
"","S1","","html-keyboard-response","567","501044","0.0-1.0-839.0","0","0","42323","","null","","","null","93","","","","","","","","","","","","","","","",""
"","ISI","","html-keyboard-response","568","502051","0.0-1.0-840.0","0","0","42323","","106","","","75","93","k","","","","","","","","","","","","","","",""
"","S2","","html-keyboard-response","569","502309","0.0-1.0-841.0","0","0","42323","","null","","","null","93","","NaN","","","","","","","","","","","","","",""
"","response","","html-keyboard-response","570","502677","0.0-1.0-842.0-0.0","0","0","42323","","365","","","75","93","","","2","93","training","adjacent","AB","1","2","O.jpg","P.jpg","1","1","1","",""
"","feedback","","html-keyboard-response","571","503684","0.0-1.0-843.0-0.0","0","0","42323","","null","","","null","93","","","","","","","","","","","","","","","",""
"","ITI","","html-keyboard-response","572","504695","0.0-1.0-846.0","0","0","42323","","null","","","null","93","","","","","","","","","","","","","","","NaN",""
"","S1","","html-keyboard-response","573","504959","0.0-1.0-848.0","0","0","42323","","null","","","null","94","","","","","","","","","","","","","","","",""
"","ISI","","html-keyboard-response","574","505969","0.0-1.0-849.0","0","0","42323","","null","","","null","94","NaN","","","","","","","","","","","","","","",""
"","S2","","html-keyboard-response","575","506228","0.0-1.0-850.0","0","0","42323","","null","","","null","94","","NaN","","","","","","","","","","","","","",""
"","response","","html-keyboard-response","576","506697","0.0-1.0-851.0-0.0","0","0","42323","","466","","","75","94","","","2","94","training","adjacent","FG","6","7","L.jpg","Q.jpg","1","1","1","",""
"","feedback","","html-keyboard-response","577","507711","0.0-1.0-852.0-0.0","0","0","42323","","null","","","null","94","","","","","","","","","","","","","","","",""
"","ITI","","html-keyboard-response","578","508719","0.0-1.0-855.0","0","0","42323","","null","","","null","94","","","","","","","","","","","","","","","NaN",""
"","S1","","html-keyboard-response","579","508980","0.0-1.0-857.0","0","0","42323","","null","","","null","95","","","","","","","","","","","","","","","",""
"","ISI","","html-keyboard-response","580","509990","0.0-1.0-858.0","0","0","42323","","186","","","75","95","k","","","","","","","","","","","","","","",""
"","S2","","html-keyboard-response","581","510255","0.0-1.0-859.0","0","0","42323","","null","","","null","95","","NaN","","","","","","","","","","","","","",""
"","response","","html-keyboard-response","582","510877","0.0-1.0-860.0-0.0","0","0","42323","","618","","","75","95","","","2","95","training","adjacent","AB","1","2","O.jpg","P.jpg","1","1","1","",""
"","feedback","","html-keyboard-response","583","511888","0.0-1.0-861.0-0.0","0","0","42323","","null","","","null","95","","","","","","","","","","","","","","","",""
"","ITI","","html-keyboard-response","584","512900","0.0-1.0-864.0","0","0","42323","","null","","","null","95","","","","","","","","","","","","","","","NaN",""
