"success","ttype","start_time","trial_type","trial_index","time_elapsed","internal_node_id","warning","missed_checkup","PID","view_history","rt","responses","repeat_instructions","key_press","index","keypress_isi","keypress_S2","block","trial_num","phase","group_type","pair_type","S1_stim","S2_stim","S1_img","S2_img","S1_chosen","S1_higher","accuracy","keypress_iti","total_bonus_tally"
"true","full_screen","d03072023hr1758","fullscreen","0","11679","0.0-0.0","0","0","78411","","","","","","","","","","","","","","","","","","","","","",""
"","instructions","","instructions","1","37284","0.0-1.0-0.0-0.0","0","0","78411","[{""page_index"":0,""viewing_time"":2631},{""page_index"":1,""viewing_time"":14452},{""page_index"":2,""viewing_time"":7100},{""page_index"":3,""viewing_time"":1420}]","25603","","","","","","","","","","","","","","","","","","","",""
"","comprehension_check","","survey-multi-choice","2","58548","0.0-1.0-0.0-1.0","0","0","78411","","21263","{""Q0"":""True"",""Q1"":""K"",""Q2"":""Only when the screen 'MAKE A CHOICE' is shown"",""Q3"":""Green mark"",""Q4"":""either D or K""}","1","","","","","","","","","","","","","","","","","",""
"","missed_instruction_checkup","","html-keyboard-response","3","60151","0.0-1.0-0.0-2.0-0.0","0","1","78411","","1600","","","32","","","","","","","","","","","","","","","","",""
"","instructions","","instructions","4","95187","0.0-1.0-0.1-0.1","0","0","78411","[{""page_index"":0,""viewing_time"":8008},{""page_index"":1,""viewing_time"":13404},{""page_index"":2,""viewing_time"":4036},{""page_index"":1,""viewing_time"":7416},{""page_index"":2,""viewing_time"":1354},{""page_index"":3,""viewing_time"":817}]","35035","","","","","","","","","","","","","","","","","","","",""
"","comprehension_check","","survey-multi-choice","5","110473","0.0-1.0-0.1-1.1","0","0","78411","","15283","{""Q0"":""True"",""Q1"":""K"",""Q2"":""Once the second image appears and while the screen 'MAKE A CHOICE' is shown"",""Q3"":""Green mark"",""Q4"":""either D or K""}","0","","","","","","","","","","","","","","","","","",""
"","start_exp","","html-keyboard-response","6","111926","0.0-1.0-1.0","0","0","78411","","1451","","","32","","","","","","","","","","","","","","","","",""
"","S1","","html-keyboard-response","7","112178","0.0-1.0-2.0","0","0","78411","","null","","","null","0","","","","","","","","","","","","","","","",""
"","ISI","","html-keyboard-response","8","113182","0.0-1.0-3.0","0","0","78411","","null","","","null","0","NaN","","","","","","","","","","","","","","",""
"","S2","","html-keyboard-response","9","113434","0.0-1.0-4.0","0","0","78411","","null","","","null","0","","NaN","","","","","","","","","","","","","",""
"","response","","html-keyboard-response","10","114039","0.0-1.0-5.0-0.0","0","0","78411","","604","","","75","0","","","1","0","training","adjacent","ED","5","4","Q.jpg","L.jpg","1","0","0","",""
"","feedback","","html-keyboard-response","11","115040","0.0-1.0-6.0-0.0","0","0","78411","","null","","","null","0","","","","","","","","","","","","","","","",""
"","time_out","","html-keyboard-response","12","117042","0.0-1.0-8.0-0.0","0","0","78411","","null","","","null","0","","","","","","","","","","","","","","","",""
"","ITI","","html-keyboard-response","13","118044","0.0-1.0-9.0","0","0","78411","","null","","","null","0","","","","","","","","","","","","","","","NaN",""
"","S1","","html-keyboard-response","14","118296","0.0-1.0-11.0","0","0","78411","","null","","","null","1","","","","","","","","","","","","","","","",""
"","ISI","","html-keyboard-response","15","119297","0.0-1.0-12.0","0","0","78411","","null","","","null","1","NaN","","","","","","","","","","","","","","",""
"","S2","","html-keyboard-response","16","119549","0.0-1.0-13.0","0","0","78411","","null","","","null","1","","NaN","","","","","","","","","","","","","",""
"","response","","html-keyboard-response","17","120132","0.0-1.0-14.0-0.0","0","0","78411","","582","","","75","1","","","1","1","training","adjacent","BC","2","3","N.jpg","R.jpg","1","1","1","",""
"","feedback","","html-keyboard-response","18","121133","0.0-1.0-15.0-0.0","0","0","78411","","null","","","null","1","","","","","","","","","","","","","","","",""
"","ITI","","html-keyboard-response","19","122135","0.0-1.0-18.0","0","0","78411","","null","","","null","1","","","","","","","","","","","","","","","NaN",""
"","S1","","html-keyboard-response","20","122392","0.0-1.0-20.0","0","0","78411","","null","","","null","2","","","","","","","","","","","","","","","",""
"","ISI","","html-keyboard-response","21","123395","0.0-1.0-21.0","0","0","78411","","null","","","null","2","NaN","","","","","","","","","","","","","","",""
"","S2","","html-keyboard-response","22","123656","0.0-1.0-22.0","0","0","78411","","null","","","null","2","","NaN","","","","","","","","","","","","","",""
"","response","","html-keyboard-response","23","124088","0.0-1.0-23.0-0.0","0","0","78411","","432","","","75","2","","","1","2","training","adjacent","DC","4","3","L.jpg","R.jpg","1","0","0","",""
"","feedback","","html-keyboard-response","24","125090","0.0-1.0-24.0-0.0","0","0","78411","","null","","","null","2","","","","","","","","","","","","","","","",""
"","time_out","","html-keyboard-response","25","127100","0.0-1.0-26.0-0.0","0","0","78411","","null","","","null","2","","","","","","","","","","","","","","","",""
"","ITI","","html-keyboard-response","26","128103","0.0-1.0-27.0","0","0","78411","","null","","","null","2","","","","","","","","","","","","","","","NaN",""
"","S1","","html-keyboard-response","27","128354","0.0-1.0-29.0","0","0","78411","","null","","","null","3","","","","","","","","","","","","","","","",""
"","ISI","","html-keyboard-response","28","129365","0.0-1.0-30.0","0","0","78411","","null","","","null","3","NaN","","","","","","","","","","","","","","",""
"","S2","","html-keyboard-response","29","129616","0.0-1.0-31.0","0","0","78411","","null","","","null","3","","NaN","","","","","","","","","","","","","",""
"","response","","html-keyboard-response","30","129901","0.0-1.0-32.0-0.0","0","0","78411","","284","","","68","3","","","1","3","training","adjacent","EF","5","6","Q.jpg","O.jpg","0","1","0","",""
"","feedback","","html-keyboard-response","31","130903","0.0-1.0-33.0-0.0","0","0","78411","","null","","","null","3","","","","","","","","","","","","","","","",""
"","time_out","","html-keyboard-response","32","132906","0.0-1.0-35.0-0.0","0","0","78411","","null","","","null","3","","","","","","","","","","","","","","","",""
"","ITI","","html-keyboard-response","33","133908","0.0-1.0-36.0","0","0","78411","","null","","","null","3","","","","","","","","","","","","","","","NaN",""
"","S1","","html-keyboard-response","34","134159","0.0-1.0-38.0","0","0","78411","","null","","","null","4","","","","","","","","","","","","","","","",""
"","ISI","","html-keyboard-response","35","135161","0.0-1.0-39.0","0","0","78411","","null","","","null","4","NaN","","","","","","","","","","","","","","",""
"","S2","","html-keyboard-response","36","135413","0.0-1.0-40.0","0","0","78411","","null","","","null","4","","NaN","","","","","","","","","","","","","",""
"","response","","html-keyboard-response","37","135914","0.0-1.0-41.0-0.0","0","0","78411","","501","","","68","4","","","1","4","training","adjacent","ED","5","4","Q.jpg","L.jpg","0","0","1","",""
"","feedback","","html-keyboard-response","38","136916","0.0-1.0-42.0-0.0","0","0","78411","","null","","","null","4","","","","","","","","","","","","","","","",""
"","ITI","","html-keyboard-response","39","137917","0.0-1.0-45.0","0","0","78411","","null","","","null","4","","","","","","","","","","","","","","","NaN",""
"","S1","","html-keyboard-response","40","138170","0.0-1.0-47.0","0","0","78411","","null","","","null","5","","","","","","","","","","","","","","","",""
"","ISI","","html-keyboard-response","41","139171","0.0-1.0-48.0","0","0","78411","","null","","","null","5","NaN","","","","","","","","","","","","","","",""
"","S2","","html-keyboard-response","42","139423","0.0-1.0-49.0","0","0","78411","","null","","","null","5","","NaN","","","","","","","","","","","","","",""
"","response","","html-keyboard-response","43","140106","0.0-1.0-50.0-0.0","0","0","78411","","683","","","68","5","","","1","5","training","adjacent","FG","6","7","O.jpg","M.jpg","0","1","0","",""
"","feedback","","html-keyboard-response","44","141107","0.0-1.0-51.0-0.0","0","0","78411","","null","","","null","5","","","","","","","","","","","","","","","",""
"","time_out","","html-keyboard-response","45","143110","0.0-1.0-53.0-0.0","0","0","78411","","null","","","null","5","","","","","","","","","","","","","","","",""
"","ITI","","html-keyboard-response","46","144112","0.0-1.0-54.0","0","0","78411","","null","","","null","5","","","","","","","","","","","","","","","NaN",""
"","S1","","html-keyboard-response","47","144364","0.0-1.0-56.0","0","0","78411","","null","","","null","6","","","","","","","","","","","","","","","",""
"","ISI","","html-keyboard-response","48","145366","0.0-1.0-57.0","0","0","78411","","null","","","null","6","NaN","","","","","","","","","","","","","","",""
"","S2","","html-keyboard-response","49","145618","0.0-1.0-58.0","0","0","78411","","null","","","null","6","","NaN","","","","","","","","","","","","","",""
"","response","","html-keyboard-response","50","146269","0.0-1.0-59.0-0.0","0","0","78411","","650","","","68","6","","","1","6","training","adjacent","BA","2","1","N.jpg","P.jpg","0","0","1","",""
"","feedback","","html-keyboard-response","51","147271","0.0-1.0-60.0-0.0","0","0","78411","","null","","","null","6","","","","","","","","","","","","","","","",""
"","ITI","","html-keyboard-response","52","148272","0.0-1.0-63.0","0","0","78411","","null","","","null","6","","","","","","","","","","","","","","","NaN",""
"","S1","","html-keyboard-response","53","148523","0.0-1.0-65.0","0","0","78411","","null","","","null","7","","","","","","","","","","","","","","","",""
"","ISI","","html-keyboard-response","54","149526","0.0-1.0-66.0","0","0","78411","","null","","","null","7","NaN","","","","","","","","","","","","","","",""
"","S2","","html-keyboard-response","55","149777","0.0-1.0-67.0","0","0","78411","","null","","","null","7","","NaN","","","","","","","","","","","","","",""
"","response","","html-keyboard-response","56","150159","0.0-1.0-68.0-0.0","0","0","78411","","381","","","75","7","","","1","7","training","adjacent","CB","3","2","R.jpg","N.jpg","1","0","0","",""
"","feedback","","html-keyboard-response","57","151160","0.0-1.0-69.0-0.0","0","0","78411","","null","","","null","7","","","","","","","","","","","","","","","",""
"","time_out","","html-keyboard-response","58","153162","0.0-1.0-71.0-0.0","0","0","78411","","null","","","null","7","","","","","","","","","","","","","","","",""
"","ITI","","html-keyboard-response","59","154164","0.0-1.0-72.0","0","0","78411","","null","","","null","7","","","","","","","","","","","","","","","NaN",""
"","S1","","html-keyboard-response","60","154420","0.0-1.0-74.0","0","0","78411","","null","","","null","8","","","","","","","","","","","","","","","",""
"","ISI","","html-keyboard-response","61","155435","0.0-1.0-75.0","0","0","78411","","null","","","null","8","NaN","","","","","","","","","","","","","","",""
"","S2","","html-keyboard-response","62","155687","0.0-1.0-76.0","0","0","78411","","null","","","null","8","","NaN","","","","","","","","","","","","","",""
"","response","","html-keyboard-response","63","156042","0.0-1.0-77.0-0.0","0","0","78411","","354","","","75","8","","","1","8","training","adjacent","FE","6","5","O.jpg","Q.jpg","1","0","0","",""
"","feedback","","html-keyboard-response","64","157044","0.0-1.0-78.0-0.0","0","0","78411","","null","","","null","8","","","","","","","","","","","","","","","",""
"","time_out","","html-keyboard-response","65","159047","0.0-1.0-80.0-0.0","0","0","78411","","null","","","null","8","","","","","","","","","","","","","","","",""
"","ITI","","html-keyboard-response","66","160049","0.0-1.0-81.0","0","0","78411","","null","","","null","8","","","","","","","","","","","","","","","NaN",""
"","S1","","html-keyboard-response","67","160300","0.0-1.0-83.0","0","0","78411","","null","","","null","9","","","","","","","","","","","","","","","",""
"","ISI","","html-keyboard-response","68","161302","0.0-1.0-84.0","0","0","78411","","null","","","null","9","NaN","","","","","","","","","","","","","","",""
"","S2","","html-keyboard-response","69","161554","0.0-1.0-85.0","0","0","78411","","null","","","null","9","","NaN","","","","","","","","","","","","","",""
"","response","","html-keyboard-response","70","161999","0.0-1.0-86.0-0.0","0","0","78411","","445","","","75","9","","","1","9","training","adjacent","DE","4","5","L.jpg","Q.jpg","1","1","1","",""
"","feedback","","html-keyboard-response","71","163001","0.0-1.0-87.0-0.0","0","0","78411","","null","","","null","9","","","","","","","","","","","","","","","",""
"","ITI","","html-keyboard-response","72","164014","0.0-1.0-90.0","0","0","78411","","null","","","null","9","","","","","","","","","","","","","","","NaN",""
"","S1","","html-keyboard-response","73","164266","0.0-1.0-92.0","0","0","78411","","null","","","null","10","","","","","","","","","","","","","","","",""
"","ISI","","html-keyboard-response","74","165267","0.0-1.0-93.0","0","0","78411","","null","","","null","10","NaN","","","","","","","","","","","","","","",""
"","S2","","html-keyboard-response","75","165519","0.0-1.0-94.0","0","0","78411","","null","","","null","10","","NaN","","","","","","","","","","","","","",""
"","response","","html-keyboard-response","76","165824","0.0-1.0-95.0-0.0","0","0","78411","","304","","","75","10","","","1","10","training","adjacent","GF","7","6","M.jpg","O.jpg","1","0","0","",""
"","feedback","","html-keyboard-response","77","166834","0.0-1.0-96.0-0.0","0","0","78411","","null","","","null","10","","","","","","","","","","","","","","","",""
"","time_out","","html-keyboard-response","78","168836","0.0-1.0-98.0-0.0","0","0","78411","","null","","","null","10","","","","","","","","","","","","","","","",""
"","ITI","","html-keyboard-response","79","169837","0.0-1.0-99.0","0","0","78411","","null","","","null","10","","","","","","","","","","","","","","","NaN",""
"","S1","","html-keyboard-response","80","170089","0.0-1.0-101.0","0","0","78411","","null","","","null","11","","","","","","","","","","","","","","","",""
"","ISI","","html-keyboard-response","81","171091","0.0-1.0-102.0","0","0","78411","","null","","","null","11","NaN","","","","","","","","","","","","","","",""
"","S2","","html-keyboard-response","82","171343","0.0-1.0-103.0","0","0","78411","","null","","","null","11","","NaN","","","","","","","","","","","","","",""
"","response","","html-keyboard-response","83","171663","0.0-1.0-104.0-0.0","0","0","78411","","319","","","68","11","","","1","11","training","adjacent","EF","5","6","Q.jpg","O.jpg","0","1","0","",""
"","feedback","","html-keyboard-response","84","172665","0.0-1.0-105.0-0.0","0","0","78411","","null","","","null","11","","","","","","","","","","","","","","","",""
"","time_out","","html-keyboard-response","85","174667","0.0-1.0-107.0-0.0","0","0","78411","","null","","","null","11","","","","","","","","","","","","","","","",""
"","ITI","","html-keyboard-response","86","175669","0.0-1.0-108.0","0","0","78411","","null","","","null","11","","","","","","","","","","","","","","","NaN",""
"","S1","","html-keyboard-response","87","175935","0.0-1.0-110.0","0","0","78411","","null","","","null","12","","","","","","","","","","","","","","","",""
"","ISI","","html-keyboard-response","88","176950","0.0-1.0-111.0","0","0","78411","","null","","","null","12","NaN","","","","","","","","","","","","","","",""
"","S2","","html-keyboard-response","89","177202","0.0-1.0-112.0","0","0","78411","","null","","","null","12","","NaN","","","","","","","","","","","","","",""
"","response","","html-keyboard-response","90","177661","0.0-1.0-113.0-0.0","0","0","78411","","459","","","68","12","","","1","12","training","adjacent","FE","6","5","O.jpg","Q.jpg","0","0","1","",""
"","feedback","","html-keyboard-response","91","178672","0.0-1.0-114.0-0.0","0","0","78411","","null","","","null","12","","","","","","","","","","","","","","","",""
"","ITI","","html-keyboard-response","92","179675","0.0-1.0-117.0","0","0","78411","","null","","","null","12","","","","","","","","","","","","","","","NaN",""
"","S1","","html-keyboard-response","93","179927","0.0-1.0-119.0","0","0","78411","","null","","","null","13","","","","","","","","","","","","","","","",""
"","ISI","","html-keyboard-response","94","180929","0.0-1.0-120.0","0","0","78411","","null","","","null","13","NaN","","","","","","","","","","","","","","",""
"","S2","","html-keyboard-response","95","181180","0.0-1.0-121.0","0","0","78411","","null","","","null","13","","NaN","","","","","","","","","","","","","",""
"","response","","html-keyboard-response","96","181484","0.0-1.0-122.0-0.0","0","0","78411","","303","","","68","13","","","1","13","training","adjacent","FG","6","7","O.jpg","M.jpg","0","1","0","",""
"","feedback","","html-keyboard-response","97","182485","0.0-1.0-123.0-0.0","0","0","78411","","null","","","null","13","","","","","","","","","","","","","","","",""
"","time_out","","html-keyboard-response","98","184487","0.0-1.0-125.0-0.0","0","0","78411","","null","","","null","13","","","","","","","","","","","","","","","",""
"","ITI","","html-keyboard-response","99","185490","0.0-1.0-126.0","0","0","78411","","null","","","null","13","","","","","","","","","","","","","","","NaN",""
"","S1","","html-keyboard-response","100","185742","0.0-1.0-128.0","0","0","78411","","null","","","null","14","","","","","","","","","","","","","","","",""
"","ISI","","html-keyboard-response","101","186743","0.0-1.0-129.0","0","0","78411","","null","","","null","14","NaN","","","","","","","","","","","","","","",""
"","S2","","html-keyboard-response","102","186995","0.0-1.0-130.0","0","0","78411","","null","","","null","14","","NaN","","","","","","","","","","","","","",""
"","response","","html-keyboard-response","103","187321","0.0-1.0-131.0-0.0","0","0","78411","","325","","","75","14","","","1","14","training","adjacent","FG","6","7","O.jpg","M.jpg","1","1","1","",""
"","feedback","","html-keyboard-response","104","188322","0.0-1.0-132.0-0.0","0","0","78411","","null","","","null","14","","","","","","","","","","","","","","","",""
"","ITI","","html-keyboard-response","105","189326","0.0-1.0-135.0","0","0","78411","","null","","","null","14","","","","","","","","","","","","","","","NaN",""
"","S1","","html-keyboard-response","106","189577","0.0-1.0-137.0","0","0","78411","","null","","","null","15","","","","","","","","","","","","","","","",""
"","ISI","","html-keyboard-response","107","190578","0.0-1.0-138.0","0","0","78411","","null","","","null","15","NaN","","","","","","","","","","","","","","",""
"","S2","","html-keyboard-response","108","190831","0.0-1.0-139.0","0","0","78411","","null","","","null","15","","NaN","","","","","","","","","","","","","",""
"","response","","html-keyboard-response","109","191212","0.0-1.0-140.0-0.0","0","0","78411","","380","","","75","15","","","1","15","training","adjacent","DE","4","5","L.jpg","Q.jpg","1","1","1","",""
"","feedback","","html-keyboard-response","110","192214","0.0-1.0-141.0-0.0","0","0","78411","","null","","","null","15","","","","","","","","","","","","","","","",""
"","ITI","","html-keyboard-response","111","193216","0.0-1.0-144.0","0","0","78411","","null","","","null","15","","","","","","","","","","","","","","","NaN",""
"","S1","","html-keyboard-response","112","193473","0.0-1.0-146.0","0","0","78411","","null","","","null","16","","","","","","","","","","","","","","","",""
"","ISI","","html-keyboard-response","113","194475","0.0-1.0-147.0","0","0","78411","","null","","","null","16","NaN","","","","","","","","","","","","","","",""
"","S2","","html-keyboard-response","114","194727","0.0-1.0-148.0","0","0","78411","","null","","","null","16","","NaN","","","","","","","","","","","","","",""
"","response","","html-keyboard-response","115","195251","0.0-1.0-149.0-0.0","0","0","78411","","523","","","68","16","","","1","16","training","adjacent","FE","6","5","O.jpg","Q.jpg","0","0","1","",""
"","feedback","","html-keyboard-response","116","196253","0.0-1.0-150.0-0.0","0","0","78411","","null","","","null","16","","","","","","","","","","","","","","","",""
"","ITI","","html-keyboard-response","117","197255","0.0-1.0-153.0","0","0","78411","","null","","","null","16","","","","","","","","","","","","","","","NaN",""
"","S1","","html-keyboard-response","118","197507","0.0-1.0-155.0","0","0","78411","","null","","","null","17","","","","","","","","","","","","","","","",""
"","ISI","","html-keyboard-response","119","198509","0.0-1.0-156.0","0","0","78411","","null","","","null","17","NaN","","","","","","","","","","","","","","",""
"","S2","","html-keyboard-response","120","198759","0.0-1.0-157.0","0","0","78411","","null","","","null","17","","NaN","","","","","","","","","","","","","",""
"","response","","html-keyboard-response","121","199320","0.0-1.0-158.0-0.0","0","0","78411","","559","","","68","17","","","1","17","training","adjacent","BA","2","1","N.jpg","P.jpg","0","0","1","",""
"","feedback","","html-keyboard-response","122","200322","0.0-1.0-159.0-0.0","0","0","78411","","null","","","null","17","","","","","","","","","","","","","","","",""
"","ITI","","html-keyboard-response","123","201323","0.0-1.0-162.0","0","0","78411","","null","","","null","17","","","","","","","","","","","","","","","NaN",""
"","S1","","html-keyboard-response","124","201576","0.0-1.0-164.0","0","0","78411","","null","","","null","18","","","","","","","","","","","","","","","",""
"","ISI","","html-keyboard-response","125","202578","0.0-1.0-165.0","0","0","78411","","null","","","null","18","NaN","","","","","","","","","","","","","","",""
"","S2","","html-keyboard-response","126","202828","0.0-1.0-166.0","0","0","78411","","null","","","null","18","","NaN","","","","","","","","","","","","","",""
"","response","","html-keyboard-response","127","203668","0.0-1.0-167.0-0.0","0","0","78411","","838","","","75","18","","","1","18","training","adjacent","AB","1","2","P.jpg","N.jpg","1","1","1","",""
"","feedback","","html-keyboard-response","128","204670","0.0-1.0-168.0-0.0","0","0","78411","","null","","","null","18","","","","","","","","","","","","","","","",""
"","ITI","","html-keyboard-response","129","205673","0.0-1.0-171.0","0","0","78411","","null","","","null","18","","","","","","","","","","","","","","","NaN",""
"","S1","","html-keyboard-response","130","205925","0.0-1.0-173.0","0","0","78411","","null","","","null","19","","","","","","","","","","","","","","","",""
"","ISI","","html-keyboard-response","131","206932","0.0-1.0-174.0","0","0","78411","","null","","","null","19","NaN","","","","","","","","","","","","","","",""
"","S2","","html-keyboard-response","132","207184","0.0-1.0-175.0","0","0","78411","","null","","","null","19","","NaN","","","","","","","","","","","","","",""
"","response","","html-keyboard-response","133","207655","0.0-1.0-176.0-0.0","0","0","78411","","470","","","75","19","","","1","19","training","adjacent","DE","4","5","L.jpg","Q.jpg","1","1","1","",""
"","feedback","","html-keyboard-response","134","208656","0.0-1.0-177.0-0.0","0","0","78411","","null","","","null","19","","","","","","","","","","","","","","","",""
"","ITI","","html-keyboard-response","135","209657","0.0-1.0-180.0","0","0","78411","","null","","","null","19","","","","","","","","","","","","","","","NaN",""
"","S1","","html-keyboard-response","136","209912","0.0-1.0-182.0","0","0","78411","","null","","","null","20","","","","","","","","","","","","","","","",""
"","ISI","","html-keyboard-response","137","210914","0.0-1.0-183.0","0","0","78411","","null","","","null","20","NaN","","","","","","","","","","","","","","",""
"","S2","","html-keyboard-response","138","211166","0.0-1.0-184.0","0","0","78411","","null","","","null","20","","NaN","","","","","","","","","","","","","",""
"","response","","html-keyboard-response","139","211712","0.0-1.0-185.0-0.0","0","0","78411","","546","","","75","20","","","1","20","training","adjacent","BC","2","3","N.jpg","R.jpg","1","1","1","",""
"","feedback","","html-keyboard-response","140","212714","0.0-1.0-186.0-0.0","0","0","78411","","null","","","null","20","","","","","","","","","","","","","","","",""
"","ITI","","html-keyboard-response","141","213716","0.0-1.0-189.0","0","0","78411","","null","","","null","20","","","","","","","","","","","","","","","NaN",""
"","S1","","html-keyboard-response","142","213968","0.0-1.0-191.0","0","0","78411","","null","","","null","21","","","","","","","","","","","","","","","",""
"","ISI","","html-keyboard-response","143","214970","0.0-1.0-192.0","0","0","78411","","null","","","null","21","NaN","","","","","","","","","","","","","","",""
"","S2","","html-keyboard-response","144","215223","0.0-1.0-193.0","0","0","78411","","null","","","null","21","","NaN","","","","","","","","","","","","","",""
"","response","","html-keyboard-response","145","216167","0.0-1.0-194.0-0.0","0","0","78411","","943","","","68","21","","","1","21","training","adjacent","GF","7","6","M.jpg","O.jpg","0","0","1","",""
"","feedback","","html-keyboard-response","146","217178","0.0-1.0-195.0-0.0","0","0","78411","","null","","","null","21","","","","","","","","","","","","","","","",""
"","ITI","","html-keyboard-response","147","218181","0.0-1.0-198.0","0","0","78411","","null","","","null","21","","","","","","","","","","","","","","","NaN",""
"","S1","","html-keyboard-response","148","218433","0.0-1.0-200.0","0","0","78411","","null","","","null","22","","","","","","","","","","","","","","","",""
"","ISI","","html-keyboard-response","149","219435","0.0-1.0-201.0","0","0","78411","","null","","","null","22","NaN","","","","","","","","","","","","","","",""
"","S2","","html-keyboard-response","150","219686","0.0-1.0-202.0","0","0","78411","","null","","","null","22","","NaN","","","","","","","","","","","","","",""
"","response","","html-keyboard-response","151","220522","0.0-1.0-203.0-0.0","0","0","78411","","834","","","75","22","","","1","22","training","adjacent","AB","1","2","P.jpg","N.jpg","1","1","1","",""
"","feedback","","html-keyboard-response","152","221524","0.0-1.0-204.0-0.0","0","0","78411","","null","","","null","22","","","","","","","","","","","","","","","",""
"","ITI","","html-keyboard-response","153","222541","0.0-1.0-207.0","0","0","78411","","null","","","null","22","","","","","","","","","","","","","","","NaN",""
"","S1","","html-keyboard-response","154","222793","0.0-1.0-209.0","0","0","78411","","null","","","null","23","","","","","","","","","","","","","","","",""
"","ISI","","html-keyboard-response","155","223794","0.0-1.0-210.0","0","0","78411","","null","","","null","23","NaN","","","","","","","","","","","","","","",""
"","S2","","html-keyboard-response","156","224049","0.0-1.0-211.0","0","0","78411","","null","","","null","23","","NaN","","","","","","","","","","","","","",""
"","response","","html-keyboard-response","157","224656","0.0-1.0-212.0-0.0","0","0","78411","","607","","","68","23","","","1","23","training","adjacent","CB","3","2","R.jpg","N.jpg","0","0","1","",""
"","feedback","","html-keyboard-response","158","225658","0.0-1.0-213.0-0.0","0","0","78411","","null","","","null","23","","","","","","","","","","","","","","","",""
"","ITI","","html-keyboard-response","159","226659","0.0-1.0-216.0","0","0","78411","","null","","","null","23","","","","","","","","","","","","","","","NaN",""
"","S1","","html-keyboard-response","160","226911","0.0-1.0-218.0","0","0","78411","","null","","","null","24","","","","","","","","","","","","","","","",""
"","ISI","","html-keyboard-response","161","227914","0.0-1.0-219.0","0","0","78411","","null","","","null","24","NaN","","","","","","","","","","","","","","",""
"","S2","","html-keyboard-response","162","228166","0.0-1.0-220.0","0","0","78411","","null","","","null","24","","NaN","","","","","","","","","","","","","",""
"","response","","html-keyboard-response","163","229296","0.0-1.0-221.0-0.0","0","0","78411","","1128","","","75","24","","","1","24","training","adjacent","CD","3","4","R.jpg","L.jpg","1","1","1","",""
"","feedback","","html-keyboard-response","164","230297","0.0-1.0-222.0-0.0","0","0","78411","","null","","","null","24","","","","","","","","","","","","","","","",""
"","ITI","","html-keyboard-response","165","231298","0.0-1.0-225.0","0","0","78411","","null","","","null","24","","","","","","","","","","","","","","","NaN",""
"","S1","","html-keyboard-response","166","231549","0.0-1.0-227.0","0","0","78411","","null","","","null","25","","","","","","","","","","","","","","","",""
"","ISI","","html-keyboard-response","167","232550","0.0-1.0-228.0","0","0","78411","","null","","","null","25","NaN","","","","","","","","","","","","","","",""
"","S2","","html-keyboard-response","168","232801","0.0-1.0-229.0","0","0","78411","","null","","","null","25","","NaN","","","","","","","","","","","","","",""
"","response","","html-keyboard-response","169","233908","0.0-1.0-230.0-0.0","0","0","78411","","1106","","","75","25","","","1","25","training","adjacent","FE","6","5","O.jpg","Q.jpg","1","0","0","",""
"","feedback","","html-keyboard-response","170","234911","0.0-1.0-231.0-0.0","0","0","78411","","null","","","null","25","","","","","","","","","","","","","","","",""
"","time_out","","html-keyboard-response","171","236912","0.0-1.0-233.0-0.0","0","0","78411","","null","","","null","25","","","","","","","","","","","","","","","",""
"","ITI","","html-keyboard-response","172","237914","0.0-1.0-234.0","0","0","78411","","null","","","null","25","","","","","","","","","","","","","","","NaN",""
"","S1","","html-keyboard-response","173","238166","0.0-1.0-236.0","0","0","78411","","null","","","null","26","","","","","","","","","","","","","","","",""
"","ISI","","html-keyboard-response","174","239168","0.0-1.0-237.0","0","0","78411","","null","","","null","26","NaN","","","","","","","","","","","","","","",""
"","S2","","html-keyboard-response","175","239419","0.0-1.0-238.0","0","0","78411","","null","","","null","26","","NaN","","","","","","","","","","","","","",""
"","response","","html-keyboard-response","176","239998","0.0-1.0-239.0-0.0","0","0","78411","","579","","","68","26","","","1","26","training","adjacent","CB","3","2","R.jpg","N.jpg","0","0","1","",""
"","feedback","","html-keyboard-response","177","241001","0.0-1.0-240.0-0.0","0","0","78411","","null","","","null","26","","","","","","","","","","","","","","","",""
"","ITI","","html-keyboard-response","178","242004","0.0-1.0-243.0","0","0","78411","","null","","","null","26","","","","","","","","","","","","","","","NaN",""
"","S1","","html-keyboard-response","179","242256","0.0-1.0-245.0","0","0","78411","","null","","","null","27","","","","","","","","","","","","","","","",""
"","ISI","","html-keyboard-response","180","243258","0.0-1.0-246.0","0","0","78411","","null","","","null","27","NaN","","","","","","","","","","","","","","",""
"","S2","","html-keyboard-response","181","243509","0.0-1.0-247.0","0","0","78411","","null","","","null","27","","NaN","","","","","","","","","","","","","",""
"","response","","html-keyboard-response","182","244005","0.0-1.0-248.0-0.0","0","0","78411","","496","","","75","27","","","1","27","training","adjacent","BC","2","3","N.jpg","R.jpg","1","1","1","",""
"","feedback","","html-keyboard-response","183","245006","0.0-1.0-249.0-0.0","0","0","78411","","null","","","null","27","","","","","","","","","","","","","","","",""
"","ITI","","html-keyboard-response","184","246017","0.0-1.0-252.0","0","0","78411","","null","","","null","27","","","","","","","","","","","","","","","NaN",""
"","S1","","html-keyboard-response","185","246269","0.0-1.0-254.0","0","0","78411","","null","","","null","28","","","","","","","","","","","","","","","",""
"","ISI","","html-keyboard-response","186","247270","0.0-1.0-255.0","0","0","78411","","null","","","null","28","NaN","","","","","","","","","","","","","","",""
"","S2","","html-keyboard-response","187","247522","0.0-1.0-256.0","0","0","78411","","null","","","null","28","","NaN","","","","","","","","","","","","","",""
"","response","","html-keyboard-response","188","248093","0.0-1.0-257.0-0.0","0","0","78411","","570","","","68","28","","","1","28","training","adjacent","AB","1","2","P.jpg","N.jpg","0","1","0","",""
"","feedback","","html-keyboard-response","189","249096","0.0-1.0-258.0-0.0","0","0","78411","","null","","","null","28","","","","","","","","","","","","","","","",""
"","time_out","","html-keyboard-response","190","251113","0.0-1.0-260.0-0.0","0","0","78411","","null","","","null","28","","","","","","","","","","","","","","","",""
"","ITI","","html-keyboard-response","191","252115","0.0-1.0-261.0","0","0","78411","","null","","","null","28","","","","","","","","","","","","","","","NaN",""
"","S1","","html-keyboard-response","192","252367","0.0-1.0-263.0","0","0","78411","","null","","","null","29","","","","","","","","","","","","","","","",""
"","ISI","","html-keyboard-response","193","253369","0.0-1.0-264.0","0","0","78411","","null","","","null","29","NaN","","","","","","","","","","","","","","",""
"","S2","","html-keyboard-response","194","253621","0.0-1.0-265.0","0","0","78411","","null","","","null","29","","NaN","","","","","","","","","","","","","",""
"","response","","html-keyboard-response","195","254817","0.0-1.0-266.0-0.0","0","0","78411","","1196","","","68","29","","","1","29","training","adjacent","DE","4","5","L.jpg","Q.jpg","0","1","0","",""
"","feedback","","html-keyboard-response","196","255819","0.0-1.0-267.0-0.0","0","0","78411","","null","","","null","29","","","","","","","","","","","","","","","",""
"","time_out","","html-keyboard-response","197","257820","0.0-1.0-269.0-0.0","0","0","78411","","null","","","null","29","","","","","","","","","","","","","","","",""
"","ITI","","html-keyboard-response","198","258822","0.0-1.0-270.0","0","0","78411","","null","","","null","29","","","","","","","","","","","","","","","NaN",""
"","S1","","html-keyboard-response","199","259074","0.0-1.0-272.0","0","0","78411","","null","","","null","30","","","","","","","","","","","","","","","",""
"","ISI","","html-keyboard-response","200","260077","0.0-1.0-273.0","0","0","78411","","null","","","null","30","NaN","","","","","","","","","","","","","","",""
"","S2","","html-keyboard-response","201","260328","0.0-1.0-274.0","0","0","78411","","null","","","null","30","","NaN","","","","","","","","","","","","","",""
"","response","","html-keyboard-response","202","261179","0.0-1.0-275.0-0.0","0","0","78411","","849","","","75","30","","","1","30","training","adjacent","CD","3","4","R.jpg","L.jpg","1","1","1","",""
"","feedback","","html-keyboard-response","203","262181","0.0-1.0-276.0-0.0","0","0","78411","","null","","","null","30","","","","","","","","","","","","","","","",""
"","ITI","","html-keyboard-response","204","263182","0.0-1.0-279.0","0","0","78411","","null","","","null","30","","","","","","","","","","","","","","","NaN",""
"","S1","","html-keyboard-response","205","263434","0.0-1.0-281.0","0","0","78411","","null","","","null","31","","","","","","","","","","","","","","","",""
"","ISI","","html-keyboard-response","206","264436","0.0-1.0-282.0","0","0","78411","","null","","","null","31","NaN","","","","","","","","","","","","","","",""
"","S2","","html-keyboard-response","207","264687","0.0-1.0-283.0","0","0","78411","","null","","","null","31","","NaN","","","","","","","","","","","","","",""
"","response","","html-keyboard-response","208","265279","0.0-1.0-284.0-0.0","0","0","78411","","591","","","75","31","","","1","31","training","adjacent","DC","4","3","L.jpg","R.jpg","1","0","0","",""
"","feedback","","html-keyboard-response","209","266291","0.0-1.0-285.0-0.0","0","0","78411","","null","","","null","31","","","","","","","","","","","","","","","",""
"","time_out","","html-keyboard-response","210","268292","0.0-1.0-287.0-0.0","0","0","78411","","null","","","null","31","","","","","","","","","","","","","","","",""
"","ITI","","html-keyboard-response","211","269294","0.0-1.0-288.0","0","0","78411","","null","","","null","31","","","","","","","","","","","","","","","NaN",""
"","S1","","html-keyboard-response","212","269546","0.0-1.0-290.0","0","0","78411","","null","","","null","32","","","","","","","","","","","","","","","",""
"","ISI","","html-keyboard-response","213","270548","0.0-1.0-291.0","0","0","78411","","null","","","null","32","NaN","","","","","","","","","","","","","","",""
"","S2","","html-keyboard-response","214","270800","0.0-1.0-292.0","0","0","78411","","null","","","null","32","","NaN","","","","","","","","","","","","","",""
"","response","","html-keyboard-response","215","271171","0.0-1.0-293.0-0.0","0","0","78411","","371","","","75","32","","","1","32","training","adjacent","DC","4","3","L.jpg","R.jpg","1","0","0","",""
"","feedback","","html-keyboard-response","216","272173","0.0-1.0-294.0-0.0","0","0","78411","","null","","","null","32","","","","","","","","","","","","","","","",""
"","time_out","","html-keyboard-response","217","274175","0.0-1.0-296.0-0.0","0","0","78411","","null","","","null","32","","","","","","","","","","","","","","","",""
"","ITI","","html-keyboard-response","218","275177","0.0-1.0-297.0","0","0","78411","","null","","","null","32","","","","","","","","","","","","","","","NaN",""
"","S1","","html-keyboard-response","219","275429","0.0-1.0-299.0","0","0","78411","","null","","","null","33","","","","","","","","","","","","","","","",""
"","ISI","","html-keyboard-response","220","276443","0.0-1.0-300.0","0","0","78411","","null","","","null","33","NaN","","","","","","","","","","","","","","",""
"","S2","","html-keyboard-response","221","276695","0.0-1.0-301.0","0","0","78411","","null","","","null","33","","NaN","","","","","","","","","","","","","",""
"","response","","html-keyboard-response","222","277832","0.0-1.0-302.0-0.0","0","0","78411","","1137","","","68","33","","","1","33","training","adjacent","BC","2","3","N.jpg","R.jpg","0","1","0","",""
"","feedback","","html-keyboard-response","223","278834","0.0-1.0-303.0-0.0","0","0","78411","","null","","","null","33","","","","","","","","","","","","","","","",""
"","time_out","","html-keyboard-response","224","280836","0.0-1.0-305.0-0.0","0","0","78411","","null","","","null","33","","","","","","","","","","","","","","","",""
"","ITI","","html-keyboard-response","225","281838","0.0-1.0-306.0","0","0","78411","","null","","","null","33","","","","","","","","","","","","","","","NaN",""
"","S1","","html-keyboard-response","226","282095","0.0-1.0-308.0","0","0","78411","","null","","","null","34","","","","","","","","","","","","","","","",""
"","ISI","","html-keyboard-response","227","283097","0.0-1.0-309.0","0","0","78411","","null","","","null","34","NaN","","","","","","","","","","","","","","",""
"","S2","","html-keyboard-response","228","283349","0.0-1.0-310.0","0","0","78411","","null","","","null","34","","NaN","","","","","","","","","","","","","",""
"","response","","html-keyboard-response","229","284308","0.0-1.0-311.0-0.0","0","0","78411","","957","","","68","34","","","1","34","training","adjacent","GF","7","6","M.jpg","O.jpg","0","0","1","",""
"","feedback","","html-keyboard-response","230","285310","0.0-1.0-312.0-0.0","0","0","78411","","null","","","null","34","","","","","","","","","","","","","","","",""
"","ITI","","html-keyboard-response","231","286313","0.0-1.0-315.0","0","0","78411","","null","","","null","34","","","","","","","","","","","","","","","NaN",""
"","S1","","html-keyboard-response","232","286565","0.0-1.0-317.0","0","0","78411","","null","","","null","35","","","","","","","","","","","","","","","",""
"","ISI","","html-keyboard-response","233","287566","0.0-1.0-318.0","0","0","78411","","null","","","null","35","NaN","","","","","","","","","","","","","","",""
"","S2","","html-keyboard-response","234","287818","0.0-1.0-319.0","0","0","78411","","null","","","null","35","","NaN","","","","","","","","","","","","","",""
"","response","","html-keyboard-response","235","288129","0.0-1.0-320.0-0.0","0","0","78411","","310","","","75","35","","","1","35","training","adjacent","BA","2","1","N.jpg","P.jpg","1","0","0","",""
"","feedback","","html-keyboard-response","236","289131","0.0-1.0-321.0-0.0","0","0","78411","","null","","","null","35","","","","","","","","","","","","","","","",""
"","time_out","","html-keyboard-response","237","291147","0.0-1.0-323.0-0.0","0","0","78411","","null","","","null","35","","","","","","","","","","","","","","","",""
"","ITI","","html-keyboard-response","238","292149","0.0-1.0-324.0","0","0","78411","","null","","","null","35","","","","","","","","","","","","","","","NaN",""
"","S1","","html-keyboard-response","239","292401","0.0-1.0-326.0","0","0","78411","","null","","","null","36","","","","","","","","","","","","","","","",""
"","ISI","","html-keyboard-response","240","293402","0.0-1.0-327.0","0","0","78411","","null","","","null","36","NaN","","","","","","","","","","","","","","",""
"","S2","","html-keyboard-response","241","293654","0.0-1.0-328.0","0","0","78411","","null","","","null","36","","NaN","","","","","","","","","","","","","",""
"","response","","html-keyboard-response","242","294619","0.0-1.0-329.0-0.0","0","0","78411","","964","","","68","36","","","1","36","training","adjacent","EF","5","6","Q.jpg","O.jpg","0","1","0","",""
"","feedback","","html-keyboard-response","243","295621","0.0-1.0-330.0-0.0","0","0","78411","","null","","","null","36","","","","","","","","","","","","","","","",""
"","time_out","","html-keyboard-response","244","297623","0.0-1.0-332.0-0.0","0","0","78411","","null","","","null","36","","","","","","","","","","","","","","","",""
"","ITI","","html-keyboard-response","245","298626","0.0-1.0-333.0","0","0","78411","","null","","","null","36","","","","","","","","","","","","","","","NaN",""
"","S1","","html-keyboard-response","246","298877","0.0-1.0-335.0","0","0","78411","","null","","","null","37","","","","","","","","","","","","","","","",""
"","ISI","","html-keyboard-response","247","299879","0.0-1.0-336.0","0","0","78411","","null","","","null","37","NaN","","","","","","","","","","","","","","",""
"","S2","","html-keyboard-response","248","300131","0.0-1.0-337.0","0","0","78411","","null","","","null","37","","NaN","","","","","","","","","","","","","",""
"","response","","html-keyboard-response","249","300724","0.0-1.0-338.0-0.0","0","0","78411","","591","","","75","37","","","1","37","training","adjacent","ED","5","4","Q.jpg","L.jpg","1","0","0","",""
"","feedback","","html-keyboard-response","250","301735","0.0-1.0-339.0-0.0","0","0","78411","","null","","","null","37","","","","","","","","","","","","","","","",""
"","time_out","","html-keyboard-response","251","303737","0.0-1.0-341.0-0.0","0","0","78411","","null","","","null","37","","","","","","","","","","","","","","","",""
"","ITI","","html-keyboard-response","252","304740","0.0-1.0-342.0","0","0","78411","","null","","","null","37","","","","","","","","","","","","","","","NaN",""
"","S1","","html-keyboard-response","253","305005","0.0-1.0-344.0","0","0","78411","","null","","","null","38","","","","","","","","","","","","","","","",""
"","ISI","","html-keyboard-response","254","306007","0.0-1.0-345.0","0","0","78411","","null","","","null","38","NaN","","","","","","","","","","","","","","",""
"","S2","","html-keyboard-response","255","306260","0.0-1.0-346.0","0","0","78411","","null","","","null","38","","NaN","","","","","","","","","","","","","",""
"","response","","html-keyboard-response","256","307260","0.0-1.0-347.0-0.0","0","0","78411","","999","","","75","38","","","1","38","training","adjacent","CB","3","2","R.jpg","N.jpg","1","0","0","",""
"","feedback","","html-keyboard-response","257","308266","0.0-1.0-348.0-0.0","0","0","78411","","null","","","null","38","","","","","","","","","","","","","","","",""
"","time_out","","html-keyboard-response","258","310268","0.0-1.0-350.0-0.0","0","0","78411","","null","","","null","38","","","","","","","","","","","","","","","",""
"","ITI","","html-keyboard-response","259","311269","0.0-1.0-351.0","0","0","78411","","null","","","null","38","","","","","","","","","","","","","","","NaN",""
"","S1","","html-keyboard-response","260","311521","0.0-1.0-353.0","0","0","78411","","null","","","null","39","","","","","","","","","","","","","","","",""
"","ISI","","html-keyboard-response","261","312523","0.0-1.0-354.0","0","0","78411","","null","","","null","39","NaN","","","","","","","","","","","","","","",""
"","S2","","html-keyboard-response","262","312775","0.0-1.0-355.0","0","0","78411","","null","","","null","39","","NaN","","","","","","","","","","","","","",""
"","response","","html-keyboard-response","263","313658","0.0-1.0-356.0-0.0","0","0","78411","","883","","","75","39","","","1","39","training","adjacent","FG","6","7","O.jpg","M.jpg","1","1","1","",""
"","feedback","","html-keyboard-response","264","314659","0.0-1.0-357.0-0.0","0","0","78411","","null","","","null","39","","","","","","","","","","","","","","","",""
"","ITI","","html-keyboard-response","265","315660","0.0-1.0-360.0","0","0","78411","","null","","","null","39","","","","","","","","","","","","","","","NaN",""
"","S1","","html-keyboard-response","266","315912","0.0-1.0-362.0","0","0","78411","","null","","","null","40","","","","","","","","","","","","","","","",""
"","ISI","","html-keyboard-response","267","316914","0.0-1.0-363.0","0","0","78411","","null","","","null","40","NaN","","","","","","","","","","","","","","",""
"","S2","","html-keyboard-response","268","317166","0.0-1.0-364.0","0","0","78411","","null","","","null","40","","NaN","","","","","","","","","","","","","",""
"","response","","html-keyboard-response","269","318483","0.0-1.0-365.0-0.0","0","0","78411","","1317","","","68","40","","","1","40","training","adjacent","DC","4","3","L.jpg","R.jpg","0","0","1","",""
"","feedback","","html-keyboard-response","270","319485","0.0-1.0-366.0-0.0","0","0","78411","","null","","","null","40","","","","","","","","","","","","","","","",""
"","ITI","","html-keyboard-response","271","320487","0.0-1.0-369.0","0","0","78411","","null","","","null","40","","","","","","","","","","","","","","","NaN",""
"","S1","","html-keyboard-response","272","320739","0.0-1.0-371.0","0","0","78411","","null","","","null","41","","","","","","","","","","","","","","","",""
"","ISI","","html-keyboard-response","273","321740","0.0-1.0-372.0","0","0","78411","","null","","","null","41","NaN","","","","","","","","","","","","","","",""
"","S2","","html-keyboard-response","274","321992","0.0-1.0-373.0","0","0","78411","","null","","","null","41","","NaN","","","","","","","","","","","","","",""
"","response","","html-keyboard-response","275","322770","0.0-1.0-374.0-0.0","0","0","78411","","777","","","75","41","","","1","41","training","adjacent","ED","5","4","Q.jpg","L.jpg","1","0","0","",""
"","feedback","","html-keyboard-response","276","323772","0.0-1.0-375.0-0.0","0","0","78411","","null","","","null","41","","","","","","","","","","","","","","","",""
"","time_out","","html-keyboard-response","277","325774","0.0-1.0-377.0-0.0","0","0","78411","","null","","","null","41","","","","","","","","","","","","","","","",""
"","ITI","","html-keyboard-response","278","326776","0.0-1.0-378.0","0","0","78411","","null","","","null","41","","","","","","","","","","","","","","","NaN",""
"","S1","","html-keyboard-response","279","327029","0.0-1.0-380.0","0","0","78411","","null","","","null","42","","","","","","","","","","","","","","","",""
"","ISI","","html-keyboard-response","280","328030","0.0-1.0-381.0","0","0","78411","","null","","","null","42","NaN","","","","","","","","","","","","","","",""
"","S2","","html-keyboard-response","281","328290","0.0-1.0-382.0","0","0","78411","","null","","","null","42","","NaN","","","","","","","","","","","","","",""
"","response","","html-keyboard-response","282","328884","0.0-1.0-383.0-0.0","0","0","78411","","592","","","68","42","","","1","42","training","adjacent","BA","2","1","N.jpg","P.jpg","0","0","1","",""
"","feedback","","html-keyboard-response","283","329886","0.0-1.0-384.0-0.0","0","0","78411","","null","","","null","42","","","","","","","","","","","","","","","",""
"","ITI","","html-keyboard-response","284","330888","0.0-1.0-387.0","0","0","78411","","null","","","null","42","","","","","","","","","","","","","","","NaN",""
"","S1","","html-keyboard-response","285","331141","0.0-1.0-389.0","0","0","78411","","null","","","null","43","","","","","","","","","","","","","","","",""
"","ISI","","html-keyboard-response","286","332142","0.0-1.0-390.0","0","0","78411","","null","","","null","43","NaN","","","","","","","","","","","","","","",""
"","S2","","html-keyboard-response","287","332395","0.0-1.0-391.0","0","0","78411","","null","","","null","43","","NaN","","","","","","","","","","","","","",""
"","response","","html-keyboard-response","288","332660","0.0-1.0-392.0-0.0","0","0","78411","","264","","","75","43","","","1","43","training","adjacent","AB","1","2","P.jpg","N.jpg","1","1","1","",""
"","feedback","","html-keyboard-response","289","333667","0.0-1.0-393.0-0.0","0","0","78411","","null","","","null","43","","","","","","","","","","","","","","","",""
"","ITI","","html-keyboard-response","290","334669","0.0-1.0-396.0","0","0","78411","","null","","","null","43","","","","","","","","","","","","","","","NaN",""
"","S1","","html-keyboard-response","291","334921","0.0-1.0-398.0","0","0","78411","","null","","","null","44","","","","","","","","","","","","","","","",""
"","ISI","","html-keyboard-response","292","335924","0.0-1.0-399.0","0","0","78411","","null","","","null","44","NaN","","","","","","","","","","","","","","",""
"","S2","","html-keyboard-response","293","336175","0.0-1.0-400.0","0","0","78411","","null","","","null","44","","NaN","","","","","","","","","","","","","",""
"","response","","html-keyboard-response","294","336851","0.0-1.0-401.0-0.0","0","0","78411","","675","","","68","44","","","1","44","training","adjacent","CD","3","4","R.jpg","L.jpg","0","1","0","",""
"","feedback","","html-keyboard-response","295","337853","0.0-1.0-402.0-0.0","0","0","78411","","null","","","null","44","","","","","","","","","","","","","","","",""
"","time_out","","html-keyboard-response","296","339854","0.0-1.0-404.0-0.0","0","0","78411","","null","","","null","44","","","","","","","","","","","","","","","",""
"","ITI","","html-keyboard-response","297","340855","0.0-1.0-405.0","0","0","78411","","null","","","null","44","","","","","","","","","","","","","","","NaN",""
"","S1","","html-keyboard-response","298","341115","0.0-1.0-407.0","0","0","78411","","null","","","null","45","","","","","","","","","","","","","","","",""
"","ISI","","html-keyboard-response","299","342117","0.0-1.0-408.0","0","0","78411","","null","","","null","45","NaN","","","","","","","","","","","","","","",""
"","S2","","html-keyboard-response","300","342378","0.0-1.0-409.0","0","0","78411","","null","","","null","45","","NaN","","","","","","","","","","","","","",""
"","response","","html-keyboard-response","301","343319","0.0-1.0-410.0-0.0","0","0","78411","","940","","","68","45","","","1","45","training","adjacent","GF","7","6","M.jpg","O.jpg","0","0","1","",""
"","feedback","","html-keyboard-response","302","344321","0.0-1.0-411.0-0.0","0","0","78411","","null","","","null","45","","","","","","","","","","","","","","","",""
"","ITI","","html-keyboard-response","303","345323","0.0-1.0-414.0","0","0","78411","","null","","","null","45","","","","","","","","","","","","","","","NaN",""
"","S1","","html-keyboard-response","304","345575","0.0-1.0-416.0","0","0","78411","","null","","","null","46","","","","","","","","","","","","","","","",""
"","ISI","","html-keyboard-response","305","346576","0.0-1.0-417.0","0","0","78411","","null","","","null","46","NaN","","","","","","","","","","","","","","",""
"","S2","","html-keyboard-response","306","346828","0.0-1.0-418.0","0","0","78411","","null","","","null","46","","NaN","","","","","","","","","","","","","",""
"","response","","html-keyboard-response","307","347327","0.0-1.0-419.0-0.0","0","0","78411","","498","","","68","46","","","1","46","training","adjacent","EF","5","6","Q.jpg","O.jpg","0","1","0","",""
"","feedback","","html-keyboard-response","308","348329","0.0-1.0-420.0-0.0","0","0","78411","","null","","","null","46","","","","","","","","","","","","","","","",""
"","time_out","","html-keyboard-response","309","350331","0.0-1.0-422.0-0.0","0","0","78411","","null","","","null","46","","","","","","","","","","","","","","","",""
"","ITI","","html-keyboard-response","310","351333","0.0-1.0-423.0","0","0","78411","","null","","","null","46","","","","","","","","","","","","","","","NaN",""
"","S1","","html-keyboard-response","311","351585","0.0-1.0-425.0","0","0","78411","","null","","","null","47","","","","","","","","","","","","","","","",""
"","ISI","","html-keyboard-response","312","352586","0.0-1.0-426.0","0","0","78411","","null","","","null","47","NaN","","","","","","","","","","","","","","",""
"","S2","","html-keyboard-response","313","352838","0.0-1.0-427.0","0","0","78411","","null","","","null","47","","NaN","","","","","","","","","","","","","",""
"","response","","html-keyboard-response","314","353871","0.0-1.0-428.0-0.0","0","0","78411","","1032","","","68","47","","","1","47","training","adjacent","CD","3","4","R.jpg","L.jpg","0","1","0","",""
"","feedback","","html-keyboard-response","315","354873","0.0-1.0-429.0-0.0","0","0","78411","","null","","","null","47","","","","","","","","","","","","","","","",""
"","time_out","","html-keyboard-response","316","356875","0.0-1.0-431.0-0.0","0","0","78411","","null","","","null","47","","","","","","","","","","","","","","","",""
"","ITI","","html-keyboard-response","317","357876","0.0-1.0-432.0","0","0","78411","","null","","","null","47","","","","","","","","","","","","","","","NaN",""
"","block_over","","html-keyboard-response","318","361434","0.0-1.0-433.0-0.0","0","0","78411","","3558","","","32","47","","","","","","","","","","","","","","","",""
"","S1","","html-keyboard-response","319","361687","0.0-1.0-434.0","0","0","78411","","null","","","null","48","","","","","","","","","","","","","","","",""
"","ISI","","html-keyboard-response","320","362689","0.0-1.0-435.0","0","0","78411","","null","","","null","48","NaN","","","","","","","","","","","","","","",""
"","S2","","html-keyboard-response","321","362942","0.0-1.0-436.0","0","0","78411","","null","","","null","48","","NaN","","","","","","","","","","","","","",""
"","response","","html-keyboard-response","322","363594","0.0-1.0-437.0-0.0","0","0","78411","","652","","","68","48","","","2","48","training","adjacent","ED","5","4","Q.jpg","L.jpg","0","0","1","",""
"","feedback","","html-keyboard-response","323","364597","0.0-1.0-438.0-0.0","0","0","78411","","null","","","null","48","","","","","","","","","","","","","","","",""
"","ITI","","html-keyboard-response","324","365598","0.0-1.0-441.0","0","0","78411","","null","","","null","48","","","","","","","","","","","","","","","NaN",""
"","S1","","html-keyboard-response","325","365850","0.0-1.0-443.0","0","0","78411","","null","","","null","49","","","","","","","","","","","","","","","",""
"","ISI","","html-keyboard-response","326","366852","0.0-1.0-444.0","0","0","78411","","null","","","null","49","NaN","","","","","","","","","","","","","","",""
"","S2","","html-keyboard-response","327","367104","0.0-1.0-445.0","0","0","78411","","null","","","null","49","","NaN","","","","","","","","","","","","","",""
"","response","","html-keyboard-response","328","367716","0.0-1.0-446.0-0.0","0","0","78411","","611","","","75","49","","","2","49","training","adjacent","GF","7","6","M.jpg","O.jpg","1","0","0","",""
"","feedback","","html-keyboard-response","329","368718","0.0-1.0-447.0-0.0","0","0","78411","","null","","","null","49","","","","","","","","","","","","","","","",""
"","time_out","","html-keyboard-response","330","370720","0.0-1.0-449.0-0.0","0","0","78411","","null","","","null","49","","","","","","","","","","","","","","","",""
"","ITI","","html-keyboard-response","331","371722","0.0-1.0-450.0","0","0","78411","","null","","","null","49","","","","","","","","","","","","","","","NaN",""
"","S1","","html-keyboard-response","332","371975","0.0-1.0-452.0","0","0","78411","","null","","","null","50","","","","","","","","","","","","","","","",""
"","ISI","","html-keyboard-response","333","372976","0.0-1.0-453.0","0","0","78411","","null","","","null","50","NaN","","","","","","","","","","","","","","",""
"","S2","","html-keyboard-response","334","373228","0.0-1.0-454.0","0","0","78411","","null","","","null","50","","NaN","","","","","","","","","","","","","",""
"","response","","html-keyboard-response","335","373994","0.0-1.0-455.0-0.0","0","0","78411","","765","","","75","50","","","2","50","training","adjacent","EF","5","6","Q.jpg","O.jpg","1","1","1","",""
"","feedback","","html-keyboard-response","336","374996","0.0-1.0-456.0-0.0","0","0","78411","","null","","","null","50","","","","","","","","","","","","","","","",""
"","ITI","","html-keyboard-response","337","375997","0.0-1.0-459.0","0","0","78411","","null","","","null","50","","","","","","","","","","","","","","","NaN",""
"","S1","","html-keyboard-response","338","376250","0.0-1.0-461.0","0","0","78411","","null","","","null","51","","","","","","","","","","","","","","","",""
"","ISI","","html-keyboard-response","339","377251","0.0-1.0-462.0","0","0","78411","","null","","","null","51","NaN","","","","","","","","","","","","","","",""
"","S2","","html-keyboard-response","340","377504","0.0-1.0-463.0","0","0","78411","","null","","","null","51","","NaN","","","","","","","","","","","","","",""
"","response","","html-keyboard-response","341","378279","0.0-1.0-464.0-0.0","0","0","78411","","775","","","68","51","","","2","51","training","adjacent","DE","4","5","L.jpg","Q.jpg","0","1","0","",""
"","feedback","","html-keyboard-response","342","379281","0.0-1.0-465.0-0.0","0","0","78411","","null","","","null","51","","","","","","","","","","","","","","","",""
"","time_out","","html-keyboard-response","343","381283","0.0-1.0-467.0-0.0","0","0","78411","","null","","","null","51","","","","","","","","","","","","","","","",""
"","ITI","","html-keyboard-response","344","382285","0.0-1.0-468.0","0","0","78411","","null","","","null","51","","","","","","","","","","","","","","","NaN",""
"","S1","","html-keyboard-response","345","382536","0.0-1.0-470.0","0","0","78411","","null","","","null","52","","","","","","","","","","","","","","","",""
"","ISI","","html-keyboard-response","346","383538","0.0-1.0-471.0","0","0","78411","","null","","","null","52","NaN","","","","","","","","","","","","","","",""
"","S2","","html-keyboard-response","347","383790","0.0-1.0-472.0","0","0","78411","","null","","","null","52","","NaN","","","","","","","","","","","","","",""
"","response","","html-keyboard-response","348","384061","0.0-1.0-473.0-0.0","0","0","78411","","270","","","75","52","","","2","52","training","adjacent","AB","1","2","P.jpg","N.jpg","1","1","1","",""
"","feedback","","html-keyboard-response","349","385063","0.0-1.0-474.0-0.0","0","0","78411","","null","","","null","52","","","","","","","","","","","","","","","",""
"","ITI","","html-keyboard-response","350","386064","0.0-1.0-477.0","0","0","78411","","null","","","null","52","","","","","","","","","","","","","","","NaN",""
"","S1","","html-keyboard-response","351","386317","0.0-1.0-479.0","0","0","78411","","null","","","null","53","","","","","","","","","","","","","","","",""
"","ISI","","html-keyboard-response","352","387319","0.0-1.0-480.0","0","0","78411","","null","","","null","53","NaN","","","","","","","","","","","","","","",""
"","S2","","html-keyboard-response","353","387571","0.0-1.0-481.0","0","0","78411","","null","","","null","53","","NaN","","","","","","","","","","","","","",""
"","response","","html-keyboard-response","354","388227","0.0-1.0-482.0-0.0","0","0","78411","","655","","","68","53","","","2","53","training","adjacent","CB","3","2","R.jpg","N.jpg","0","0","1","",""
"","feedback","","html-keyboard-response","355","389229","0.0-1.0-483.0-0.0","0","0","78411","","null","","","null","53","","","","","","","","","","","","","","","",""
"","ITI","","html-keyboard-response","356","390231","0.0-1.0-486.0","0","0","78411","","null","","","null","53","","","","","","","","","","","","","","","NaN",""
"","S1","","html-keyboard-response","357","390483","0.0-1.0-488.0","0","0","78411","","null","","","null","54","","","","","","","","","","","","","","","",""
"","ISI","","html-keyboard-response","358","391484","0.0-1.0-489.0","0","0","78411","","null","","","null","54","NaN","","","","","","","","","","","","","","",""
"","S2","","html-keyboard-response","359","391736","0.0-1.0-490.0","0","0","78411","","null","","","null","54","","NaN","","","","","","","","","","","","","",""
"","response","","html-keyboard-response","360","392060","0.0-1.0-491.0-0.0","0","0","78411","","324","","","75","54","","","2","54","training","adjacent","AB","1","2","P.jpg","N.jpg","1","1","1","",""
"","feedback","","html-keyboard-response","361","393063","0.0-1.0-492.0-0.0","0","0","78411","","null","","","null","54","","","","","","","","","","","","","","","",""
"","ITI","","html-keyboard-response","362","394076","0.0-1.0-495.0","0","0","78411","","null","","","null","54","","","","","","","","","","","","","","","NaN",""
"","S1","","html-keyboard-response","363","394328","0.0-1.0-497.0","0","0","78411","","null","","","null","55","","","","","","","","","","","","","","","",""
"","ISI","","html-keyboard-response","364","395330","0.0-1.0-498.0","0","0","78411","","null","","","null","55","NaN","","","","","","","","","","","","","","",""
"","S2","","html-keyboard-response","365","395582","0.0-1.0-499.0","0","0","78411","","null","","","null","55","","NaN","","","","","","","","","","","","","",""
"","response","","html-keyboard-response","366","395979","0.0-1.0-500.0-0.0","0","0","78411","","396","","","75","55","","","2","55","training","adjacent","DC","4","3","L.jpg","R.jpg","1","0","0","",""
"","feedback","","html-keyboard-response","367","396981","0.0-1.0-501.0-0.0","0","0","78411","","null","","","null","55","","","","","","","","","","","","","","","",""
"","time_out","","html-keyboard-response","368","398982","0.0-1.0-503.0-0.0","0","0","78411","","null","","","null","55","","","","","","","","","","","","","","","",""
"","ITI","","html-keyboard-response","369","399984","0.0-1.0-504.0","0","0","78411","","null","","","null","55","","","","","","","","","","","","","","","NaN",""
"","S1","","html-keyboard-response","370","400237","0.0-1.0-506.0","0","0","78411","","null","","","null","56","","","","","","","","","","","","","","","",""
"","ISI","","html-keyboard-response","371","401238","0.0-1.0-507.0","0","0","78411","","null","","","null","56","NaN","","","","","","","","","","","","","","",""
"","S2","","html-keyboard-response","372","401490","0.0-1.0-508.0","0","0","78411","","null","","","null","56","","NaN","","","","","","","","","","","","","",""
"","response","","html-keyboard-response","373","402194","0.0-1.0-509.0-0.0","0","0","78411","","702","","","75","56","","","2","56","training","adjacent","DE","4","5","L.jpg","Q.jpg","1","1","1","",""
"","feedback","","html-keyboard-response","374","403195","0.0-1.0-510.0-0.0","0","0","78411","","null","","","null","56","","","","","","","","","","","","","","","",""
"","ITI","","html-keyboard-response","375","404197","0.0-1.0-513.0","0","0","78411","","null","","","null","56","","","","","","","","","","","","","","","NaN",""
"","S1","","html-keyboard-response","376","404449","0.0-1.0-515.0","0","0","78411","","null","","","null","57","","","","","","","","","","","","","","","",""
"","ISI","","html-keyboard-response","377","405450","0.0-1.0-516.0","0","0","78411","","null","","","null","57","NaN","","","","","","","","","","","","","","",""
"","S2","","html-keyboard-response","378","405702","0.0-1.0-517.0","0","0","78411","","null","","","null","57","","NaN","","","","","","","","","","","","","",""
"","response","","html-keyboard-response","379","406745","0.0-1.0-518.0-0.0","0","0","78411","","1042","","","68","57","","","2","57","training","adjacent","EF","5","6","Q.jpg","O.jpg","0","1","0","",""
"","feedback","","html-keyboard-response","380","407746","0.0-1.0-519.0-0.0","0","0","78411","","null","","","null","57","","","","","","","","","","","","","","","",""
"","time_out","","html-keyboard-response","381","409748","0.0-1.0-521.0-0.0","0","0","78411","","null","","","null","57","","","","","","","","","","","","","","","",""
"","ITI","","html-keyboard-response","382","410750","0.0-1.0-522.0","0","0","78411","","null","","","null","57","","","","","","","","","","","","","","","NaN",""
"","S1","","html-keyboard-response","383","411002","0.0-1.0-524.0","0","0","78411","","null","","","null","58","","","","","","","","","","","","","","","",""
"","ISI","","html-keyboard-response","384","412004","0.0-1.0-525.0","0","0","78411","","null","","","null","58","NaN","","","","","","","","","","","","","","",""
"","S2","","html-keyboard-response","385","412257","0.0-1.0-526.0","0","0","78411","","null","","","null","58","","NaN","","","","","","","","","","","","","",""
"","response","","html-keyboard-response","386","413188","0.0-1.0-527.0-0.0","0","0","78411","","931","","","68","58","","","2","58","training","adjacent","CD","3","4","R.jpg","L.jpg","0","1","0","",""
"","feedback","","html-keyboard-response","387","414190","0.0-1.0-528.0-0.0","0","0","78411","","null","","","null","58","","","","","","","","","","","","","","","",""
"","time_out","","html-keyboard-response","388","416192","0.0-1.0-530.0-0.0","0","0","78411","","null","","","null","58","","","","","","","","","","","","","","","",""
"","ITI","","html-keyboard-response","389","417194","0.0-1.0-531.0","0","0","78411","","null","","","null","58","","","","","","","","","","","","","","","NaN",""
"","S1","","html-keyboard-response","390","417446","0.0-1.0-533.0","0","0","78411","","null","","","null","59","","","","","","","","","","","","","","","",""
"","ISI","","html-keyboard-response","391","418448","0.0-1.0-534.0","0","0","78411","","null","","","null","59","NaN","","","","","","","","","","","","","","",""
"","S2","","html-keyboard-response","392","418700","0.0-1.0-535.0","0","0","78411","","null","","","null","59","","NaN","","","","","","","","","","","","","",""
"","response","","html-keyboard-response","393","419049","0.0-1.0-536.0-0.0","0","0","78411","","348","","","75","59","","","2","59","training","adjacent","ED","5","4","Q.jpg","L.jpg","1","0","0","",""
"","feedback","","html-keyboard-response","394","420051","0.0-1.0-537.0-0.0","0","0","78411","","null","","","null","59","","","","","","","","","","","","","","","",""
"","time_out","","html-keyboard-response","395","422053","0.0-1.0-539.0-0.0","0","0","78411","","null","","","null","59","","","","","","","","","","","","","","","",""
"","ITI","","html-keyboard-response","396","423054","0.0-1.0-540.0","0","0","78411","","null","","","null","59","","","","","","","","","","","","","","","NaN",""
"","S1","","html-keyboard-response","397","423306","0.0-1.0-542.0","0","0","78411","","null","","","null","60","","","","","","","","","","","","","","","",""
"","ISI","","html-keyboard-response","398","424307","0.0-1.0-543.0","0","0","78411","","null","","","null","60","NaN","","","","","","","","","","","","","","",""
"","S2","","html-keyboard-response","399","424559","0.0-1.0-544.0","0","0","78411","","null","","","null","60","","NaN","","","","","","","","","","","","","",""
"","response","","html-keyboard-response","400","424857","0.0-1.0-545.0-0.0","0","0","78411","","297","","","75","60","","","2","60","training","adjacent","FE","6","5","O.jpg","Q.jpg","1","0","0","",""
"","feedback","","html-keyboard-response","401","425858","0.0-1.0-546.0-0.0","0","0","78411","","null","","","null","60","","","","","","","","","","","","","","","",""
"","time_out","","html-keyboard-response","402","427876","0.0-1.0-548.0-0.0","0","0","78411","","null","","","null","60","","","","","","","","","","","","","","","",""
"","ITI","","html-keyboard-response","403","428877","0.0-1.0-549.0","0","0","78411","","null","","","null","60","","","","","","","","","","","","","","","NaN",""
"","S1","","html-keyboard-response","404","429129","0.0-1.0-551.0","0","0","78411","","null","","","null","61","","","","","","","","","","","","","","","",""
"","ISI","","html-keyboard-response","405","430131","0.0-1.0-552.0","0","0","78411","","null","","","null","61","NaN","","","","","","","","","","","","","","",""
"","S2","","html-keyboard-response","406","430382","0.0-1.0-553.0","0","0","78411","","null","","","null","61","","NaN","","","","","","","","","","","","","",""
"","response","","html-keyboard-response","407","430997","0.0-1.0-554.0-0.0","0","0","78411","","613","","","68","61","","","2","61","training","adjacent","CD","3","4","R.jpg","L.jpg","0","1","0","",""
"","feedback","","html-keyboard-response","408","431998","0.0-1.0-555.0-0.0","0","0","78411","","null","","","null","61","","","","","","","","","","","","","","","",""
"","time_out","","html-keyboard-response","409","434000","0.0-1.0-557.0-0.0","0","0","78411","","null","","","null","61","","","","","","","","","","","","","","","",""
"","ITI","","html-keyboard-response","410","435002","0.0-1.0-558.0","0","0","78411","","null","","","null","61","","","","","","","","","","","","","","","NaN",""
"","S1","","html-keyboard-response","411","435254","0.0-1.0-560.0","0","0","78411","","null","","","null","62","","","","","","","","","","","","","","","",""
"","ISI","","html-keyboard-response","412","436256","0.0-1.0-561.0","0","0","78411","","null","","","null","62","NaN","","","","","","","","","","","","","","",""
"","S2","","html-keyboard-response","413","436507","0.0-1.0-562.0","0","0","78411","","null","","","null","62","","NaN","","","","","","","","","","","","","",""
"","response","","html-keyboard-response","414","436737","0.0-1.0-563.0-0.0","0","0","78411","","228","","","75","62","","","2","62","training","adjacent","DE","4","5","L.jpg","Q.jpg","1","1","1","",""
"","feedback","","html-keyboard-response","415","437738","0.0-1.0-564.0-0.0","0","0","78411","","null","","","null","62","","","","","","","","","","","","","","","",""
"","ITI","","html-keyboard-response","416","438739","0.0-1.0-567.0","0","0","78411","","null","","","null","62","","","","","","","","","","","","","","","NaN",""
"","S1","","html-keyboard-response","417","438995","0.0-1.0-569.0","0","0","78411","","null","","","null","63","","","","","","","","","","","","","","","",""
"","ISI","","html-keyboard-response","418","439997","0.0-1.0-570.0","0","0","78411","","null","","","null","63","NaN","","","","","","","","","","","","","","",""
"","S2","","html-keyboard-response","419","440249","0.0-1.0-571.0","0","0","78411","","null","","","null","63","","NaN","","","","","","","","","","","","","",""
"","response","","html-keyboard-response","420","440574","0.0-1.0-572.0-0.0","0","0","78411","","325","","","75","63","","","2","63","training","adjacent","DC","4","3","L.jpg","R.jpg","1","0","0","",""
"","feedback","","html-keyboard-response","421","441576","0.0-1.0-573.0-0.0","0","0","78411","","null","","","null","63","","","","","","","","","","","","","","","",""
"","time_out","","html-keyboard-response","422","443577","0.0-1.0-575.0-0.0","0","0","78411","","null","","","null","63","","","","","","","","","","","","","","","",""
"","ITI","","html-keyboard-response","423","444579","0.0-1.0-576.0","0","0","78411","","null","","","null","63","","","","","","","","","","","","","","","NaN",""
"","S1","","html-keyboard-response","424","444830","0.0-1.0-578.0","0","0","78411","","null","","","null","64","","","","","","","","","","","","","","","",""
"","ISI","","html-keyboard-response","425","445832","0.0-1.0-579.0","0","0","78411","","null","","","null","64","NaN","","","","","","","","","","","","","","",""
"","S2","","html-keyboard-response","426","446083","0.0-1.0-580.0","0","0","78411","","null","","","null","64","","NaN","","","","","","","","","","","","","",""
"","response","","html-keyboard-response","427","446509","0.0-1.0-581.0-0.0","0","0","78411","","424","","","68","64","","","2","64","training","adjacent","FG","6","7","O.jpg","M.jpg","0","1","0","",""
"","feedback","","html-keyboard-response","428","447511","0.0-1.0-582.0-0.0","0","0","78411","","null","","","null","64","","","","","","","","","","","","","","","",""
"","time_out","","html-keyboard-response","429","449512","0.0-1.0-584.0-0.0","0","0","78411","","null","","","null","64","","","","","","","","","","","","","","","",""
"","ITI","","html-keyboard-response","430","450514","0.0-1.0-585.0","0","0","78411","","null","","","null","64","","","","","","","","","","","","","","","NaN",""
"","S1","","html-keyboard-response","431","450767","0.0-1.0-587.0","0","0","78411","","null","","","null","65","","","","","","","","","","","","","","","",""
"","ISI","","html-keyboard-response","432","451769","0.0-1.0-588.0","0","0","78411","","null","","","null","65","NaN","","","","","","","","","","","","","","",""
"","S2","","html-keyboard-response","433","452020","0.0-1.0-589.0","0","0","78411","","null","","","null","65","","NaN","","","","","","","","","","","","","",""
"","response","","html-keyboard-response","434","452489","0.0-1.0-590.0-0.0","0","0","78411","","469","","","75","65","","","2","65","training","adjacent","DC","4","3","L.jpg","R.jpg","1","0","0","",""
"","feedback","","html-keyboard-response","435","453491","0.0-1.0-591.0-0.0","0","0","78411","","null","","","null","65","","","","","","","","","","","","","","","",""
"","time_out","","html-keyboard-response","436","455493","0.0-1.0-593.0-0.0","0","0","78411","","null","","","null","65","","","","","","","","","","","","","","","",""
"","ITI","","html-keyboard-response","437","456494","0.0-1.0-594.0","0","0","78411","","null","","","null","65","","","","","","","","","","","","","","","NaN",""
"","S1","","html-keyboard-response","438","456746","0.0-1.0-596.0","0","0","78411","","null","","","null","66","","","","","","","","","","","","","","","",""
"","ISI","","html-keyboard-response","439","457748","0.0-1.0-597.0","0","0","78411","","null","","","null","66","NaN","","","","","","","","","","","","","","",""
"","S2","","html-keyboard-response","440","458012","0.0-1.0-598.0","0","0","78411","","null","","","null","66","","NaN","","","","","","","","","","","","","",""
"","response","","html-keyboard-response","441","458825","0.0-1.0-599.0-0.0","0","0","78411","","812","","","68","66","","","2","66","training","adjacent","ED","5","4","Q.jpg","L.jpg","0","0","1","",""
"","feedback","","html-keyboard-response","442","459826","0.0-1.0-600.0-0.0","0","0","78411","","null","","","null","66","","","","","","","","","","","","","","","",""
"","ITI","","html-keyboard-response","443","460828","0.0-1.0-603.0","0","0","78411","","null","","","null","66","","","","","","","","","","","","","","","NaN",""
"","S1","","html-keyboard-response","444","461080","0.0-1.0-605.0","0","0","78411","","null","","","null","67","","","","","","","","","","","","","","","",""
"","ISI","","html-keyboard-response","445","462081","0.0-1.0-606.0","0","0","78411","","null","","","null","67","NaN","","","","","","","","","","","","","","",""
"","S2","","html-keyboard-response","446","462336","0.0-1.0-607.0","0","0","78411","","null","","","null","67","","NaN","","","","","","","","","","","","","",""
"","response","","html-keyboard-response","447","462438","0.0-1.0-608.0-0.0","0","0","78411","","101","","","75","67","","","2","67","training","adjacent","BC","2","3","N.jpg","R.jpg","1","1","1","",""
"","feedback","","html-keyboard-response","448","463439","0.0-1.0-609.0-0.0","0","0","78411","","null","","","null","67","","","","","","","","","","","","","","","",""
"","ITI","","html-keyboard-response","449","464441","0.0-1.0-612.0","0","0","78411","","null","","","null","67","","","","","","","","","","","","","","","NaN",""
"","S1","","html-keyboard-response","450","464693","0.0-1.0-614.0","0","0","78411","","null","","","null","68","","","","","","","","","","","","","","","",""
"","ISI","","html-keyboard-response","451","465694","0.0-1.0-615.0","0","0","78411","","null","","","null","68","NaN","","","","","","","","","","","","","","",""
"","S2","","html-keyboard-response","452","465947","0.0-1.0-616.0","0","0","78411","","null","","","null","68","","NaN","","","","","","","","","","","","","",""
"","response","","html-keyboard-response","453","466294","0.0-1.0-617.0-0.0","0","0","78411","","345","","","75","68","","","2","68","training","adjacent","EF","5","6","Q.jpg","O.jpg","1","1","1","",""
"","feedback","","html-keyboard-response","454","467295","0.0-1.0-618.0-0.0","0","0","78411","","null","","","null","68","","","","","","","","","","","","","","","",""
"","ITI","","html-keyboard-response","455","468297","0.0-1.0-621.0","0","0","78411","","null","","","null","68","","","","","","","","","","","","","","","NaN",""
"","S1","","html-keyboard-response","456","468549","0.0-1.0-623.0","0","0","78411","","null","","","null","69","","","","","","","","","","","","","","","",""
"","ISI","","html-keyboard-response","457","469551","0.0-1.0-624.0","0","0","78411","","null","","","null","69","NaN","","","","","","","","","","","","","","",""
"","S2","","html-keyboard-response","458","469803","0.0-1.0-625.0","0","0","78411","","null","","","null","69","","NaN","","","","","","","","","","","","","",""
"","response","","html-keyboard-response","459","469878","0.0-1.0-626.0-0.0","0","0","78411","","74","","","75","69","","","2","69","training","adjacent","BC","2","3","N.jpg","R.jpg","1","1","1","",""
"","feedback","","html-keyboard-response","460","470893","0.0-1.0-627.0-0.0","0","0","78411","","null","","","null","69","","","","","","","","","","","","","","","",""
"","ITI","","html-keyboard-response","461","471894","0.0-1.0-630.0","0","0","78411","","null","","","null","69","","","","","","","","","","","","","","","NaN",""
"","S1","","html-keyboard-response","462","472146","0.0-1.0-632.0","0","0","78411","","null","","","null","70","","","","","","","","","","","","","","","",""
"","ISI","","html-keyboard-response","463","473148","0.0-1.0-633.0","0","0","78411","","null","","","null","70","NaN","","","","","","","","","","","","","","",""
"","S2","","html-keyboard-response","464","473400","0.0-1.0-634.0","0","0","78411","","null","","","null","70","","NaN","","","","","","","","","","","","","",""
"","response","","html-keyboard-response","465","473773","0.0-1.0-635.0-0.0","0","0","78411","","371","","","68","70","","","2","70","training","adjacent","FG","6","7","O.jpg","M.jpg","0","1","0","",""
"","feedback","","html-keyboard-response","466","474775","0.0-1.0-636.0-0.0","0","0","78411","","null","","","null","70","","","","","","","","","","","","","","","",""
"","time_out","","html-keyboard-response","467","476776","0.0-1.0-638.0-0.0","0","0","78411","","null","","","null","70","","","","","","","","","","","","","","","",""
"","ITI","","html-keyboard-response","468","477778","0.0-1.0-639.0","0","0","78411","","null","","","null","70","","","","","","","","","","","","","","","NaN",""
"","S1","","html-keyboard-response","469","478030","0.0-1.0-641.0","0","0","78411","","null","","","null","71","","","","","","","","","","","","","","","",""
"","ISI","","html-keyboard-response","470","479032","0.0-1.0-642.0","0","0","78411","","null","","","null","71","NaN","","","","","","","","","","","","","","",""
"","S2","","html-keyboard-response","471","479284","0.0-1.0-643.0","0","0","78411","","null","","","null","71","","NaN","","","","","","","","","","","","","",""
"","response","","html-keyboard-response","472","479991","0.0-1.0-644.0-0.0","0","0","78411","","706","","","68","71","","","2","71","training","adjacent","FE","6","5","O.jpg","Q.jpg","0","0","1","",""
"","feedback","","html-keyboard-response","473","480992","0.0-1.0-645.0-0.0","0","0","78411","","null","","","null","71","","","","","","","","","","","","","","","",""
"","ITI","","html-keyboard-response","474","482004","0.0-1.0-648.0","0","0","78411","","null","","","null","71","","","","","","","","","","","","","","","NaN",""
"","S1","","html-keyboard-response","475","482256","0.0-1.0-650.0","0","0","78411","","null","","","null","72","","","","","","","","","","","","","","","",""
"","ISI","","html-keyboard-response","476","483257","0.0-1.0-651.0","0","0","78411","","null","","","null","72","NaN","","","","","","","","","","","","","","",""
"","S2","","html-keyboard-response","477","483509","0.0-1.0-652.0","0","0","78411","","null","","","null","72","","NaN","","","","","","","","","","","","","",""
"","response","","html-keyboard-response","478","484084","0.0-1.0-653.0-0.0","0","0","78411","","575","","","75","72","","","2","72","training","adjacent","CB","3","2","R.jpg","N.jpg","1","0","0","",""
"","feedback","","html-keyboard-response","479","485087","0.0-1.0-654.0-0.0","0","0","78411","","null","","","null","72","","","","","","","","","","","","","","","",""
"","time_out","","html-keyboard-response","480","487089","0.0-1.0-656.0-0.0","0","0","78411","","null","","","null","72","","","","","","","","","","","","","","","",""
"","ITI","","html-keyboard-response","481","488090","0.0-1.0-657.0","0","0","78411","","null","","","null","72","","","","","","","","","","","","","","","NaN",""
"","S1","","html-keyboard-response","482","488342","0.0-1.0-659.0","0","0","78411","","null","","","null","73","","","","","","","","","","","","","","","",""
"","ISI","","html-keyboard-response","483","489344","0.0-1.0-660.0","0","0","78411","","null","","","null","73","NaN","","","","","","","","","","","","","","",""
"","S2","","html-keyboard-response","484","489596","0.0-1.0-661.0","0","0","78411","","null","","","null","73","","NaN","","","","","","","","","","","","","",""
"","response","","html-keyboard-response","485","490930","0.0-1.0-662.0-0.0","0","0","78411","","1334","","","75","73","","","2","73","training","adjacent","DE","4","5","L.jpg","Q.jpg","1","1","1","",""
"","feedback","","html-keyboard-response","486","491932","0.0-1.0-663.0-0.0","0","0","78411","","null","","","null","73","","","","","","","","","","","","","","","",""
"","ITI","","html-keyboard-response","487","492934","0.0-1.0-666.0","0","0","78411","","null","","","null","73","","","","","","","","","","","","","","","NaN",""
"","S1","","html-keyboard-response","488","493185","0.0-1.0-668.0","0","0","78411","","null","","","null","74","","","","","","","","","","","","","","","",""
"","ISI","","html-keyboard-response","489","494187","0.0-1.0-669.0","0","0","78411","","null","","","null","74","NaN","","","","","","","","","","","","","","",""
"","S2","","html-keyboard-response","490","494440","0.0-1.0-670.0","0","0","78411","","null","","","null","74","","NaN","","","","","","","","","","","","","",""
"","response","","html-keyboard-response","491","494655","0.0-1.0-671.0-0.0","0","0","78411","","215","","","75","74","","","2","74","training","adjacent","BC","2","3","N.jpg","R.jpg","1","1","1","",""
"","feedback","","html-keyboard-response","492","495657","0.0-1.0-672.0-0.0","0","0","78411","","null","","","null","74","","","","","","","","","","","","","","","",""
"","ITI","","html-keyboard-response","493","496660","0.0-1.0-675.0","0","0","78411","","null","","","null","74","","","","","","","","","","","","","","","NaN",""
"","S1","","html-keyboard-response","494","496911","0.0-1.0-677.0","0","0","78411","","null","","","null","75","","","","","","","","","","","","","","","",""
"","ISI","","html-keyboard-response","495","497912","0.0-1.0-678.0","0","0","78411","","null","","","null","75","NaN","","","","","","","","","","","","","","",""
"","S2","","html-keyboard-response","496","498164","0.0-1.0-679.0","0","0","78411","","null","","","null","75","","NaN","","","","","","","","","","","","","",""
"","response","","html-keyboard-response","497","498619","0.0-1.0-680.0-0.0","0","0","78411","","453","","","68","75","","","2","75","training","adjacent","CB","3","2","R.jpg","N.jpg","0","0","1","",""
"","feedback","","html-keyboard-response","498","499621","0.0-1.0-681.0-0.0","0","0","78411","","null","","","null","75","","","","","","","","","","","","","","","",""
"","ITI","","html-keyboard-response","499","500622","0.0-1.0-684.0","0","0","78411","","null","","","null","75","","","","","","","","","","","","","","","NaN",""
"","S1","","html-keyboard-response","500","500874","0.0-1.0-686.0","0","0","78411","","null","","","null","76","","","","","","","","","","","","","","","",""
"","ISI","","html-keyboard-response","501","501876","0.0-1.0-687.0","0","0","78411","","null","","","null","76","NaN","","","","","","","","","","","","","","",""
"","S2","","html-keyboard-response","502","502127","0.0-1.0-688.0","0","0","78411","","null","","","null","76","","NaN","","","","","","","","","","","","","",""
"","response","","html-keyboard-response","503","502586","0.0-1.0-689.0-0.0","0","0","78411","","457","","","75","76","","","2","76","training","adjacent","GF","7","6","M.jpg","O.jpg","1","0","0","",""
"","feedback","","html-keyboard-response","504","503588","0.0-1.0-690.0-0.0","0","0","78411","","null","","","null","76","","","","","","","","","","","","","","","",""
"","time_out","","html-keyboard-response","505","505590","0.0-1.0-692.0-0.0","0","0","78411","","null","","","null","76","","","","","","","","","","","","","","","",""
"","ITI","","html-keyboard-response","506","506592","0.0-1.0-693.0","0","0","78411","","null","","","null","76","","","","","","","","","","","","","","","NaN",""
"","S1","","html-keyboard-response","507","506844","0.0-1.0-695.0","0","0","78411","","null","","","null","77","","","","","","","","","","","","","","","",""
"","ISI","","html-keyboard-response","508","507846","0.0-1.0-696.0","0","0","78411","","null","","","null","77","NaN","","","","","","","","","","","","","","",""
"","S2","","html-keyboard-response","509","508099","0.0-1.0-697.0","0","0","78411","","null","","","null","77","","NaN","","","","","","","","","","","","","",""
"","response","","html-keyboard-response","510","508163","0.0-1.0-698.0-0.0","0","0","78411","","63","","","75","77","","","2","77","training","adjacent","BA","2","1","N.jpg","P.jpg","1","0","0","",""
"","feedback","","html-keyboard-response","511","509164","0.0-1.0-699.0-0.0","0","0","78411","","null","","","null","77","","","","","","","","","","","","","","","",""
"","time_out","","html-keyboard-response","512","511167","0.0-1.0-701.0-0.0","0","0","78411","","null","","","null","77","","","","","","","","","","","","","","","",""
"","ITI","","html-keyboard-response","513","512184","0.0-1.0-702.0","0","0","78411","","null","","","null","77","","","","","","","","","","","","","","","NaN",""
"","S1","","html-keyboard-response","514","512436","0.0-1.0-704.0","0","0","78411","","null","","","null","78","","","","","","","","","","","","","","","",""
"","ISI","","html-keyboard-response","515","513437","0.0-1.0-705.0","0","0","78411","","null","","","null","78","NaN","","","","","","","","","","","","","","",""
"","S2","","html-keyboard-response","516","513690","0.0-1.0-706.0","0","0","78411","","null","","","null","78","","NaN","","","","","","","","","","","","","",""
"","response","","html-keyboard-response","517","514655","0.0-1.0-707.0-0.0","0","0","78411","","964","","","75","78","","","2","78","training","adjacent","FG","6","7","O.jpg","M.jpg","1","1","1","",""
"","feedback","","html-keyboard-response","518","515657","0.0-1.0-708.0-0.0","0","0","78411","","null","","","null","78","","","","","","","","","","","","","","","",""
"","ITI","","html-keyboard-response","519","516668","0.0-1.0-711.0","0","0","78411","","null","","","null","78","","","","","","","","","","","","","","","NaN",""
"","S1","","html-keyboard-response","520","516921","0.0-1.0-713.0","0","0","78411","","null","","","null","79","","","","","","","","","","","","","","","",""
"","ISI","","html-keyboard-response","521","517923","0.0-1.0-714.0","0","0","78411","","null","","","null","79","NaN","","","","","","","","","","","","","","",""
"","S2","","html-keyboard-response","522","518174","0.0-1.0-715.0","0","0","78411","","null","","","null","79","","NaN","","","","","","","","","","","","","",""
"","response","","html-keyboard-response","523","518759","0.0-1.0-716.0-0.0","0","0","78411","","583","","","68","79","","","2","79","training","adjacent","FE","6","5","O.jpg","Q.jpg","0","0","1","",""
"","feedback","","html-keyboard-response","524","519760","0.0-1.0-717.0-0.0","0","0","78411","","null","","","null","79","","","","","","","","","","","","","","","",""
"","ITI","","html-keyboard-response","525","520762","0.0-1.0-720.0","0","0","78411","","null","","","null","79","","","","","","","","","","","","","","","NaN",""
"","S1","","html-keyboard-response","526","521015","0.0-1.0-722.0","0","0","78411","","null","","","null","80","","","","","","","","","","","","","","","",""
"","ISI","","html-keyboard-response","527","522017","0.0-1.0-723.0","0","0","78411","","null","","","null","80","NaN","","","","","","","","","","","","","","",""
"","S2","","html-keyboard-response","528","522280","0.0-1.0-724.0","0","0","78411","","null","","","null","80","","NaN","","","","","","","","","","","","","",""
"","response","","html-keyboard-response","529","522764","0.0-1.0-725.0-0.0","0","0","78411","","483","","","68","80","","","2","80","training","adjacent","GF","7","6","M.jpg","O.jpg","0","0","1","",""
"","feedback","","html-keyboard-response","530","523766","0.0-1.0-726.0-0.0","0","0","78411","","null","","","null","80","","","","","","","","","","","","","","","",""
"","ITI","","html-keyboard-response","531","524769","0.0-1.0-729.0","0","0","78411","","null","","","null","80","","","","","","","","","","","","","","","NaN",""
"","S1","","html-keyboard-response","532","525020","0.0-1.0-731.0","0","0","78411","","null","","","null","81","","","","","","","","","","","","","","","",""
"","ISI","","html-keyboard-response","533","526022","0.0-1.0-732.0","0","0","78411","","null","","","null","81","NaN","","","","","","","","","","","","","","",""
"","S2","","html-keyboard-response","534","526273","0.0-1.0-733.0","0","0","78411","","null","","","null","81","","NaN","","","","","","","","","","","","","",""
"","response","","html-keyboard-response","535","526888","0.0-1.0-734.0-0.0","0","0","78411","","613","","","68","81","","","2","81","training","adjacent","FE","6","5","O.jpg","Q.jpg","0","0","1","",""
"","feedback","","html-keyboard-response","536","527890","0.0-1.0-735.0-0.0","0","0","78411","","null","","","null","81","","","","","","","","","","","","","","","",""
"","ITI","","html-keyboard-response","537","528892","0.0-1.0-738.0","0","0","78411","","null","","","null","81","","","","","","","","","","","","","","","NaN",""
"","S1","","html-keyboard-response","538","529144","0.0-1.0-740.0","0","0","78411","","null","","","null","82","","","","","","","","","","","","","","","",""
"","ISI","","html-keyboard-response","539","530146","0.0-1.0-741.0","0","0","78411","","null","","","null","82","NaN","","","","","","","","","","","","","","",""
"","S2","","html-keyboard-response","540","530397","0.0-1.0-742.0","0","0","78411","","null","","","null","82","","NaN","","","","","","","","","","","","","",""
"","response","","html-keyboard-response","541","530856","0.0-1.0-743.0-0.0","0","0","78411","","458","","","68","82","","","2","82","training","adjacent","BA","2","1","N.jpg","P.jpg","0","0","1","",""
"","feedback","","html-keyboard-response","542","531858","0.0-1.0-744.0-0.0","0","0","78411","","null","","","null","82","","","","","","","","","","","","","","","",""
"","ITI","","html-keyboard-response","543","532859","0.0-1.0-747.0","0","0","78411","","null","","","null","82","","","","","","","","","","","","","","","NaN",""
"","S1","","html-keyboard-response","544","533111","0.0-1.0-749.0","0","0","78411","","null","","","null","83","","","","","","","","","","","","","","","",""
"","ISI","","html-keyboard-response","545","534114","0.0-1.0-750.0","0","0","78411","","null","","","null","83","NaN","","","","","","","","","","","","","","",""
"","S2","","html-keyboard-response","546","534365","0.0-1.0-751.0","0","0","78411","","null","","","null","83","","NaN","","","","","","","","","","","","","",""
"","response","","html-keyboard-response","547","535071","0.0-1.0-752.0-0.0","0","0","78411","","704","","","75","83","","","2","83","training","adjacent","FG","6","7","O.jpg","M.jpg","1","1","1","",""
"","feedback","","html-keyboard-response","548","536073","0.0-1.0-753.0-0.0","0","0","78411","","null","","","null","83","","","","","","","","","","","","","","","",""
"","ITI","","html-keyboard-response","549","537076","0.0-1.0-756.0","0","0","78411","","null","","","null","83","","","","","","","","","","","","","","","NaN",""
"","S1","","html-keyboard-response","550","537328","0.0-1.0-758.0","0","0","78411","","null","","","null","84","","","","","","","","","","","","","","","",""
"","ISI","","html-keyboard-response","551","538329","0.0-1.0-759.0","0","0","78411","","null","","","null","84","NaN","","","","","","","","","","","","","","",""
"","S2","","html-keyboard-response","552","538581","0.0-1.0-760.0","0","0","78411","","null","","","null","84","","NaN","","","","","","","","","","","","","",""
"","response","","html-keyboard-response","553","538918","0.0-1.0-761.0-0.0","0","0","78411","","335","","","68","84","","","2","84","training","adjacent","CD","3","4","R.jpg","L.jpg","0","1","0","",""
"","feedback","","html-keyboard-response","554","539919","0.0-1.0-762.0-0.0","0","0","78411","","null","","","null","84","","","","","","","","","","","","","","","",""
"","time_out","","html-keyboard-response","555","541920","0.0-1.0-764.0-0.0","0","0","78411","","null","","","null","84","","","","","","","","","","","","","","","",""
"","ITI","","html-keyboard-response","556","542922","0.0-1.0-765.0","0","0","78411","","null","","","null","84","","","","","","","","","","","","","","","NaN",""
"","S1","","html-keyboard-response","557","543184","0.0-1.0-767.0","0","0","78411","","null","","","null","85","","","","","","","","","","","","","","","",""
"","ISI","","html-keyboard-response","558","544186","0.0-1.0-768.0","0","0","78411","","null","","","null","85","NaN","","","","","","","","","","","","","","",""
"","S2","","html-keyboard-response","559","544438","0.0-1.0-769.0","0","0","78411","","null","","","null","85","","NaN","","","","","","","","","","","","","",""
"","response","","html-keyboard-response","560","545041","0.0-1.0-770.0-0.0","0","0","78411","","603","","","68","85","","","2","85","training","adjacent","BA","2","1","N.jpg","P.jpg","0","0","1","",""
"","feedback","","html-keyboard-response","561","546043","0.0-1.0-771.0-0.0","0","0","78411","","null","","","null","85","","","","","","","","","","","","","","","",""
"","ITI","","html-keyboard-response","562","547044","0.0-1.0-774.0","0","0","78411","","null","","","null","85","","","","","","","","","","","","","","","NaN",""
"","S1","","html-keyboard-response","563","547296","0.0-1.0-776.0","0","0","78411","","null","","","null","86","","","","","","","","","","","","","","","",""
"","ISI","","html-keyboard-response","564","548297","0.0-1.0-777.0","0","0","78411","","null","","","null","86","NaN","","","","","","","","","","","","","","",""
"","S2","","html-keyboard-response","565","548549","0.0-1.0-778.0","0","0","78411","","null","","","null","86","","NaN","","","","","","","","","","","","","",""
"","response","","html-keyboard-response","566","548967","0.0-1.0-779.0-0.0","0","0","78411","","417","","","75","86","","","2","86","training","adjacent","EF","5","6","Q.jpg","O.jpg","1","1","1","",""
"","feedback","","html-keyboard-response","567","549969","0.0-1.0-780.0-0.0","0","0","78411","","null","","","null","86","","","","","","","","","","","","","","","",""
"","ITI","","html-keyboard-response","568","550971","0.0-1.0-783.0","0","0","78411","","null","","","null","86","","","","","","","","","","","","","","","NaN",""
"","S1","","html-keyboard-response","569","551222","0.0-1.0-785.0","0","0","78411","","null","","","null","87","","","","","","","","","","","","","","","",""
"","ISI","","html-keyboard-response","570","552224","0.0-1.0-786.0","0","0","78411","","null","","","null","87","NaN","","","","","","","","","","","","","","",""
"","S2","","html-keyboard-response","571","552475","0.0-1.0-787.0","0","0","78411","","null","","","null","87","","NaN","","","","","","","","","","","","","",""
"","response","","html-keyboard-response","572","553088","0.0-1.0-788.0-0.0","0","0","78411","","612","","","75","87","","","2","87","training","adjacent","GF","7","6","M.jpg","O.jpg","1","0","0","",""
"","feedback","","html-keyboard-response","573","554091","0.0-1.0-789.0-0.0","0","0","78411","","null","","","null","87","","","","","","","","","","","","","","","",""
"","time_out","","html-keyboard-response","574","556094","0.0-1.0-791.0-0.0","0","0","78411","","null","","","null","87","","","","","","","","","","","","","","","",""
"","ITI","","html-keyboard-response","575","557095","0.0-1.0-792.0","0","0","78411","","null","","","null","87","","","","","","","","","","","","","","","NaN",""
"","S1","","html-keyboard-response","576","557347","0.0-1.0-794.0","0","0","78411","","null","","","null","88","","","","","","","","","","","","","","","",""
"","ISI","","html-keyboard-response","577","558348","0.0-1.0-795.0","0","0","78411","","null","","","null","88","NaN","","","","","","","","","","","","","","",""
"","S2","","html-keyboard-response","578","558601","0.0-1.0-796.0","0","0","78411","","null","","","null","88","","NaN","","","","","","","","","","","","","",""
"","response","","html-keyboard-response","579","559227","0.0-1.0-797.0-0.0","0","0","78411","","625","","","68","88","","","2","88","training","adjacent","CB","3","2","R.jpg","N.jpg","0","0","1","",""
"","feedback","","html-keyboard-response","580","560229","0.0-1.0-798.0-0.0","0","0","78411","","null","","","null","88","","","","","","","","","","","","","","","",""
