"success","ttype","start_time","trial_type","trial_index","time_elapsed","internal_node_id","warning","missed_checkup","PID","view_history","rt","responses","repeat_instructions","key_press","index","keypress_isi","keypress_S2","block","trial_num","phase","group_type","pair_type","S1_stim","S2_stim","S1_img","S2_img","S1_chosen","S1_higher","accuracy","keypress_iti","total_bonus_tally"
"true","full_screen","d03042023hr0516","fullscreen","0","6562","0.0-0.0","0","0","53304","","","","","","","","","","","","","","","","","","","","","",""
"","instructions","","instructions","1","107363","0.0-1.0-0.0-0.0","0","0","53304","[{""page_index"":0,""viewing_time"":8435},{""page_index"":1,""viewing_time"":52740},{""page_index"":2,""viewing_time"":36590},{""page_index"":3,""viewing_time"":3021}]","100787","","","","","","","","","","","","","","","","","","","",""
"","comprehension_check","","survey-multi-choice","2","164942","0.0-1.0-0.0-1.0","0","0","53304","","57553","{""Q0"":""True"",""Q1"":""D"",""Q2"":""Only when the screen 'MAKE A CHOICE' is shown"",""Q3"":""Green mark"",""Q4"":""either D or K""}","1","","","","","","","","","","","","","","","","","",""
"","missed_instruction_checkup","","html-keyboard-response","3","173360","0.0-1.0-0.0-2.0-0.0","0","1","53304","","8405","","","32","","","","","","","","","","","","","","","","",""
"","instructions","","instructions","4","189440","0.0-1.0-0.1-0.1","0","0","53304","[{""page_index"":0,""viewing_time"":3345},{""page_index"":1,""viewing_time"":8336},{""page_index"":2,""viewing_time"":2387},{""page_index"":3,""viewing_time"":1992}]","16062","","","","","","","","","","","","","","","","","","","",""
"","comprehension_check","","survey-multi-choice","5","212442","0.0-1.0-0.1-1.1","0","0","53304","","22981","{""Q0"":""True"",""Q1"":""K"",""Q2"":""Once the second image appears and while the screen 'MAKE A CHOICE' is shown"",""Q3"":""Green mark"",""Q4"":""either D or K""}","1","","","","","","","","","","","","","","","","","",""
"","missed_instruction_checkup","","html-keyboard-response","6","214610","0.0-1.0-0.1-2.1-0.1","0","1","53304","","2157","","","32","","","","","","","","","","","","","","","","",""
"","instructions","","instructions","7","227173","0.0-1.0-0.2-0.2","0","0","53304","[{""page_index"":0,""viewing_time"":1962},{""page_index"":1,""viewing_time"":6505},{""page_index"":2,""viewing_time"":1413},{""page_index"":3,""viewing_time"":2670}]","12551","","","","","","","","","","","","","","","","","","","",""
"","comprehension_check","","survey-multi-choice","8","257094","0.0-1.0-0.2-1.2","0","0","53304","","29901","{""Q0"":""True"",""Q1"":""K"",""Q2"":""Once the second image appears and while the screen 'MAKE A CHOICE' is shown"",""Q3"":""Green mark"",""Q4"":""either D or K""}","1","","","","","","","","","","","","","","","","","",""
"","missed_instruction_checkup","","html-keyboard-response","9","259146","0.0-1.0-0.2-2.2-0.2","0","1","53304","","2043","","","32","","","","","","","","","","","","","","","","",""
"","instructions","","instructions","10","308838","0.0-1.0-0.3-0.3","0","0","53304","[{""page_index"":0,""viewing_time"":1744},{""page_index"":1,""viewing_time"":43664},{""page_index"":2,""viewing_time"":3116},{""page_index"":3,""viewing_time"":1160}]","49685","","","","","","","","","","","","","","","","","","","",""
"","comprehension_check","","survey-multi-choice","11","335009","0.0-1.0-0.3-1.3","0","0","53304","","26152","{""Q0"":""False"",""Q1"":""D"",""Q2"":""Once the second image appears and while the screen 'MAKE A CHOICE' is shown"",""Q3"":""Red cross"",""Q4"":""either D or K""}","1","","","","","","","","","","","","","","","","","",""
"","missed_instruction_checkup","","html-keyboard-response","12","336825","0.0-1.0-0.3-2.3-0.3","0","1","53304","","1810","","","32","","","","","","","","","","","","","","","","",""
"","instructions","","instructions","13","345288","0.0-1.0-0.4-0.4","0","0","53304","[{""page_index"":0,""viewing_time"":3038},{""page_index"":1,""viewing_time"":1869},{""page_index"":2,""viewing_time"":1749},{""page_index"":3,""viewing_time"":1799}]","8456","","","","","","","","","","","","","","","","","","","",""
"","comprehension_check","","survey-multi-choice","14","361112","0.0-1.0-0.4-1.4","0","0","53304","","15810","{""Q0"":""True"",""Q1"":""D"",""Q2"":""Only while the second image is shown"",""Q3"":""Green mark"",""Q4"":""either D or K""}","1","","","","","","","","","","","","","","","","","",""
"","missed_instruction_checkup","","html-keyboard-response","15","367645","0.0-1.0-0.4-2.4-0.4","0","1","53304","","6523","","","32","","","","","","","","","","","","","","","","",""
"","instructions","","instructions","16","373960","0.0-1.0-0.5-0.5","0","0","53304","[{""page_index"":0,""viewing_time"":1907},{""page_index"":1,""viewing_time"":2826},{""page_index"":2,""viewing_time"":694},{""page_index"":3,""viewing_time"":878}]","6306","","","","","","","","","","","","","","","","","","","",""
"","comprehension_check","","survey-multi-choice","17","407446","0.0-1.0-0.5-1.5","0","0","53304","","33461","{""Q0"":""True"",""Q1"":""D"",""Q2"":""Only when the screen 'MAKE A CHOICE' is shown"",""Q3"":""Green mark"",""Q4"":""either D or K""}","1","","","","","","","","","","","","","","","","","",""
"","missed_instruction_checkup","","html-keyboard-response","18","410483","0.0-1.0-0.5-2.5-0.5","0","1","53304","","3025","","","32","","","","","","","","","","","","","","","","",""
"","instructions","","instructions","19","418082","0.0-1.0-0.6-0.6","0","0","53304","[{""page_index"":0,""viewing_time"":2558},{""page_index"":1,""viewing_time"":1687},{""page_index"":2,""viewing_time"":1111},{""page_index"":3,""viewing_time"":2231}]","7588","","","","","","","","","","","","","","","","","","","",""
"","comprehension_check","","survey-multi-choice","20","437745","0.0-1.0-0.6-1.6","0","0","53304","","19642","{""Q0"":""True"",""Q1"":""D"",""Q2"":""Once the second image appears and while the screen 'MAKE A CHOICE' is shown"",""Q3"":""Green mark"",""Q4"":""either D or K""}","0","","","","","","","","","","","","","","","","","",""
"","start_exp","","html-keyboard-response","21","449289","0.0-1.0-1.0","0","0","53304","","11535","","","32","","","","","","","","","","","","","","","","",""
"","S1","","html-keyboard-response","22","449545","0.0-1.0-2.0","0","0","53304","","null","","","null","0","","","","","","","","","","","","","","","",""
"","ISI","","html-keyboard-response","23","450053","0.0-1.0-3.0","0","0","53304","","null","","","null","0","NaN","","","","","","","","","","","","","","",""
"","S2","","html-keyboard-response","24","450311","0.0-1.0-4.0","0","0","53304","","null","","","null","0","","NaN","","","","","","","","","","","","","",""
"","response","","html-keyboard-response","25","452068","0.0-1.0-5.0-0.0","0","0","53304","","null","","","null","0","","","1","0","training","adjacent","BA","2","1","L.jpg","R.jpg","NaN","0","0","",""
"","too_slow_prompt","","html-keyboard-response","26","453074","0.0-1.0-7.0-0.0","1","0","53304","","null","","","null","","","","","","","","","","","","","","","","",""
"","time_out","","html-keyboard-response","27","455080","0.0-1.0-8.0-0.0","0","0","53304","","null","","","null","0","","","","","","","","","","","","","","","",""
"","ITI","","html-keyboard-response","28","456087","0.0-1.0-9.0","0","0","53304","","null","","","null","0","","","","","","","","","","","","","","","NaN",""
"","S1","","html-keyboard-response","29","456345","0.0-1.0-11.0","0","0","53304","","null","","","null","1","","","","","","","","","","","","","","","",""
"","ISI","","html-keyboard-response","30","456851","0.0-1.0-12.0","0","0","53304","","null","","","null","1","NaN","","","","","","","","","","","","","","",""
"","S2","","html-keyboard-response","31","457110","0.0-1.0-13.0","0","0","53304","","null","","","null","1","","NaN","","","","","","","","","","","","","",""
"","response","","html-keyboard-response","32","458168","0.0-1.0-14.0-0.0","0","0","53304","","1051","","","68","1","","","1","1","training","adjacent","EF","5","6","M.jpg","O.jpg","1","1","1","",""
"","feedback","","html-keyboard-response","33","459177","0.0-1.0-15.0-0.0","0","0","53304","","null","","","null","1","","","","","","","","","","","","","","","",""
"","ITI","","html-keyboard-response","34","460183","0.0-1.0-18.0","0","0","53304","","null","","","null","1","","","","","","","","","","","","","","","NaN",""
"","S1","","html-keyboard-response","35","460441","0.0-1.0-20.0","0","0","53304","","null","","","null","2","","","","","","","","","","","","","","","",""
"","ISI","","html-keyboard-response","36","460945","0.0-1.0-21.0","0","0","53304","","null","","","null","2","NaN","","","","","","","","","","","","","","",""
"","S2","","html-keyboard-response","37","461227","0.0-1.0-22.0","0","0","53304","","null","","","null","2","","NaN","","","","","","","","","","","","","",""
"","response","","html-keyboard-response","38","461265","0.0-1.0-23.0-0.0","0","0","53304","","11","","","68","2","","","1","2","training","adjacent","ED","5","4","M.jpg","N.jpg","1","0","0","",""
"","feedback","","html-keyboard-response","39","462270","0.0-1.0-24.0-0.0","0","0","53304","","null","","","null","2","","","","","","","","","","","","","","","",""
"","time_out","","html-keyboard-response","40","464276","0.0-1.0-26.0-0.0","0","0","53304","","null","","","null","2","","","","","","","","","","","","","","","",""
"","ITI","","html-keyboard-response","41","465281","0.0-1.0-27.0","0","0","53304","","null","","","null","2","","","","","","","","","","","","","","","NaN",""
"","S1","","html-keyboard-response","42","465536","0.0-1.0-29.0","0","0","53304","","null","","","null","3","","","","","","","","","","","","","","","",""
"","ISI","","html-keyboard-response","43","466050","0.0-1.0-30.0","0","0","53304","","null","","","null","3","NaN","","","","","","","","","","","","","","",""
"","S2","","html-keyboard-response","44","466305","0.0-1.0-31.0","0","0","53304","","243","","","68","3","","d","1","3","training","adjacent","DC","4","3","N.jpg","P.jpg","1","0","0","",""
"","feedback","","html-keyboard-response","45","467371","0.0-1.0-33.0-0.0","0","0","53304","","null","","","null","3","","","","","","","","","","","","","","","",""
"","time_out","","html-keyboard-response","46","469406","0.0-1.0-35.0-0.0","0","0","53304","","null","","","null","3","","","","","","","","","","","","","","","",""
"","ITI","","html-keyboard-response","47","470416","0.0-1.0-36.0","0","0","53304","","null","","","null","3","","","","","","","","","","","","","","","NaN",""
"","S1","","html-keyboard-response","48","470672","0.0-1.0-38.0","0","0","53304","","null","","","null","4","","","","","","","","","","","","","","","",""
"","ISI","","html-keyboard-response","49","471178","0.0-1.0-39.0","0","0","53304","","null","","","null","4","NaN","","","","","","","","","","","","","","",""
"","S2","","html-keyboard-response","50","471435","0.0-1.0-40.0","0","0","53304","","null","","","null","4","","NaN","","","","","","","","","","","","","",""
"","response","","html-keyboard-response","51","471634","0.0-1.0-41.0-0.0","0","0","53304","","196","","","68","4","","","1","4","training","adjacent","EF","5","6","M.jpg","O.jpg","1","1","1","",""
"","feedback","","html-keyboard-response","52","472638","0.0-1.0-42.0-0.0","0","0","53304","","null","","","null","4","","","","","","","","","","","","","","","",""
"","ITI","","html-keyboard-response","53","473644","0.0-1.0-45.0","0","0","53304","","null","","","null","4","","","","","","","","","","","","","","","NaN",""
"","S1","","html-keyboard-response","54","473901","0.0-1.0-47.0","0","0","53304","","null","","","null","5","","","","","","","","","","","","","","","",""
"","ISI","","html-keyboard-response","55","474445","0.0-1.0-48.0","0","0","53304","","null","","","null","5","NaN","","","","","","","","","","","","","","",""
"","S2","","html-keyboard-response","56","474702","0.0-1.0-49.0","0","0","53304","","null","","","null","5","","NaN","","","","","","","","","","","","","",""
"","response","","html-keyboard-response","57","474763","0.0-1.0-50.0-0.0","0","0","53304","","56","","","68","5","","","1","5","training","adjacent","EF","5","6","M.jpg","O.jpg","1","1","1","",""
"","feedback","","html-keyboard-response","58","475770","0.0-1.0-51.0-0.0","0","0","53304","","null","","","null","5","","","","","","","","","","","","","","","",""
"","ITI","","html-keyboard-response","59","476786","0.0-1.0-54.0","0","0","53304","","128","","","68","5","","","","","","","","","","","","","","","d",""
"","S1","","html-keyboard-response","60","477040","0.0-1.0-56.0","0","0","53304","","null","","","null","6","","","","","","","","","","","","","","","",""
"","ISI","","html-keyboard-response","61","477547","0.0-1.0-57.0","0","0","53304","","null","","","null","6","NaN","","","","","","","","","","","","","","",""
"","S2","","html-keyboard-response","62","477803","0.0-1.0-58.0","0","0","53304","","null","","","null","6","","NaN","","","","","","","","","","","","","",""
"","response","","html-keyboard-response","63","479563","0.0-1.0-59.0-0.0","0","0","53304","","null","","","null","6","","","1","6","training","adjacent","FG","6","7","O.jpg","Q.jpg","NaN","1","0","",""
"","too_slow_prompt","","html-keyboard-response","64","480572","0.0-1.0-61.0-0.0","1","0","53304","","null","","","null","","","","","","","","","","","","","","","","",""
"","time_out","","html-keyboard-response","65","482580","0.0-1.0-62.0-0.0","0","0","53304","","null","","","null","6","","","","","","","","","","","","","","","",""
"","ITI","","html-keyboard-response","66","483585","0.0-1.0-63.0","0","0","53304","","null","","","null","6","","","","","","","","","","","","","","","NaN",""
"","S1","","html-keyboard-response","67","483846","0.0-1.0-65.0","0","0","53304","","null","","","null","7","","","","","","","","","","","","","","","",""
"","ISI","","html-keyboard-response","68","484349","0.0-1.0-66.0","0","0","53304","","null","","","null","7","NaN","","","","","","","","","","","","","","",""
"","S2","","html-keyboard-response","69","484604","0.0-1.0-67.0","0","0","53304","","null","","","null","7","","NaN","","","","","","","","","","","","","",""
"","response","","html-keyboard-response","70","485211","0.0-1.0-68.0-0.0","0","0","53304","","602","","","68","7","","","1","7","training","adjacent","AB","1","2","R.jpg","L.jpg","1","1","1","",""
"","feedback","","html-keyboard-response","71","486218","0.0-1.0-69.0-0.0","0","0","53304","","null","","","null","7","","","","","","","","","","","","","","","",""
"","ITI","","html-keyboard-response","72","487225","0.0-1.0-72.0","0","0","53304","","null","","","null","7","","","","","","","","","","","","","","","NaN",""
"","S1","","html-keyboard-response","73","487483","0.0-1.0-74.0","0","0","53304","","null","","","null","8","","","","","","","","","","","","","","","",""
"","ISI","","html-keyboard-response","74","487988","0.0-1.0-75.0","0","0","53304","","null","","","null","8","NaN","","","","","","","","","","","","","","",""
"","S2","","html-keyboard-response","75","488246","0.0-1.0-76.0","0","0","53304","","null","","","null","8","","NaN","","","","","","","","","","","","","",""
"","response","","html-keyboard-response","76","490030","0.0-1.0-77.0-0.0","0","0","53304","","null","","","null","8","","","1","8","training","adjacent","GF","7","6","Q.jpg","O.jpg","NaN","0","0","",""
"","too_slow_prompt","","html-keyboard-response","77","491036","0.0-1.0-79.0-0.0","1","0","53304","","null","","","null","","","","","","","","","","","","","","","","",""
"","time_out","","html-keyboard-response","78","493044","0.0-1.0-80.0-0.0","0","0","53304","","null","","","null","8","","","","","","","","","","","","","","","",""
"","ITI","","html-keyboard-response","79","494052","0.0-1.0-81.0","0","0","53304","","null","","","null","8","","","","","","","","","","","","","","","NaN",""
"","S1","","html-keyboard-response","80","494320","0.0-1.0-83.0","0","0","53304","","null","","","null","9","","","","","","","","","","","","","","","",""
"","ISI","","html-keyboard-response","81","494828","0.0-1.0-84.0","0","0","53304","","null","","","null","9","NaN","","","","","","","","","","","","","","",""
"","S2","","html-keyboard-response","82","494853","0.0-1.0-85.0","0","0","53304","","18","","","75","9","","k","1","9","training","adjacent","ED","5","4","M.jpg","N.jpg","0","0","1","",""
"","feedback","","html-keyboard-response","83","495861","0.0-1.0-87.0-0.0","0","0","53304","","null","","","null","9","","","","","","","","","","","","","","","",""
"","ITI","","html-keyboard-response","84","496866","0.0-1.0-90.0","0","0","53304","","258","","","68","9","","","","","","","","","","","","","","","d",""
"","S1","","html-keyboard-response","85","497124","0.0-1.0-92.0","0","0","53304","","null","","","null","10","","","","","","","","","","","","","","","",""
"","ISI","","html-keyboard-response","86","497630","0.0-1.0-93.0","0","0","53304","","null","","","null","10","NaN","","","","","","","","","","","","","","",""
"","S2","","html-keyboard-response","87","497889","0.0-1.0-94.0","0","0","53304","","null","","","null","10","","NaN","","","","","","","","","","","","","",""
"","response","","html-keyboard-response","88","498434","0.0-1.0-95.0-0.0","0","0","53304","","538","","","75","10","","","1","10","training","adjacent","CB","3","2","P.jpg","L.jpg","0","0","1","",""
"","feedback","","html-keyboard-response","89","499440","0.0-1.0-96.0-0.0","0","0","53304","","null","","","null","10","","","","","","","","","","","","","","","",""
"","ITI","","html-keyboard-response","90","500445","0.0-1.0-99.0","0","0","53304","","264","","","68","10","","","","","","","","","","","","","","","d",""
"","S1","","html-keyboard-response","91","500701","0.0-1.0-101.0","0","0","53304","","null","","","null","11","","","","","","","","","","","","","","","",""
"","ISI","","html-keyboard-response","92","501206","0.0-1.0-102.0","0","0","53304","","null","","","null","11","NaN","","","","","","","","","","","","","","",""
"","S2","","html-keyboard-response","93","501461","0.0-1.0-103.0","0","0","53304","","null","","","null","11","","NaN","","","","","","","","","","","","","",""
"","response","","html-keyboard-response","94","502130","0.0-1.0-104.0-0.0","0","0","53304","","665","","","75","11","","","1","11","training","adjacent","AB","1","2","R.jpg","L.jpg","0","1","0","",""
"","feedback","","html-keyboard-response","95","503135","0.0-1.0-105.0-0.0","0","0","53304","","null","","","null","11","","","","","","","","","","","","","","","",""
"","time_out","","html-keyboard-response","96","505142","0.0-1.0-107.0-0.0","0","0","53304","","null","","","null","11","","","","","","","","","","","","","","","",""
"","ITI","","html-keyboard-response","97","506149","0.0-1.0-108.0","0","0","53304","","null","","","null","11","","","","","","","","","","","","","","","NaN",""
"","S1","","html-keyboard-response","98","506406","0.0-1.0-110.0","0","0","53304","","null","","","null","12","","","","","","","","","","","","","","","",""
"","ISI","","html-keyboard-response","99","506913","0.0-1.0-111.0","0","0","53304","","null","","","null","12","NaN","","","","","","","","","","","","","","",""
"","S2","","html-keyboard-response","100","507170","0.0-1.0-112.0","0","0","53304","","null","","","null","12","","NaN","","","","","","","","","","","","","",""
"","response","","html-keyboard-response","101","507590","0.0-1.0-113.0-0.0","0","0","53304","","413","","","75","12","","","1","12","training","adjacent","CD","3","4","P.jpg","N.jpg","0","1","0","",""
"","feedback","","html-keyboard-response","102","508600","0.0-1.0-114.0-0.0","0","0","53304","","null","","","null","12","","","","","","","","","","","","","","","",""
"","time_out","","html-keyboard-response","103","510604","0.0-1.0-116.0-0.0","0","0","53304","","null","","","null","12","","","","","","","","","","","","","","","",""
"","ITI","","html-keyboard-response","104","511611","0.0-1.0-117.0","0","0","53304","","null","","","null","12","","","","","","","","","","","","","","","NaN",""
"","S1","","html-keyboard-response","105","511870","0.0-1.0-119.0","0","0","53304","","null","","","null","13","","","","","","","","","","","","","","","",""
"","ISI","","html-keyboard-response","106","512374","0.0-1.0-120.0","0","0","53304","","null","","","null","13","NaN","","","","","","","","","","","","","","",""
"","S2","","html-keyboard-response","107","512629","0.0-1.0-121.0","0","0","53304","","null","","","null","13","","NaN","","","","","","","","","","","","","",""
"","response","","html-keyboard-response","108","513044","0.0-1.0-122.0-0.0","0","0","53304","","410","","","68","13","","","1","13","training","adjacent","DE","4","5","N.jpg","M.jpg","1","1","1","",""
"","feedback","","html-keyboard-response","109","514056","0.0-1.0-123.0-0.0","0","0","53304","","null","","","null","13","","","","","","","","","","","","","","","",""
"","ITI","","html-keyboard-response","110","515061","0.0-1.0-126.0","0","0","53304","","451","","","75","13","","","","","","","","","","","","","","","k",""
"","S1","","html-keyboard-response","111","515315","0.0-1.0-128.0","0","0","53304","","null","","","null","14","","","","","","","","","","","","","","","",""
"","ISI","","html-keyboard-response","112","515887","0.0-1.0-129.0","0","0","53304","","null","","","null","14","NaN","","","","","","","","","","","","","","",""
"","S2","","html-keyboard-response","113","516141","0.0-1.0-130.0","0","0","53304","","null","","","null","14","","NaN","","","","","","","","","","","","","",""
"","response","","html-keyboard-response","114","516895","0.0-1.0-131.0-0.0","0","0","53304","","748","","","68","14","","","1","14","training","adjacent","DC","4","3","N.jpg","P.jpg","1","0","0","",""
"","feedback","","html-keyboard-response","115","517903","0.0-1.0-132.0-0.0","0","0","53304","","null","","","null","14","","","","","","","","","","","","","","","",""
"","time_out","","html-keyboard-response","116","519909","0.0-1.0-134.0-0.0","0","0","53304","","null","","","null","14","","","","","","","","","","","","","","","",""
"","ITI","","html-keyboard-response","117","520914","0.0-1.0-135.0","0","0","53304","","null","","","null","14","","","","","","","","","","","","","","","NaN",""
"","S1","","html-keyboard-response","118","521218","0.0-1.0-137.0","0","0","53304","","null","","","null","15","","","","","","","","","","","","","","","",""
"","ISI","","html-keyboard-response","119","521722","0.0-1.0-138.0","0","0","53304","","null","","","null","15","NaN","","","","","","","","","","","","","","",""
"","S2","","html-keyboard-response","120","521777","0.0-1.0-139.0","0","0","53304","","51","","","68","15","","d","1","15","training","adjacent","BC","2","3","L.jpg","P.jpg","1","1","1","",""
"","feedback","","html-keyboard-response","121","522787","0.0-1.0-141.0-0.0","0","0","53304","","null","","","null","15","","","","","","","","","","","","","","","",""
"","ITI","","html-keyboard-response","122","523792","0.0-1.0-144.0","0","0","53304","","492","","","75","15","","","","","","","","","","","","","","","k",""
"","S1","","html-keyboard-response","123","524047","0.0-1.0-146.0","0","0","53304","","null","","","null","16","","","","","","","","","","","","","","","",""
"","ISI","","html-keyboard-response","124","524552","0.0-1.0-147.0","0","0","53304","","null","","","null","16","NaN","","","","","","","","","","","","","","",""
"","S2","","html-keyboard-response","125","524811","0.0-1.0-148.0","0","0","53304","","null","","","null","16","","NaN","","","","","","","","","","","","","",""
"","response","","html-keyboard-response","126","526074","0.0-1.0-149.0-0.0","0","0","53304","","1255","","","75","16","","","1","16","training","adjacent","FE","6","5","O.jpg","M.jpg","0","0","1","",""
"","feedback","","html-keyboard-response","127","527081","0.0-1.0-150.0-0.0","0","0","53304","","null","","","null","16","","","","","","","","","","","","","","","",""
"","ITI","","html-keyboard-response","128","528088","0.0-1.0-153.0","0","0","53304","","45","","","68","16","","","","","","","","","","","","","","","d",""
"","S1","","html-keyboard-response","129","528345","0.0-1.0-155.0","0","0","53304","","null","","","null","17","","","","","","","","","","","","","","","",""
"","ISI","","html-keyboard-response","130","528850","0.0-1.0-156.0","0","0","53304","","null","","","null","17","NaN","","","","","","","","","","","","","","",""
"","S2","","html-keyboard-response","131","529106","0.0-1.0-157.0","0","0","53304","","null","","","null","17","","NaN","","","","","","","","","","","","","",""
"","response","","html-keyboard-response","132","529274","0.0-1.0-158.0-0.0","0","0","53304","","163","","","68","17","","","1","17","training","adjacent","BC","2","3","L.jpg","P.jpg","1","1","1","",""
"","feedback","","html-keyboard-response","133","530319","0.0-1.0-159.0-0.0","0","0","53304","","null","","","null","17","","","","","","","","","","","","","","","",""
"","ITI","","html-keyboard-response","134","531327","0.0-1.0-162.0","0","0","53304","","28","","","75","17","","","","","","","","","","","","","","","k",""
"","S1","","html-keyboard-response","135","531584","0.0-1.0-164.0","0","0","53304","","null","","","null","18","","","","","","","","","","","","","","","",""
"","ISI","","html-keyboard-response","136","532088","0.0-1.0-165.0","0","0","53304","","null","","","null","18","NaN","","","","","","","","","","","","","","",""
"","S2","","html-keyboard-response","137","532344","0.0-1.0-166.0","0","0","53304","","null","","","null","18","","NaN","","","","","","","","","","","","","",""
"","response","","html-keyboard-response","138","533073","0.0-1.0-167.0-0.0","0","0","53304","","723","","","68","18","","","1","18","training","adjacent","AB","1","2","R.jpg","L.jpg","1","1","1","",""
"","feedback","","html-keyboard-response","139","534081","0.0-1.0-168.0-0.0","0","0","53304","","null","","","null","18","","","","","","","","","","","","","","","",""
"","ITI","","html-keyboard-response","140","535091","0.0-1.0-171.0","0","0","53304","","null","","","null","18","","","","","","","","","","","","","","","NaN",""
"","S1","","html-keyboard-response","141","535349","0.0-1.0-173.0","0","0","53304","","null","","","null","19","","","","","","","","","","","","","","","",""
"","ISI","","html-keyboard-response","142","535869","0.0-1.0-174.0","0","0","53304","","null","","","null","19","NaN","","","","","","","","","","","","","","",""
"","S2","","html-keyboard-response","143","536133","0.0-1.0-175.0","0","0","53304","","null","","","null","19","","NaN","","","","","","","","","","","","","",""
"","response","","html-keyboard-response","144","536625","0.0-1.0-176.0-0.0","0","0","53304","","487","","","75","19","","","1","19","training","adjacent","CB","3","2","P.jpg","L.jpg","0","0","1","",""
"","feedback","","html-keyboard-response","145","537630","0.0-1.0-177.0-0.0","0","0","53304","","null","","","null","19","","","","","","","","","","","","","","","",""
"","ITI","","html-keyboard-response","146","538637","0.0-1.0-180.0","0","0","53304","","null","","","null","19","","","","","","","","","","","","","","","NaN",""
"","S1","","html-keyboard-response","147","538956","0.0-1.0-182.0","0","0","53304","","null","","","null","20","","","","","","","","","","","","","","","",""
"","ISI","","html-keyboard-response","148","539461","0.0-1.0-183.0","0","0","53304","","null","","","null","20","NaN","","","","","","","","","","","","","","",""
"","S2","","html-keyboard-response","149","539524","0.0-1.0-184.0","0","0","53304","","59","","","68","20","","d","1","20","training","adjacent","BC","2","3","L.jpg","P.jpg","1","1","1","",""
"","feedback","","html-keyboard-response","150","540530","0.0-1.0-186.0-0.0","0","0","53304","","null","","","null","20","","","","","","","","","","","","","","","",""
"","ITI","","html-keyboard-response","151","541589","0.0-1.0-189.0","0","0","53304","","null","","","null","20","","","","","","","","","","","","","","","NaN",""
"","S1","","html-keyboard-response","152","541844","0.0-1.0-191.0","0","0","53304","","null","","","null","21","","","","","","","","","","","","","","","",""
"","ISI","","html-keyboard-response","153","542348","0.0-1.0-192.0","0","0","53304","","null","","","null","21","NaN","","","","","","","","","","","","","","",""
"","S2","","html-keyboard-response","154","542605","0.0-1.0-193.0","0","0","53304","","null","","","null","21","","NaN","","","","","","","","","","","","","",""
"","response","","html-keyboard-response","155","543083","0.0-1.0-194.0-0.0","0","0","53304","","473","","","68","21","","","1","21","training","adjacent","AB","1","2","R.jpg","L.jpg","1","1","1","",""
"","feedback","","html-keyboard-response","156","544089","0.0-1.0-195.0-0.0","0","0","53304","","null","","","null","21","","","","","","","","","","","","","","","",""
"","ITI","","html-keyboard-response","157","545100","0.0-1.0-198.0","0","0","53304","","null","","","null","21","","","","","","","","","","","","","","","NaN",""
"","S1","","html-keyboard-response","158","545356","0.0-1.0-200.0","0","0","53304","","null","","","null","22","","","","","","","","","","","","","","","",""
"","ISI","","html-keyboard-response","159","545870","0.0-1.0-201.0","0","0","53304","","null","","","null","22","NaN","","","","","","","","","","","","","","",""
"","S2","","html-keyboard-response","160","546127","0.0-1.0-202.0","0","0","53304","","null","","","null","22","","NaN","","","","","","","","","","","","","",""
"","response","","html-keyboard-response","161","546143","0.0-1.0-203.0-0.0","0","0","53304","","11","","","68","22","","","1","22","training","adjacent","BA","2","1","L.jpg","R.jpg","1","0","0","",""
"","feedback","","html-keyboard-response","162","547146","0.0-1.0-204.0-0.0","0","0","53304","","null","","","null","22","","","","","","","","","","","","","","","",""
"","time_out","","html-keyboard-response","163","549254","0.0-1.0-206.0-0.0","0","0","53304","","null","","","null","22","","","","","","","","","","","","","","","",""
"","ITI","","html-keyboard-response","164","550258","0.0-1.0-207.0","0","0","53304","","null","","","null","22","","","","","","","","","","","","","","","NaN",""
"","S1","","html-keyboard-response","165","550512","0.0-1.0-209.0","0","0","53304","","null","","","null","23","","","","","","","","","","","","","","","",""
"","ISI","","html-keyboard-response","166","551017","0.0-1.0-210.0","0","0","53304","","null","","","null","23","NaN","","","","","","","","","","","","","","",""
"","S2","","html-keyboard-response","167","551277","0.0-1.0-211.0","0","0","53304","","null","","","null","23","","NaN","","","","","","","","","","","","","",""
"","response","","html-keyboard-response","168","552246","0.0-1.0-212.0-0.0","0","0","53304","","964","","","75","23","","","1","23","training","adjacent","FE","6","5","O.jpg","M.jpg","0","0","1","",""
"","feedback","","html-keyboard-response","169","553253","0.0-1.0-213.0-0.0","0","0","53304","","null","","","null","23","","","","","","","","","","","","","","","",""
"","ITI","","html-keyboard-response","170","554262","0.0-1.0-216.0","0","0","53304","","null","","","null","23","","","","","","","","","","","","","","","NaN",""
"","S1","","html-keyboard-response","171","554518","0.0-1.0-218.0","0","0","53304","","null","","","null","24","","","","","","","","","","","","","","","",""
"","ISI","","html-keyboard-response","172","555023","0.0-1.0-219.0","0","0","53304","","null","","","null","24","NaN","","","","","","","","","","","","","","",""
"","S2","","html-keyboard-response","173","555278","0.0-1.0-220.0","0","0","53304","","null","","","null","24","","NaN","","","","","","","","","","","","","",""
"","response","","html-keyboard-response","174","555814","0.0-1.0-221.0-0.0","0","0","53304","","531","","","68","24","","","1","24","training","adjacent","FE","6","5","O.jpg","M.jpg","1","0","0","",""
"","feedback","","html-keyboard-response","175","556819","0.0-1.0-222.0-0.0","0","0","53304","","null","","","null","24","","","","","","","","","","","","","","","",""
"","time_out","","html-keyboard-response","176","558824","0.0-1.0-224.0-0.0","0","0","53304","","null","","","null","24","","","","","","","","","","","","","","","",""
"","ITI","","html-keyboard-response","177","559829","0.0-1.0-225.0","0","0","53304","","null","","","null","24","","","","","","","","","","","","","","","NaN",""
"","S1","","html-keyboard-response","178","560087","0.0-1.0-227.0","0","0","53304","","null","","","null","25","","","","","","","","","","","","","","","",""
"","ISI","","html-keyboard-response","179","560592","0.0-1.0-228.0","0","0","53304","","null","","","null","25","NaN","","","","","","","","","","","","","","",""
"","S2","","html-keyboard-response","180","560848","0.0-1.0-229.0","0","0","53304","","null","","","null","25","","NaN","","","","","","","","","","","","","",""
"","response","","html-keyboard-response","181","561976","0.0-1.0-230.0-0.0","0","0","53304","","1124","","","75","25","","","1","25","training","adjacent","DE","4","5","N.jpg","M.jpg","0","1","0","",""
"","feedback","","html-keyboard-response","182","563007","0.0-1.0-231.0-0.0","0","0","53304","","null","","","null","25","","","","","","","","","","","","","","","",""
"","time_out","","html-keyboard-response","183","565017","0.0-1.0-233.0-0.0","0","0","53304","","null","","","null","25","","","","","","","","","","","","","","","",""
"","ITI","","html-keyboard-response","184","566024","0.0-1.0-234.0","0","0","53304","","null","","","null","25","","","","","","","","","","","","","","","NaN",""
"","S1","","html-keyboard-response","185","566280","0.0-1.0-236.0","0","0","53304","","null","","","null","26","","","","","","","","","","","","","","","",""
"","ISI","","html-keyboard-response","186","566785","0.0-1.0-237.0","0","0","53304","","null","","","null","26","NaN","","","","","","","","","","","","","","",""
"","S2","","html-keyboard-response","187","567040","0.0-1.0-238.0","0","0","53304","","null","","","null","26","","NaN","","","","","","","","","","","","","",""
"","response","","html-keyboard-response","188","567675","0.0-1.0-239.0-0.0","0","0","53304","","629","","","68","26","","","1","26","training","adjacent","FE","6","5","O.jpg","M.jpg","1","0","0","",""
"","feedback","","html-keyboard-response","189","568682","0.0-1.0-240.0-0.0","0","0","53304","","null","","","null","26","","","","","","","","","","","","","","","",""
"","time_out","","html-keyboard-response","190","570691","0.0-1.0-242.0-0.0","0","0","53304","","null","","","null","26","","","","","","","","","","","","","","","",""
"","ITI","","html-keyboard-response","191","571698","0.0-1.0-243.0","0","0","53304","","null","","","null","26","","","","","","","","","","","","","","","NaN",""
"","S1","","html-keyboard-response","192","571953","0.0-1.0-245.0","0","0","53304","","null","","","null","27","","","","","","","","","","","","","","","",""
"","ISI","","html-keyboard-response","193","572456","0.0-1.0-246.0","0","0","53304","","null","","","null","27","NaN","","","","","","","","","","","","","","",""
"","S2","","html-keyboard-response","194","572712","0.0-1.0-247.0","0","0","53304","","null","","","null","27","","NaN","","","","","","","","","","","","","",""
"","response","","html-keyboard-response","195","573337","0.0-1.0-248.0-0.0","0","0","53304","","621","","","68","27","","","1","27","training","adjacent","DE","4","5","N.jpg","M.jpg","1","1","1","",""
"","feedback","","html-keyboard-response","196","574345","0.0-1.0-249.0-0.0","0","0","53304","","null","","","null","27","","","","","","","","","","","","","","","",""
"","ITI","","html-keyboard-response","197","575353","0.0-1.0-252.0","0","0","53304","","null","","","null","27","","","","","","","","","","","","","","","NaN",""
"","S1","","html-keyboard-response","198","575651","0.0-1.0-254.0","0","0","53304","","null","","","null","28","","","","","","","","","","","","","","","",""
"","ISI","","html-keyboard-response","199","576159","0.0-1.0-255.0","0","0","53304","","null","","","null","28","NaN","","","","","","","","","","","","","","",""
"","S2","","html-keyboard-response","200","576415","0.0-1.0-256.0","0","0","53304","","null","","","null","28","","NaN","","","","","","","","","","","","","",""
"","response","","html-keyboard-response","201","576543","0.0-1.0-257.0-0.0","0","0","53304","","124","","","75","28","","","1","28","training","adjacent","CB","3","2","P.jpg","L.jpg","0","0","1","",""
"","feedback","","html-keyboard-response","202","577555","0.0-1.0-258.0-0.0","0","0","53304","","null","","","null","28","","","","","","","","","","","","","","","",""
"","ITI","","html-keyboard-response","203","578563","0.0-1.0-261.0","0","0","53304","","null","","","null","28","","","","","","","","","","","","","","","NaN",""
"","S1","","html-keyboard-response","204","578818","0.0-1.0-263.0","0","0","53304","","null","","","null","29","","","","","","","","","","","","","","","",""
"","ISI","","html-keyboard-response","205","579324","0.0-1.0-264.0","0","0","53304","","null","","","null","29","NaN","","","","","","","","","","","","","","",""
"","S2","","html-keyboard-response","206","579454","0.0-1.0-265.0","0","0","53304","","123","","","68","29","","d","1","29","training","adjacent","BA","2","1","L.jpg","R.jpg","1","0","0","",""
"","feedback","","html-keyboard-response","207","580470","0.0-1.0-267.0-0.0","0","0","53304","","null","","","null","29","","","","","","","","","","","","","","","",""
"","time_out","","html-keyboard-response","208","582478","0.0-1.0-269.0-0.0","0","0","53304","","null","","","null","29","","","","","","","","","","","","","","","",""
"","ITI","","html-keyboard-response","209","583482","0.0-1.0-270.0","0","0","53304","","null","","","null","29","","","","","","","","","","","","","","","NaN",""
"","S1","","html-keyboard-response","210","583738","0.0-1.0-272.0","0","0","53304","","null","","","null","30","","","","","","","","","","","","","","","",""
"","ISI","","html-keyboard-response","211","584242","0.0-1.0-273.0","0","0","53304","","null","","","null","30","NaN","","","","","","","","","","","","","","",""
"","S2","","html-keyboard-response","212","584305","0.0-1.0-274.0","0","0","53304","","59","","","68","30","","d","1","30","training","adjacent","EF","5","6","M.jpg","O.jpg","1","1","1","",""
"","feedback","","html-keyboard-response","213","585312","0.0-1.0-276.0-0.0","0","0","53304","","null","","","null","30","","","","","","","","","","","","","","","",""
"","ITI","","html-keyboard-response","214","586318","0.0-1.0-279.0","0","0","53304","","null","","","null","30","","","","","","","","","","","","","","","NaN",""
"","S1","","html-keyboard-response","215","586588","0.0-1.0-281.0","0","0","53304","","null","","","null","31","","","","","","","","","","","","","","","",""
"","ISI","","html-keyboard-response","216","587095","0.0-1.0-282.0","0","0","53304","","null","","","null","31","NaN","","","","","","","","","","","","","","",""
"","S2","","html-keyboard-response","217","587349","0.0-1.0-283.0","0","0","53304","","243","","","75","31","","k","1","31","training","adjacent","BA","2","1","L.jpg","R.jpg","0","0","1","",""
"","feedback","","html-keyboard-response","218","588361","0.0-1.0-285.0-0.0","0","0","53304","","null","","","null","31","","","","","","","","","","","","","","","",""
"","ITI","","html-keyboard-response","219","589368","0.0-1.0-288.0","0","0","53304","","null","","","null","31","","","","","","","","","","","","","","","NaN",""
"","S1","","html-keyboard-response","220","589625","0.0-1.0-290.0","0","0","53304","","null","","","null","32","","","","","","","","","","","","","","","",""
"","ISI","","html-keyboard-response","221","590128","0.0-1.0-291.0","0","0","53304","","null","","","null","32","NaN","","","","","","","","","","","","","","",""
"","S2","","html-keyboard-response","222","590384","0.0-1.0-292.0","0","0","53304","","null","","","null","32","","NaN","","","","","","","","","","","","","",""
"","response","","html-keyboard-response","223","590868","0.0-1.0-293.0-0.0","0","0","53304","","476","","","75","32","","","1","32","training","adjacent","ED","5","4","M.jpg","N.jpg","0","0","1","",""
"","feedback","","html-keyboard-response","224","591874","0.0-1.0-294.0-0.0","0","0","53304","","null","","","null","32","","","","","","","","","","","","","","","",""
"","ITI","","html-keyboard-response","225","592879","0.0-1.0-297.0","0","0","53304","","null","","","null","32","","","","","","","","","","","","","","","NaN",""
"","S1","","html-keyboard-response","226","593135","0.0-1.0-299.0","0","0","53304","","null","","","null","33","","","","","","","","","","","","","","","",""
"","ISI","","html-keyboard-response","227","593640","0.0-1.0-300.0","0","0","53304","","null","","","null","33","NaN","","","","","","","","","","","","","","",""
"","S2","","html-keyboard-response","228","593897","0.0-1.0-301.0","0","0","53304","","null","","","null","33","","NaN","","","","","","","","","","","","","",""
"","response","","html-keyboard-response","229","595702","0.0-1.0-302.0-0.0","0","0","53304","","null","","","null","33","","","1","33","training","adjacent","GF","7","6","Q.jpg","O.jpg","NaN","0","0","",""
"","too_slow_prompt","","html-keyboard-response","230","596709","0.0-1.0-304.0-0.0","1","0","53304","","null","","","null","","","","","","","","","","","","","","","","",""
"","time_out","","html-keyboard-response","231","598715","0.0-1.0-305.0-0.0","0","0","53304","","null","","","null","33","","","","","","","","","","","","","","","",""
"","ITI","","html-keyboard-response","232","599721","0.0-1.0-306.0","0","0","53304","","null","","","null","33","","","","","","","","","","","","","","","NaN",""
"","S1","","html-keyboard-response","233","599979","0.0-1.0-308.0","0","0","53304","","null","","","null","34","","","","","","","","","","","","","","","",""
"","ISI","","html-keyboard-response","234","600484","0.0-1.0-309.0","0","0","53304","","null","","","null","34","NaN","","","","","","","","","","","","","","",""
"","S2","","html-keyboard-response","235","600738","0.0-1.0-310.0","0","0","53304","","null","","","null","34","","NaN","","","","","","","","","","","","","",""
"","response","","html-keyboard-response","236","601315","0.0-1.0-311.0-0.0","0","0","53304","","571","","","68","34","","","1","34","training","adjacent","DC","4","3","N.jpg","P.jpg","1","0","0","",""
"","feedback","","html-keyboard-response","237","602330","0.0-1.0-312.0-0.0","0","0","53304","","null","","","null","34","","","","","","","","","","","","","","","",""
"","time_out","","html-keyboard-response","238","604344","0.0-1.0-314.0-0.0","0","0","53304","","null","","","null","34","","","","","","","","","","","","","","","",""
"","ITI","","html-keyboard-response","239","605353","0.0-1.0-315.0","0","0","53304","","null","","","null","34","","","","","","","","","","","","","","","NaN",""
"","S1","","html-keyboard-response","240","605620","0.0-1.0-317.0","0","0","53304","","null","","","null","35","","","","","","","","","","","","","","","",""
"","ISI","","html-keyboard-response","241","606125","0.0-1.0-318.0","0","0","53304","","null","","","null","35","NaN","","","","","","","","","","","","","","",""
"","S2","","html-keyboard-response","242","606385","0.0-1.0-319.0","0","0","53304","","null","","","null","35","","NaN","","","","","","","","","","","","","",""
"","response","","html-keyboard-response","243","606852","0.0-1.0-320.0-0.0","0","0","53304","","459","","","75","35","","","1","35","training","adjacent","CD","3","4","P.jpg","N.jpg","0","1","0","",""
"","feedback","","html-keyboard-response","244","607861","0.0-1.0-321.0-0.0","0","0","53304","","null","","","null","35","","","","","","","","","","","","","","","",""
"","time_out","","html-keyboard-response","245","609869","0.0-1.0-323.0-0.0","0","0","53304","","null","","","null","35","","","","","","","","","","","","","","","",""
"","ITI","","html-keyboard-response","246","610880","0.0-1.0-324.0","0","0","53304","","null","","","null","35","","","","","","","","","","","","","","","NaN",""
"","S1","","html-keyboard-response","247","611133","0.0-1.0-326.0","0","0","53304","","null","","","null","36","","","","","","","","","","","","","","","",""
"","ISI","","html-keyboard-response","248","611640","0.0-1.0-327.0","0","0","53304","","null","","","null","36","NaN","","","","","","","","","","","","","","",""
"","S2","","html-keyboard-response","249","611894","0.0-1.0-328.0","0","0","53304","","null","","","null","36","","NaN","","","","","","","","","","","","","",""
"","response","","html-keyboard-response","250","613651","0.0-1.0-329.0-0.0","0","0","53304","","null","","","null","36","","","1","36","training","adjacent","FG","6","7","O.jpg","Q.jpg","NaN","1","0","",""
"","too_slow_prompt","","html-keyboard-response","251","614660","0.0-1.0-331.0-0.0","1","0","53304","","null","","","null","","","","","","","","","","","","","","","","",""
"","time_out","","html-keyboard-response","252","616667","0.0-1.0-332.0-0.0","0","0","53304","","null","","","null","36","","","","","","","","","","","","","","","",""
"","ITI","","html-keyboard-response","253","617671","0.0-1.0-333.0","0","0","53304","","null","","","null","36","","","","","","","","","","","","","","","NaN",""
"","S1","","html-keyboard-response","254","617926","0.0-1.0-335.0","0","0","53304","","null","","","null","37","","","","","","","","","","","","","","","",""
"","ISI","","html-keyboard-response","255","618429","0.0-1.0-336.0","0","0","53304","","null","","","null","37","NaN","","","","","","","","","","","","","","",""
"","S2","","html-keyboard-response","256","618689","0.0-1.0-337.0","0","0","53304","","null","","","null","37","","NaN","","","","","","","","","","","","","",""
"","response","","html-keyboard-response","257","618984","0.0-1.0-338.0-0.0","0","0","53304","","289","","","75","37","","","1","37","training","adjacent","FG","6","7","O.jpg","Q.jpg","0","1","0","",""
"","feedback","","html-keyboard-response","258","619994","0.0-1.0-339.0-0.0","0","0","53304","","null","","","null","37","","","","","","","","","","","","","","","",""
"","time_out","","html-keyboard-response","259","622001","0.0-1.0-341.0-0.0","0","0","53304","","null","","","null","37","","","","","","","","","","","","","","","",""
"","ITI","","html-keyboard-response","260","623006","0.0-1.0-342.0","0","0","53304","","null","","","null","37","","","","","","","","","","","","","","","NaN",""
"","S1","","html-keyboard-response","261","623261","0.0-1.0-344.0","0","0","53304","","null","","","null","38","","","","","","","","","","","","","","","",""
"","ISI","","html-keyboard-response","262","623765","0.0-1.0-345.0","0","0","53304","","null","","","null","38","NaN","","","","","","","","","","","","","","",""
"","S2","","html-keyboard-response","263","624022","0.0-1.0-346.0","0","0","53304","","null","","","null","38","","NaN","","","","","","","","","","","","","",""
"","response","","html-keyboard-response","264","624704","0.0-1.0-347.0-0.0","0","0","53304","","678","","","68","38","","","1","38","training","adjacent","DE","4","5","N.jpg","M.jpg","1","1","1","",""
"","feedback","","html-keyboard-response","265","625709","0.0-1.0-348.0-0.0","0","0","53304","","null","","","null","38","","","","","","","","","","","","","","","",""
"","ITI","","html-keyboard-response","266","626714","0.0-1.0-351.0","0","0","53304","","230","","","68","38","","","","","","","","","","","","","","","d",""
"","S1","","html-keyboard-response","267","626969","0.0-1.0-353.0","0","0","53304","","null","","","null","39","","","","","","","","","","","","","","","",""
"","ISI","","html-keyboard-response","268","627482","0.0-1.0-354.0","0","0","53304","","null","","","null","39","NaN","","","","","","","","","","","","","","",""
"","S2","","html-keyboard-response","269","627746","0.0-1.0-355.0","0","0","53304","","null","","","null","39","","NaN","","","","","","","","","","","","","",""
"","response","","html-keyboard-response","270","628665","0.0-1.0-356.0-0.0","0","0","53304","","915","","","75","39","","","1","39","training","adjacent","DC","4","3","N.jpg","P.jpg","0","0","1","",""
"","feedback","","html-keyboard-response","271","629672","0.0-1.0-357.0-0.0","0","0","53304","","null","","","null","39","","","","","","","","","","","","","","","",""
"","ITI","","html-keyboard-response","272","630679","0.0-1.0-360.0","0","0","53304","","325","","","68","39","","","","","","","","","","","","","","","d",""
"","S1","","html-keyboard-response","273","630952","0.0-1.0-362.0","0","0","53304","","null","","","null","40","","","","","","","","","","","","","","","",""
"","ISI","","html-keyboard-response","274","631467","0.0-1.0-363.0","0","0","53304","","null","","","null","40","NaN","","","","","","","","","","","","","","",""
"","S2","","html-keyboard-response","275","631723","0.0-1.0-364.0","0","0","53304","","null","","","null","40","","NaN","","","","","","","","","","","","","",""
"","response","","html-keyboard-response","276","631821","0.0-1.0-365.0-0.0","0","0","53304","","93","","","68","40","","","1","40","training","adjacent","CB","3","2","P.jpg","L.jpg","1","0","0","",""
"","feedback","","html-keyboard-response","277","632826","0.0-1.0-366.0-0.0","0","0","53304","","null","","","null","40","","","","","","","","","","","","","","","",""
"","time_out","","html-keyboard-response","278","634832","0.0-1.0-368.0-0.0","0","0","53304","","null","","","null","40","","","","","","","","","","","","","","","",""
"","ITI","","html-keyboard-response","279","635837","0.0-1.0-369.0","0","0","53304","","null","","","null","40","","","","","","","","","","","","","","","NaN",""
"","S1","","html-keyboard-response","280","636152","0.0-1.0-371.0","0","0","53304","","null","","","null","41","","","","","","","","","","","","","","","",""
"","ISI","","html-keyboard-response","281","636656","0.0-1.0-372.0","0","0","53304","","null","","","null","41","NaN","","","","","","","","","","","","","","",""
"","S2","","html-keyboard-response","282","636917","0.0-1.0-373.0","0","0","53304","","null","","","null","41","","NaN","","","","","","","","","","","","","",""
"","response","","html-keyboard-response","283","638675","0.0-1.0-374.0-0.0","0","0","53304","","null","","","null","41","","","1","41","training","adjacent","FG","6","7","O.jpg","Q.jpg","NaN","1","0","",""
"","too_slow_prompt","","html-keyboard-response","284","639699","0.0-1.0-376.0-0.0","1","0","53304","","null","","","null","","","","","","","","","","","","","","","","",""
"","time_out","","html-keyboard-response","285","641706","0.0-1.0-377.0-0.0","0","0","53304","","null","","","null","41","","","","","","","","","","","","","","","",""
"","ITI","","html-keyboard-response","286","642713","0.0-1.0-378.0","0","0","53304","","null","","","null","41","","","","","","","","","","","","","","","NaN",""
"","S1","","html-keyboard-response","287","642970","0.0-1.0-380.0","0","0","53304","","null","","","null","42","","","","","","","","","","","","","","","",""
"","ISI","","html-keyboard-response","288","643477","0.0-1.0-381.0","0","0","53304","","null","","","null","42","NaN","","","","","","","","","","","","","","",""
"","S2","","html-keyboard-response","289","643736","0.0-1.0-382.0","0","0","53304","","null","","","null","42","","NaN","","","","","","","","","","","","","",""
"","response","","html-keyboard-response","290","644679","0.0-1.0-383.0-0.0","0","0","53304","","939","","","75","42","","","1","42","training","adjacent","CD","3","4","P.jpg","N.jpg","0","1","0","",""
"","feedback","","html-keyboard-response","291","645684","0.0-1.0-384.0-0.0","0","0","53304","","null","","","null","42","","","","","","","","","","","","","","","",""
"","time_out","","html-keyboard-response","292","647693","0.0-1.0-386.0-0.0","0","0","53304","","null","","","null","42","","","","","","","","","","","","","","","",""
"","ITI","","html-keyboard-response","293","648706","0.0-1.0-387.0","0","0","53304","","null","","","null","42","","","","","","","","","","","","","","","NaN",""
"","S1","","html-keyboard-response","294","648966","0.0-1.0-389.0","0","0","53304","","null","","","null","43","","","","","","","","","","","","","","","",""
"","ISI","","html-keyboard-response","295","649474","0.0-1.0-390.0","0","0","53304","","null","","","null","43","NaN","","","","","","","","","","","","","","",""
"","S2","","html-keyboard-response","296","649531","0.0-1.0-391.0","0","0","53304","","52","","","68","43","","d","1","43","training","adjacent","BC","2","3","L.jpg","P.jpg","1","1","1","",""
"","feedback","","html-keyboard-response","297","650585","0.0-1.0-393.0-0.0","0","0","53304","","null","","","null","43","","","","","","","","","","","","","","","",""
"","ITI","","html-keyboard-response","298","651592","0.0-1.0-396.0","0","0","53304","","null","","","null","43","","","","","","","","","","","","","","","NaN",""
"","S1","","html-keyboard-response","299","651846","0.0-1.0-398.0","0","0","53304","","null","","","null","44","","","","","","","","","","","","","","","",""
"","ISI","","html-keyboard-response","300","652351","0.0-1.0-399.0","0","0","53304","","null","","","null","44","NaN","","","","","","","","","","","","","","",""
"","S2","","html-keyboard-response","301","652617","0.0-1.0-400.0","0","0","53304","","null","","","null","44","","NaN","","","","","","","","","","","","","",""
"","response","","html-keyboard-response","302","653375","0.0-1.0-401.0-0.0","0","0","53304","","751","","","68","44","","","1","44","training","adjacent","GF","7","6","Q.jpg","O.jpg","1","0","0","",""
"","feedback","","html-keyboard-response","303","654383","0.0-1.0-402.0-0.0","0","0","53304","","null","","","null","44","","","","","","","","","","","","","","","",""
"","time_out","","html-keyboard-response","304","656387","0.0-1.0-404.0-0.0","0","0","53304","","null","","","null","44","","","","","","","","","","","","","","","",""
"","ITI","","html-keyboard-response","305","657393","0.0-1.0-405.0","0","0","53304","","null","","","null","44","","","","","","","","","","","","","","","NaN",""
"","S1","","html-keyboard-response","306","657649","0.0-1.0-407.0","0","0","53304","","null","","","null","45","","","","","","","","","","","","","","","",""
"","ISI","","html-keyboard-response","307","658154","0.0-1.0-408.0","0","0","53304","","null","","","null","45","NaN","","","","","","","","","","","","","","",""
"","S2","","html-keyboard-response","308","658381","0.0-1.0-409.0","0","0","53304","","222","","","75","45","","k","1","45","training","adjacent","CD","3","4","P.jpg","N.jpg","0","1","0","",""
"","feedback","","html-keyboard-response","309","659388","0.0-1.0-411.0-0.0","0","0","53304","","null","","","null","45","","","","","","","","","","","","","","","",""
"","time_out","","html-keyboard-response","310","661410","0.0-1.0-413.0-0.0","0","0","53304","","null","","","null","45","","","","","","","","","","","","","","","",""
"","ITI","","html-keyboard-response","311","662417","0.0-1.0-414.0","0","0","53304","","null","","","null","45","","","","","","","","","","","","","","","NaN",""
"","S1","","html-keyboard-response","312","662682","0.0-1.0-416.0","0","0","53304","","null","","","null","46","","","","","","","","","","","","","","","",""
"","ISI","","html-keyboard-response","313","663188","0.0-1.0-417.0","0","0","53304","","null","","","null","46","NaN","","","","","","","","","","","","","","",""
"","S2","","html-keyboard-response","314","663449","0.0-1.0-418.0","0","0","53304","","null","","","null","46","","NaN","","","","","","","","","","","","","",""
"","response","","html-keyboard-response","315","664442","0.0-1.0-419.0-0.0","0","0","53304","","989","","","75","46","","","1","46","training","adjacent","GF","7","6","Q.jpg","O.jpg","0","0","1","",""
"","feedback","","html-keyboard-response","316","665450","0.0-1.0-420.0-0.0","0","0","53304","","null","","","null","46","","","","","","","","","","","","","","","",""
"","ITI","","html-keyboard-response","317","666457","0.0-1.0-423.0","0","0","53304","","1","","","68","46","","","","","","","","","","","","","","","d",""
"","S1","","html-keyboard-response","318","666713","0.0-1.0-425.0","0","0","53304","","null","","","null","47","","","","","","","","","","","","","","","",""
"","ISI","","html-keyboard-response","319","667216","0.0-1.0-426.0","0","0","53304","","null","","","null","47","NaN","","","","","","","","","","","","","","",""
"","S2","","html-keyboard-response","320","667471","0.0-1.0-427.0","0","0","53304","","null","","","null","47","","NaN","","","","","","","","","","","","","",""
"","response","","html-keyboard-response","321","668635","0.0-1.0-428.0-0.0","0","0","53304","","1157","","","75","47","","","1","47","training","adjacent","ED","5","4","M.jpg","N.jpg","0","0","1","",""
"","feedback","","html-keyboard-response","322","669642","0.0-1.0-429.0-0.0","0","0","53304","","null","","","null","47","","","","","","","","","","","","","","","",""
"","ITI","","html-keyboard-response","323","670648","0.0-1.0-432.0","0","0","53304","","null","","","null","47","","","","","","","","","","","","","","","NaN",""
"","block_over","","html-keyboard-response","324","678568","0.0-1.0-433.0-0.0","0","0","53304","","7906","","","32","47","","","","","","","","","","","","","","","",""
"","S1","","html-keyboard-response","325","678825","0.0-1.0-434.0","0","0","53304","","null","","","null","48","","","","","","","","","","","","","","","",""
"","ISI","","html-keyboard-response","326","679330","0.0-1.0-435.0","0","0","53304","","null","","","null","48","NaN","","","","","","","","","","","","","","",""
"","S2","","html-keyboard-response","327","679587","0.0-1.0-436.0","0","0","53304","","null","","","null","48","","NaN","","","","","","","","","","","","","",""
"","response","","html-keyboard-response","328","681347","0.0-1.0-437.0-0.0","0","0","53304","","null","","","null","48","","","2","48","training","adjacent","EF","5","6","M.jpg","O.jpg","NaN","1","0","",""
"","too_slow_prompt","","html-keyboard-response","329","682410","0.0-1.0-439.0-0.0","1","0","53304","","null","","","null","","","","","","","","","","","","","","","","",""
"","time_out","","html-keyboard-response","330","684417","0.0-1.0-440.0-0.0","0","0","53304","","null","","","null","48","","","","","","","","","","","","","","","",""
"","ITI","","html-keyboard-response","331","685426","0.0-1.0-441.0","0","0","53304","","null","","","null","48","","","","","","","","","","","","","","","NaN",""
"","S1","","html-keyboard-response","332","685686","0.0-1.0-443.0","0","0","53304","","null","","","null","49","","","","","","","","","","","","","","","",""
"","ISI","","html-keyboard-response","333","686190","0.0-1.0-444.0","0","0","53304","","null","","","null","49","NaN","","","","","","","","","","","","","","",""
"","S2","","html-keyboard-response","334","686450","0.0-1.0-445.0","0","0","53304","","null","","","null","49","","NaN","","","","","","","","","","","","","",""
"","response","","html-keyboard-response","335","686757","0.0-1.0-446.0-0.0","0","0","53304","","301","","","75","49","","","2","49","training","adjacent","FG","6","7","O.jpg","Q.jpg","0","1","0","",""
"","feedback","","html-keyboard-response","336","687763","0.0-1.0-447.0-0.0","0","0","53304","","null","","","null","49","","","","","","","","","","","","","","","",""
"","time_out","","html-keyboard-response","337","689770","0.0-1.0-449.0-0.0","0","0","53304","","null","","","null","49","","","","","","","","","","","","","","","",""
"","ITI","","html-keyboard-response","338","690777","0.0-1.0-450.0","0","0","53304","","null","","","null","49","","","","","","","","","","","","","","","NaN",""
"","S1","","html-keyboard-response","339","691032","0.0-1.0-452.0","0","0","53304","","null","","","null","50","","","","","","","","","","","","","","","",""
"","ISI","","html-keyboard-response","340","691537","0.0-1.0-453.0","0","0","53304","","490","","","68","50","d","","","","","","","","","","","","","","",""
"","S2","","html-keyboard-response","341","691795","0.0-1.0-454.0","0","0","53304","","null","","","null","50","","NaN","","","","","","","","","","","","","",""
"","response","","html-keyboard-response","342","692208","0.0-1.0-455.0-0.0","0","0","53304","","407","","","68","50","","","2","50","training","adjacent","BC","2","3","L.jpg","P.jpg","1","1","1","",""
"","feedback","","html-keyboard-response","343","693214","0.0-1.0-456.0-0.0","0","0","53304","","null","","","null","50","","","","","","","","","","","","","","","",""
"","ITI","","html-keyboard-response","344","694229","0.0-1.0-459.0","0","0","53304","","null","","","null","50","","","","","","","","","","","","","","","NaN",""
"","S1","","html-keyboard-response","345","694484","0.0-1.0-461.0","0","0","53304","","null","","","null","51","","","","","","","","","","","","","","","",""
"","ISI","","html-keyboard-response","346","695003","0.0-1.0-462.0","0","0","53304","","null","","","null","51","NaN","","","","","","","","","","","","","","",""
"","S2","","html-keyboard-response","347","695305","0.0-1.0-463.0","0","0","53304","","null","","","null","51","","NaN","","","","","","","","","","","","","",""
"","response","","html-keyboard-response","348","695809","0.0-1.0-464.0-0.0","0","0","53304","","498","","","68","51","","","2","51","training","adjacent","CB","3","2","P.jpg","L.jpg","1","0","0","",""
"","feedback","","html-keyboard-response","349","696815","0.0-1.0-465.0-0.0","0","0","53304","","null","","","null","51","","","","","","","","","","","","","","","",""
"","time_out","","html-keyboard-response","350","698822","0.0-1.0-467.0-0.0","0","0","53304","","null","","","null","51","","","","","","","","","","","","","","","",""
"","ITI","","html-keyboard-response","351","699836","0.0-1.0-468.0","0","0","53304","","null","","","null","51","","","","","","","","","","","","","","","NaN",""
"","S1","","html-keyboard-response","352","700096","0.0-1.0-470.0","0","0","53304","","null","","","null","52","","","","","","","","","","","","","","","",""
"","ISI","","html-keyboard-response","353","700642","0.0-1.0-471.0","0","0","53304","","null","","","null","52","NaN","","","","","","","","","","","","","","",""
"","S2","","html-keyboard-response","354","700897","0.0-1.0-472.0","0","0","53304","","null","","","null","52","","NaN","","","","","","","","","","","","","",""
"","response","","html-keyboard-response","355","701282","0.0-1.0-473.0-0.0","0","0","53304","","379","","","75","52","","","2","52","training","adjacent","ED","5","4","M.jpg","N.jpg","0","0","1","",""
"","feedback","","html-keyboard-response","356","702286","0.0-1.0-474.0-0.0","0","0","53304","","null","","","null","52","","","","","","","","","","","","","","","",""
"","ITI","","html-keyboard-response","357","703292","0.0-1.0-477.0","0","0","53304","","null","","","null","52","","","","","","","","","","","","","","","NaN",""
"","S1","","html-keyboard-response","358","703546","0.0-1.0-479.0","0","0","53304","","null","","","null","53","","","","","","","","","","","","","","","",""
"","ISI","","html-keyboard-response","359","704049","0.0-1.0-480.0","0","0","53304","","null","","","null","53","NaN","","","","","","","","","","","","","","",""
"","S2","","html-keyboard-response","360","704333","0.0-1.0-481.0","0","0","53304","","null","","","null","53","","NaN","","","","","","","","","","","","","",""
"","response","","html-keyboard-response","361","704818","0.0-1.0-482.0-0.0","0","0","53304","","477","","","75","53","","","2","53","training","adjacent","FG","6","7","O.jpg","Q.jpg","0","1","0","",""
"","feedback","","html-keyboard-response","362","705826","0.0-1.0-483.0-0.0","0","0","53304","","null","","","null","53","","","","","","","","","","","","","","","",""
"","time_out","","html-keyboard-response","363","707834","0.0-1.0-485.0-0.0","0","0","53304","","null","","","null","53","","","","","","","","","","","","","","","",""
"","ITI","","html-keyboard-response","364","708839","0.0-1.0-486.0","0","0","53304","","null","","","null","53","","","","","","","","","","","","","","","NaN",""
"","S1","","html-keyboard-response","365","709094","0.0-1.0-488.0","0","0","53304","","null","","","null","54","","","","","","","","","","","","","","","",""
"","ISI","","html-keyboard-response","366","709599","0.0-1.0-489.0","0","0","53304","","null","","","null","54","NaN","","","","","","","","","","","","","","",""
"","S2","","html-keyboard-response","367","709824","0.0-1.0-490.0","0","0","53304","","218","","","75","54","","k","2","54","training","adjacent","FE","6","5","O.jpg","M.jpg","0","0","1","",""
"","feedback","","html-keyboard-response","368","710839","0.0-1.0-492.0-0.0","0","0","53304","","null","","","null","54","","","","","","","","","","","","","","","",""
"","ITI","","html-keyboard-response","369","711844","0.0-1.0-495.0","0","0","53304","","227","","","75","54","","","","","","","","","","","","","","","k",""
"","S1","","html-keyboard-response","370","712101","0.0-1.0-497.0","0","0","53304","","null","","","null","55","","","","","","","","","","","","","","","",""
"","ISI","","html-keyboard-response","371","712610","0.0-1.0-498.0","0","0","53304","","null","","","null","55","NaN","","","","","","","","","","","","","","",""
"","S2","","html-keyboard-response","372","712906","0.0-1.0-499.0","0","0","53304","","null","","","null","55","","NaN","","","","","","","","","","","","","",""
"","response","","html-keyboard-response","373","714663","0.0-1.0-500.0-0.0","0","0","53304","","null","","","null","55","","","2","55","training","adjacent","EF","5","6","M.jpg","O.jpg","NaN","1","0","",""
"","too_slow_prompt","","html-keyboard-response","374","715671","0.0-1.0-502.0-0.0","1","0","53304","","null","","","null","","","","","","","","","","","","","","","","",""
"","time_out","","html-keyboard-response","375","717683","0.0-1.0-503.0-0.0","0","0","53304","","null","","","null","55","","","","","","","","","","","","","","","",""
"","ITI","","html-keyboard-response","376","718693","0.0-1.0-504.0","0","0","53304","","null","","","null","55","","","","","","","","","","","","","","","NaN",""
"","S1","","html-keyboard-response","377","718947","0.0-1.0-506.0","0","0","53304","","null","","","null","56","","","","","","","","","","","","","","","",""
"","ISI","","html-keyboard-response","378","719450","0.0-1.0-507.0","0","0","53304","","null","","","null","56","NaN","","","","","","","","","","","","","","",""
"","S2","","html-keyboard-response","379","719706","0.0-1.0-508.0","0","0","53304","","null","","","null","56","","NaN","","","","","","","","","","","","","",""
"","response","","html-keyboard-response","380","720008","0.0-1.0-509.0-0.0","0","0","53304","","298","","","75","56","","","2","56","training","adjacent","DC","4","3","N.jpg","P.jpg","0","0","1","",""
"","feedback","","html-keyboard-response","381","721013","0.0-1.0-510.0-0.0","0","0","53304","","null","","","null","56","","","","","","","","","","","","","","","",""
"","ITI","","html-keyboard-response","382","722017","0.0-1.0-513.0","0","0","53304","","73","","","68","56","","","","","","","","","","","","","","","d",""
"","S1","","html-keyboard-response","383","722271","0.0-1.0-515.0","0","0","53304","","null","","","null","57","","","","","","","","","","","","","","","",""
"","ISI","","html-keyboard-response","384","722776","0.0-1.0-516.0","0","0","53304","","null","","","null","57","NaN","","","","","","","","","","","","","","",""
"","S2","","html-keyboard-response","385","722984","0.0-1.0-517.0","0","0","53304","","203","","","68","57","","d","2","57","training","adjacent","BA","2","1","L.jpg","R.jpg","1","0","0","",""
"","feedback","","html-keyboard-response","386","723998","0.0-1.0-519.0-0.0","0","0","53304","","null","","","null","57","","","","","","","","","","","","","","","",""
"","time_out","","html-keyboard-response","387","726008","0.0-1.0-521.0-0.0","0","0","53304","","null","","","null","57","","","","","","","","","","","","","","","",""
"","ITI","","html-keyboard-response","388","727014","0.0-1.0-522.0","0","0","53304","","null","","","null","57","","","","","","","","","","","","","","","NaN",""
"","S1","","html-keyboard-response","389","727271","0.0-1.0-524.0","0","0","53304","","null","","","null","58","","","","","","","","","","","","","","","",""
"","ISI","","html-keyboard-response","390","727777","0.0-1.0-525.0","0","0","53304","","null","","","null","58","NaN","","","","","","","","","","","","","","",""
"","S2","","html-keyboard-response","391","727943","0.0-1.0-526.0","0","0","53304","","160","","","75","58","","k","2","58","training","adjacent","ED","5","4","M.jpg","N.jpg","0","0","1","",""
"","feedback","","html-keyboard-response","392","728951","0.0-1.0-528.0-0.0","0","0","53304","","null","","","null","58","","","","","","","","","","","","","","","",""
"","ITI","","html-keyboard-response","393","729957","0.0-1.0-531.0","0","0","53304","","43","","","68","58","","","","","","","","","","","","","","","d",""
"","S1","","html-keyboard-response","394","730213","0.0-1.0-533.0","0","0","53304","","null","","","null","59","","","","","","","","","","","","","","","",""
"","ISI","","html-keyboard-response","395","730718","0.0-1.0-534.0","0","0","53304","","null","","","null","59","NaN","","","","","","","","","","","","","","",""
"","S2","","html-keyboard-response","396","730972","0.0-1.0-535.0","0","0","53304","","null","","","null","59","","NaN","","","","","","","","","","","","","",""
"","response","","html-keyboard-response","397","731935","0.0-1.0-536.0-0.0","0","0","53304","","956","","","75","59","","","2","59","training","adjacent","DE","4","5","N.jpg","M.jpg","0","1","0","",""
"","feedback","","html-keyboard-response","398","732942","0.0-1.0-537.0-0.0","0","0","53304","","null","","","null","59","","","","","","","","","","","","","","","",""
"","time_out","","html-keyboard-response","399","734952","0.0-1.0-539.0-0.0","0","0","53304","","null","","","null","59","","","","","","","","","","","","","","","",""
"","ITI","","html-keyboard-response","400","735960","0.0-1.0-540.0","0","0","53304","","null","","","null","59","","","","","","","","","","","","","","","NaN",""
"","S1","","html-keyboard-response","401","736238","0.0-1.0-542.0","0","0","53304","","null","","","null","60","","","","","","","","","","","","","","","",""
"","ISI","","html-keyboard-response","402","736742","0.0-1.0-543.0","0","0","53304","","null","","","null","60","NaN","","","","","","","","","","","","","","",""
"","S2","","html-keyboard-response","403","737013","0.0-1.0-544.0","0","0","53304","","null","","","null","60","","NaN","","","","","","","","","","","","","",""
"","response","","html-keyboard-response","404","737396","0.0-1.0-545.0-0.0","0","0","53304","","378","","","68","60","","","2","60","training","adjacent","BA","2","1","L.jpg","R.jpg","1","0","0","",""
"","feedback","","html-keyboard-response","405","738425","0.0-1.0-546.0-0.0","0","0","53304","","null","","","null","60","","","","","","","","","","","","","","","",""
"","time_out","","html-keyboard-response","406","740443","0.0-1.0-548.0-0.0","0","0","53304","","null","","","null","60","","","","","","","","","","","","","","","",""
"","ITI","","html-keyboard-response","407","741451","0.0-1.0-549.0","0","0","53304","","null","","","null","60","","","","","","","","","","","","","","","NaN",""
"","S1","","html-keyboard-response","408","741704","0.0-1.0-551.0","0","0","53304","","null","","","null","61","","","","","","","","","","","","","","","",""
"","ISI","","html-keyboard-response","409","742211","0.0-1.0-552.0","0","0","53304","","null","","","null","61","NaN","","","","","","","","","","","","","","",""
"","S2","","html-keyboard-response","410","742470","0.0-1.0-553.0","0","0","53304","","null","","","null","61","","NaN","","","","","","","","","","","","","",""
"","response","","html-keyboard-response","411","742693","0.0-1.0-554.0-0.0","0","0","53304","","216","","","75","61","","","2","61","training","adjacent","CB","3","2","P.jpg","L.jpg","0","0","1","",""
"","feedback","","html-keyboard-response","412","743702","0.0-1.0-555.0-0.0","0","0","53304","","null","","","null","61","","","","","","","","","","","","","","","",""
"","ITI","","html-keyboard-response","413","744707","0.0-1.0-558.0","0","0","53304","","186","","","68","61","","","","","","","","","","","","","","","d",""
"","S1","","html-keyboard-response","414","744963","0.0-1.0-560.0","0","0","53304","","null","","","null","62","","","","","","","","","","","","","","","",""
"","ISI","","html-keyboard-response","415","745469","0.0-1.0-561.0","0","0","53304","","null","","","null","62","NaN","","","","","","","","","","","","","","",""
"","S2","","html-keyboard-response","416","745724","0.0-1.0-562.0","0","0","53304","","null","","","null","62","","NaN","","","","","","","","","","","","","",""
"","response","","html-keyboard-response","417","746360","0.0-1.0-563.0-0.0","0","0","53304","","630","","","75","62","","","2","62","training","adjacent","CB","3","2","P.jpg","L.jpg","0","0","1","",""
"","feedback","","html-keyboard-response","418","747368","0.0-1.0-564.0-0.0","0","0","53304","","null","","","null","62","","","","","","","","","","","","","","","",""
"","ITI","","html-keyboard-response","419","748375","0.0-1.0-567.0","0","0","53304","","35","","","68","62","","","","","","","","","","","","","","","d",""
"","S1","","html-keyboard-response","420","748631","0.0-1.0-569.0","0","0","53304","","null","","","null","63","","","","","","","","","","","","","","","",""
"","ISI","","html-keyboard-response","421","749136","0.0-1.0-570.0","0","0","53304","","null","","","null","63","NaN","","","","","","","","","","","","","","",""
"","S2","","html-keyboard-response","422","749156","0.0-1.0-571.0","0","0","53304","","16","","","75","63","","k","2","63","training","adjacent","BC","2","3","L.jpg","P.jpg","0","1","0","",""
"","feedback","","html-keyboard-response","423","750164","0.0-1.0-573.0-0.0","0","0","53304","","null","","","null","63","","","","","","","","","","","","","","","",""
"","time_out","","html-keyboard-response","424","752170","0.0-1.0-575.0-0.0","0","0","53304","","null","","","null","63","","","","","","","","","","","","","","","",""
"","ITI","","html-keyboard-response","425","753178","0.0-1.0-576.0","0","0","53304","","null","","","null","63","","","","","","","","","","","","","","","NaN",""
"","S1","","html-keyboard-response","426","753434","0.0-1.0-578.0","0","0","53304","","null","","","null","64","","","","","","","","","","","","","","","",""
"","ISI","","html-keyboard-response","427","753939","0.0-1.0-579.0","0","0","53304","","null","","","null","64","NaN","","","","","","","","","","","","","","",""
"","S2","","html-keyboard-response","428","754104","0.0-1.0-580.0","0","0","53304","","157","","","75","64","","k","2","64","training","adjacent","EF","5","6","M.jpg","O.jpg","0","1","0","",""
"","feedback","","html-keyboard-response","429","755113","0.0-1.0-582.0-0.0","0","0","53304","","null","","","null","64","","","","","","","","","","","","","","","",""
"","time_out","","html-keyboard-response","430","757122","0.0-1.0-584.0-0.0","0","0","53304","","null","","","null","64","","","","","","","","","","","","","","","",""
"","ITI","","html-keyboard-response","431","758131","0.0-1.0-585.0","0","0","53304","","null","","","null","64","","","","","","","","","","","","","","","NaN",""
"","S1","","html-keyboard-response","432","758387","0.0-1.0-587.0","0","0","53304","","null","","","null","65","","","","","","","","","","","","","","","",""
"","ISI","","html-keyboard-response","433","758892","0.0-1.0-588.0","0","0","53304","","null","","","null","65","NaN","","","","","","","","","","","","","","",""
"","S2","","html-keyboard-response","434","759149","0.0-1.0-589.0","0","0","53304","","null","","","null","65","","NaN","","","","","","","","","","","","","",""
"","response","","html-keyboard-response","435","759163","0.0-1.0-590.0-0.0","0","0","53304","","9","","","75","65","","","2","65","training","adjacent","GF","7","6","Q.jpg","O.jpg","0","0","1","",""
"","feedback","","html-keyboard-response","436","760169","0.0-1.0-591.0-0.0","0","0","53304","","null","","","null","65","","","","","","","","","","","","","","","",""
"","ITI","","html-keyboard-response","437","761177","0.0-1.0-594.0","0","0","53304","","25","","","68","65","","","","","","","","","","","","","","","d",""
"","S1","","html-keyboard-response","438","761436","0.0-1.0-596.0","0","0","53304","","null","","","null","66","","","","","","","","","","","","","","","",""
"","ISI","","html-keyboard-response","439","761942","0.0-1.0-597.0","0","0","53304","","null","","","null","66","NaN","","","","","","","","","","","","","","",""
"","S2","","html-keyboard-response","440","762140","0.0-1.0-598.0","0","0","53304","","190","","","75","66","","k","2","66","training","adjacent","CB","3","2","P.jpg","L.jpg","0","0","1","",""
"","feedback","","html-keyboard-response","441","763146","0.0-1.0-600.0-0.0","0","0","53304","","null","","","null","66","","","","","","","","","","","","","","","",""
"","ITI","","html-keyboard-response","442","764162","0.0-1.0-603.0","0","0","53304","","17","","","68","66","","","","","","","","","","","","","","","d",""
"","S1","","html-keyboard-response","443","764421","0.0-1.0-605.0","0","0","53304","","null","","","null","67","","","","","","","","","","","","","","","",""
"","ISI","","html-keyboard-response","444","764927","0.0-1.0-606.0","0","0","53304","","null","","","null","67","NaN","","","","","","","","","","","","","","",""
"","S2","","html-keyboard-response","445","765144","0.0-1.0-607.0","0","0","53304","","209","","","75","67","","k","2","67","training","adjacent","DC","4","3","N.jpg","P.jpg","0","0","1","",""
"","feedback","","html-keyboard-response","446","766155","0.0-1.0-609.0-0.0","0","0","53304","","null","","","null","67","","","","","","","","","","","","","","","",""
"","ITI","","html-keyboard-response","447","767160","0.0-1.0-612.0","0","0","53304","","89","","","68","67","","","","","","","","","","","","","","","d",""
"","S1","","html-keyboard-response","448","767416","0.0-1.0-614.0","0","0","53304","","null","","","null","68","","","","","","","","","","","","","","","",""
"","ISI","","html-keyboard-response","449","767921","0.0-1.0-615.0","0","0","53304","","null","","","null","68","NaN","","","","","","","","","","","","","","",""
"","S2","","html-keyboard-response","450","768179","0.0-1.0-616.0","0","0","53304","","null","","","null","68","","NaN","","","","","","","","","","","","","",""
"","response","","html-keyboard-response","451","768444","0.0-1.0-617.0-0.0","0","0","53304","","257","","","75","68","","","2","68","training","adjacent","ED","5","4","M.jpg","N.jpg","0","0","1","",""
"","feedback","","html-keyboard-response","452","769471","0.0-1.0-618.0-0.0","0","0","53304","","null","","","null","68","","","","","","","","","","","","","","","",""
"","ITI","","html-keyboard-response","453","770477","0.0-1.0-621.0","0","0","53304","","null","","","null","68","","","","","","","","","","","","","","","NaN",""
"","S1","","html-keyboard-response","454","770740","0.0-1.0-623.0","0","0","53304","","null","","","null","69","","","","","","","","","","","","","","","",""
"","ISI","","html-keyboard-response","455","771246","0.0-1.0-624.0","0","0","53304","","484","","","75","69","k","","","","","","","","","","","","","","",""
"","S2","","html-keyboard-response","456","771505","0.0-1.0-625.0","0","0","53304","","null","","","null","69","","NaN","","","","","","","","","","","","","",""
"","response","","html-keyboard-response","457","771961","0.0-1.0-626.0-0.0","0","0","53304","","451","","","68","69","","","2","69","training","adjacent","AB","1","2","R.jpg","L.jpg","1","1","1","",""
"","feedback","","html-keyboard-response","458","772970","0.0-1.0-627.0-0.0","0","0","53304","","null","","","null","69","","","","","","","","","","","","","","","",""
"","ITI","","html-keyboard-response","459","773981","0.0-1.0-630.0","0","0","53304","","null","","","null","69","","","","","","","","","","","","","","","NaN",""
"","S1","","html-keyboard-response","460","774240","0.0-1.0-632.0","0","0","53304","","null","","","null","70","","","","","","","","","","","","","","","",""
"","ISI","","html-keyboard-response","461","774749","0.0-1.0-633.0","0","0","53304","","484","","","75","70","k","","","","","","","","","","","","","","",""
"","S2","","html-keyboard-response","462","775008","0.0-1.0-634.0","0","0","53304","","null","","","null","70","","NaN","","","","","","","","","","","","","",""
"","response","","html-keyboard-response","463","775412","0.0-1.0-635.0-0.0","0","0","53304","","398","","","75","70","","","2","70","training","adjacent","FG","6","7","O.jpg","Q.jpg","0","1","0","",""
"","feedback","","html-keyboard-response","464","776419","0.0-1.0-636.0-0.0","0","0","53304","","null","","","null","70","","","","","","","","","","","","","","","",""
"","time_out","","html-keyboard-response","465","778426","0.0-1.0-638.0-0.0","0","0","53304","","null","","","null","70","","","","","","","","","","","","","","","",""
"","ITI","","html-keyboard-response","466","779434","0.0-1.0-639.0","0","0","53304","","null","","","null","70","","","","","","","","","","","","","","","NaN",""
"","S1","","html-keyboard-response","467","779691","0.0-1.0-641.0","0","0","53304","","null","","","null","71","","","","","","","","","","","","","","","",""
"","ISI","","html-keyboard-response","468","780201","0.0-1.0-642.0","0","0","53304","","null","","","null","71","NaN","","","","","","","","","","","","","","",""
"","S2","","html-keyboard-response","469","780291","0.0-1.0-643.0","0","0","53304","","85","","","68","71","","d","2","71","training","adjacent","DC","4","3","N.jpg","P.jpg","1","0","0","",""
"","feedback","","html-keyboard-response","470","781302","0.0-1.0-645.0-0.0","0","0","53304","","null","","","null","71","","","","","","","","","","","","","","","",""
"","time_out","","html-keyboard-response","471","783312","0.0-1.0-647.0-0.0","0","0","53304","","null","","","null","71","","","","","","","","","","","","","","","",""
"","ITI","","html-keyboard-response","472","784319","0.0-1.0-648.0","0","0","53304","","null","","","null","71","","","","","","","","","","","","","","","NaN",""
"","S1","","html-keyboard-response","473","784574","0.0-1.0-650.0","0","0","53304","","null","","","null","72","","","","","","","","","","","","","","","",""
"","ISI","","html-keyboard-response","474","785080","0.0-1.0-651.0","0","0","53304","","null","","","null","72","NaN","","","","","","","","","","","","","","",""
"","S2","","html-keyboard-response","475","785130","0.0-1.0-652.0","0","0","53304","","44","","","75","72","","k","2","72","training","adjacent","FE","6","5","O.jpg","M.jpg","0","0","1","",""
"","feedback","","html-keyboard-response","476","786138","0.0-1.0-654.0-0.0","0","0","53304","","null","","","null","72","","","","","","","","","","","","","","","",""
"","ITI","","html-keyboard-response","477","787143","0.0-1.0-657.0","0","0","53304","","14","","","68","72","","","","","","","","","","","","","","","d",""
"","S1","","html-keyboard-response","478","787400","0.0-1.0-659.0","0","0","53304","","null","","","null","73","","","","","","","","","","","","","","","",""
"","ISI","","html-keyboard-response","479","787907","0.0-1.0-660.0","0","0","53304","","null","","","null","73","NaN","","","","","","","","","","","","","","",""
"","S2","","html-keyboard-response","480","788134","0.0-1.0-661.0","0","0","53304","","220","","","75","73","","k","2","73","training","adjacent","CD","3","4","P.jpg","N.jpg","0","1","0","",""
"","feedback","","html-keyboard-response","481","789140","0.0-1.0-663.0-0.0","0","0","53304","","null","","","null","73","","","","","","","","","","","","","","","",""
"","time_out","","html-keyboard-response","482","791151","0.0-1.0-665.0-0.0","0","0","53304","","null","","","null","73","","","","","","","","","","","","","","","",""
"","ITI","","html-keyboard-response","483","792159","0.0-1.0-666.0","0","0","53304","","null","","","null","73","","","","","","","","","","","","","","","NaN",""
"","S1","","html-keyboard-response","484","792415","0.0-1.0-668.0","0","0","53304","","null","","","null","74","","","","","","","","","","","","","","","",""
"","ISI","","html-keyboard-response","485","792921","0.0-1.0-669.0","0","0","53304","","null","","","null","74","NaN","","","","","","","","","","","","","","",""
"","S2","","html-keyboard-response","486","792998","0.0-1.0-670.0","0","0","53304","","70","","","75","74","","k","2","74","training","adjacent","ED","5","4","M.jpg","N.jpg","0","0","1","",""
"","feedback","","html-keyboard-response","487","794007","0.0-1.0-672.0-0.0","0","0","53304","","null","","","null","74","","","","","","","","","","","","","","","",""
"","ITI","","html-keyboard-response","488","795011","0.0-1.0-675.0","0","0","53304","","68","","","68","74","","","","","","","","","","","","","","","d",""
"","S1","","html-keyboard-response","489","795268","0.0-1.0-677.0","0","0","53304","","null","","","null","75","","","","","","","","","","","","","","","",""
"","ISI","","html-keyboard-response","490","795799","0.0-1.0-678.0","0","0","53304","","null","","","null","75","NaN","","","","","","","","","","","","","","",""
"","S2","","html-keyboard-response","491","795960","0.0-1.0-679.0","0","0","53304","","157","","","68","75","","d","2","75","training","adjacent","BA","2","1","L.jpg","R.jpg","1","0","0","",""
"","feedback","","html-keyboard-response","492","796968","0.0-1.0-681.0-0.0","0","0","53304","","null","","","null","75","","","","","","","","","","","","","","","",""
"","time_out","","html-keyboard-response","493","798979","0.0-1.0-683.0-0.0","0","0","53304","","null","","","null","75","","","","","","","","","","","","","","","",""
"","ITI","","html-keyboard-response","494","799987","0.0-1.0-684.0","0","0","53304","","null","","","null","75","","","","","","","","","","","","","","","NaN",""
"","S1","","html-keyboard-response","495","800243","0.0-1.0-686.0","0","0","53304","","null","","","null","76","","","","","","","","","","","","","","","",""
"","ISI","","html-keyboard-response","496","800747","0.0-1.0-687.0","0","0","53304","","423","","","75","76","k","","","","","","","","","","","","","","",""
"","S2","","html-keyboard-response","497","801003","0.0-1.0-688.0","0","0","53304","","null","","","null","76","","NaN","","","","","","","","","","","","","",""
"","response","","html-keyboard-response","498","801313","0.0-1.0-689.0-0.0","0","0","53304","","304","","","75","76","","","2","76","training","adjacent","DE","4","5","N.jpg","M.jpg","0","1","0","",""
"","feedback","","html-keyboard-response","499","802320","0.0-1.0-690.0-0.0","0","0","53304","","null","","","null","76","","","","","","","","","","","","","","","",""
"","time_out","","html-keyboard-response","500","804326","0.0-1.0-692.0-0.0","0","0","53304","","null","","","null","76","","","","","","","","","","","","","","","",""
"","ITI","","html-keyboard-response","501","805379","0.0-1.0-693.0","0","0","53304","","null","","","null","76","","","","","","","","","","","","","","","NaN",""
"","S1","","html-keyboard-response","502","805636","0.0-1.0-695.0","0","0","53304","","null","","","null","77","","","","","","","","","","","","","","","",""
"","ISI","","html-keyboard-response","503","806141","0.0-1.0-696.0","0","0","53304","","null","","","null","77","NaN","","","","","","","","","","","","","","",""
"","S2","","html-keyboard-response","504","806395","0.0-1.0-697.0","0","0","53304","","null","","","null","77","","NaN","","","","","","","","","","","","","",""
"","response","","html-keyboard-response","505","806837","0.0-1.0-698.0-0.0","0","0","53304","","437","","","75","77","","","2","77","training","adjacent","DE","4","5","N.jpg","M.jpg","0","1","0","",""
"","feedback","","html-keyboard-response","506","807844","0.0-1.0-699.0-0.0","0","0","53304","","null","","","null","77","","","","","","","","","","","","","","","",""
"","time_out","","html-keyboard-response","507","809851","0.0-1.0-701.0-0.0","0","0","53304","","null","","","null","77","","","","","","","","","","","","","","","",""
"","ITI","","html-keyboard-response","508","810857","0.0-1.0-702.0","0","0","53304","","null","","","null","77","","","","","","","","","","","","","","","NaN",""
"","S1","","html-keyboard-response","509","811163","0.0-1.0-704.0","0","0","53304","","null","","","null","78","","","","","","","","","","","","","","","",""
"","ISI","","html-keyboard-response","510","811708","0.0-1.0-705.0","0","0","53304","","361","","","75","78","k","","","","","","","","","","","","","","",""
"","S2","","html-keyboard-response","511","811973","0.0-1.0-706.0","0","0","53304","","null","","","null","78","","NaN","","","","","","","","","","","","","",""
"","response","","html-keyboard-response","512","812392","0.0-1.0-707.0-0.0","0","0","53304","","416","","","75","78","","","2","78","training","adjacent","CD","3","4","P.jpg","N.jpg","0","1","0","",""
"","feedback","","html-keyboard-response","513","813399","0.0-1.0-708.0-0.0","0","0","53304","","null","","","null","78","","","","","","","","","","","","","","","",""
"","time_out","","html-keyboard-response","514","815407","0.0-1.0-710.0-0.0","0","0","53304","","null","","","null","78","","","","","","","","","","","","","","","",""
"","ITI","","html-keyboard-response","515","816412","0.0-1.0-711.0","0","0","53304","","null","","","null","78","","","","","","","","","","","","","","","NaN",""
"","S1","","html-keyboard-response","516","816668","0.0-1.0-713.0","0","0","53304","","null","","","null","79","","","","","","","","","","","","","","","",""
"","ISI","","html-keyboard-response","517","817175","0.0-1.0-714.0","0","0","53304","","null","","","null","79","NaN","","","","","","","","","","","","","","",""
"","S2","","html-keyboard-response","518","817413","0.0-1.0-715.0","0","0","53304","","232","","","68","79","","d","2","79","training","adjacent","BC","2","3","L.jpg","P.jpg","1","1","1","",""
"","feedback","","html-keyboard-response","519","818421","0.0-1.0-717.0-0.0","0","0","53304","","null","","","null","79","","","","","","","","","","","","","","","",""
"","ITI","","html-keyboard-response","520","819434","0.0-1.0-720.0","0","0","53304","","null","","","null","79","","","","","","","","","","","","","","","NaN",""
"","S1","","html-keyboard-response","521","819690","0.0-1.0-722.0","0","0","53304","","null","","","null","80","","","","","","","","","","","","","","","",""
"","ISI","","html-keyboard-response","522","820203","0.0-1.0-723.0","0","0","53304","","null","","","null","80","NaN","","","","","","","","","","","","","","",""
"","S2","","html-keyboard-response","523","820384","0.0-1.0-724.0","0","0","53304","","173","","","75","80","","k","2","80","training","adjacent","FE","6","5","O.jpg","M.jpg","0","0","1","",""
"","feedback","","html-keyboard-response","524","821402","0.0-1.0-726.0-0.0","0","0","53304","","null","","","null","80","","","","","","","","","","","","","","","",""
"","ITI","","html-keyboard-response","525","822417","0.0-1.0-729.0","0","0","53304","","110","","","68","80","","","","","","","","","","","","","","","d",""
"","S1","","html-keyboard-response","526","822679","0.0-1.0-731.0","0","0","53304","","null","","","null","81","","","","","","","","","","","","","","","",""
"","ISI","","html-keyboard-response","527","823184","0.0-1.0-732.0","0","0","53304","","null","","","null","81","NaN","","","","","","","","","","","","","","",""
"","S2","","html-keyboard-response","528","823364","0.0-1.0-733.0","0","0","53304","","171","","","75","81","","k","2","81","training","adjacent","AB","1","2","R.jpg","L.jpg","0","1","0","",""
"","feedback","","html-keyboard-response","529","824372","0.0-1.0-735.0-0.0","0","0","53304","","null","","","null","81","","","","","","","","","","","","","","","",""
"","time_out","","html-keyboard-response","530","826383","0.0-1.0-737.0-0.0","0","0","53304","","null","","","null","81","","","","","","","","","","","","","","","",""
"","ITI","","html-keyboard-response","531","827406","0.0-1.0-738.0","0","0","53304","","null","","","null","81","","","","","","","","","","","","","","","NaN",""
"","S1","","html-keyboard-response","532","827660","0.0-1.0-740.0","0","0","53304","","null","","","null","82","","","","","","","","","","","","","","","",""
"","ISI","","html-keyboard-response","533","828242","0.0-1.0-741.0","0","0","53304","","null","","","null","82","NaN","","","","","","","","","","","","","","",""
"","S2","","html-keyboard-response","534","828458","0.0-1.0-742.0","0","0","53304","","209","","","68","82","","d","2","82","training","adjacent","BC","2","3","L.jpg","P.jpg","1","1","1","",""
"","feedback","","html-keyboard-response","535","829468","0.0-1.0-744.0-0.0","0","0","53304","","null","","","null","82","","","","","","","","","","","","","","","",""
"","ITI","","html-keyboard-response","536","830475","0.0-1.0-747.0","0","0","53304","","312","","","75","82","","","","","","","","","","","","","","","k",""
"","S1","","html-keyboard-response","537","830729","0.0-1.0-749.0","0","0","53304","","null","","","null","83","","","","","","","","","","","","","","","",""
"","ISI","","html-keyboard-response","538","831233","0.0-1.0-750.0","0","0","53304","","null","","","null","83","NaN","","","","","","","","","","","","","","",""
"","S2","","html-keyboard-response","539","831489","0.0-1.0-751.0","0","0","53304","","null","","","null","83","","NaN","","","","","","","","","","","","","",""
"","response","","html-keyboard-response","540","831494","0.0-1.0-752.0-0.0","0","0","53304","","0","","","75","83","","","2","83","training","adjacent","AB","1","2","R.jpg","L.jpg","0","1","0","",""
"","feedback","","html-keyboard-response","541","832500","0.0-1.0-753.0-0.0","0","0","53304","","null","","","null","83","","","","","","","","","","","","","","","",""
"","time_out","","html-keyboard-response","542","834507","0.0-1.0-755.0-0.0","0","0","53304","","null","","","null","83","","","","","","","","","","","","","","","",""
"","ITI","","html-keyboard-response","543","835515","0.0-1.0-756.0","0","0","53304","","null","","","null","83","","","","","","","","","","","","","","","NaN",""
"","S1","","html-keyboard-response","544","835778","0.0-1.0-758.0","0","0","53304","","null","","","null","84","","","","","","","","","","","","","","","",""
"","ISI","","html-keyboard-response","545","836284","0.0-1.0-759.0","0","0","53304","","null","","","null","84","NaN","","","","","","","","","","","","","","",""
"","S2","","html-keyboard-response","546","836392","0.0-1.0-760.0","0","0","53304","","101","","","75","84","","k","2","84","training","adjacent","CD","3","4","P.jpg","N.jpg","0","1","0","",""
"","feedback","","html-keyboard-response","547","837398","0.0-1.0-762.0-0.0","0","0","53304","","null","","","null","84","","","","","","","","","","","","","","","",""
"","time_out","","html-keyboard-response","548","839410","0.0-1.0-764.0-0.0","0","0","53304","","null","","","null","84","","","","","","","","","","","","","","","",""
"","ITI","","html-keyboard-response","549","840417","0.0-1.0-765.0","0","0","53304","","null","","","null","84","","","","","","","","","","","","","","","NaN",""
"","S1","","html-keyboard-response","550","840719","0.0-1.0-767.0","0","0","53304","","null","","","null","85","","","","","","","","","","","","","","","",""
"","ISI","","html-keyboard-response","551","841224","0.0-1.0-768.0","0","0","53304","","null","","","null","85","NaN","","","","","","","","","","","","","","",""
"","S2","","html-keyboard-response","552","841487","0.0-1.0-769.0","0","0","53304","","null","","","null","85","","NaN","","","","","","","","","","","","","",""
"","response","","html-keyboard-response","553","841643","0.0-1.0-770.0-0.0","0","0","53304","","139","","","75","85","","","2","85","training","adjacent","GF","7","6","Q.jpg","O.jpg","0","0","1","",""
"","feedback","","html-keyboard-response","554","842646","0.0-1.0-771.0-0.0","0","0","53304","","null","","","null","85","","","","","","","","","","","","","","","",""
"","ITI","","html-keyboard-response","555","843651","0.0-1.0-774.0","0","0","53304","","null","","","null","85","","","","","","","","","","","","","","","NaN",""
"","S1","","html-keyboard-response","556","843907","0.0-1.0-776.0","0","0","53304","","null","","","null","86","","","","","","","","","","","","","","","",""
"","ISI","","html-keyboard-response","557","844412","0.0-1.0-777.0","0","0","53304","","null","","","null","86","NaN","","","","","","","","","","","","","","",""
"","S2","","html-keyboard-response","558","844428","0.0-1.0-778.0","0","0","53304","","11","","","75","86","","k","2","86","training","adjacent","CD","3","4","P.jpg","N.jpg","0","1","0","",""
"","feedback","","html-keyboard-response","559","845437","0.0-1.0-780.0-0.0","0","0","53304","","null","","","null","86","","","","","","","","","","","","","","","",""
"","time_out","","html-keyboard-response","560","847455","0.0-1.0-782.0-0.0","0","0","53304","","null","","","null","86","","","","","","","","","","","","","","","",""
"","ITI","","html-keyboard-response","561","848462","0.0-1.0-783.0","0","0","53304","","null","","","null","86","","","","","","","","","","","","","","","NaN",""
"","S1","","html-keyboard-response","562","848721","0.0-1.0-785.0","0","0","53304","","null","","","null","87","","","","","","","","","","","","","","","",""
"","ISI","","html-keyboard-response","563","849236","0.0-1.0-786.0","0","0","53304","","null","","","null","87","NaN","","","","","","","","","","","","","","",""
"","S2","","html-keyboard-response","564","849238","0.0-1.0-787.0","0","0","53304","","0","","","75","87","","k","2","87","training","adjacent","DE","4","5","N.jpg","M.jpg","0","1","0","",""
"","feedback","","html-keyboard-response","565","850243","0.0-1.0-789.0-0.0","0","0","53304","","null","","","null","87","","","","","","","","","","","","","","","",""
"","time_out","","html-keyboard-response","566","852264","0.0-1.0-791.0-0.0","0","0","53304","","null","","","null","87","","","","","","","","","","","","","","","",""
"","ITI","","html-keyboard-response","567","853268","0.0-1.0-792.0","0","0","53304","","null","","","null","87","","","","","","","","","","","","","","","NaN",""
"","S1","","html-keyboard-response","568","853525","0.0-1.0-794.0","0","0","53304","","null","","","null","88","","","","","","","","","","","","","","","",""
"","ISI","","html-keyboard-response","569","854034","0.0-1.0-795.0","0","0","53304","","null","","","null","88","NaN","","","","","","","","","","","","","","",""
"","S2","","html-keyboard-response","570","854179","0.0-1.0-796.0","0","0","53304","","139","","","75","88","","k","2","88","training","adjacent","GF","7","6","Q.jpg","O.jpg","0","0","1","",""
"","feedback","","html-keyboard-response","571","855184","0.0-1.0-798.0-0.0","0","0","53304","","null","","","null","88","","","","","","","","","","","","","","","",""
"","ITI","","html-keyboard-response","572","856192","0.0-1.0-801.0","0","0","53304","","null","","","null","88","","","","","","","","","","","","","","","NaN",""
