"success","ttype","start_time","trial_type","trial_index","time_elapsed","internal_node_id","warning","missed_checkup","PID","view_history","rt","responses","repeat_instructions","key_press","index","keypress_isi","keypress_S2","block","trial_num","phase","group_type","pair_type","S1_stim","S2_stim","S1_img","S2_img","S1_chosen","S1_higher","accuracy","keypress_iti","total_bonus_tally"
"true","full_screen","d04132023hr1534","fullscreen","0","6384","0.0-0.0","0","0","72045","","","","","","","","","","","","","","","","","","","","","",""
"","instructions","","instructions","1","46923","0.0-1.0-0.0-0.0","0","0","72045","[{""page_index"":0,""viewing_time"":4460},{""page_index"":1,""viewing_time"":10787},{""page_index"":2,""viewing_time"":4170},{""page_index"":1,""viewing_time"":12004},{""page_index"":2,""viewing_time"":7682},{""page_index"":3,""viewing_time"":1425}]","40529","","","","","","","","","","","","","","","","","","","",""
"","comprehension_check","","survey-multi-choice","2","63954","0.0-1.0-0.0-1.0","0","0","72045","","17023","{""Q0"":""True"",""Q1"":""K"",""Q2"":""Once the second image appears and while the screen 'MAKE A CHOICE' is shown"",""Q3"":""Green mark"",""Q4"":""either D or K""}","0","","","","","","","","","","","","","","","","","",""
"","start_exp","","html-keyboard-response","3","67169","0.0-1.0-1.0","0","0","72045","","3206","","","32","","","","","","","","","","","","","","","","",""
"","S1","","html-keyboard-response","4","67425","0.0-1.0-2.0","0","0","72045","","null","","","null","0","","","","","","","","","","","","","","","",""
"","ISI","","html-keyboard-response","5","68433","0.0-1.0-3.0","0","0","72045","","null","","","null","0","NaN","","","","","","","","","","","","","","",""
"","S2","","html-keyboard-response","6","68689","0.0-1.0-4.0","0","0","72045","","null","","","null","0","","NaN","","","","","","","","","","","","","",""
"","response","","html-keyboard-response","7","69915","0.0-1.0-5.0-0.0","0","0","72045","","1223","","","68","0","","","1","0","training","adjacent","CD","3","4","Q.jpg","R.jpg","0","1","0","",""
"","feedback","","html-keyboard-response","8","70921","0.0-1.0-6.0-0.0","0","0","72045","","null","","","null","0","","","","","","","","","","","","","","","",""
"","time_out","","html-keyboard-response","9","72929","0.0-1.0-8.0-0.0","0","0","72045","","null","","","null","0","","","","","","","","","","","","","","","",""
"","ITI","","html-keyboard-response","10","73937","0.0-1.0-9.0","0","0","72045","","null","","","null","0","","","","","","","","","","","","","","","NaN",""
"","S1","","html-keyboard-response","11","74193","0.0-1.0-11.0","0","0","72045","","null","","","null","1","","","","","","","","","","","","","","","",""
"","ISI","","html-keyboard-response","12","75201","0.0-1.0-12.0","0","0","72045","","null","","","null","1","NaN","","","","","","","","","","","","","","",""
"","S2","","html-keyboard-response","13","75457","0.0-1.0-13.0","0","0","72045","","null","","","null","1","","NaN","","","","","","","","","","","","","",""
"","response","","html-keyboard-response","14","75628","0.0-1.0-14.0-0.0","0","0","72045","","168","","","75","1","","","1","1","training","adjacent","FE","6","5","P.jpg","L.jpg","1","0","0","",""
"","feedback","","html-keyboard-response","15","76633","0.0-1.0-15.0-0.0","0","0","72045","","null","","","null","1","","","","","","","","","","","","","","","",""
"","time_out","","html-keyboard-response","16","78641","0.0-1.0-17.0-0.0","0","0","72045","","null","","","null","1","","","","","","","","","","","","","","","",""
"","ITI","","html-keyboard-response","17","79649","0.0-1.0-18.0","0","0","72045","","null","","","null","1","","","","","","","","","","","","","","","NaN",""
"","S1","","html-keyboard-response","18","79904","0.0-1.0-20.0","0","0","72045","","null","","","null","2","","","","","","","","","","","","","","","",""
"","ISI","","html-keyboard-response","19","80913","0.0-1.0-21.0","0","0","72045","","null","","","null","2","NaN","","","","","","","","","","","","","","",""
"","S2","","html-keyboard-response","20","81169","0.0-1.0-22.0","0","0","72045","","null","","","null","2","","NaN","","","","","","","","","","","","","",""
"","response","","html-keyboard-response","21","81697","0.0-1.0-23.0-0.0","0","0","72045","","524","","","75","2","","","1","2","training","adjacent","AB","1","2","O.jpg","M.jpg","1","1","1","",""
"","feedback","","html-keyboard-response","22","82704","0.0-1.0-24.0-0.0","0","0","72045","","null","","","null","2","","","","","","","","","","","","","","","",""
"","ITI","","html-keyboard-response","23","83713","0.0-1.0-27.0","0","0","72045","","null","","","null","2","","","","","","","","","","","","","","","NaN",""
"","S1","","html-keyboard-response","24","83968","0.0-1.0-29.0","0","0","72045","","null","","","null","3","","","","","","","","","","","","","","","",""
"","ISI","","html-keyboard-response","25","84977","0.0-1.0-30.0","0","0","72045","","null","","","null","3","NaN","","","","","","","","","","","","","","",""
"","S2","","html-keyboard-response","26","85233","0.0-1.0-31.0","0","0","72045","","null","","","null","3","","NaN","","","","","","","","","","","","","",""
"","response","","html-keyboard-response","27","85792","0.0-1.0-32.0-0.0","0","0","72045","","556","","","68","3","","","1","3","training","adjacent","GF","7","6","N.jpg","P.jpg","0","0","1","",""
"","feedback","","html-keyboard-response","28","86801","0.0-1.0-33.0-0.0","0","0","72045","","null","","","null","3","","","","","","","","","","","","","","","",""
"","ITI","","html-keyboard-response","29","87809","0.0-1.0-36.0","0","0","72045","","null","","","null","3","","","","","","","","","","","","","","","NaN",""
"","S1","","html-keyboard-response","30","88065","0.0-1.0-38.0","0","0","72045","","null","","","null","4","","","","","","","","","","","","","","","",""
"","ISI","","html-keyboard-response","31","89073","0.0-1.0-39.0","0","0","72045","","null","","","null","4","NaN","","","","","","","","","","","","","","",""
"","S2","","html-keyboard-response","32","89329","0.0-1.0-40.0","0","0","72045","","null","","","null","4","","NaN","","","","","","","","","","","","","",""
"","response","","html-keyboard-response","33","89794","0.0-1.0-41.0-0.0","0","0","72045","","462","","","68","4","","","1","4","training","adjacent","ED","5","4","L.jpg","R.jpg","0","0","1","",""
"","feedback","","html-keyboard-response","34","90801","0.0-1.0-42.0-0.0","0","0","72045","","null","","","null","4","","","","","","","","","","","","","","","",""
"","ITI","","html-keyboard-response","35","91809","0.0-1.0-45.0","0","0","72045","","null","","","null","4","","","","","","","","","","","","","","","NaN",""
"","S1","","html-keyboard-response","36","92065","0.0-1.0-47.0","0","0","72045","","null","","","null","5","","","","","","","","","","","","","","","",""
"","ISI","","html-keyboard-response","37","93076","0.0-1.0-48.0","0","0","72045","","null","","","null","5","NaN","","","","","","","","","","","","","","",""
"","S2","","html-keyboard-response","38","93333","0.0-1.0-49.0","0","0","72045","","null","","","null","5","","NaN","","","","","","","","","","","","","",""
"","response","","html-keyboard-response","39","94284","0.0-1.0-50.0-0.0","0","0","72045","","948","","","75","5","","","1","5","training","adjacent","CD","3","4","Q.jpg","R.jpg","1","1","1","",""
"","feedback","","html-keyboard-response","40","95293","0.0-1.0-51.0-0.0","0","0","72045","","null","","","null","5","","","","","","","","","","","","","","","",""
"","ITI","","html-keyboard-response","41","96301","0.0-1.0-54.0","0","0","72045","","null","","","null","5","","","","","","","","","","","","","","","NaN",""
"","S1","","html-keyboard-response","42","96556","0.0-1.0-56.0","0","0","72045","","null","","","null","6","","","","","","","","","","","","","","","",""
"","ISI","","html-keyboard-response","43","97564","0.0-1.0-57.0","0","0","72045","","null","","","null","6","NaN","","","","","","","","","","","","","","",""
"","S2","","html-keyboard-response","44","97820","0.0-1.0-58.0","0","0","72045","","null","","","null","6","","NaN","","","","","","","","","","","","","",""
"","response","","html-keyboard-response","45","98163","0.0-1.0-59.0-0.0","0","0","72045","","340","","","68","6","","","1","6","training","adjacent","ED","5","4","L.jpg","R.jpg","0","0","1","",""
"","feedback","","html-keyboard-response","46","99173","0.0-1.0-60.0-0.0","0","0","72045","","null","","","null","6","","","","","","","","","","","","","","","",""
"","ITI","","html-keyboard-response","47","100181","0.0-1.0-63.0","0","0","72045","","null","","","null","6","","","","","","","","","","","","","","","NaN",""
"","S1","","html-keyboard-response","48","100436","0.0-1.0-65.0","0","0","72045","","null","","","null","7","","","","","","","","","","","","","","","",""
"","ISI","","html-keyboard-response","49","101444","0.0-1.0-66.0","0","0","72045","","null","","","null","7","NaN","","","","","","","","","","","","","","",""
"","S2","","html-keyboard-response","50","101700","0.0-1.0-67.0","0","0","72045","","null","","","null","7","","NaN","","","","","","","","","","","","","",""
"","response","","html-keyboard-response","51","102462","0.0-1.0-68.0-0.0","0","0","72045","","760","","","68","7","","","1","7","training","adjacent","CB","3","2","Q.jpg","M.jpg","0","0","1","",""
"","feedback","","html-keyboard-response","52","103468","0.0-1.0-69.0-0.0","0","0","72045","","null","","","null","7","","","","","","","","","","","","","","","",""
"","ITI","","html-keyboard-response","53","104476","0.0-1.0-72.0","0","0","72045","","null","","","null","7","","","","","","","","","","","","","","","NaN",""
"","S1","","html-keyboard-response","54","104732","0.0-1.0-74.0","0","0","72045","","null","","","null","8","","","","","","","","","","","","","","","",""
"","ISI","","html-keyboard-response","55","105740","0.0-1.0-75.0","0","0","72045","","null","","","null","8","NaN","","","","","","","","","","","","","","",""
"","S2","","html-keyboard-response","56","105997","0.0-1.0-76.0","0","0","72045","","null","","","null","8","","NaN","","","","","","","","","","","","","",""
"","response","","html-keyboard-response","57","106873","0.0-1.0-77.0-0.0","0","0","72045","","874","","","75","8","","","1","8","training","adjacent","CB","3","2","Q.jpg","M.jpg","1","0","0","",""
"","feedback","","html-keyboard-response","58","107876","0.0-1.0-78.0-0.0","0","0","72045","","null","","","null","8","","","","","","","","","","","","","","","",""
"","time_out","","html-keyboard-response","59","109884","0.0-1.0-80.0-0.0","0","0","72045","","null","","","null","8","","","","","","","","","","","","","","","",""
"","ITI","","html-keyboard-response","60","110892","0.0-1.0-81.0","0","0","72045","","null","","","null","8","","","","","","","","","","","","","","","NaN",""
"","S1","","html-keyboard-response","61","111148","0.0-1.0-83.0","0","0","72045","","null","","","null","9","","","","","","","","","","","","","","","",""
"","ISI","","html-keyboard-response","62","112156","0.0-1.0-84.0","0","0","72045","","null","","","null","9","NaN","","","","","","","","","","","","","","",""
"","S2","","html-keyboard-response","63","112412","0.0-1.0-85.0","0","0","72045","","null","","","null","9","","NaN","","","","","","","","","","","","","",""
"","response","","html-keyboard-response","64","113303","0.0-1.0-86.0-0.0","0","0","72045","","889","","","75","9","","","1","9","training","adjacent","DE","4","5","R.jpg","L.jpg","1","1","1","",""
"","feedback","","html-keyboard-response","65","114308","0.0-1.0-87.0-0.0","0","0","72045","","null","","","null","9","","","","","","","","","","","","","","","",""
"","ITI","","html-keyboard-response","66","115316","0.0-1.0-90.0","0","0","72045","","null","","","null","9","","","","","","","","","","","","","","","NaN",""
"","S1","","html-keyboard-response","67","115572","0.0-1.0-92.0","0","0","72045","","null","","","null","10","","","","","","","","","","","","","","","",""
"","ISI","","html-keyboard-response","68","116580","0.0-1.0-93.0","0","0","72045","","null","","","null","10","NaN","","","","","","","","","","","","","","",""
"","S2","","html-keyboard-response","69","116836","0.0-1.0-94.0","0","0","72045","","null","","","null","10","","NaN","","","","","","","","","","","","","",""
"","response","","html-keyboard-response","70","117490","0.0-1.0-95.0-0.0","0","0","72045","","651","","","75","10","","","1","10","training","adjacent","CB","3","2","Q.jpg","M.jpg","1","0","0","",""
"","feedback","","html-keyboard-response","71","118501","0.0-1.0-96.0-0.0","0","0","72045","","null","","","null","10","","","","","","","","","","","","","","","",""
"","time_out","","html-keyboard-response","72","120508","0.0-1.0-98.0-0.0","0","0","72045","","null","","","null","10","","","","","","","","","","","","","","","",""
"","ITI","","html-keyboard-response","73","121516","0.0-1.0-99.0","0","0","72045","","null","","","null","10","","","","","","","","","","","","","","","NaN",""
"","S1","","html-keyboard-response","74","121772","0.0-1.0-101.0","0","0","72045","","null","","","null","11","","","","","","","","","","","","","","","",""
"","ISI","","html-keyboard-response","75","122780","0.0-1.0-102.0","0","0","72045","","null","","","null","11","NaN","","","","","","","","","","","","","","",""
"","S2","","html-keyboard-response","76","123036","0.0-1.0-103.0","0","0","72045","","null","","","null","11","","NaN","","","","","","","","","","","","","",""
"","response","","html-keyboard-response","77","124265","0.0-1.0-104.0-0.0","0","0","72045","","1226","","","68","11","","","1","11","training","adjacent","DC","4","3","R.jpg","Q.jpg","0","0","1","",""
"","feedback","","html-keyboard-response","78","125289","0.0-1.0-105.0-0.0","0","0","72045","","null","","","null","11","","","","","","","","","","","","","","","",""
"","ITI","","html-keyboard-response","79","126292","0.0-1.0-108.0","0","0","72045","","null","","","null","11","","","","","","","","","","","","","","","NaN",""
"","S1","","html-keyboard-response","80","126548","0.0-1.0-110.0","0","0","72045","","null","","","null","12","","","","","","","","","","","","","","","",""
"","ISI","","html-keyboard-response","81","127556","0.0-1.0-111.0","0","0","72045","","null","","","null","12","NaN","","","","","","","","","","","","","","",""
"","S2","","html-keyboard-response","82","127812","0.0-1.0-112.0","0","0","72045","","null","","","null","12","","NaN","","","","","","","","","","","","","",""
"","response","","html-keyboard-response","83","128743","0.0-1.0-113.0-0.0","0","0","72045","","928","","","75","12","","","1","12","training","adjacent","BC","2","3","M.jpg","Q.jpg","1","1","1","",""
"","feedback","","html-keyboard-response","84","129748","0.0-1.0-114.0-0.0","0","0","72045","","null","","","null","12","","","","","","","","","","","","","","","",""
"","ITI","","html-keyboard-response","85","130756","0.0-1.0-117.0","0","0","72045","","null","","","null","12","","","","","","","","","","","","","","","NaN",""
"","S1","","html-keyboard-response","86","131012","0.0-1.0-119.0","0","0","72045","","null","","","null","13","","","","","","","","","","","","","","","",""
"","ISI","","html-keyboard-response","87","132019","0.0-1.0-120.0","0","0","72045","","null","","","null","13","NaN","","","","","","","","","","","","","","",""
"","S2","","html-keyboard-response","88","132276","0.0-1.0-121.0","0","0","72045","","null","","","null","13","","NaN","","","","","","","","","","","","","",""
"","response","","html-keyboard-response","89","133779","0.0-1.0-122.0-0.0","0","0","72045","","1500","","","68","13","","","1","13","training","adjacent","CB","3","2","Q.jpg","M.jpg","0","0","1","",""
"","feedback","","html-keyboard-response","90","134788","0.0-1.0-123.0-0.0","0","0","72045","","null","","","null","13","","","","","","","","","","","","","","","",""
"","ITI","","html-keyboard-response","91","135797","0.0-1.0-126.0","0","0","72045","","null","","","null","13","","","","","","","","","","","","","","","NaN",""
"","S1","","html-keyboard-response","92","136052","0.0-1.0-128.0","0","0","72045","","null","","","null","14","","","","","","","","","","","","","","","",""
"","ISI","","html-keyboard-response","93","137061","0.0-1.0-129.0","0","0","72045","","null","","","null","14","NaN","","","","","","","","","","","","","","",""
"","S2","","html-keyboard-response","94","137317","0.0-1.0-130.0","0","0","72045","","null","","","null","14","","NaN","","","","","","","","","","","","","",""
"","response","","html-keyboard-response","95","138068","0.0-1.0-131.0-0.0","0","0","72045","","748","","","75","14","","","1","14","training","adjacent","BC","2","3","M.jpg","Q.jpg","1","1","1","",""
"","feedback","","html-keyboard-response","96","139075","0.0-1.0-132.0-0.0","0","0","72045","","null","","","null","14","","","","","","","","","","","","","","","",""
"","ITI","","html-keyboard-response","97","140085","0.0-1.0-135.0","0","0","72045","","null","","","null","14","","","","","","","","","","","","","","","NaN",""
"","S1","","html-keyboard-response","98","140340","0.0-1.0-137.0","0","0","72045","","null","","","null","15","","","","","","","","","","","","","","","",""
"","ISI","","html-keyboard-response","99","141348","0.0-1.0-138.0","0","0","72045","","null","","","null","15","NaN","","","","","","","","","","","","","","",""
"","S2","","html-keyboard-response","100","141604","0.0-1.0-139.0","0","0","72045","","null","","","null","15","","NaN","","","","","","","","","","","","","",""
"","response","","html-keyboard-response","101","142106","0.0-1.0-140.0-0.0","0","0","72045","","498","","","68","15","","","1","15","training","adjacent","GF","7","6","N.jpg","P.jpg","0","0","1","",""
"","feedback","","html-keyboard-response","102","143116","0.0-1.0-141.0-0.0","0","0","72045","","null","","","null","15","","","","","","","","","","","","","","","",""
"","ITI","","html-keyboard-response","103","144125","0.0-1.0-144.0","0","0","72045","","null","","","null","15","","","","","","","","","","","","","","","NaN",""
"","S1","","html-keyboard-response","104","144381","0.0-1.0-146.0","0","0","72045","","null","","","null","16","","","","","","","","","","","","","","","",""
"","ISI","","html-keyboard-response","105","145388","0.0-1.0-147.0","0","0","72045","","null","","","null","16","NaN","","","","","","","","","","","","","","",""
"","S2","","html-keyboard-response","106","145644","0.0-1.0-148.0","0","0","72045","","null","","","null","16","","NaN","","","","","","","","","","","","","",""
"","response","","html-keyboard-response","107","146601","0.0-1.0-149.0-0.0","0","0","72045","","954","","","68","16","","","1","16","training","adjacent","BA","2","1","M.jpg","O.jpg","0","0","1","",""
"","feedback","","html-keyboard-response","108","147605","0.0-1.0-150.0-0.0","0","0","72045","","null","","","null","16","","","","","","","","","","","","","","","",""
"","ITI","","html-keyboard-response","109","148613","0.0-1.0-153.0","0","0","72045","","null","","","null","16","","","","","","","","","","","","","","","NaN",""
"","S1","","html-keyboard-response","110","148868","0.0-1.0-155.0","0","0","72045","","null","","","null","17","","","","","","","","","","","","","","","",""
"","ISI","","html-keyboard-response","111","149877","0.0-1.0-156.0","0","0","72045","","null","","","null","17","NaN","","","","","","","","","","","","","","",""
"","S2","","html-keyboard-response","112","150133","0.0-1.0-157.0","0","0","72045","","null","","","null","17","","NaN","","","","","","","","","","","","","",""
"","response","","html-keyboard-response","113","151030","0.0-1.0-158.0-0.0","0","0","72045","","895","","","68","17","","","1","17","training","adjacent","EF","5","6","L.jpg","P.jpg","0","1","0","",""
"","feedback","","html-keyboard-response","114","152036","0.0-1.0-159.0-0.0","0","0","72045","","null","","","null","17","","","","","","","","","","","","","","","",""
"","time_out","","html-keyboard-response","115","154047","0.0-1.0-161.0-0.0","0","0","72045","","null","","","null","17","","","","","","","","","","","","","","","",""
"","ITI","","html-keyboard-response","116","155055","0.0-1.0-162.0","0","0","72045","","null","","","null","17","","","","","","","","","","","","","","","NaN",""
"","S1","","html-keyboard-response","117","155311","0.0-1.0-164.0","0","0","72045","","null","","","null","18","","","","","","","","","","","","","","","",""
"","ISI","","html-keyboard-response","118","156319","0.0-1.0-165.0","0","0","72045","","null","","","null","18","NaN","","","","","","","","","","","","","","",""
"","S2","","html-keyboard-response","119","156575","0.0-1.0-166.0","0","0","72045","","null","","","null","18","","NaN","","","","","","","","","","","","","",""
"","response","","html-keyboard-response","120","157406","0.0-1.0-167.0-0.0","0","0","72045","","829","","","75","18","","","1","18","training","adjacent","FG","6","7","P.jpg","N.jpg","1","1","1","",""
"","feedback","","html-keyboard-response","121","158415","0.0-1.0-168.0-0.0","0","0","72045","","null","","","null","18","","","","","","","","","","","","","","","",""
"","ITI","","html-keyboard-response","122","159423","0.0-1.0-171.0","0","0","72045","","null","","","null","18","","","","","","","","","","","","","","","NaN",""
"","S1","","html-keyboard-response","123","159679","0.0-1.0-173.0","0","0","72045","","null","","","null","19","","","","","","","","","","","","","","","",""
"","ISI","","html-keyboard-response","124","160688","0.0-1.0-174.0","0","0","72045","","null","","","null","19","NaN","","","","","","","","","","","","","","",""
"","S2","","html-keyboard-response","125","160943","0.0-1.0-175.0","0","0","72045","","null","","","null","19","","NaN","","","","","","","","","","","","","",""
"","response","","html-keyboard-response","126","161569","0.0-1.0-176.0-0.0","0","0","72045","","623","","","75","19","","","1","19","training","adjacent","AB","1","2","O.jpg","M.jpg","1","1","1","",""
"","feedback","","html-keyboard-response","127","162575","0.0-1.0-177.0-0.0","0","0","72045","","null","","","null","19","","","","","","","","","","","","","","","",""
"","ITI","","html-keyboard-response","128","163584","0.0-1.0-180.0","0","0","72045","","null","","","null","19","","","","","","","","","","","","","","","NaN",""
"","S1","","html-keyboard-response","129","163839","0.0-1.0-182.0","0","0","72045","","null","","","null","20","","","","","","","","","","","","","","","",""
"","ISI","","html-keyboard-response","130","164847","0.0-1.0-183.0","0","0","72045","","null","","","null","20","NaN","","","","","","","","","","","","","","",""
"","S2","","html-keyboard-response","131","165103","0.0-1.0-184.0","0","0","72045","","null","","","null","20","","NaN","","","","","","","","","","","","","",""
"","response","","html-keyboard-response","132","166447","0.0-1.0-185.0-0.0","0","0","72045","","1341","","","75","20","","","1","20","training","adjacent","AB","1","2","O.jpg","M.jpg","1","1","1","",""
"","feedback","","html-keyboard-response","133","167455","0.0-1.0-186.0-0.0","0","0","72045","","null","","","null","20","","","","","","","","","","","","","","","",""
"","ITI","","html-keyboard-response","134","168462","0.0-1.0-189.0","0","0","72045","","null","","","null","20","","","","","","","","","","","","","","","NaN",""
"","S1","","html-keyboard-response","135","168718","0.0-1.0-191.0","0","0","72045","","null","","","null","21","","","","","","","","","","","","","","","",""
"","ISI","","html-keyboard-response","136","169727","0.0-1.0-192.0","0","0","72045","","null","","","null","21","NaN","","","","","","","","","","","","","","",""
"","S2","","html-keyboard-response","137","169983","0.0-1.0-193.0","0","0","72045","","null","","","null","21","","NaN","","","","","","","","","","","","","",""
"","response","","html-keyboard-response","138","170795","0.0-1.0-194.0-0.0","0","0","72045","","809","","","75","21","","","1","21","training","adjacent","FE","6","5","P.jpg","L.jpg","1","0","0","",""
"","feedback","","html-keyboard-response","139","171807","0.0-1.0-195.0-0.0","0","0","72045","","null","","","null","21","","","","","","","","","","","","","","","",""
"","time_out","","html-keyboard-response","140","173815","0.0-1.0-197.0-0.0","0","0","72045","","null","","","null","21","","","","","","","","","","","","","","","",""
"","ITI","","html-keyboard-response","141","174823","0.0-1.0-198.0","0","0","72045","","null","","","null","21","","","","","","","","","","","","","","","NaN",""
"","S1","","html-keyboard-response","142","175080","0.0-1.0-200.0","0","0","72045","","null","","","null","22","","","","","","","","","","","","","","","",""
"","ISI","","html-keyboard-response","143","176087","0.0-1.0-201.0","0","0","72045","","null","","","null","22","NaN","","","","","","","","","","","","","","",""
"","S2","","html-keyboard-response","144","176343","0.0-1.0-202.0","0","0","72045","","null","","","null","22","","NaN","","","","","","","","","","","","","",""
"","response","","html-keyboard-response","145","177802","0.0-1.0-203.0-0.0","0","0","72045","","1457","","","68","22","","","1","22","training","adjacent","DC","4","3","R.jpg","Q.jpg","0","0","1","",""
"","feedback","","html-keyboard-response","146","178807","0.0-1.0-204.0-0.0","0","0","72045","","null","","","null","22","","","","","","","","","","","","","","","",""
"","ITI","","html-keyboard-response","147","179815","0.0-1.0-207.0","0","0","72045","","null","","","null","22","","","","","","","","","","","","","","","NaN",""
"","S1","","html-keyboard-response","148","180071","0.0-1.0-209.0","0","0","72045","","null","","","null","23","","","","","","","","","","","","","","","",""
"","ISI","","html-keyboard-response","149","181079","0.0-1.0-210.0","0","0","72045","","null","","","null","23","NaN","","","","","","","","","","","","","","",""
"","S2","","html-keyboard-response","150","181335","0.0-1.0-211.0","0","0","72045","","null","","","null","23","","NaN","","","","","","","","","","","","","",""
"","response","","html-keyboard-response","151","182119","0.0-1.0-212.0-0.0","0","0","72045","","781","","","75","23","","","1","23","training","adjacent","DE","4","5","R.jpg","L.jpg","1","1","1","",""
"","feedback","","html-keyboard-response","152","183127","0.0-1.0-213.0-0.0","0","0","72045","","null","","","null","23","","","","","","","","","","","","","","","",""
"","ITI","","html-keyboard-response","153","184136","0.0-1.0-216.0","0","0","72045","","null","","","null","23","","","","","","","","","","","","","","","NaN",""
"","S1","","html-keyboard-response","154","184391","0.0-1.0-218.0","0","0","72045","","null","","","null","24","","","","","","","","","","","","","","","",""
"","ISI","","html-keyboard-response","155","185400","0.0-1.0-219.0","0","0","72045","","null","","","null","24","NaN","","","","","","","","","","","","","","",""
"","S2","","html-keyboard-response","156","185655","0.0-1.0-220.0","0","0","72045","","null","","","null","24","","NaN","","","","","","","","","","","","","",""
"","response","","html-keyboard-response","157","186059","0.0-1.0-221.0-0.0","0","0","72045","","402","","","68","24","","","1","24","training","adjacent","BA","2","1","M.jpg","O.jpg","0","0","1","",""
"","feedback","","html-keyboard-response","158","187071","0.0-1.0-222.0-0.0","0","0","72045","","null","","","null","24","","","","","","","","","","","","","","","",""
"","ITI","","html-keyboard-response","159","188079","0.0-1.0-225.0","0","0","72045","","null","","","null","24","","","","","","","","","","","","","","","NaN",""
"","S1","","html-keyboard-response","160","188335","0.0-1.0-227.0","0","0","72045","","null","","","null","25","","","","","","","","","","","","","","","",""
"","ISI","","html-keyboard-response","161","189344","0.0-1.0-228.0","0","0","72045","","null","","","null","25","NaN","","","","","","","","","","","","","","",""
"","S2","","html-keyboard-response","162","189599","0.0-1.0-229.0","0","0","72045","","null","","","null","25","","NaN","","","","","","","","","","","","","",""
"","response","","html-keyboard-response","163","190430","0.0-1.0-230.0-0.0","0","0","72045","","828","","","68","25","","","1","25","training","adjacent","DC","4","3","R.jpg","Q.jpg","0","0","1","",""
"","feedback","","html-keyboard-response","164","191440","0.0-1.0-231.0-0.0","0","0","72045","","null","","","null","25","","","","","","","","","","","","","","","",""
"","ITI","","html-keyboard-response","165","192446","0.0-1.0-234.0","0","0","72045","","null","","","null","25","","","","","","","","","","","","","","","NaN",""
"","S1","","html-keyboard-response","166","192703","0.0-1.0-236.0","0","0","72045","","null","","","null","26","","","","","","","","","","","","","","","",""
"","ISI","","html-keyboard-response","167","193711","0.0-1.0-237.0","0","0","72045","","null","","","null","26","NaN","","","","","","","","","","","","","","",""
"","S2","","html-keyboard-response","168","193967","0.0-1.0-238.0","0","0","72045","","null","","","null","26","","NaN","","","","","","","","","","","","","",""
"","response","","html-keyboard-response","169","194442","0.0-1.0-239.0-0.0","0","0","72045","","473","","","68","26","","","1","26","training","adjacent","BC","2","3","M.jpg","Q.jpg","0","1","0","",""
"","feedback","","html-keyboard-response","170","195447","0.0-1.0-240.0-0.0","0","0","72045","","null","","","null","26","","","","","","","","","","","","","","","",""
"","time_out","","html-keyboard-response","171","197455","0.0-1.0-242.0-0.0","0","0","72045","","null","","","null","26","","","","","","","","","","","","","","","",""
"","ITI","","html-keyboard-response","172","198463","0.0-1.0-243.0","0","0","72045","","null","","","null","26","","","","","","","","","","","","","","","NaN",""
"","S1","","html-keyboard-response","173","198718","0.0-1.0-245.0","0","0","72045","","null","","","null","27","","","","","","","","","","","","","","","",""
"","ISI","","html-keyboard-response","174","199727","0.0-1.0-246.0","0","0","72045","","null","","","null","27","NaN","","","","","","","","","","","","","","",""
"","S2","","html-keyboard-response","175","199983","0.0-1.0-247.0","0","0","72045","","null","","","null","27","","NaN","","","","","","","","","","","","","",""
"","response","","html-keyboard-response","176","200659","0.0-1.0-248.0-0.0","0","0","72045","","674","","","68","27","","","1","27","training","adjacent","BA","2","1","M.jpg","O.jpg","0","0","1","",""
"","feedback","","html-keyboard-response","177","201663","0.0-1.0-249.0-0.0","0","0","72045","","null","","","null","27","","","","","","","","","","","","","","","",""
"","ITI","","html-keyboard-response","178","202671","0.0-1.0-252.0","0","0","72045","","null","","","null","27","","","","","","","","","","","","","","","NaN",""
"","S1","","html-keyboard-response","179","202927","0.0-1.0-254.0","0","0","72045","","null","","","null","28","","","","","","","","","","","","","","","",""
"","ISI","","html-keyboard-response","180","203935","0.0-1.0-255.0","0","0","72045","","null","","","null","28","NaN","","","","","","","","","","","","","","",""
"","S2","","html-keyboard-response","181","204191","0.0-1.0-256.0","0","0","72045","","null","","","null","28","","NaN","","","","","","","","","","","","","",""
"","response","","html-keyboard-response","182","204930","0.0-1.0-257.0-0.0","0","0","72045","","737","","","75","28","","","1","28","training","adjacent","DE","4","5","R.jpg","L.jpg","1","1","1","",""
"","feedback","","html-keyboard-response","183","205935","0.0-1.0-258.0-0.0","0","0","72045","","null","","","null","28","","","","","","","","","","","","","","","",""
"","ITI","","html-keyboard-response","184","206944","0.0-1.0-261.0","0","0","72045","","null","","","null","28","","","","","","","","","","","","","","","NaN",""
"","S1","","html-keyboard-response","185","207199","0.0-1.0-263.0","0","0","72045","","null","","","null","29","","","","","","","","","","","","","","","",""
"","ISI","","html-keyboard-response","186","208208","0.0-1.0-264.0","0","0","72045","","null","","","null","29","NaN","","","","","","","","","","","","","","",""
"","S2","","html-keyboard-response","187","208463","0.0-1.0-265.0","0","0","72045","","null","","","null","29","","NaN","","","","","","","","","","","","","",""
"","response","","html-keyboard-response","188","209352","0.0-1.0-266.0-0.0","0","0","72045","","886","","","68","29","","","1","29","training","adjacent","GF","7","6","N.jpg","P.jpg","0","0","1","",""
"","feedback","","html-keyboard-response","189","210359","0.0-1.0-267.0-0.0","0","0","72045","","null","","","null","29","","","","","","","","","","","","","","","",""
"","ITI","","html-keyboard-response","190","211368","0.0-1.0-270.0","0","0","72045","","null","","","null","29","","","","","","","","","","","","","","","NaN",""
"","S1","","html-keyboard-response","191","211623","0.0-1.0-272.0","0","0","72045","","null","","","null","30","","","","","","","","","","","","","","","",""
"","ISI","","html-keyboard-response","192","212631","0.0-1.0-273.0","0","0","72045","","null","","","null","30","NaN","","","","","","","","","","","","","","",""
"","S2","","html-keyboard-response","193","212887","0.0-1.0-274.0","0","0","72045","","null","","","null","30","","NaN","","","","","","","","","","","","","",""
"","response","","html-keyboard-response","194","213227","0.0-1.0-275.0-0.0","0","0","72045","","337","","","75","30","","","1","30","training","adjacent","DE","4","5","R.jpg","L.jpg","1","1","1","",""
"","feedback","","html-keyboard-response","195","210048","0.0-1.0-276.0-0.0","0","0","72045","","null","","","null","30","","","","","","","","","","","","","","","",""
"","ITI","","html-keyboard-response","196","211056","0.0-1.0-279.0","0","0","72045","","null","","","null","30","","","","","","","","","","","","","","","NaN",""
"","S1","","html-keyboard-response","197","211312","0.0-1.0-281.0","0","0","72045","","null","","","null","31","","","","","","","","","","","","","","","",""
"","ISI","","html-keyboard-response","198","212320","0.0-1.0-282.0","0","0","72045","","null","","","null","31","NaN","","","","","","","","","","","","","","",""
"","S2","","html-keyboard-response","199","212575","0.0-1.0-283.0","0","0","72045","","null","","","null","31","","NaN","","","","","","","","","","","","","",""
"","response","","html-keyboard-response","200","213475","0.0-1.0-284.0-0.0","0","0","72045","","897","","","75","31","","","1","31","training","adjacent","BC","2","3","M.jpg","Q.jpg","1","1","1","",""
"","feedback","","html-keyboard-response","201","214479","0.0-1.0-285.0-0.0","0","0","72045","","null","","","null","31","","","","","","","","","","","","","","","",""
"","ITI","","html-keyboard-response","202","215488","0.0-1.0-288.0","0","0","72045","","null","","","null","31","","","","","","","","","","","","","","","NaN",""
"","S1","","html-keyboard-response","203","215743","0.0-1.0-290.0","0","0","72045","","null","","","null","32","","","","","","","","","","","","","","","",""
"","ISI","","html-keyboard-response","204","216751","0.0-1.0-291.0","0","0","72045","","null","","","null","32","NaN","","","","","","","","","","","","","","",""
"","S2","","html-keyboard-response","205","217007","0.0-1.0-292.0","0","0","72045","","null","","","null","32","","NaN","","","","","","","","","","","","","",""
"","response","","html-keyboard-response","206","218042","0.0-1.0-293.0-0.0","0","0","72045","","1032","","","75","32","","","1","32","training","adjacent","AB","1","2","O.jpg","M.jpg","1","1","1","",""
"","feedback","","html-keyboard-response","207","219047","0.0-1.0-294.0-0.0","0","0","72045","","null","","","null","32","","","","","","","","","","","","","","","",""
"","ITI","","html-keyboard-response","208","220055","0.0-1.0-297.0","0","0","72045","","null","","","null","32","","","","","","","","","","","","","","","NaN",""
"","S1","","html-keyboard-response","209","220312","0.0-1.0-299.0","0","0","72045","","null","","","null","33","","","","","","","","","","","","","","","",""
"","ISI","","html-keyboard-response","210","221320","0.0-1.0-300.0","0","0","72045","","null","","","null","33","NaN","","","","","","","","","","","","","","",""
"","S2","","html-keyboard-response","211","221575","0.0-1.0-301.0","0","0","72045","","null","","","null","33","","NaN","","","","","","","","","","","","","",""
"","response","","html-keyboard-response","212","222169","0.0-1.0-302.0-0.0","0","0","72045","","591","","","68","33","","","1","33","training","adjacent","DC","4","3","R.jpg","Q.jpg","0","0","1","",""
"","feedback","","html-keyboard-response","213","223176","0.0-1.0-303.0-0.0","0","0","72045","","null","","","null","33","","","","","","","","","","","","","","","",""
"","ITI","","html-keyboard-response","214","224183","0.0-1.0-306.0","0","0","72045","","null","","","null","33","","","","","","","","","","","","","","","NaN",""
"","S1","","html-keyboard-response","215","224440","0.0-1.0-308.0","0","0","72045","","null","","","null","34","","","","","","","","","","","","","","","",""
"","ISI","","html-keyboard-response","216","225447","0.0-1.0-309.0","0","0","72045","","null","","","null","34","NaN","","","","","","","","","","","","","","",""
"","S2","","html-keyboard-response","217","225703","0.0-1.0-310.0","0","0","72045","","null","","","null","34","","NaN","","","","","","","","","","","","","",""
"","response","","html-keyboard-response","218","226775","0.0-1.0-311.0-0.0","0","0","72045","","1068","","","68","34","","","1","34","training","adjacent","EF","5","6","L.jpg","P.jpg","0","1","0","",""
"","feedback","","html-keyboard-response","219","227784","0.0-1.0-312.0-0.0","0","0","72045","","null","","","null","34","","","","","","","","","","","","","","","",""
"","time_out","","html-keyboard-response","220","229792","0.0-1.0-314.0-0.0","0","0","72045","","null","","","null","34","","","","","","","","","","","","","","","",""
"","ITI","","html-keyboard-response","221","230799","0.0-1.0-315.0","0","0","72045","","null","","","null","34","","","","","","","","","","","","","","","NaN",""
"","S1","","html-keyboard-response","222","231056","0.0-1.0-317.0","0","0","72045","","null","","","null","35","","","","","","","","","","","","","","","",""
"","ISI","","html-keyboard-response","223","232064","0.0-1.0-318.0","0","0","72045","","null","","","null","35","NaN","","","","","","","","","","","","","","",""
"","S2","","html-keyboard-response","224","232320","0.0-1.0-319.0","0","0","72045","","null","","","null","35","","NaN","","","","","","","","","","","","","",""
"","response","","html-keyboard-response","225","232897","0.0-1.0-320.0-0.0","0","0","72045","","574","","","75","35","","","1","35","training","adjacent","FG","6","7","P.jpg","N.jpg","1","1","1","",""
"","feedback","","html-keyboard-response","226","233904","0.0-1.0-321.0-0.0","0","0","72045","","null","","","null","35","","","","","","","","","","","","","","","",""
"","ITI","","html-keyboard-response","227","234911","0.0-1.0-324.0","0","0","72045","","null","","","null","35","","","","","","","","","","","","","","","NaN",""
"","S1","","html-keyboard-response","228","235167","0.0-1.0-326.0","0","0","72045","","null","","","null","36","","","","","","","","","","","","","","","",""
"","ISI","","html-keyboard-response","229","236176","0.0-1.0-327.0","0","0","72045","","null","","","null","36","NaN","","","","","","","","","","","","","","",""
"","S2","","html-keyboard-response","230","236432","0.0-1.0-328.0","0","0","72045","","null","","","null","36","","NaN","","","","","","","","","","","","","",""
"","response","","html-keyboard-response","231","236976","0.0-1.0-329.0-0.0","0","0","72045","","542","","","75","36","","","1","36","training","adjacent","FE","6","5","P.jpg","L.jpg","1","0","0","",""
"","feedback","","html-keyboard-response","232","237984","0.0-1.0-330.0-0.0","0","0","72045","","null","","","null","36","","","","","","","","","","","","","","","",""
"","time_out","","html-keyboard-response","233","239992","0.0-1.0-332.0-0.0","0","0","72045","","null","","","null","36","","","","","","","","","","","","","","","",""
"","ITI","","html-keyboard-response","234","240999","0.0-1.0-333.0","0","0","72045","","null","","","null","36","","","","","","","","","","","","","","","NaN",""
"","S1","","html-keyboard-response","235","241256","0.0-1.0-335.0","0","0","72045","","null","","","null","37","","","","","","","","","","","","","","","",""
"","ISI","","html-keyboard-response","236","242273","0.0-1.0-336.0","0","0","72045","","null","","","null","37","NaN","","","","","","","","","","","","","","",""
"","S2","","html-keyboard-response","237","242527","0.0-1.0-337.0","0","0","72045","","null","","","null","37","","NaN","","","","","","","","","","","","","",""
"","response","","html-keyboard-response","238","243106","0.0-1.0-338.0-0.0","0","0","72045","","577","","","68","37","","","1","37","training","adjacent","GF","7","6","N.jpg","P.jpg","0","0","1","",""
"","feedback","","html-keyboard-response","239","244112","0.0-1.0-339.0-0.0","0","0","72045","","null","","","null","37","","","","","","","","","","","","","","","",""
"","ITI","","html-keyboard-response","240","245120","0.0-1.0-342.0","0","0","72045","","null","","","null","37","","","","","","","","","","","","","","","NaN",""
"","S1","","html-keyboard-response","241","245376","0.0-1.0-344.0","0","0","72045","","null","","","null","38","","","","","","","","","","","","","","","",""
"","ISI","","html-keyboard-response","242","246384","0.0-1.0-345.0","0","0","72045","","null","","","null","38","NaN","","","","","","","","","","","","","","",""
"","S2","","html-keyboard-response","243","246640","0.0-1.0-346.0","0","0","72045","","null","","","null","38","","NaN","","","","","","","","","","","","","",""
"","response","","html-keyboard-response","244","247404","0.0-1.0-347.0-0.0","0","0","72045","","761","","","75","38","","","1","38","training","adjacent","EF","5","6","L.jpg","P.jpg","1","1","1","",""
"","feedback","","html-keyboard-response","245","248416","0.0-1.0-348.0-0.0","0","0","72045","","null","","","null","38","","","","","","","","","","","","","","","",""
"","ITI","","html-keyboard-response","246","249424","0.0-1.0-351.0","0","0","72045","","null","","","null","38","","","","","","","","","","","","","","","NaN",""
"","S1","","html-keyboard-response","247","249680","0.0-1.0-353.0","0","0","72045","","null","","","null","39","","","","","","","","","","","","","","","",""
"","ISI","","html-keyboard-response","248","250687","0.0-1.0-354.0","0","0","72045","","null","","","null","39","NaN","","","","","","","","","","","","","","",""
"","S2","","html-keyboard-response","249","250943","0.0-1.0-355.0","0","0","72045","","null","","","null","39","","NaN","","","","","","","","","","","","","",""
"","response","","html-keyboard-response","250","251565","0.0-1.0-356.0-0.0","0","0","72045","","620","","","75","39","","","1","39","training","adjacent","EF","5","6","L.jpg","P.jpg","1","1","1","",""
"","feedback","","html-keyboard-response","251","252576","0.0-1.0-357.0-0.0","0","0","72045","","null","","","null","39","","","","","","","","","","","","","","","",""
"","ITI","","html-keyboard-response","252","253583","0.0-1.0-360.0","0","0","72045","","null","","","null","39","","","","","","","","","","","","","","","NaN",""
"","S1","","html-keyboard-response","253","253839","0.0-1.0-362.0","0","0","72045","","null","","","null","40","","","","","","","","","","","","","","","",""
"","ISI","","html-keyboard-response","254","254848","0.0-1.0-363.0","0","0","72045","","null","","","null","40","NaN","","","","","","","","","","","","","","",""
"","S2","","html-keyboard-response","255","255103","0.0-1.0-364.0","0","0","72045","","null","","","null","40","","NaN","","","","","","","","","","","","","",""
"","response","","html-keyboard-response","256","256387","0.0-1.0-365.0-0.0","0","0","72045","","1280","","","75","40","","","1","40","training","adjacent","FG","6","7","P.jpg","N.jpg","1","1","1","",""
"","feedback","","html-keyboard-response","257","257391","0.0-1.0-366.0-0.0","0","0","72045","","null","","","null","40","","","","","","","","","","","","","","","",""
"","ITI","","html-keyboard-response","258","258399","0.0-1.0-369.0","0","0","72045","","null","","","null","40","","","","","","","","","","","","","","","NaN",""
"","S1","","html-keyboard-response","259","258655","0.0-1.0-371.0","0","0","72045","","null","","","null","41","","","","","","","","","","","","","","","",""
"","ISI","","html-keyboard-response","260","259663","0.0-1.0-372.0","0","0","72045","","null","","","null","41","NaN","","","","","","","","","","","","","","",""
"","S2","","html-keyboard-response","261","259919","0.0-1.0-373.0","0","0","72045","","null","","","null","41","","NaN","","","","","","","","","","","","","",""
"","response","","html-keyboard-response","262","261056","0.0-1.0-374.0-0.0","0","0","72045","","1133","","","75","41","","","1","41","training","adjacent","CD","3","4","Q.jpg","R.jpg","1","1","1","",""
"","feedback","","html-keyboard-response","263","262063","0.0-1.0-375.0-0.0","0","0","72045","","null","","","null","41","","","","","","","","","","","","","","","",""
"","ITI","","html-keyboard-response","264","263071","0.0-1.0-378.0","0","0","72045","","null","","","null","41","","","","","","","","","","","","","","","NaN",""
"","S1","","html-keyboard-response","265","263327","0.0-1.0-380.0","0","0","72045","","null","","","null","42","","","","","","","","","","","","","","","",""
"","ISI","","html-keyboard-response","266","264335","0.0-1.0-381.0","0","0","72045","","null","","","null","42","NaN","","","","","","","","","","","","","","",""
"","S2","","html-keyboard-response","267","264591","0.0-1.0-382.0","0","0","72045","","null","","","null","42","","NaN","","","","","","","","","","","","","",""
"","response","","html-keyboard-response","268","265512","0.0-1.0-383.0-0.0","0","0","72045","","918","","","68","42","","","1","42","training","adjacent","ED","5","4","L.jpg","R.jpg","0","0","1","",""
"","feedback","","html-keyboard-response","269","266519","0.0-1.0-384.0-0.0","0","0","72045","","null","","","null","42","","","","","","","","","","","","","","","",""
"","ITI","","html-keyboard-response","270","267528","0.0-1.0-387.0","0","0","72045","","null","","","null","42","","","","","","","","","","","","","","","NaN",""
"","S1","","html-keyboard-response","271","267784","0.0-1.0-389.0","0","0","72045","","null","","","null","43","","","","","","","","","","","","","","","",""
"","ISI","","html-keyboard-response","272","268791","0.0-1.0-390.0","0","0","72045","","null","","","null","43","NaN","","","","","","","","","","","","","","",""
"","S2","","html-keyboard-response","273","269047","0.0-1.0-391.0","0","0","72045","","null","","","null","43","","NaN","","","","","","","","","","","","","",""
"","response","","html-keyboard-response","274","269827","0.0-1.0-392.0-0.0","0","0","72045","","777","","","75","43","","","1","43","training","adjacent","FE","6","5","P.jpg","L.jpg","1","0","0","",""
"","feedback","","html-keyboard-response","275","270835","0.0-1.0-393.0-0.0","0","0","72045","","null","","","null","43","","","","","","","","","","","","","","","",""
"","time_out","","html-keyboard-response","276","272843","0.0-1.0-395.0-0.0","0","0","72045","","null","","","null","43","","","","","","","","","","","","","","","",""
"","ITI","","html-keyboard-response","277","273852","0.0-1.0-396.0","0","0","72045","","null","","","null","43","","","","","","","","","","","","","","","NaN",""
"","S1","","html-keyboard-response","278","274107","0.0-1.0-398.0","0","0","72045","","null","","","null","44","","","","","","","","","","","","","","","",""
"","ISI","","html-keyboard-response","279","275115","0.0-1.0-399.0","0","0","72045","","null","","","null","44","NaN","","","","","","","","","","","","","","",""
"","S2","","html-keyboard-response","280","275371","0.0-1.0-400.0","0","0","72045","","null","","","null","44","","NaN","","","","","","","","","","","","","",""
"","response","","html-keyboard-response","281","276013","0.0-1.0-401.0-0.0","0","0","72045","","639","","","75","44","","","1","44","training","adjacent","FG","6","7","P.jpg","N.jpg","1","1","1","",""
"","feedback","","html-keyboard-response","282","277019","0.0-1.0-402.0-0.0","0","0","72045","","null","","","null","44","","","","","","","","","","","","","","","",""
"","ITI","","html-keyboard-response","283","278027","0.0-1.0-405.0","0","0","72045","","null","","","null","44","","","","","","","","","","","","","","","NaN",""
"","S1","","html-keyboard-response","284","278283","0.0-1.0-407.0","0","0","72045","","null","","","null","45","","","","","","","","","","","","","","","",""
"","ISI","","html-keyboard-response","285","279291","0.0-1.0-408.0","0","0","72045","","null","","","null","45","NaN","","","","","","","","","","","","","","",""
"","S2","","html-keyboard-response","286","279547","0.0-1.0-409.0","0","0","72045","","null","","","null","45","","NaN","","","","","","","","","","","","","",""
"","response","","html-keyboard-response","287","280119","0.0-1.0-410.0-0.0","0","0","72045","","570","","","68","45","","","1","45","training","adjacent","ED","5","4","L.jpg","R.jpg","0","0","1","",""
"","feedback","","html-keyboard-response","288","281131","0.0-1.0-411.0-0.0","0","0","72045","","null","","","null","45","","","","","","","","","","","","","","","",""
"","ITI","","html-keyboard-response","289","282139","0.0-1.0-414.0","0","0","72045","","null","","","null","45","","","","","","","","","","","","","","","NaN",""
"","S1","","html-keyboard-response","290","282395","0.0-1.0-416.0","0","0","72045","","null","","","null","46","","","","","","","","","","","","","","","",""
"","ISI","","html-keyboard-response","291","283403","0.0-1.0-417.0","0","0","72045","","null","","","null","46","NaN","","","","","","","","","","","","","","",""
"","S2","","html-keyboard-response","292","283659","0.0-1.0-418.0","0","0","72045","","null","","","null","46","","NaN","","","","","","","","","","","","","",""
"","response","","html-keyboard-response","293","284265","0.0-1.0-419.0-0.0","0","0","72045","","603","","","68","46","","","1","46","training","adjacent","BA","2","1","M.jpg","O.jpg","0","0","1","",""
"","feedback","","html-keyboard-response","294","285275","0.0-1.0-420.0-0.0","0","0","72045","","null","","","null","46","","","","","","","","","","","","","","","",""
"","ITI","","html-keyboard-response","295","286283","0.0-1.0-423.0","0","0","72045","","null","","","null","46","","","","","","","","","","","","","","","NaN",""
"","S1","","html-keyboard-response","296","286539","0.0-1.0-425.0","0","0","72045","","null","","","null","47","","","","","","","","","","","","","","","",""
"","ISI","","html-keyboard-response","297","287548","0.0-1.0-426.0","0","0","72045","","null","","","null","47","NaN","","","","","","","","","","","","","","",""
"","S2","","html-keyboard-response","298","287803","0.0-1.0-427.0","0","0","72045","","null","","","null","47","","NaN","","","","","","","","","","","","","",""
"","response","","html-keyboard-response","299","288373","0.0-1.0-428.0-0.0","0","0","72045","","567","","","75","47","","","1","47","training","adjacent","CD","3","4","Q.jpg","R.jpg","1","1","1","",""
"","feedback","","html-keyboard-response","300","289379","0.0-1.0-429.0-0.0","0","0","72045","","null","","","null","47","","","","","","","","","","","","","","","",""
"","ITI","","html-keyboard-response","301","290387","0.0-1.0-432.0","0","0","72045","","null","","","null","47","","","","","","","","","","","","","","","NaN",""
"","block_over","","html-keyboard-response","302","292858","0.0-1.0-433.0-0.0","0","0","72045","","2467","","","32","47","","","","","","","","","","","","","","","",""
"","S1","","html-keyboard-response","303","293115","0.0-1.0-434.0","0","0","72045","","null","","","null","48","","","","","","","","","","","","","","","",""
"","ISI","","html-keyboard-response","304","294123","0.0-1.0-435.0","0","0","72045","","null","","","null","48","NaN","","","","","","","","","","","","","","",""
"","S2","","html-keyboard-response","305","294379","0.0-1.0-436.0","0","0","72045","","null","","","null","48","","NaN","","","","","","","","","","","","","",""
"","response","","html-keyboard-response","306","295130","0.0-1.0-437.0-0.0","0","0","72045","","747","","","75","48","","","2","48","training","adjacent","FG","6","7","P.jpg","N.jpg","1","1","1","",""
"","feedback","","html-keyboard-response","307","296139","0.0-1.0-438.0-0.0","0","0","72045","","null","","","null","48","","","","","","","","","","","","","","","",""
"","ITI","","html-keyboard-response","308","297146","0.0-1.0-441.0","0","0","72045","","null","","","null","48","","","","","","","","","","","","","","","NaN",""
"","S1","","html-keyboard-response","309","297402","0.0-1.0-443.0","0","0","72045","","null","","","null","49","","","","","","","","","","","","","","","",""
"","ISI","","html-keyboard-response","310","298410","0.0-1.0-444.0","0","0","72045","","null","","","null","49","NaN","","","","","","","","","","","","","","",""
"","S2","","html-keyboard-response","311","298666","0.0-1.0-445.0","0","0","72045","","null","","","null","49","","NaN","","","","","","","","","","","","","",""
"","response","","html-keyboard-response","312","299766","0.0-1.0-446.0-0.0","0","0","72045","","1098","","","75","49","","","2","49","training","adjacent","BA","2","1","M.jpg","O.jpg","1","0","0","",""
"","feedback","","html-keyboard-response","313","300771","0.0-1.0-447.0-0.0","0","0","72045","","null","","","null","49","","","","","","","","","","","","","","","",""
"","time_out","","html-keyboard-response","314","302779","0.0-1.0-449.0-0.0","0","0","72045","","null","","","null","49","","","","","","","","","","","","","","","",""
"","ITI","","html-keyboard-response","315","303786","0.0-1.0-450.0","0","0","72045","","null","","","null","49","","","","","","","","","","","","","","","NaN",""
"","S1","","html-keyboard-response","316","304042","0.0-1.0-452.0","0","0","72045","","null","","","null","50","","","","","","","","","","","","","","","",""
"","ISI","","html-keyboard-response","317","305051","0.0-1.0-453.0","0","0","72045","","null","","","null","50","NaN","","","","","","","","","","","","","","",""
"","S2","","html-keyboard-response","318","305307","0.0-1.0-454.0","0","0","72045","","null","","","null","50","","NaN","","","","","","","","","","","","","",""
"","response","","html-keyboard-response","319","306474","0.0-1.0-455.0-0.0","0","0","72045","","1164","","","75","50","","","2","50","training","adjacent","AB","1","2","O.jpg","M.jpg","1","1","1","",""
"","feedback","","html-keyboard-response","320","307483","0.0-1.0-456.0-0.0","0","0","72045","","null","","","null","50","","","","","","","","","","","","","","","",""
"","ITI","","html-keyboard-response","321","308491","0.0-1.0-459.0","0","0","72045","","null","","","null","50","","","","","","","","","","","","","","","NaN",""
"","S1","","html-keyboard-response","322","308747","0.0-1.0-461.0","0","0","72045","","null","","","null","51","","","","","","","","","","","","","","","",""
"","ISI","","html-keyboard-response","323","309755","0.0-1.0-462.0","0","0","72045","","null","","","null","51","NaN","","","","","","","","","","","","","","",""
"","S2","","html-keyboard-response","324","310011","0.0-1.0-463.0","0","0","72045","","null","","","null","51","","NaN","","","","","","","","","","","","","",""
"","response","","html-keyboard-response","325","310279","0.0-1.0-464.0-0.0","0","0","72045","","265","","","75","51","","","2","51","training","adjacent","CD","3","4","Q.jpg","R.jpg","1","1","1","",""
"","feedback","","html-keyboard-response","326","311291","0.0-1.0-465.0-0.0","0","0","72045","","null","","","null","51","","","","","","","","","","","","","","","",""
"","ITI","","html-keyboard-response","327","312299","0.0-1.0-468.0","0","0","72045","","null","","","null","51","","","","","","","","","","","","","","","NaN",""
"","S1","","html-keyboard-response","328","312555","0.0-1.0-470.0","0","0","72045","","null","","","null","52","","","","","","","","","","","","","","","",""
"","ISI","","html-keyboard-response","329","313563","0.0-1.0-471.0","0","0","72045","","null","","","null","52","NaN","","","","","","","","","","","","","","",""
"","S2","","html-keyboard-response","330","313818","0.0-1.0-472.0","0","0","72045","","null","","","null","52","","NaN","","","","","","","","","","","","","",""
"","response","","html-keyboard-response","331","314186","0.0-1.0-473.0-0.0","0","0","72045","","365","","","75","52","","","2","52","training","adjacent","CD","3","4","Q.jpg","R.jpg","1","1","1","",""
"","feedback","","html-keyboard-response","332","315195","0.0-1.0-474.0-0.0","0","0","72045","","null","","","null","52","","","","","","","","","","","","","","","",""
"","ITI","","html-keyboard-response","333","316204","0.0-1.0-477.0","0","0","72045","","null","","","null","52","","","","","","","","","","","","","","","NaN",""
"","S1","","html-keyboard-response","334","316459","0.0-1.0-479.0","0","0","72045","","null","","","null","53","","","","","","","","","","","","","","","",""
"","ISI","","html-keyboard-response","335","317467","0.0-1.0-480.0","0","0","72045","","null","","","null","53","NaN","","","","","","","","","","","","","","",""
"","S2","","html-keyboard-response","336","317724","0.0-1.0-481.0","0","0","72045","","null","","","null","53","","NaN","","","","","","","","","","","","","",""
"","response","","html-keyboard-response","337","318296","0.0-1.0-482.0-0.0","0","0","72045","","569","","","68","53","","","2","53","training","adjacent","ED","5","4","L.jpg","R.jpg","0","0","1","",""
"","feedback","","html-keyboard-response","338","319307","0.0-1.0-483.0-0.0","0","0","72045","","null","","","null","53","","","","","","","","","","","","","","","",""
"","ITI","","html-keyboard-response","339","320316","0.0-1.0-486.0","0","0","72045","","null","","","null","53","","","","","","","","","","","","","","","NaN",""
"","S1","","html-keyboard-response","340","320572","0.0-1.0-488.0","0","0","72045","","null","","","null","54","","","","","","","","","","","","","","","",""
"","ISI","","html-keyboard-response","341","321580","0.0-1.0-489.0","0","0","72045","","null","","","null","54","NaN","","","","","","","","","","","","","","",""
"","S2","","html-keyboard-response","342","321836","0.0-1.0-490.0","0","0","72045","","null","","","null","54","","NaN","","","","","","","","","","","","","",""
"","response","","html-keyboard-response","343","322281","0.0-1.0-491.0-0.0","0","0","72045","","442","","","68","54","","","2","54","training","adjacent","FE","6","5","P.jpg","L.jpg","0","0","1","",""
"","feedback","","html-keyboard-response","344","323292","0.0-1.0-492.0-0.0","0","0","72045","","null","","","null","54","","","","","","","","","","","","","","","",""
"","ITI","","html-keyboard-response","345","324299","0.0-1.0-495.0","0","0","72045","","null","","","null","54","","","","","","","","","","","","","","","NaN",""
"","S1","","html-keyboard-response","346","324555","0.0-1.0-497.0","0","0","72045","","null","","","null","55","","","","","","","","","","","","","","","",""
"","ISI","","html-keyboard-response","347","325564","0.0-1.0-498.0","0","0","72045","","null","","","null","55","NaN","","","","","","","","","","","","","","",""
"","S2","","html-keyboard-response","348","325820","0.0-1.0-499.0","0","0","72045","","null","","","null","55","","NaN","","","","","","","","","","","","","",""
"","response","","html-keyboard-response","349","326340","0.0-1.0-500.0-0.0","0","0","72045","","516","","","75","55","","","2","55","training","adjacent","FG","6","7","P.jpg","N.jpg","1","1","1","",""
"","feedback","","html-keyboard-response","350","327348","0.0-1.0-501.0-0.0","0","0","72045","","null","","","null","55","","","","","","","","","","","","","","","",""
"","ITI","","html-keyboard-response","351","328356","0.0-1.0-504.0","0","0","72045","","null","","","null","55","","","","","","","","","","","","","","","NaN",""
"","S1","","html-keyboard-response","352","328612","0.0-1.0-506.0","0","0","72045","","null","","","null","56","","","","","","","","","","","","","","","",""
"","ISI","","html-keyboard-response","353","329619","0.0-1.0-507.0","0","0","72045","","null","","","null","56","NaN","","","","","","","","","","","","","","",""
"","S2","","html-keyboard-response","354","329876","0.0-1.0-508.0","0","0","72045","","null","","","null","56","","NaN","","","","","","","","","","","","","",""
"","response","","html-keyboard-response","355","330202","0.0-1.0-509.0-0.0","0","0","72045","","323","","","68","56","","","2","56","training","adjacent","FE","6","5","P.jpg","L.jpg","0","0","1","",""
"","feedback","","html-keyboard-response","356","331215","0.0-1.0-510.0-0.0","0","0","72045","","null","","","null","56","","","","","","","","","","","","","","","",""
"","ITI","","html-keyboard-response","357","332222","0.0-1.0-513.0","0","0","72045","","null","","","null","56","","","","","","","","","","","","","","","NaN",""
"","S1","","html-keyboard-response","358","332479","0.0-1.0-515.0","0","0","72045","","null","","","null","57","","","","","","","","","","","","","","","",""
"","ISI","","html-keyboard-response","359","333487","0.0-1.0-516.0","0","0","72045","","null","","","null","57","NaN","","","","","","","","","","","","","","",""
"","S2","","html-keyboard-response","360","333743","0.0-1.0-517.0","0","0","72045","","null","","","null","57","","NaN","","","","","","","","","","","","","",""
"","response","","html-keyboard-response","361","334427","0.0-1.0-518.0-0.0","0","0","72045","","680","","","75","57","","","2","57","training","adjacent","CB","3","2","Q.jpg","M.jpg","1","0","0","",""
"","feedback","","html-keyboard-response","362","335439","0.0-1.0-519.0-0.0","0","0","72045","","null","","","null","57","","","","","","","","","","","","","","","",""
"","time_out","","html-keyboard-response","363","337447","0.0-1.0-521.0-0.0","0","0","72045","","null","","","null","57","","","","","","","","","","","","","","","",""
"","ITI","","html-keyboard-response","364","338455","0.0-1.0-522.0","0","0","72045","","null","","","null","57","","","","","","","","","","","","","","","NaN",""
"","S1","","html-keyboard-response","365","338711","0.0-1.0-524.0","0","0","72045","","null","","","null","58","","","","","","","","","","","","","","","",""
"","ISI","","html-keyboard-response","366","339719","0.0-1.0-525.0","0","0","72045","","null","","","null","58","NaN","","","","","","","","","","","","","","",""
"","S2","","html-keyboard-response","367","339975","0.0-1.0-526.0","0","0","72045","","null","","","null","58","","NaN","","","","","","","","","","","","","",""
"","response","","html-keyboard-response","368","341373","0.0-1.0-527.0-0.0","0","0","72045","","1396","","","75","58","","","2","58","training","adjacent","AB","1","2","O.jpg","M.jpg","1","1","1","",""
"","feedback","","html-keyboard-response","369","342383","0.0-1.0-528.0-0.0","0","0","72045","","null","","","null","58","","","","","","","","","","","","","","","",""
"","ITI","","html-keyboard-response","370","343391","0.0-1.0-531.0","0","0","72045","","null","","","null","58","","","","","","","","","","","","","","","NaN",""
"","S1","","html-keyboard-response","371","343647","0.0-1.0-533.0","0","0","72045","","null","","","null","59","","","","","","","","","","","","","","","",""
"","ISI","","html-keyboard-response","372","344655","0.0-1.0-534.0","0","0","72045","","null","","","null","59","NaN","","","","","","","","","","","","","","",""
"","S2","","html-keyboard-response","373","344911","0.0-1.0-535.0","0","0","72045","","null","","","null","59","","NaN","","","","","","","","","","","","","",""
"","response","","html-keyboard-response","374","345720","0.0-1.0-536.0-0.0","0","0","72045","","806","","","68","59","","","2","59","training","adjacent","ED","5","4","L.jpg","R.jpg","0","0","1","",""
"","feedback","","html-keyboard-response","375","346727","0.0-1.0-537.0-0.0","0","0","72045","","null","","","null","59","","","","","","","","","","","","","","","",""
"","ITI","","html-keyboard-response","376","347735","0.0-1.0-540.0","0","0","72045","","null","","","null","59","","","","","","","","","","","","","","","NaN",""
"","S1","","html-keyboard-response","377","347991","0.0-1.0-542.0","0","0","72045","","null","","","null","60","","","","","","","","","","","","","","","",""
"","ISI","","html-keyboard-response","378","348999","0.0-1.0-543.0","0","0","72045","","null","","","null","60","NaN","","","","","","","","","","","","","","",""
"","S2","","html-keyboard-response","379","349255","0.0-1.0-544.0","0","0","72045","","null","","","null","60","","NaN","","","","","","","","","","","","","",""
"","response","","html-keyboard-response","380","349713","0.0-1.0-545.0-0.0","0","0","72045","","455","","","75","60","","","2","60","training","adjacent","EF","5","6","L.jpg","P.jpg","1","1","1","",""
"","feedback","","html-keyboard-response","381","350719","0.0-1.0-546.0-0.0","0","0","72045","","null","","","null","60","","","","","","","","","","","","","","","",""
"","ITI","","html-keyboard-response","382","351727","0.0-1.0-549.0","0","0","72045","","null","","","null","60","","","","","","","","","","","","","","","NaN",""
"","S1","","html-keyboard-response","383","351983","0.0-1.0-551.0","0","0","72045","","null","","","null","61","","","","","","","","","","","","","","","",""
"","ISI","","html-keyboard-response","384","352991","0.0-1.0-552.0","0","0","72045","","null","","","null","61","NaN","","","","","","","","","","","","","","",""
"","S2","","html-keyboard-response","385","353247","0.0-1.0-553.0","0","0","72045","","null","","","null","61","","NaN","","","","","","","","","","","","","",""
"","response","","html-keyboard-response","386","353696","0.0-1.0-554.0-0.0","0","0","72045","","446","","","68","61","","","2","61","training","adjacent","DC","4","3","R.jpg","Q.jpg","0","0","1","",""
"","feedback","","html-keyboard-response","387","354703","0.0-1.0-555.0-0.0","0","0","72045","","null","","","null","61","","","","","","","","","","","","","","","",""
"","ITI","","html-keyboard-response","388","355711","0.0-1.0-558.0","0","0","72045","","null","","","null","61","","","","","","","","","","","","","","","NaN",""
"","S1","","html-keyboard-response","389","355967","0.0-1.0-560.0","0","0","72045","","null","","","null","62","","","","","","","","","","","","","","","",""
"","ISI","","html-keyboard-response","390","356975","0.0-1.0-561.0","0","0","72045","","null","","","null","62","NaN","","","","","","","","","","","","","","",""
"","S2","","html-keyboard-response","391","357231","0.0-1.0-562.0","0","0","72045","","null","","","null","62","","NaN","","","","","","","","","","","","","",""
"","response","","html-keyboard-response","392","357835","0.0-1.0-563.0-0.0","0","0","72045","","601","","","68","62","","","2","62","training","adjacent","BC","2","3","M.jpg","Q.jpg","0","1","0","",""
"","feedback","","html-keyboard-response","393","358847","0.0-1.0-564.0-0.0","0","0","72045","","null","","","null","62","","","","","","","","","","","","","","","",""
"","time_out","","html-keyboard-response","394","360854","0.0-1.0-566.0-0.0","0","0","72045","","null","","","null","62","","","","","","","","","","","","","","","",""
"","ITI","","html-keyboard-response","395","361862","0.0-1.0-567.0","0","0","72045","","null","","","null","62","","","","","","","","","","","","","","","NaN",""
"","S1","","html-keyboard-response","396","362119","0.0-1.0-569.0","0","0","72045","","null","","","null","63","","","","","","","","","","","","","","","",""
"","ISI","","html-keyboard-response","397","363127","0.0-1.0-570.0","0","0","72045","","null","","","null","63","NaN","","","","","","","","","","","","","","",""
"","S2","","html-keyboard-response","398","363383","0.0-1.0-571.0","0","0","72045","","null","","","null","63","","NaN","","","","","","","","","","","","","",""
"","response","","html-keyboard-response","399","364004","0.0-1.0-572.0-0.0","0","0","72045","","618","","","75","63","","","2","63","training","adjacent","DE","4","5","R.jpg","L.jpg","1","1","1","",""
"","feedback","","html-keyboard-response","400","365015","0.0-1.0-573.0-0.0","0","0","72045","","null","","","null","63","","","","","","","","","","","","","","","",""
"","ITI","","html-keyboard-response","401","366023","0.0-1.0-576.0","0","0","72045","","null","","","null","63","","","","","","","","","","","","","","","NaN",""
"","S1","","html-keyboard-response","402","366279","0.0-1.0-578.0","0","0","72045","","null","","","null","64","","","","","","","","","","","","","","","",""
"","ISI","","html-keyboard-response","403","367287","0.0-1.0-579.0","0","0","72045","","null","","","null","64","NaN","","","","","","","","","","","","","","",""
"","S2","","html-keyboard-response","404","367543","0.0-1.0-580.0","0","0","72045","","null","","","null","64","","NaN","","","","","","","","","","","","","",""
"","response","","html-keyboard-response","405","368099","0.0-1.0-581.0-0.0","0","0","72045","","553","","","68","64","","","2","64","training","adjacent","BC","2","3","M.jpg","Q.jpg","0","1","0","",""
"","feedback","","html-keyboard-response","406","369111","0.0-1.0-582.0-0.0","0","0","72045","","null","","","null","64","","","","","","","","","","","","","","","",""
"","time_out","","html-keyboard-response","407","371119","0.0-1.0-584.0-0.0","0","0","72045","","null","","","null","64","","","","","","","","","","","","","","","",""
"","ITI","","html-keyboard-response","408","372127","0.0-1.0-585.0","0","0","72045","","null","","","null","64","","","","","","","","","","","","","","","NaN",""
"","S1","","html-keyboard-response","409","372382","0.0-1.0-587.0","0","0","72045","","null","","","null","65","","","","","","","","","","","","","","","",""
"","ISI","","html-keyboard-response","410","373391","0.0-1.0-588.0","0","0","72045","","null","","","null","65","NaN","","","","","","","","","","","","","","",""
"","S2","","html-keyboard-response","411","373647","0.0-1.0-589.0","0","0","72045","","null","","","null","65","","NaN","","","","","","","","","","","","","",""
"","response","","html-keyboard-response","412","374513","0.0-1.0-590.0-0.0","0","0","72045","","864","","","75","65","","","2","65","training","adjacent","EF","5","6","L.jpg","P.jpg","1","1","1","",""
"","feedback","","html-keyboard-response","413","375519","0.0-1.0-591.0-0.0","0","0","72045","","null","","","null","65","","","","","","","","","","","","","","","",""
"","ITI","","html-keyboard-response","414","376527","0.0-1.0-594.0","0","0","72045","","null","","","null","65","","","","","","","","","","","","","","","NaN",""
"","S1","","html-keyboard-response","415","376783","0.0-1.0-596.0","0","0","72045","","null","","","null","66","","","","","","","","","","","","","","","",""
"","ISI","","html-keyboard-response","416","377791","0.0-1.0-597.0","0","0","72045","","null","","","null","66","NaN","","","","","","","","","","","","","","",""
"","S2","","html-keyboard-response","417","378047","0.0-1.0-598.0","0","0","72045","","null","","","null","66","","NaN","","","","","","","","","","","","","",""
"","response","","html-keyboard-response","418","378607","0.0-1.0-599.0-0.0","0","0","72045","","557","","","75","66","","","2","66","training","adjacent","FG","6","7","P.jpg","N.jpg","1","1","1","",""
"","feedback","","html-keyboard-response","419","379615","0.0-1.0-600.0-0.0","0","0","72045","","null","","","null","66","","","","","","","","","","","","","","","",""
"","ITI","","html-keyboard-response","420","380623","0.0-1.0-603.0","0","0","72045","","null","","","null","66","","","","","","","","","","","","","","","NaN",""
"","S1","","html-keyboard-response","421","380879","0.0-1.0-605.0","0","0","72045","","null","","","null","67","","","","","","","","","","","","","","","",""
"","ISI","","html-keyboard-response","422","381887","0.0-1.0-606.0","0","0","72045","","null","","","null","67","NaN","","","","","","","","","","","","","","",""
"","S2","","html-keyboard-response","423","382143","0.0-1.0-607.0","0","0","72045","","null","","","null","67","","NaN","","","","","","","","","","","","","",""
"","response","","html-keyboard-response","424","382716","0.0-1.0-608.0-0.0","0","0","72045","","570","","","68","67","","","2","67","training","adjacent","GF","7","6","N.jpg","P.jpg","0","0","1","",""
"","feedback","","html-keyboard-response","425","383727","0.0-1.0-609.0-0.0","0","0","72045","","null","","","null","67","","","","","","","","","","","","","","","",""
"","ITI","","html-keyboard-response","426","384735","0.0-1.0-612.0","0","0","72045","","null","","","null","67","","","","","","","","","","","","","","","NaN",""
"","S1","","html-keyboard-response","427","384991","0.0-1.0-614.0","0","0","72045","","null","","","null","68","","","","","","","","","","","","","","","",""
"","ISI","","html-keyboard-response","428","385999","0.0-1.0-615.0","0","0","72045","","null","","","null","68","NaN","","","","","","","","","","","","","","",""
"","S2","","html-keyboard-response","429","386255","0.0-1.0-616.0","0","0","72045","","null","","","null","68","","NaN","","","","","","","","","","","","","",""
"","response","","html-keyboard-response","430","386797","0.0-1.0-617.0-0.0","0","0","72045","","539","","","68","68","","","2","68","training","adjacent","CB","3","2","Q.jpg","M.jpg","0","0","1","",""
"","feedback","","html-keyboard-response","431","387807","0.0-1.0-618.0-0.0","0","0","72045","","null","","","null","68","","","","","","","","","","","","","","","",""
"","ITI","","html-keyboard-response","432","388814","0.0-1.0-621.0","0","0","72045","","null","","","null","68","","","","","","","","","","","","","","","NaN",""
"","S1","","html-keyboard-response","433","389071","0.0-1.0-623.0","0","0","72045","","null","","","null","69","","","","","","","","","","","","","","","",""
"","ISI","","html-keyboard-response","434","390079","0.0-1.0-624.0","0","0","72045","","null","","","null","69","NaN","","","","","","","","","","","","","","",""
"","S2","","html-keyboard-response","435","390335","0.0-1.0-625.0","0","0","72045","","null","","","null","69","","NaN","","","","","","","","","","","","","",""
"","response","","html-keyboard-response","436","390816","0.0-1.0-626.0-0.0","0","0","72045","","478","","","75","69","","","2","69","training","adjacent","BA","2","1","M.jpg","O.jpg","1","0","0","",""
"","feedback","","html-keyboard-response","437","391826","0.0-1.0-627.0-0.0","0","0","72045","","null","","","null","69","","","","","","","","","","","","","","","",""
"","time_out","","html-keyboard-response","438","393834","0.0-1.0-629.0-0.0","0","0","72045","","null","","","null","69","","","","","","","","","","","","","","","",""
"","ITI","","html-keyboard-response","439","394843","0.0-1.0-630.0","0","0","72045","","null","","","null","69","","","","","","","","","","","","","","","NaN",""
"","S1","","html-keyboard-response","440","395098","0.0-1.0-632.0","0","0","72045","","null","","","null","70","","","","","","","","","","","","","","","",""
"","ISI","","html-keyboard-response","441","396107","0.0-1.0-633.0","0","0","72045","","null","","","null","70","NaN","","","","","","","","","","","","","","",""
"","S2","","html-keyboard-response","442","396363","0.0-1.0-634.0","0","0","72045","","null","","","null","70","","NaN","","","","","","","","","","","","","",""
"","response","","html-keyboard-response","443","397035","0.0-1.0-635.0-0.0","0","0","72045","","669","","","68","70","","","2","70","training","adjacent","ED","5","4","L.jpg","R.jpg","0","0","1","",""
"","feedback","","html-keyboard-response","444","398043","0.0-1.0-636.0-0.0","0","0","72045","","null","","","null","70","","","","","","","","","","","","","","","",""
"","ITI","","html-keyboard-response","445","399051","0.0-1.0-639.0","0","0","72045","","null","","","null","70","","","","","","","","","","","","","","","NaN",""
"","S1","","html-keyboard-response","446","399307","0.0-1.0-641.0","0","0","72045","","null","","","null","71","","","","","","","","","","","","","","","",""
"","ISI","","html-keyboard-response","447","400314","0.0-1.0-642.0","0","0","72045","","null","","","null","71","NaN","","","","","","","","","","","","","","",""
"","S2","","html-keyboard-response","448","400570","0.0-1.0-643.0","0","0","72045","","null","","","null","71","","NaN","","","","","","","","","","","","","",""
"","response","","html-keyboard-response","449","401372","0.0-1.0-644.0-0.0","0","0","72045","","799","","","75","71","","","2","71","training","adjacent","AB","1","2","O.jpg","M.jpg","1","1","1","",""
"","feedback","","html-keyboard-response","450","402378","0.0-1.0-645.0-0.0","0","0","72045","","null","","","null","71","","","","","","","","","","","","","","","",""
"","ITI","","html-keyboard-response","451","403386","0.0-1.0-648.0","0","0","72045","","null","","","null","71","","","","","","","","","","","","","","","NaN",""
"","S1","","html-keyboard-response","452","403642","0.0-1.0-650.0","0","0","72045","","null","","","null","72","","","","","","","","","","","","","","","",""
"","ISI","","html-keyboard-response","453","404650","0.0-1.0-651.0","0","0","72045","","null","","","null","72","NaN","","","","","","","","","","","","","","",""
"","S2","","html-keyboard-response","454","404905","0.0-1.0-652.0","0","0","72045","","null","","","null","72","","NaN","","","","","","","","","","","","","",""
"","response","","html-keyboard-response","455","405648","0.0-1.0-653.0-0.0","0","0","72045","","740","","","75","72","","","2","72","training","adjacent","AB","1","2","O.jpg","M.jpg","1","1","1","",""
"","feedback","","html-keyboard-response","456","406658","0.0-1.0-654.0-0.0","0","0","72045","","null","","","null","72","","","","","","","","","","","","","","","",""
"","ITI","","html-keyboard-response","457","407666","0.0-1.0-657.0","0","0","72045","","null","","","null","72","","","","","","","","","","","","","","","NaN",""
"","S1","","html-keyboard-response","458","407922","0.0-1.0-659.0","0","0","72045","","null","","","null","73","","","","","","","","","","","","","","","",""
"","ISI","","html-keyboard-response","459","408930","0.0-1.0-660.0","0","0","72045","","null","","","null","73","NaN","","","","","","","","","","","","","","",""
"","S2","","html-keyboard-response","460","409186","0.0-1.0-661.0","0","0","72045","","null","","","null","73","","NaN","","","","","","","","","","","","","",""
"","response","","html-keyboard-response","461","409947","0.0-1.0-662.0-0.0","0","0","72045","","757","","","68","73","","","2","73","training","adjacent","ED","5","4","L.jpg","R.jpg","0","0","1","",""
"","feedback","","html-keyboard-response","462","410954","0.0-1.0-663.0-0.0","0","0","72045","","null","","","null","73","","","","","","","","","","","","","","","",""
"","ITI","","html-keyboard-response","463","411962","0.0-1.0-666.0","0","0","72045","","null","","","null","73","","","","","","","","","","","","","","","NaN",""
"","S1","","html-keyboard-response","464","412218","0.0-1.0-668.0","0","0","72045","","null","","","null","74","","","","","","","","","","","","","","","",""
"","ISI","","html-keyboard-response","465","413226","0.0-1.0-669.0","0","0","72045","","null","","","null","74","NaN","","","","","","","","","","","","","","",""
"","S2","","html-keyboard-response","466","413482","0.0-1.0-670.0","0","0","72045","","null","","","null","74","","NaN","","","","","","","","","","","","","",""
"","response","","html-keyboard-response","467","414160","0.0-1.0-671.0-0.0","0","0","72045","","674","","","75","74","","","2","74","training","adjacent","FG","6","7","P.jpg","N.jpg","1","1","1","",""
"","feedback","","html-keyboard-response","468","415170","0.0-1.0-672.0-0.0","0","0","72045","","null","","","null","74","","","","","","","","","","","","","","","",""
"","ITI","","html-keyboard-response","469","416178","0.0-1.0-675.0","0","0","72045","","null","","","null","74","","","","","","","","","","","","","","","NaN",""
"","S1","","html-keyboard-response","470","416434","0.0-1.0-677.0","0","0","72045","","null","","","null","75","","","","","","","","","","","","","","","",""
"","ISI","","html-keyboard-response","471","417442","0.0-1.0-678.0","0","0","72045","","null","","","null","75","NaN","","","","","","","","","","","","","","",""
"","S2","","html-keyboard-response","472","417698","0.0-1.0-679.0","0","0","72045","","null","","","null","75","","NaN","","","","","","","","","","","","","",""
"","response","","html-keyboard-response","473","418086","0.0-1.0-680.0-0.0","0","0","72045","","384","","","68","75","","","2","75","training","adjacent","FE","6","5","P.jpg","L.jpg","0","0","1","",""
"","feedback","","html-keyboard-response","474","419098","0.0-1.0-681.0-0.0","0","0","72045","","null","","","null","75","","","","","","","","","","","","","","","",""
"","ITI","","html-keyboard-response","475","420106","0.0-1.0-684.0","0","0","72045","","null","","","null","75","","","","","","","","","","","","","","","NaN",""
"","S1","","html-keyboard-response","476","420362","0.0-1.0-686.0","0","0","72045","","null","","","null","76","","","","","","","","","","","","","","","",""
"","ISI","","html-keyboard-response","477","421371","0.0-1.0-687.0","0","0","72045","","null","","","null","76","NaN","","","","","","","","","","","","","","",""
"","S2","","html-keyboard-response","478","421626","0.0-1.0-688.0","0","0","72045","","null","","","null","76","","NaN","","","","","","","","","","","","","",""
"","response","","html-keyboard-response","479","421893","0.0-1.0-689.0-0.0","0","0","72045","","263","","","68","76","","","2","76","training","adjacent","FE","6","5","P.jpg","L.jpg","0","0","1","",""
"","feedback","","html-keyboard-response","480","422898","0.0-1.0-690.0-0.0","0","0","72045","","null","","","null","76","","","","","","","","","","","","","","","",""
"","ITI","","html-keyboard-response","481","423906","0.0-1.0-693.0","0","0","72045","","null","","","null","76","","","","","","","","","","","","","","","NaN",""
"","S1","","html-keyboard-response","482","424162","0.0-1.0-695.0","0","0","72045","","null","","","null","77","","","","","","","","","","","","","","","",""
"","ISI","","html-keyboard-response","483","425171","0.0-1.0-696.0","0","0","72045","","null","","","null","77","NaN","","","","","","","","","","","","","","",""
"","S2","","html-keyboard-response","484","425426","0.0-1.0-697.0","0","0","72045","","null","","","null","77","","NaN","","","","","","","","","","","","","",""
"","response","","html-keyboard-response","485","425850","0.0-1.0-698.0-0.0","0","0","72045","","419","","","68","77","","","2","77","training","adjacent","GF","7","6","N.jpg","P.jpg","0","0","1","",""
"","feedback","","html-keyboard-response","486","426858","0.0-1.0-699.0-0.0","0","0","72045","","null","","","null","77","","","","","","","","","","","","","","","",""
"","ITI","","html-keyboard-response","487","427866","0.0-1.0-702.0","0","0","72045","","null","","","null","77","","","","","","","","","","","","","","","NaN",""
"","S1","","html-keyboard-response","488","428122","0.0-1.0-704.0","0","0","72045","","null","","","null","78","","","","","","","","","","","","","","","",""
"","ISI","","html-keyboard-response","489","429130","0.0-1.0-705.0","0","0","72045","","null","","","null","78","NaN","","","","","","","","","","","","","","",""
"","S2","","html-keyboard-response","490","429386","0.0-1.0-706.0","0","0","72045","","null","","","null","78","","NaN","","","","","","","","","","","","","",""
"","response","","html-keyboard-response","491","429790","0.0-1.0-707.0-0.0","0","0","72045","","400","","","68","78","","","2","78","training","adjacent","DC","4","3","R.jpg","Q.jpg","0","0","1","",""
"","feedback","","html-keyboard-response","492","430802","0.0-1.0-708.0-0.0","0","0","72045","","null","","","null","78","","","","","","","","","","","","","","","",""
"","ITI","","html-keyboard-response","493","431810","0.0-1.0-711.0","0","0","72045","","null","","","null","78","","","","","","","","","","","","","","","NaN",""
"","S1","","html-keyboard-response","494","432066","0.0-1.0-713.0","0","0","72045","","null","","","null","79","","","","","","","","","","","","","","","",""
"","ISI","","html-keyboard-response","495","433074","0.0-1.0-714.0","0","0","72045","","null","","","null","79","NaN","","","","","","","","","","","","","","",""
"","S2","","html-keyboard-response","496","433330","0.0-1.0-715.0","0","0","72045","","null","","","null","79","","NaN","","","","","","","","","","","","","",""
"","response","","html-keyboard-response","497","434099","0.0-1.0-716.0-0.0","0","0","72045","","765","","","75","79","","","2","79","training","adjacent","DE","4","5","R.jpg","L.jpg","1","1","1","",""
"","feedback","","html-keyboard-response","498","435106","0.0-1.0-717.0-0.0","0","0","72045","","null","","","null","79","","","","","","","","","","","","","","","",""
"","ITI","","html-keyboard-response","499","436114","0.0-1.0-720.0","0","0","72045","","null","","","null","79","","","","","","","","","","","","","","","NaN",""
"","S1","","html-keyboard-response","500","436370","0.0-1.0-722.0","0","0","72045","","null","","","null","80","","","","","","","","","","","","","","","",""
"","ISI","","html-keyboard-response","501","437378","0.0-1.0-723.0","0","0","72045","","null","","","null","80","NaN","","","","","","","","","","","","","","",""
"","S2","","html-keyboard-response","502","437634","0.0-1.0-724.0","0","0","72045","","null","","","null","80","","NaN","","","","","","","","","","","","","",""
"","response","","html-keyboard-response","503","438454","0.0-1.0-725.0-0.0","0","0","72045","","816","","","75","80","","","2","80","training","adjacent","CD","3","4","Q.jpg","R.jpg","1","1","1","",""
"","feedback","","html-keyboard-response","504","439466","0.0-1.0-726.0-0.0","0","0","72045","","null","","","null","80","","","","","","","","","","","","","","","",""
"","ITI","","html-keyboard-response","505","440474","0.0-1.0-729.0","0","0","72045","","null","","","null","80","","","","","","","","","","","","","","","NaN",""
"","S1","","html-keyboard-response","506","440730","0.0-1.0-731.0","0","0","72045","","null","","","null","81","","","","","","","","","","","","","","","",""
"","ISI","","html-keyboard-response","507","441738","0.0-1.0-732.0","0","0","72045","","null","","","null","81","NaN","","","","","","","","","","","","","","",""
"","S2","","html-keyboard-response","508","441994","0.0-1.0-733.0","0","0","72045","","null","","","null","81","","NaN","","","","","","","","","","","","","",""
"","response","","html-keyboard-response","509","442420","0.0-1.0-734.0-0.0","0","0","72045","","422","","","75","81","","","2","81","training","adjacent","EF","5","6","L.jpg","P.jpg","1","1","1","",""
"","feedback","","html-keyboard-response","510","443426","0.0-1.0-735.0-0.0","0","0","72045","","null","","","null","81","","","","","","","","","","","","","","","",""
"","ITI","","html-keyboard-response","511","444435","0.0-1.0-738.0","0","0","72045","","null","","","null","81","","","","","","","","","","","","","","","NaN",""
"","S1","","html-keyboard-response","512","444690","0.0-1.0-740.0","0","0","72045","","null","","","null","82","","","","","","","","","","","","","","","",""
"","ISI","","html-keyboard-response","513","445698","0.0-1.0-741.0","0","0","72045","","null","","","null","82","NaN","","","","","","","","","","","","","","",""
"","S2","","html-keyboard-response","514","445954","0.0-1.0-742.0","0","0","72045","","null","","","null","82","","NaN","","","","","","","","","","","","","",""
"","response","","html-keyboard-response","515","446736","0.0-1.0-743.0-0.0","0","0","72045","","778","","","68","82","","","2","82","training","adjacent","DE","4","5","R.jpg","L.jpg","0","1","0","",""
"","feedback","","html-keyboard-response","516","447746","0.0-1.0-744.0-0.0","0","0","72045","","null","","","null","82","","","","","","","","","","","","","","","",""
"","time_out","","html-keyboard-response","517","449754","0.0-1.0-746.0-0.0","0","0","72045","","null","","","null","82","","","","","","","","","","","","","","","",""
"","ITI","","html-keyboard-response","518","450762","0.0-1.0-747.0","0","0","72045","","null","","","null","82","","","","","","","","","","","","","","","NaN",""
"","S1","","html-keyboard-response","519","451018","0.0-1.0-749.0","0","0","72045","","null","","","null","83","","","","","","","","","","","","","","","",""
"","ISI","","html-keyboard-response","520","452030","0.0-1.0-750.0","0","0","72045","","null","","","null","83","NaN","","","","","","","","","","","","","","",""
"","S2","","html-keyboard-response","521","452286","0.0-1.0-751.0","0","0","72045","","null","","","null","83","","NaN","","","","","","","","","","","","","",""
"","response","","html-keyboard-response","522","452681","0.0-1.0-752.0-0.0","0","0","72045","","392","","","68","83","","","2","83","training","adjacent","DC","4","3","R.jpg","Q.jpg","0","0","1","",""
"","feedback","","html-keyboard-response","523","453694","0.0-1.0-753.0-0.0","0","0","72045","","null","","","null","83","","","","","","","","","","","","","","","",""
"","ITI","","html-keyboard-response","524","454702","0.0-1.0-756.0","0","0","72045","","null","","","null","83","","","","","","","","","","","","","","","NaN",""
"","S1","","html-keyboard-response","525","454958","0.0-1.0-758.0","0","0","72045","","null","","","null","84","","","","","","","","","","","","","","","",""
"","ISI","","html-keyboard-response","526","455966","0.0-1.0-759.0","0","0","72045","","null","","","null","84","NaN","","","","","","","","","","","","","","",""
"","S2","","html-keyboard-response","527","456222","0.0-1.0-760.0","0","0","72045","","null","","","null","84","","NaN","","","","","","","","","","","","","",""
"","response","","html-keyboard-response","528","456758","0.0-1.0-761.0-0.0","0","0","72045","","533","","","68","84","","","2","84","training","adjacent","BC","2","3","M.jpg","Q.jpg","0","1","0","",""
"","feedback","","html-keyboard-response","529","457766","0.0-1.0-762.0-0.0","0","0","72045","","null","","","null","84","","","","","","","","","","","","","","","",""
"","time_out","","html-keyboard-response","530","459774","0.0-1.0-764.0-0.0","0","0","72045","","null","","","null","84","","","","","","","","","","","","","","","",""
"","ITI","","html-keyboard-response","531","460782","0.0-1.0-765.0","0","0","72045","","null","","","null","84","","","","","","","","","","","","","","","NaN",""
"","S1","","html-keyboard-response","532","461038","0.0-1.0-767.0","0","0","72045","","null","","","null","85","","","","","","","","","","","","","","","",""
"","ISI","","html-keyboard-response","533","462046","0.0-1.0-768.0","0","0","72045","","null","","","null","85","NaN","","","","","","","","","","","","","","",""
"","S2","","html-keyboard-response","534","462302","0.0-1.0-769.0","0","0","72045","","null","","","null","85","","NaN","","","","","","","","","","","","","",""
"","response","","html-keyboard-response","535","463007","0.0-1.0-770.0-0.0","0","0","72045","","702","","","68","85","","","2","85","training","adjacent","GF","7","6","N.jpg","P.jpg","0","0","1","",""
"","feedback","","html-keyboard-response","536","464014","0.0-1.0-771.0-0.0","0","0","72045","","null","","","null","85","","","","","","","","","","","","","","","",""
"","ITI","","html-keyboard-response","537","465022","0.0-1.0-774.0","0","0","72045","","null","","","null","85","","","","","","","","","","","","","","","NaN",""
"","S1","","html-keyboard-response","538","465278","0.0-1.0-776.0","0","0","72045","","null","","","null","86","","","","","","","","","","","","","","","",""
"","ISI","","html-keyboard-response","539","466286","0.0-1.0-777.0","0","0","72045","","null","","","null","86","NaN","","","","","","","","","","","","","","",""
"","S2","","html-keyboard-response","540","466542","0.0-1.0-778.0","0","0","72045","","null","","","null","86","","NaN","","","","","","","","","","","","","",""
"","response","","html-keyboard-response","541","467054","0.0-1.0-779.0-0.0","0","0","72045","","510","","","68","86","","","2","86","training","adjacent","CB","3","2","Q.jpg","M.jpg","0","0","1","",""
"","feedback","","html-keyboard-response","542","468062","0.0-1.0-780.0-0.0","0","0","72045","","null","","","null","86","","","","","","","","","","","","","","","",""
"","ITI","","html-keyboard-response","543","469069","0.0-1.0-783.0","0","0","72045","","null","","","null","86","","","","","","","","","","","","","","","NaN",""
"","S1","","html-keyboard-response","544","469326","0.0-1.0-785.0","0","0","72045","","null","","","null","87","","","","","","","","","","","","","","","",""
"","ISI","","html-keyboard-response","545","470334","0.0-1.0-786.0","0","0","72045","","null","","","null","87","NaN","","","","","","","","","","","","","","",""
"","S2","","html-keyboard-response","546","470590","0.0-1.0-787.0","0","0","72045","","null","","","null","87","","NaN","","","","","","","","","","","","","",""
"","response","","html-keyboard-response","547","471062","0.0-1.0-788.0-0.0","0","0","72045","","468","","","75","87","","","2","87","training","adjacent","BC","2","3","M.jpg","Q.jpg","1","1","1","",""
"","feedback","","html-keyboard-response","548","472070","0.0-1.0-789.0-0.0","0","0","72045","","null","","","null","87","","","","","","","","","","","","","","","",""
"","ITI","","html-keyboard-response","549","473078","0.0-1.0-792.0","0","0","72045","","null","","","null","87","","","","","","","","","","","","","","","NaN",""
"","S1","","html-keyboard-response","550","473334","0.0-1.0-794.0","0","0","72045","","null","","","null","88","","","","","","","","","","","","","","","",""
"","ISI","","html-keyboard-response","551","474342","0.0-1.0-795.0","0","0","72045","","null","","","null","88","NaN","","","","","","","","","","","","","","",""
"","S2","","html-keyboard-response","552","474598","0.0-1.0-796.0","0","0","72045","","null","","","null","88","","NaN","","","","","","","","","","","","","",""
"","response","","html-keyboard-response","553","475150","0.0-1.0-797.0-0.0","0","0","72045","","549","","","68","88","","","2","88","training","adjacent","BA","2","1","M.jpg","O.jpg","0","0","1","",""
"","feedback","","html-keyboard-response","554","476158","0.0-1.0-798.0-0.0","0","0","72045","","null","","","null","88","","","","","","","","","","","","","","","",""
"","ITI","","html-keyboard-response","555","477166","0.0-1.0-801.0","0","0","72045","","null","","","null","88","","","","","","","","","","","","","","","NaN",""
"","S1","","html-keyboard-response","556","477423","0.0-1.0-803.0","0","0","72045","","null","","","null","89","","","","","","","","","","","","","","","",""
"","ISI","","html-keyboard-response","557","478429","0.0-1.0-804.0","0","0","72045","","null","","","null","89","NaN","","","","","","","","","","","","","","",""
"","S2","","html-keyboard-response","558","478686","0.0-1.0-805.0","0","0","72045","","null","","","null","89","","NaN","","","","","","","","","","","","","",""
"","response","","html-keyboard-response","559","479505","0.0-1.0-806.0-0.0","0","0","72045","","816","","","68","89","","","2","89","training","adjacent","DC","4","3","R.jpg","Q.jpg","0","0","1","",""
"","feedback","","html-keyboard-response","560","480510","0.0-1.0-807.0-0.0","0","0","72045","","null","","","null","89","","","","","","","","","","","","","","","",""
"","ITI","","html-keyboard-response","561","481517","0.0-1.0-810.0","0","0","72045","","null","","","null","89","","","","","","","","","","","","","","","NaN",""
"","S1","","html-keyboard-response","562","481774","0.0-1.0-812.0","0","0","72045","","null","","","null","90","","","","","","","","","","","","","","","",""
"","ISI","","html-keyboard-response","563","482782","0.0-1.0-813.0","0","0","72045","","null","","","null","90","NaN","","","","","","","","","","","","","","",""
"","S2","","html-keyboard-response","564","483038","0.0-1.0-814.0","0","0","72045","","null","","","null","90","","NaN","","","","","","","","","","","","","",""
"","response","","html-keyboard-response","565","483487","0.0-1.0-815.0-0.0","0","0","72045","","446","","","68","90","","","2","90","training","adjacent","GF","7","6","N.jpg","P.jpg","0","0","1","",""
"","feedback","","html-keyboard-response","566","484494","0.0-1.0-816.0-0.0","0","0","72045","","null","","","null","90","","","","","","","","","","","","","","","",""
"","ITI","","html-keyboard-response","567","485502","0.0-1.0-819.0","0","0","72045","","null","","","null","90","","","","","","","","","","","","","","","NaN",""
"","S1","","html-keyboard-response","568","485757","0.0-1.0-821.0","0","0","72045","","null","","","null","91","","","","","","","","","","","","","","","",""
"","ISI","","html-keyboard-response","569","486765","0.0-1.0-822.0","0","0","72045","","null","","","null","91","NaN","","","","","","","","","","","","","","",""
"","S2","","html-keyboard-response","570","487021","0.0-1.0-823.0","0","0","72045","","null","","","null","91","","NaN","","","","","","","","","","","","","",""
"","response","","html-keyboard-response","571","487691","0.0-1.0-824.0-0.0","0","0","72045","","667","","","75","91","","","2","91","training","adjacent","DE","4","5","R.jpg","L.jpg","1","1","1","",""
"","feedback","","html-keyboard-response","572","488702","0.0-1.0-825.0-0.0","0","0","72045","","null","","","null","91","","","","","","","","","","","","","","","",""
"","ITI","","html-keyboard-response","573","489710","0.0-1.0-828.0","0","0","72045","","null","","","null","91","","","","","","","","","","","","","","","NaN",""
"","S1","","html-keyboard-response","574","489966","0.0-1.0-830.0","0","0","72045","","null","","","null","92","","","","","","","","","","","","","","","",""
"","ISI","","html-keyboard-response","575","490973","0.0-1.0-831.0","0","0","72045","","null","","","null","92","NaN","","","","","","","","","","","","","","",""
"","S2","","html-keyboard-response","576","491229","0.0-1.0-832.0","0","0","72045","","null","","","null","92","","NaN","","","","","","","","","","","","","",""
"","response","","html-keyboard-response","577","491647","0.0-1.0-833.0-0.0","0","0","72045","","414","","","68","92","","","2","92","training","adjacent","CD","3","4","Q.jpg","R.jpg","0","1","0","",""
"","feedback","","html-keyboard-response","578","492653","0.0-1.0-834.0-0.0","0","0","72045","","null","","","null","92","","","","","","","","","","","","","","","",""
"","time_out","","html-keyboard-response","579","494661","0.0-1.0-836.0-0.0","0","0","72045","","null","","","null","92","","","","","","","","","","","","","","","",""
"","ITI","","html-keyboard-response","580","495669","0.0-1.0-837.0","0","0","72045","","null","","","null","92","","","","","","","","","","","","","","","NaN",""
"","S1","","html-keyboard-response","581","495925","0.0-1.0-839.0","0","0","72045","","null","","","null","93","","","","","","","","","","","","","","","",""
"","ISI","","html-keyboard-response","582","496933","0.0-1.0-840.0","0","0","72045","","null","","","null","93","NaN","","","","","","","","","","","","","","",""
