"success","ttype","start_time","trial_type","trial_index","time_elapsed","internal_node_id","warning","missed_checkup","PID","view_history","rt","responses","repeat_instructions","key_press","index","keypress_isi","keypress_S2","block","trial_num","phase","group_type","pair_type","S1_stim","S2_stim","S1_img","S2_img","S1_chosen","S1_higher","accuracy","keypress_iti","total_bonus_tally"
"true","full_screen","d03082023hr1444","fullscreen","0","11065","0.0-0.0","0","0","51763","","","","","","","","","","","","","","","","","","","","","",""
"","instructions","","instructions","1","43034","0.0-1.0-0.0-0.0","0","0","51763","[{""page_index"":0,""viewing_time"":4471},{""page_index"":1,""viewing_time"":17748},{""page_index"":2,""viewing_time"":8236},{""page_index"":3,""viewing_time"":1512}]","31967","","","","","","","","","","","","","","","","","","","",""
"","comprehension_check","","survey-multi-choice","2","67991","0.0-1.0-0.0-1.0","0","0","51763","","24952","{""Q0"":""True"",""Q1"":""K"",""Q2"":""Once the second image appears and while the screen 'MAKE A CHOICE' is shown"",""Q3"":""Green mark"",""Q4"":""either D or K""}","0","","","","","","","","","","","","","","","","","",""
"","start_exp","","html-keyboard-response","3","69556","0.0-1.0-1.0","0","0","51763","","1562","","","32","","","","","","","","","","","","","","","","",""
"","S1","","html-keyboard-response","4","69821","0.0-1.0-2.0","0","0","51763","","null","","","null","0","","","","","","","","","","","","","","","",""
"","ISI","","html-keyboard-response","5","69974","0.0-1.0-3.0","0","0","51763","","null","","","null","0","NaN","","","","","","","","","","","","","","",""
"","S2","","html-keyboard-response","6","70227","0.0-1.0-4.0","0","0","51763","","null","","","null","0","","NaN","","","","","","","","","","","","","",""
"","response","","html-keyboard-response","7","71575","0.0-1.0-5.0-0.0","0","0","51763","","1346","","","68","0","","","1","0","training","adjacent","BC","2","3","O.jpg","L.jpg","0","1","0","",""
"","feedback","","html-keyboard-response","8","72580","0.0-1.0-6.0-0.0","0","0","51763","","null","","","null","0","","","","","","","","","","","","","","","",""
"","time_out","","html-keyboard-response","9","74583","0.0-1.0-8.0-0.0","0","0","51763","","null","","","null","0","","","","","","","","","","","","","","","",""
"","ITI","","html-keyboard-response","10","75590","0.0-1.0-9.0","0","0","51763","","null","","","null","0","","","","","","","","","","","","","","","NaN",""
"","S1","","html-keyboard-response","11","75843","0.0-1.0-11.0","0","0","51763","","null","","","null","1","","","","","","","","","","","","","","","",""
"","ISI","","html-keyboard-response","12","75995","0.0-1.0-12.0","0","0","51763","","null","","","null","1","NaN","","","","","","","","","","","","","","",""
"","S2","","html-keyboard-response","13","76249","0.0-1.0-13.0","0","0","51763","","null","","","null","1","","NaN","","","","","","","","","","","","","",""
"","response","","html-keyboard-response","14","77266","0.0-1.0-14.0-0.0","0","0","51763","","1016","","","75","1","","","1","1","training","adjacent","GF","7","6","R.jpg","N.jpg","1","0","0","",""
"","feedback","","html-keyboard-response","15","78269","0.0-1.0-15.0-0.0","0","0","51763","","null","","","null","1","","","","","","","","","","","","","","","",""
"","time_out","","html-keyboard-response","16","80272","0.0-1.0-17.0-0.0","0","0","51763","","null","","","null","1","","","","","","","","","","","","","","","",""
"","ITI","","html-keyboard-response","17","81274","0.0-1.0-18.0","0","0","51763","","null","","","null","1","","","","","","","","","","","","","","","NaN",""
"","S1","","html-keyboard-response","18","81528","0.0-1.0-20.0","0","0","51763","","null","","","null","2","","","","","","","","","","","","","","","",""
"","ISI","","html-keyboard-response","19","81680","0.0-1.0-21.0","0","0","51763","","null","","","null","2","NaN","","","","","","","","","","","","","","",""
"","S2","","html-keyboard-response","20","81934","0.0-1.0-22.0","0","0","51763","","null","","","null","2","","NaN","","","","","","","","","","","","","",""
"","response","","html-keyboard-response","21","82946","0.0-1.0-23.0-0.0","0","0","51763","","1011","","","68","2","","","1","2","training","adjacent","FG","6","7","N.jpg","R.jpg","0","1","0","",""
"","feedback","","html-keyboard-response","22","83949","0.0-1.0-24.0-0.0","0","0","51763","","null","","","null","2","","","","","","","","","","","","","","","",""
"","time_out","","html-keyboard-response","23","85952","0.0-1.0-26.0-0.0","0","0","51763","","null","","","null","2","","","","","","","","","","","","","","","",""
"","ITI","","html-keyboard-response","24","86954","0.0-1.0-27.0","0","0","51763","","null","","","null","2","","","","","","","","","","","","","","","NaN",""
"","S1","","html-keyboard-response","25","87221","0.0-1.0-29.0","0","0","51763","","null","","","null","3","","","","","","","","","","","","","","","",""
"","ISI","","html-keyboard-response","26","87372","0.0-1.0-30.0","0","0","51763","","null","","","null","3","NaN","","","","","","","","","","","","","","",""
"","S2","","html-keyboard-response","27","87625","0.0-1.0-31.0","0","0","51763","","null","","","null","3","","NaN","","","","","","","","","","","","","",""
"","response","","html-keyboard-response","28","88446","0.0-1.0-32.0-0.0","0","0","51763","","818","","","68","3","","","1","3","training","adjacent","BA","2","1","O.jpg","Q.jpg","0","0","1","",""
"","feedback","","html-keyboard-response","29","89449","0.0-1.0-33.0-0.0","0","0","51763","","null","","","null","3","","","","","","","","","","","","","","","",""
"","ITI","","html-keyboard-response","30","90451","0.0-1.0-36.0","0","0","51763","","null","","","null","3","","","","","","","","","","","","","","","NaN",""
"","S1","","html-keyboard-response","31","90704","0.0-1.0-38.0","0","0","51763","","null","","","null","4","","","","","","","","","","","","","","","",""
"","ISI","","html-keyboard-response","32","90856","0.0-1.0-39.0","0","0","51763","","null","","","null","4","NaN","","","","","","","","","","","","","","",""
"","S2","","html-keyboard-response","33","91108","0.0-1.0-40.0","0","0","51763","","null","","","null","4","","NaN","","","","","","","","","","","","","",""
"","response","","html-keyboard-response","34","92429","0.0-1.0-41.0-0.0","0","0","51763","","1319","","","68","4","","","1","4","training","adjacent","FG","6","7","N.jpg","R.jpg","0","1","0","",""
"","feedback","","html-keyboard-response","35","93432","0.0-1.0-42.0-0.0","0","0","51763","","null","","","null","4","","","","","","","","","","","","","","","",""
"","time_out","","html-keyboard-response","36","95435","0.0-1.0-44.0-0.0","0","0","51763","","null","","","null","4","","","","","","","","","","","","","","","",""
"","ITI","","html-keyboard-response","37","96436","0.0-1.0-45.0","0","0","51763","","null","","","null","4","","","","","","","","","","","","","","","NaN",""
"","S1","","html-keyboard-response","38","96690","0.0-1.0-47.0","0","0","51763","","null","","","null","5","","","","","","","","","","","","","","","",""
"","ISI","","html-keyboard-response","39","96842","0.0-1.0-48.0","0","0","51763","","null","","","null","5","NaN","","","","","","","","","","","","","","",""
"","S2","","html-keyboard-response","40","97094","0.0-1.0-49.0","0","0","51763","","null","","","null","5","","NaN","","","","","","","","","","","","","",""
"","response","","html-keyboard-response","41","97629","0.0-1.0-50.0-0.0","0","0","51763","","533","","","75","5","","","1","5","training","adjacent","BA","2","1","O.jpg","Q.jpg","1","0","0","",""
"","feedback","","html-keyboard-response","42","98632","0.0-1.0-51.0-0.0","0","0","51763","","null","","","null","5","","","","","","","","","","","","","","","",""
"","time_out","","html-keyboard-response","43","100634","0.0-1.0-53.0-0.0","0","0","51763","","null","","","null","5","","","","","","","","","","","","","","","",""
"","ITI","","html-keyboard-response","44","101637","0.0-1.0-54.0","0","0","51763","","null","","","null","5","","","","","","","","","","","","","","","NaN",""
"","S1","","html-keyboard-response","45","101890","0.0-1.0-56.0","0","0","51763","","null","","","null","6","","","","","","","","","","","","","","","",""
"","ISI","","html-keyboard-response","46","102043","0.0-1.0-57.0","0","0","51763","","null","","","null","6","NaN","","","","","","","","","","","","","","",""
"","S2","","html-keyboard-response","47","102296","0.0-1.0-58.0","0","0","51763","","null","","","null","6","","NaN","","","","","","","","","","","","","",""
"","response","","html-keyboard-response","48","102894","0.0-1.0-59.0-0.0","0","0","51763","","597","","","68","6","","","1","6","training","adjacent","ED","5","4","M.jpg","P.jpg","0","0","1","",""
"","feedback","","html-keyboard-response","49","103897","0.0-1.0-60.0-0.0","0","0","51763","","null","","","null","6","","","","","","","","","","","","","","","",""
"","ITI","","html-keyboard-response","50","104899","0.0-1.0-63.0","0","0","51763","","null","","","null","6","","","","","","","","","","","","","","","NaN",""
"","S1","","html-keyboard-response","51","105151","0.0-1.0-65.0","0","0","51763","","null","","","null","7","","","","","","","","","","","","","","","",""
"","ISI","","html-keyboard-response","52","105303","0.0-1.0-66.0","0","0","51763","","null","","","null","7","NaN","","","","","","","","","","","","","","",""
"","S2","","html-keyboard-response","53","105555","0.0-1.0-67.0","0","0","51763","","null","","","null","7","","NaN","","","","","","","","","","","","","",""
"","response","","html-keyboard-response","54","105972","0.0-1.0-68.0-0.0","0","0","51763","","414","","","68","7","","","1","7","training","adjacent","CD","3","4","L.jpg","P.jpg","0","1","0","",""
"","feedback","","html-keyboard-response","55","106975","0.0-1.0-69.0-0.0","0","0","51763","","null","","","null","7","","","","","","","","","","","","","","","",""
"","time_out","","html-keyboard-response","56","108978","0.0-1.0-71.0-0.0","0","0","51763","","null","","","null","7","","","","","","","","","","","","","","","",""
"","ITI","","html-keyboard-response","57","109980","0.0-1.0-72.0","0","0","51763","","null","","","null","7","","","","","","","","","","","","","","","NaN",""
"","S1","","html-keyboard-response","58","110234","0.0-1.0-74.0","0","0","51763","","null","","","null","8","","","","","","","","","","","","","","","",""
"","ISI","","html-keyboard-response","59","110386","0.0-1.0-75.0","0","0","51763","","null","","","null","8","NaN","","","","","","","","","","","","","","",""
"","S2","","html-keyboard-response","60","110639","0.0-1.0-76.0","0","0","51763","","null","","","null","8","","NaN","","","","","","","","","","","","","",""
"","response","","html-keyboard-response","61","111522","0.0-1.0-77.0-0.0","0","0","51763","","881","","","68","8","","","1","8","training","adjacent","CD","3","4","L.jpg","P.jpg","0","1","0","",""
"","feedback","","html-keyboard-response","62","112525","0.0-1.0-78.0-0.0","0","0","51763","","null","","","null","8","","","","","","","","","","","","","","","",""
"","time_out","","html-keyboard-response","63","114527","0.0-1.0-80.0-0.0","0","0","51763","","null","","","null","8","","","","","","","","","","","","","","","",""
"","ITI","","html-keyboard-response","64","115530","0.0-1.0-81.0","0","0","51763","","null","","","null","8","","","","","","","","","","","","","","","NaN",""
"","S1","","html-keyboard-response","65","115783","0.0-1.0-83.0","0","0","51763","","null","","","null","9","","","","","","","","","","","","","","","",""
"","ISI","","html-keyboard-response","66","115936","0.0-1.0-84.0","0","0","51763","","null","","","null","9","NaN","","","","","","","","","","","","","","",""
"","S2","","html-keyboard-response","67","116189","0.0-1.0-85.0","0","0","51763","","null","","","null","9","","NaN","","","","","","","","","","","","","",""
"","response","","html-keyboard-response","68","116484","0.0-1.0-86.0-0.0","0","0","51763","","294","","","75","9","","","1","9","training","adjacent","DC","4","3","P.jpg","L.jpg","1","0","0","",""
"","feedback","","html-keyboard-response","69","117487","0.0-1.0-87.0-0.0","0","0","51763","","null","","","null","9","","","","","","","","","","","","","","","",""
"","time_out","","html-keyboard-response","70","119489","0.0-1.0-89.0-0.0","0","0","51763","","null","","","null","9","","","","","","","","","","","","","","","",""
"","ITI","","html-keyboard-response","71","120492","0.0-1.0-90.0","0","0","51763","","null","","","null","9","","","","","","","","","","","","","","","NaN",""
"","S1","","html-keyboard-response","72","120744","0.0-1.0-92.0","0","0","51763","","null","","","null","10","","","","","","","","","","","","","","","",""
"","ISI","","html-keyboard-response","73","120897","0.0-1.0-93.0","0","0","51763","","null","","","null","10","NaN","","","","","","","","","","","","","","",""
"","S2","","html-keyboard-response","74","121150","0.0-1.0-94.0","0","0","51763","","null","","","null","10","","NaN","","","","","","","","","","","","","",""
"","response","","html-keyboard-response","75","121843","0.0-1.0-95.0-0.0","0","0","51763","","692","","","75","10","","","1","10","training","adjacent","FG","6","7","N.jpg","R.jpg","1","1","1","",""
"","feedback","","html-keyboard-response","76","122846","0.0-1.0-96.0-0.0","0","0","51763","","null","","","null","10","","","","","","","","","","","","","","","",""
"","ITI","","html-keyboard-response","77","123848","0.0-1.0-99.0","0","0","51763","","null","","","null","10","","","","","","","","","","","","","","","NaN",""
"","S1","","html-keyboard-response","78","124101","0.0-1.0-101.0","0","0","51763","","null","","","null","11","","","","","","","","","","","","","","","",""
"","ISI","","html-keyboard-response","79","124253","0.0-1.0-102.0","0","0","51763","","null","","","null","11","NaN","","","","","","","","","","","","","","",""
"","S2","","html-keyboard-response","80","124505","0.0-1.0-103.0","0","0","51763","","null","","","null","11","","NaN","","","","","","","","","","","","","",""
"","response","","html-keyboard-response","81","124696","0.0-1.0-104.0-0.0","0","0","51763","","190","","","75","11","","","1","11","training","adjacent","GF","7","6","R.jpg","N.jpg","1","0","0","",""
"","feedback","","html-keyboard-response","82","125699","0.0-1.0-105.0-0.0","0","0","51763","","null","","","null","11","","","","","","","","","","","","","","","",""
"","time_out","","html-keyboard-response","83","127701","0.0-1.0-107.0-0.0","0","0","51763","","null","","","null","11","","","","","","","","","","","","","","","",""
"","ITI","","html-keyboard-response","84","128703","0.0-1.0-108.0","0","0","51763","","null","","","null","11","","","","","","","","","","","","","","","NaN",""
"","S1","","html-keyboard-response","85","128955","0.0-1.0-110.0","0","0","51763","","null","","","null","12","","","","","","","","","","","","","","","",""
"","ISI","","html-keyboard-response","86","129106","0.0-1.0-111.0","0","0","51763","","null","","","null","12","NaN","","","","","","","","","","","","","","",""
"","S2","","html-keyboard-response","87","129359","0.0-1.0-112.0","0","0","51763","","null","","","null","12","","NaN","","","","","","","","","","","","","",""
"","response","","html-keyboard-response","88","129671","0.0-1.0-113.0-0.0","0","0","51763","","310","","","75","12","","","1","12","training","adjacent","BC","2","3","O.jpg","L.jpg","1","1","1","",""
"","feedback","","html-keyboard-response","89","130674","0.0-1.0-114.0-0.0","0","0","51763","","null","","","null","12","","","","","","","","","","","","","","","",""
"","ITI","","html-keyboard-response","90","131677","0.0-1.0-117.0","0","0","51763","","null","","","null","12","","","","","","","","","","","","","","","NaN",""
"","S1","","html-keyboard-response","91","131930","0.0-1.0-119.0","0","0","51763","","null","","","null","13","","","","","","","","","","","","","","","",""
"","ISI","","html-keyboard-response","92","132082","0.0-1.0-120.0","0","0","51763","","null","","","null","13","NaN","","","","","","","","","","","","","","",""
"","S2","","html-keyboard-response","93","132334","0.0-1.0-121.0","0","0","51763","","null","","","null","13","","NaN","","","","","","","","","","","","","",""
"","response","","html-keyboard-response","94","132717","0.0-1.0-122.0-0.0","0","0","51763","","381","","","68","13","","","1","13","training","adjacent","CD","3","4","L.jpg","P.jpg","0","1","0","",""
"","feedback","","html-keyboard-response","95","133719","0.0-1.0-123.0-0.0","0","0","51763","","null","","","null","13","","","","","","","","","","","","","","","",""
"","time_out","","html-keyboard-response","96","135721","0.0-1.0-125.0-0.0","0","0","51763","","null","","","null","13","","","","","","","","","","","","","","","",""
"","ITI","","html-keyboard-response","97","136724","0.0-1.0-126.0","0","0","51763","","null","","","null","13","","","","","","","","","","","","","","","NaN",""
"","S1","","html-keyboard-response","98","136976","0.0-1.0-128.0","0","0","51763","","null","","","null","14","","","","","","","","","","","","","","","",""
"","ISI","","html-keyboard-response","99","137139","0.0-1.0-129.0","0","0","51763","","null","","","null","14","NaN","","","","","","","","","","","","","","",""
"","S2","","html-keyboard-response","100","137391","0.0-1.0-130.0","0","0","51763","","null","","","null","14","","NaN","","","","","","","","","","","","","",""
"","response","","html-keyboard-response","101","137673","0.0-1.0-131.0-0.0","0","0","51763","","280","","","75","14","","","1","14","training","adjacent","DE","4","5","P.jpg","M.jpg","1","1","1","",""
"","feedback","","html-keyboard-response","102","138675","0.0-1.0-132.0-0.0","0","0","51763","","null","","","null","14","","","","","","","","","","","","","","","",""
"","ITI","","html-keyboard-response","103","139691","0.0-1.0-135.0","0","0","51763","","null","","","null","14","","","","","","","","","","","","","","","NaN",""
"","S1","","html-keyboard-response","104","139944","0.0-1.0-137.0","0","0","51763","","null","","","null","15","","","","","","","","","","","","","","","",""
"","ISI","","html-keyboard-response","105","140096","0.0-1.0-138.0","0","0","51763","","null","","","null","15","NaN","","","","","","","","","","","","","","",""
"","S2","","html-keyboard-response","106","140350","0.0-1.0-139.0","0","0","51763","","null","","","null","15","","NaN","","","","","","","","","","","","","",""
"","response","","html-keyboard-response","107","140874","0.0-1.0-140.0-0.0","0","0","51763","","522","","","75","15","","","1","15","training","adjacent","FE","6","5","N.jpg","M.jpg","1","0","0","",""
"","feedback","","html-keyboard-response","108","141877","0.0-1.0-141.0-0.0","0","0","51763","","null","","","null","15","","","","","","","","","","","","","","","",""
"","time_out","","html-keyboard-response","109","143880","0.0-1.0-143.0-0.0","0","0","51763","","null","","","null","15","","","","","","","","","","","","","","","",""
"","ITI","","html-keyboard-response","110","144881","0.0-1.0-144.0","0","0","51763","","null","","","null","15","","","","","","","","","","","","","","","NaN",""
"","S1","","html-keyboard-response","111","145134","0.0-1.0-146.0","0","0","51763","","null","","","null","16","","","","","","","","","","","","","","","",""
"","ISI","","html-keyboard-response","112","145287","0.0-1.0-147.0","0","0","51763","","null","","","null","16","NaN","","","","","","","","","","","","","","",""
"","S2","","html-keyboard-response","113","145540","0.0-1.0-148.0","0","0","51763","","null","","","null","16","","NaN","","","","","","","","","","","","","",""
"","response","","html-keyboard-response","114","145984","0.0-1.0-149.0-0.0","0","0","51763","","442","","","68","16","","","1","16","training","adjacent","AB","1","2","Q.jpg","O.jpg","0","1","0","",""
"","feedback","","html-keyboard-response","115","146987","0.0-1.0-150.0-0.0","0","0","51763","","null","","","null","16","","","","","","","","","","","","","","","",""
"","time_out","","html-keyboard-response","116","148990","0.0-1.0-152.0-0.0","0","0","51763","","null","","","null","16","","","","","","","","","","","","","","","",""
"","ITI","","html-keyboard-response","117","149992","0.0-1.0-153.0","0","0","51763","","null","","","null","16","","","","","","","","","","","","","","","NaN",""
"","S1","","html-keyboard-response","118","150245","0.0-1.0-155.0","0","0","51763","","null","","","null","17","","","","","","","","","","","","","","","",""
"","ISI","","html-keyboard-response","119","150405","0.0-1.0-156.0","0","0","51763","","null","","","null","17","NaN","","","","","","","","","","","","","","",""
"","S2","","html-keyboard-response","120","150671","0.0-1.0-157.0","0","0","51763","","null","","","null","17","","NaN","","","","","","","","","","","","","",""
"","response","","html-keyboard-response","121","150840","0.0-1.0-158.0-0.0","0","0","51763","","168","","","75","17","","","1","17","training","adjacent","DE","4","5","P.jpg","M.jpg","1","1","1","",""
"","feedback","","html-keyboard-response","122","151842","0.0-1.0-159.0-0.0","0","0","51763","","null","","","null","17","","","","","","","","","","","","","","","",""
"","ITI","","html-keyboard-response","123","152846","0.0-1.0-162.0","0","0","51763","","null","","","null","17","","","","","","","","","","","","","","","NaN",""
"","S1","","html-keyboard-response","124","153098","0.0-1.0-164.0","0","0","51763","","null","","","null","18","","","","","","","","","","","","","","","",""
"","ISI","","html-keyboard-response","125","153250","0.0-1.0-165.0","0","0","51763","","null","","","null","18","NaN","","","","","","","","","","","","","","",""
"","S2","","html-keyboard-response","126","153503","0.0-1.0-166.0","0","0","51763","","null","","","null","18","","NaN","","","","","","","","","","","","","",""
"","response","","html-keyboard-response","127","154040","0.0-1.0-167.0-0.0","0","0","51763","","535","","","68","18","","","1","18","training","adjacent","BA","2","1","O.jpg","Q.jpg","0","0","1","",""
"","feedback","","html-keyboard-response","128","155043","0.0-1.0-168.0-0.0","0","0","51763","","null","","","null","18","","","","","","","","","","","","","","","",""
"","ITI","","html-keyboard-response","129","156045","0.0-1.0-171.0","0","0","51763","","null","","","null","18","","","","","","","","","","","","","","","NaN",""
"","S1","","html-keyboard-response","130","156297","0.0-1.0-173.0","0","0","51763","","null","","","null","19","","","","","","","","","","","","","","","",""
"","ISI","","html-keyboard-response","131","156451","0.0-1.0-174.0","0","0","51763","","null","","","null","19","NaN","","","","","","","","","","","","","","",""
"","S2","","html-keyboard-response","132","156703","0.0-1.0-175.0","0","0","51763","","null","","","null","19","","NaN","","","","","","","","","","","","","",""
"","response","","html-keyboard-response","133","157491","0.0-1.0-176.0-0.0","0","0","51763","","786","","","68","19","","","1","19","training","adjacent","CB","3","2","L.jpg","O.jpg","0","0","1","",""
"","feedback","","html-keyboard-response","134","158493","0.0-1.0-177.0-0.0","0","0","51763","","null","","","null","19","","","","","","","","","","","","","","","",""
"","ITI","","html-keyboard-response","135","159496","0.0-1.0-180.0","0","0","51763","","null","","","null","19","","","","","","","","","","","","","","","NaN",""
"","S1","","html-keyboard-response","136","159749","0.0-1.0-182.0","0","0","51763","","null","","","null","20","","","","","","","","","","","","","","","",""
"","ISI","","html-keyboard-response","137","159902","0.0-1.0-183.0","0","0","51763","","null","","","null","20","NaN","","","","","","","","","","","","","","",""
"","S2","","html-keyboard-response","138","160155","0.0-1.0-184.0","0","0","51763","","null","","","null","20","","NaN","","","","","","","","","","","","","",""
"","response","","html-keyboard-response","139","160801","0.0-1.0-185.0-0.0","0","0","51763","","645","","","75","20","","","1","20","training","adjacent","FE","6","5","N.jpg","M.jpg","1","0","0","",""
"","feedback","","html-keyboard-response","140","161804","0.0-1.0-186.0-0.0","0","0","51763","","null","","","null","20","","","","","","","","","","","","","","","",""
"","time_out","","html-keyboard-response","141","163807","0.0-1.0-188.0-0.0","0","0","51763","","null","","","null","20","","","","","","","","","","","","","","","",""
"","ITI","","html-keyboard-response","142","164809","0.0-1.0-189.0","0","0","51763","","null","","","null","20","","","","","","","","","","","","","","","NaN",""
"","S1","","html-keyboard-response","143","165061","0.0-1.0-191.0","0","0","51763","","null","","","null","21","","","","","","","","","","","","","","","",""
"","ISI","","html-keyboard-response","144","165213","0.0-1.0-192.0","0","0","51763","","null","","","null","21","NaN","","","","","","","","","","","","","","",""
"","S2","","html-keyboard-response","145","165466","0.0-1.0-193.0","0","0","51763","","null","","","null","21","","NaN","","","","","","","","","","","","","",""
"","response","","html-keyboard-response","146","165799","0.0-1.0-194.0-0.0","0","0","51763","","331","","","68","21","","","1","21","training","adjacent","ED","5","4","M.jpg","P.jpg","0","0","1","",""
"","feedback","","html-keyboard-response","147","166802","0.0-1.0-195.0-0.0","0","0","51763","","null","","","null","21","","","","","","","","","","","","","","","",""
"","ITI","","html-keyboard-response","148","167804","0.0-1.0-198.0","0","0","51763","","null","","","null","21","","","","","","","","","","","","","","","NaN",""
"","S1","","html-keyboard-response","149","168059","0.0-1.0-200.0","0","0","51763","","null","","","null","22","","","","","","","","","","","","","","","",""
"","ISI","","html-keyboard-response","150","168212","0.0-1.0-201.0","0","0","51763","","null","","","null","22","NaN","","","","","","","","","","","","","","",""
"","S2","","html-keyboard-response","151","168464","0.0-1.0-202.0","0","0","51763","","null","","","null","22","","NaN","","","","","","","","","","","","","",""
"","response","","html-keyboard-response","152","169084","0.0-1.0-203.0-0.0","0","0","51763","","618","","","68","22","","","1","22","training","adjacent","EF","5","6","M.jpg","N.jpg","0","1","0","",""
"","feedback","","html-keyboard-response","153","170086","0.0-1.0-204.0-0.0","0","0","51763","","null","","","null","22","","","","","","","","","","","","","","","",""
"","time_out","","html-keyboard-response","154","172089","0.0-1.0-206.0-0.0","0","0","51763","","null","","","null","22","","","","","","","","","","","","","","","",""
"","ITI","","html-keyboard-response","155","173092","0.0-1.0-207.0","0","0","51763","","null","","","null","22","","","","","","","","","","","","","","","NaN",""
"","S1","","html-keyboard-response","156","173345","0.0-1.0-209.0","0","0","51763","","null","","","null","23","","","","","","","","","","","","","","","",""
"","ISI","","html-keyboard-response","157","173499","0.0-1.0-210.0","0","0","51763","","null","","","null","23","NaN","","","","","","","","","","","","","","",""
"","S2","","html-keyboard-response","158","173753","0.0-1.0-211.0","0","0","51763","","null","","","null","23","","NaN","","","","","","","","","","","","","",""
"","response","","html-keyboard-response","159","173794","0.0-1.0-212.0-0.0","0","0","51763","","40","","","75","23","","","1","23","training","adjacent","DE","4","5","P.jpg","M.jpg","1","1","1","",""
"","feedback","","html-keyboard-response","160","174797","0.0-1.0-213.0-0.0","0","0","51763","","null","","","null","23","","","","","","","","","","","","","","","",""
"","ITI","","html-keyboard-response","161","175799","0.0-1.0-216.0","0","0","51763","","null","","","null","23","","","","","","","","","","","","","","","NaN",""
"","S1","","html-keyboard-response","162","176053","0.0-1.0-218.0","0","0","51763","","null","","","null","24","","","","","","","","","","","","","","","",""
"","ISI","","html-keyboard-response","163","176205","0.0-1.0-219.0","0","0","51763","","null","","","null","24","NaN","","","","","","","","","","","","","","",""
"","S2","","html-keyboard-response","164","176457","0.0-1.0-220.0","0","0","51763","","null","","","null","24","","NaN","","","","","","","","","","","","","",""
"","response","","html-keyboard-response","165","176983","0.0-1.0-221.0-0.0","0","0","51763","","524","","","68","24","","","1","24","training","adjacent","CB","3","2","L.jpg","O.jpg","0","0","1","",""
"","feedback","","html-keyboard-response","166","177985","0.0-1.0-222.0-0.0","0","0","51763","","null","","","null","24","","","","","","","","","","","","","","","",""
"","ITI","","html-keyboard-response","167","178987","0.0-1.0-225.0","0","0","51763","","null","","","null","24","","","","","","","","","","","","","","","NaN",""
"","S1","","html-keyboard-response","168","179239","0.0-1.0-227.0","0","0","51763","","null","","","null","25","","","","","","","","","","","","","","","",""
"","ISI","","html-keyboard-response","169","179391","0.0-1.0-228.0","0","0","51763","","null","","","null","25","NaN","","","","","","","","","","","","","","",""
"","S2","","html-keyboard-response","170","179644","0.0-1.0-229.0","0","0","51763","","null","","","null","25","","NaN","","","","","","","","","","","","","",""
"","response","","html-keyboard-response","171","179924","0.0-1.0-230.0-0.0","0","0","51763","","279","","","68","25","","","1","25","training","adjacent","ED","5","4","M.jpg","P.jpg","0","0","1","",""
"","feedback","","html-keyboard-response","172","180927","0.0-1.0-231.0-0.0","0","0","51763","","null","","","null","25","","","","","","","","","","","","","","","",""
"","ITI","","html-keyboard-response","173","181928","0.0-1.0-234.0","0","0","51763","","null","","","null","25","","","","","","","","","","","","","","","NaN",""
"","S1","","html-keyboard-response","174","182180","0.0-1.0-236.0","0","0","51763","","null","","","null","26","","","","","","","","","","","","","","","",""
"","ISI","","html-keyboard-response","175","182332","0.0-1.0-237.0","0","0","51763","","null","","","null","26","NaN","","","","","","","","","","","","","","",""
"","S2","","html-keyboard-response","176","182584","0.0-1.0-238.0","0","0","51763","","null","","","null","26","","NaN","","","","","","","","","","","","","",""
"","response","","html-keyboard-response","177","182897","0.0-1.0-239.0-0.0","0","0","51763","","311","","","68","26","","","1","26","training","adjacent","ED","5","4","M.jpg","P.jpg","0","0","1","",""
"","feedback","","html-keyboard-response","178","183899","0.0-1.0-240.0-0.0","0","0","51763","","null","","","null","26","","","","","","","","","","","","","","","",""
"","ITI","","html-keyboard-response","179","184901","0.0-1.0-243.0","0","0","51763","","null","","","null","26","","","","","","","","","","","","","","","NaN",""
"","S1","","html-keyboard-response","180","185153","0.0-1.0-245.0","0","0","51763","","null","","","null","27","","","","","","","","","","","","","","","",""
"","ISI","","html-keyboard-response","181","185306","0.0-1.0-246.0","0","0","51763","","null","","","null","27","NaN","","","","","","","","","","","","","","",""
"","S2","","html-keyboard-response","182","185573","0.0-1.0-247.0","0","0","51763","","null","","","null","27","","NaN","","","","","","","","","","","","","",""
"","response","","html-keyboard-response","183","185646","0.0-1.0-248.0-0.0","0","0","51763","","71","","","75","27","","","1","27","training","adjacent","DC","4","3","P.jpg","L.jpg","1","0","0","",""
"","feedback","","html-keyboard-response","184","186649","0.0-1.0-249.0-0.0","0","0","51763","","null","","","null","27","","","","","","","","","","","","","","","",""
"","time_out","","html-keyboard-response","185","188651","0.0-1.0-251.0-0.0","0","0","51763","","null","","","null","27","","","","","","","","","","","","","","","",""
"","ITI","","html-keyboard-response","186","189654","0.0-1.0-252.0","0","0","51763","","null","","","null","27","","","","","","","","","","","","","","","NaN",""
"","S1","","html-keyboard-response","187","189906","0.0-1.0-254.0","0","0","51763","","null","","","null","28","","","","","","","","","","","","","","","",""
"","ISI","","html-keyboard-response","188","190058","0.0-1.0-255.0","0","0","51763","","null","","","null","28","NaN","","","","","","","","","","","","","","",""
"","S2","","html-keyboard-response","189","190311","0.0-1.0-256.0","0","0","51763","","null","","","null","28","","NaN","","","","","","","","","","","","","",""
"","response","","html-keyboard-response","190","190516","0.0-1.0-257.0-0.0","0","0","51763","","203","","","75","28","","","1","28","training","adjacent","DE","4","5","P.jpg","M.jpg","1","1","1","",""
"","feedback","","html-keyboard-response","191","191518","0.0-1.0-258.0-0.0","0","0","51763","","null","","","null","28","","","","","","","","","","","","","","","",""
"","ITI","","html-keyboard-response","192","192521","0.0-1.0-261.0","0","0","51763","","null","","","null","28","","","","","","","","","","","","","","","NaN",""
"","S1","","html-keyboard-response","193","192774","0.0-1.0-263.0","0","0","51763","","null","","","null","29","","","","","","","","","","","","","","","",""
"","ISI","","html-keyboard-response","194","192927","0.0-1.0-264.0","0","0","51763","","null","","","null","29","NaN","","","","","","","","","","","","","","",""
"","S2","","html-keyboard-response","195","193190","0.0-1.0-265.0","0","0","51763","","null","","","null","29","","NaN","","","","","","","","","","","","","",""
"","response","","html-keyboard-response","196","193954","0.0-1.0-266.0-0.0","0","0","51763","","763","","","75","29","","","1","29","training","adjacent","FG","6","7","N.jpg","R.jpg","1","1","1","",""
"","feedback","","html-keyboard-response","197","194956","0.0-1.0-267.0-0.0","0","0","51763","","null","","","null","29","","","","","","","","","","","","","","","",""
"","ITI","","html-keyboard-response","198","195957","0.0-1.0-270.0","0","0","51763","","null","","","null","29","","","","","","","","","","","","","","","NaN",""
"","S1","","html-keyboard-response","199","196209","0.0-1.0-272.0","0","0","51763","","null","","","null","30","","","","","","","","","","","","","","","",""
"","ISI","","html-keyboard-response","200","196361","0.0-1.0-273.0","0","0","51763","","null","","","null","30","NaN","","","","","","","","","","","","","","",""
"","S2","","html-keyboard-response","201","196613","0.0-1.0-274.0","0","0","51763","","null","","","null","30","","NaN","","","","","","","","","","","","","",""
"","response","","html-keyboard-response","202","197328","0.0-1.0-275.0-0.0","0","0","51763","","712","","","68","30","","","1","30","training","adjacent","FE","6","5","N.jpg","M.jpg","0","0","1","",""
"","feedback","","html-keyboard-response","203","198330","0.0-1.0-276.0-0.0","0","0","51763","","null","","","null","30","","","","","","","","","","","","","","","",""
"","ITI","","html-keyboard-response","204","199333","0.0-1.0-279.0","0","0","51763","","null","","","null","30","","","","","","","","","","","","","","","NaN",""
"","S1","","html-keyboard-response","205","199585","0.0-1.0-281.0","0","0","51763","","null","","","null","31","","","","","","","","","","","","","","","",""
"","ISI","","html-keyboard-response","206","199738","0.0-1.0-282.0","0","0","51763","","null","","","null","31","NaN","","","","","","","","","","","","","","",""
"","S2","","html-keyboard-response","207","199989","0.0-1.0-283.0","0","0","51763","","null","","","null","31","","NaN","","","","","","","","","","","","","",""
"","response","","html-keyboard-response","208","200506","0.0-1.0-284.0-0.0","0","0","51763","","515","","","68","31","","","1","31","training","adjacent","AB","1","2","Q.jpg","O.jpg","0","1","0","",""
"","feedback","","html-keyboard-response","209","201509","0.0-1.0-285.0-0.0","0","0","51763","","null","","","null","31","","","","","","","","","","","","","","","",""
"","time_out","","html-keyboard-response","210","203511","0.0-1.0-287.0-0.0","0","0","51763","","null","","","null","31","","","","","","","","","","","","","","","",""
"","ITI","","html-keyboard-response","211","204513","0.0-1.0-288.0","0","0","51763","","null","","","null","31","","","","","","","","","","","","","","","NaN",""
"","S1","","html-keyboard-response","212","204766","0.0-1.0-290.0","0","0","51763","","null","","","null","32","","","","","","","","","","","","","","","",""
"","ISI","","html-keyboard-response","213","204919","0.0-1.0-291.0","0","0","51763","","null","","","null","32","NaN","","","","","","","","","","","","","","",""
"","S2","","html-keyboard-response","214","205172","0.0-1.0-292.0","0","0","51763","","null","","","null","32","","NaN","","","","","","","","","","","","","",""
"","response","","html-keyboard-response","215","205784","0.0-1.0-293.0-0.0","0","0","51763","","610","","","75","32","","","1","32","training","adjacent","CB","3","2","L.jpg","O.jpg","1","0","0","",""
"","feedback","","html-keyboard-response","216","206791","0.0-1.0-294.0-0.0","0","0","51763","","null","","","null","32","","","","","","","","","","","","","","","",""
"","time_out","","html-keyboard-response","217","208793","0.0-1.0-296.0-0.0","0","0","51763","","null","","","null","32","","","","","","","","","","","","","","","",""
"","ITI","","html-keyboard-response","218","209796","0.0-1.0-297.0","0","0","51763","","null","","","null","32","","","","","","","","","","","","","","","NaN",""
"","S1","","html-keyboard-response","219","210049","0.0-1.0-299.0","0","0","51763","","null","","","null","33","","","","","","","","","","","","","","","",""
"","ISI","","html-keyboard-response","220","210202","0.0-1.0-300.0","0","0","51763","","null","","","null","33","NaN","","","","","","","","","","","","","","",""
"","S2","","html-keyboard-response","221","210454","0.0-1.0-301.0","0","0","51763","","null","","","null","33","","NaN","","","","","","","","","","","","","",""
"","response","","html-keyboard-response","222","210889","0.0-1.0-302.0-0.0","0","0","51763","","434","","","75","33","","","1","33","training","adjacent","BC","2","3","O.jpg","L.jpg","1","1","1","",""
"","feedback","","html-keyboard-response","223","211892","0.0-1.0-303.0-0.0","0","0","51763","","null","","","null","33","","","","","","","","","","","","","","","",""
"","ITI","","html-keyboard-response","224","212895","0.0-1.0-306.0","0","0","51763","","null","","","null","33","","","","","","","","","","","","","","","NaN",""
"","S1","","html-keyboard-response","225","213148","0.0-1.0-308.0","0","0","51763","","null","","","null","34","","","","","","","","","","","","","","","",""
"","ISI","","html-keyboard-response","226","213301","0.0-1.0-309.0","0","0","51763","","null","","","null","34","NaN","","","","","","","","","","","","","","",""
"","S2","","html-keyboard-response","227","213554","0.0-1.0-310.0","0","0","51763","","null","","","null","34","","NaN","","","","","","","","","","","","","",""
"","response","","html-keyboard-response","228","214028","0.0-1.0-311.0-0.0","0","0","51763","","472","","","68","34","","","1","34","training","adjacent","AB","1","2","Q.jpg","O.jpg","0","1","0","",""
"","feedback","","html-keyboard-response","229","215030","0.0-1.0-312.0-0.0","0","0","51763","","null","","","null","34","","","","","","","","","","","","","","","",""
"","time_out","","html-keyboard-response","230","217033","0.0-1.0-314.0-0.0","0","0","51763","","null","","","null","34","","","","","","","","","","","","","","","",""
"","ITI","","html-keyboard-response","231","218035","0.0-1.0-315.0","0","0","51763","","null","","","null","34","","","","","","","","","","","","","","","NaN",""
"","S1","","html-keyboard-response","232","218288","0.0-1.0-317.0","0","0","51763","","null","","","null","35","","","","","","","","","","","","","","","",""
"","ISI","","html-keyboard-response","233","218441","0.0-1.0-318.0","0","0","51763","","null","","","null","35","NaN","","","","","","","","","","","","","","",""
"","S2","","html-keyboard-response","234","218693","0.0-1.0-319.0","0","0","51763","","null","","","null","35","","NaN","","","","","","","","","","","","","",""
"","response","","html-keyboard-response","235","219303","0.0-1.0-320.0-0.0","0","0","51763","","609","","","68","35","","","1","35","training","adjacent","GF","7","6","R.jpg","N.jpg","0","0","1","",""
"","feedback","","html-keyboard-response","236","220306","0.0-1.0-321.0-0.0","0","0","51763","","null","","","null","35","","","","","","","","","","","","","","","",""
"","ITI","","html-keyboard-response","237","221309","0.0-1.0-324.0","0","0","51763","","null","","","null","35","","","","","","","","","","","","","","","NaN",""
"","S1","","html-keyboard-response","238","221561","0.0-1.0-326.0","0","0","51763","","null","","","null","36","","","","","","","","","","","","","","","",""
"","ISI","","html-keyboard-response","239","221714","0.0-1.0-327.0","0","0","51763","","null","","","null","36","NaN","","","","","","","","","","","","","","",""
"","S2","","html-keyboard-response","240","221966","0.0-1.0-328.0","0","0","51763","","null","","","null","36","","NaN","","","","","","","","","","","","","",""
"","response","","html-keyboard-response","241","222269","0.0-1.0-329.0-0.0","0","0","51763","","301","","","75","36","","","1","36","training","adjacent","AB","1","2","Q.jpg","O.jpg","1","1","1","",""
"","feedback","","html-keyboard-response","242","223271","0.0-1.0-330.0-0.0","0","0","51763","","null","","","null","36","","","","","","","","","","","","","","","",""
"","ITI","","html-keyboard-response","243","224274","0.0-1.0-333.0","0","0","51763","","null","","","null","36","","","","","","","","","","","","","","","NaN",""
"","S1","","html-keyboard-response","244","224532","0.0-1.0-335.0","0","0","51763","","null","","","null","37","","","","","","","","","","","","","","","",""
"","ISI","","html-keyboard-response","245","224684","0.0-1.0-336.0","0","0","51763","","null","","","null","37","NaN","","","","","","","","","","","","","","",""
"","S2","","html-keyboard-response","246","224951","0.0-1.0-337.0","0","0","51763","","null","","","null","37","","NaN","","","","","","","","","","","","","",""
"","response","","html-keyboard-response","247","225509","0.0-1.0-338.0-0.0","0","0","51763","","556","","","68","37","","","1","37","training","adjacent","CB","3","2","L.jpg","O.jpg","0","0","1","",""
"","feedback","","html-keyboard-response","248","226512","0.0-1.0-339.0-0.0","0","0","51763","","null","","","null","37","","","","","","","","","","","","","","","",""
"","ITI","","html-keyboard-response","249","227514","0.0-1.0-342.0","0","0","51763","","null","","","null","37","","","","","","","","","","","","","","","NaN",""
"","S1","","html-keyboard-response","250","227767","0.0-1.0-344.0","0","0","51763","","null","","","null","38","","","","","","","","","","","","","","","",""
"","ISI","","html-keyboard-response","251","227920","0.0-1.0-345.0","0","0","51763","","null","","","null","38","NaN","","","","","","","","","","","","","","",""
"","S2","","html-keyboard-response","252","228184","0.0-1.0-346.0","0","0","51763","","null","","","null","38","","NaN","","","","","","","","","","","","","",""
"","response","","html-keyboard-response","253","228493","0.0-1.0-347.0-0.0","0","0","51763","","308","","","68","38","","","1","38","training","adjacent","EF","5","6","M.jpg","N.jpg","0","1","0","",""
"","feedback","","html-keyboard-response","254","229495","0.0-1.0-348.0-0.0","0","0","51763","","null","","","null","38","","","","","","","","","","","","","","","",""
"","time_out","","html-keyboard-response","255","231498","0.0-1.0-350.0-0.0","0","0","51763","","null","","","null","38","","","","","","","","","","","","","","","",""
"","ITI","","html-keyboard-response","256","232501","0.0-1.0-351.0","0","0","51763","","null","","","null","38","","","","","","","","","","","","","","","NaN",""
"","S1","","html-keyboard-response","257","232753","0.0-1.0-353.0","0","0","51763","","null","","","null","39","","","","","","","","","","","","","","","",""
"","ISI","","html-keyboard-response","258","232906","0.0-1.0-354.0","0","0","51763","","null","","","null","39","NaN","","","","","","","","","","","","","","",""
"","S2","","html-keyboard-response","259","233159","0.0-1.0-355.0","0","0","51763","","null","","","null","39","","NaN","","","","","","","","","","","","","",""
"","response","","html-keyboard-response","260","233274","0.0-1.0-356.0-0.0","0","0","51763","","114","","","75","39","","","1","39","training","adjacent","BA","2","1","O.jpg","Q.jpg","1","0","0","",""
"","feedback","","html-keyboard-response","261","234277","0.0-1.0-357.0-0.0","0","0","51763","","null","","","null","39","","","","","","","","","","","","","","","",""
"","time_out","","html-keyboard-response","262","236280","0.0-1.0-359.0-0.0","0","0","51763","","null","","","null","39","","","","","","","","","","","","","","","",""
"","ITI","","html-keyboard-response","263","237282","0.0-1.0-360.0","0","0","51763","","null","","","null","39","","","","","","","","","","","","","","","NaN",""
"","S1","","html-keyboard-response","264","237535","0.0-1.0-362.0","0","0","51763","","null","","","null","40","","","","","","","","","","","","","","","",""
"","ISI","","html-keyboard-response","265","237687","0.0-1.0-363.0","0","0","51763","","null","","","null","40","NaN","","","","","","","","","","","","","","",""
"","S2","","html-keyboard-response","266","237940","0.0-1.0-364.0","0","0","51763","","null","","","null","40","","NaN","","","","","","","","","","","","","",""
"","response","","html-keyboard-response","267","238094","0.0-1.0-365.0-0.0","0","0","51763","","151","","","75","40","","","1","40","training","adjacent","BC","2","3","O.jpg","L.jpg","1","1","1","",""
"","feedback","","html-keyboard-response","268","239096","0.0-1.0-366.0-0.0","0","0","51763","","null","","","null","40","","","","","","","","","","","","","","","",""
"","ITI","","html-keyboard-response","269","240099","0.0-1.0-369.0","0","0","51763","","null","","","null","40","","","","","","","","","","","","","","","NaN",""
"","S1","","html-keyboard-response","270","240353","0.0-1.0-371.0","0","0","51763","","null","","","null","41","","","","","","","","","","","","","","","",""
"","ISI","","html-keyboard-response","271","240505","0.0-1.0-372.0","0","0","51763","","null","","","null","41","NaN","","","","","","","","","","","","","","",""
"","S2","","html-keyboard-response","272","240759","0.0-1.0-373.0","0","0","51763","","null","","","null","41","","NaN","","","","","","","","","","","","","",""
"","response","","html-keyboard-response","273","241117","0.0-1.0-374.0-0.0","0","0","51763","","357","","","68","41","","","1","41","training","adjacent","EF","5","6","M.jpg","N.jpg","0","1","0","",""
"","feedback","","html-keyboard-response","274","242120","0.0-1.0-375.0-0.0","0","0","51763","","null","","","null","41","","","","","","","","","","","","","","","",""
"","time_out","","html-keyboard-response","275","244123","0.0-1.0-377.0-0.0","0","0","51763","","null","","","null","41","","","","","","","","","","","","","","","",""
"","ITI","","html-keyboard-response","276","245126","0.0-1.0-378.0","0","0","51763","","null","","","null","41","","","","","","","","","","","","","","","NaN",""
"","S1","","html-keyboard-response","277","245378","0.0-1.0-380.0","0","0","51763","","null","","","null","42","","","","","","","","","","","","","","","",""
"","ISI","","html-keyboard-response","278","245531","0.0-1.0-381.0","0","0","51763","","null","","","null","42","NaN","","","","","","","","","","","","","","",""
"","S2","","html-keyboard-response","279","245783","0.0-1.0-382.0","0","0","51763","","null","","","null","42","","NaN","","","","","","","","","","","","","",""
"","response","","html-keyboard-response","280","246213","0.0-1.0-383.0-0.0","0","0","51763","","428","","","68","42","","","1","42","training","adjacent","EF","5","6","M.jpg","N.jpg","0","1","0","",""
"","feedback","","html-keyboard-response","281","247215","0.0-1.0-384.0-0.0","0","0","51763","","null","","","null","42","","","","","","","","","","","","","","","",""
"","time_out","","html-keyboard-response","282","249218","0.0-1.0-386.0-0.0","0","0","51763","","null","","","null","42","","","","","","","","","","","","","","","",""
"","ITI","","html-keyboard-response","283","250220","0.0-1.0-387.0","0","0","51763","","null","","","null","42","","","","","","","","","","","","","","","NaN",""
"","S1","","html-keyboard-response","284","250473","0.0-1.0-389.0","0","0","51763","","null","","","null","43","","","","","","","","","","","","","","","",""
"","ISI","","html-keyboard-response","285","250636","0.0-1.0-390.0","0","0","51763","","null","","","null","43","NaN","","","","","","","","","","","","","","",""
"","S2","","html-keyboard-response","286","250889","0.0-1.0-391.0","0","0","51763","","null","","","null","43","","NaN","","","","","","","","","","","","","",""
"","response","","html-keyboard-response","287","251035","0.0-1.0-392.0-0.0","0","0","51763","","144","","","75","43","","","1","43","training","adjacent","GF","7","6","R.jpg","N.jpg","1","0","0","",""
"","feedback","","html-keyboard-response","288","252038","0.0-1.0-393.0-0.0","0","0","51763","","null","","","null","43","","","","","","","","","","","","","","","",""
"","time_out","","html-keyboard-response","289","254041","0.0-1.0-395.0-0.0","0","0","51763","","null","","","null","43","","","","","","","","","","","","","","","",""
"","ITI","","html-keyboard-response","290","255044","0.0-1.0-396.0","0","0","51763","","null","","","null","43","","","","","","","","","","","","","","","NaN",""
"","S1","","html-keyboard-response","291","255296","0.0-1.0-398.0","0","0","51763","","null","","","null","44","","","","","","","","","","","","","","","",""
"","ISI","","html-keyboard-response","292","255449","0.0-1.0-399.0","0","0","51763","","null","","","null","44","NaN","","","","","","","","","","","","","","",""
"","S2","","html-keyboard-response","293","255701","0.0-1.0-400.0","0","0","51763","","null","","","null","44","","NaN","","","","","","","","","","","","","",""
"","response","","html-keyboard-response","294","256134","0.0-1.0-401.0-0.0","0","0","51763","","431","","","68","44","","","1","44","training","adjacent","FE","6","5","N.jpg","M.jpg","0","0","1","",""
"","feedback","","html-keyboard-response","295","257137","0.0-1.0-402.0-0.0","0","0","51763","","null","","","null","44","","","","","","","","","","","","","","","",""
"","ITI","","html-keyboard-response","296","258139","0.0-1.0-405.0","0","0","51763","","null","","","null","44","","","","","","","","","","","","","","","NaN",""
"","S1","","html-keyboard-response","297","258392","0.0-1.0-407.0","0","0","51763","","null","","","null","45","","","","","","","","","","","","","","","",""
"","ISI","","html-keyboard-response","298","258545","0.0-1.0-408.0","0","0","51763","","null","","","null","45","NaN","","","","","","","","","","","","","","",""
"","S2","","html-keyboard-response","299","258799","0.0-1.0-409.0","0","0","51763","","null","","","null","45","","NaN","","","","","","","","","","","","","",""
"","response","","html-keyboard-response","300","258906","0.0-1.0-410.0-0.0","0","0","51763","","106","","","75","45","","","1","45","training","adjacent","DC","4","3","P.jpg","L.jpg","1","0","0","",""
"","feedback","","html-keyboard-response","301","259909","0.0-1.0-411.0-0.0","0","0","51763","","null","","","null","45","","","","","","","","","","","","","","","",""
"","time_out","","html-keyboard-response","302","261911","0.0-1.0-413.0-0.0","0","0","51763","","null","","","null","45","","","","","","","","","","","","","","","",""
"","ITI","","html-keyboard-response","303","262913","0.0-1.0-414.0","0","0","51763","","null","","","null","45","","","","","","","","","","","","","","","NaN",""
"","S1","","html-keyboard-response","304","263179","0.0-1.0-416.0","0","0","51763","","null","","","null","46","","","","","","","","","","","","","","","",""
"","ISI","","html-keyboard-response","305","263331","0.0-1.0-417.0","0","0","51763","","null","","","null","46","NaN","","","","","","","","","","","","","","",""
"","S2","","html-keyboard-response","306","263584","0.0-1.0-418.0","0","0","51763","","null","","","null","46","","NaN","","","","","","","","","","","","","",""
"","response","","html-keyboard-response","307","263690","0.0-1.0-419.0-0.0","0","0","51763","","105","","","75","46","","","1","46","training","adjacent","DC","4","3","P.jpg","L.jpg","1","0","0","",""
"","feedback","","html-keyboard-response","308","264693","0.0-1.0-420.0-0.0","0","0","51763","","null","","","null","46","","","","","","","","","","","","","","","",""
"","time_out","","html-keyboard-response","309","266696","0.0-1.0-422.0-0.0","0","0","51763","","null","","","null","46","","","","","","","","","","","","","","","",""
"","ITI","","html-keyboard-response","310","267699","0.0-1.0-423.0","0","0","51763","","null","","","null","46","","","","","","","","","","","","","","","NaN",""
"","S1","","html-keyboard-response","311","267952","0.0-1.0-425.0","0","0","51763","","null","","","null","47","","","","","","","","","","","","","","","",""
"","ISI","","html-keyboard-response","312","268104","0.0-1.0-426.0","0","0","51763","","null","","","null","47","NaN","","","","","","","","","","","","","","",""
"","S2","","html-keyboard-response","313","268358","0.0-1.0-427.0","0","0","51763","","null","","","null","47","","NaN","","","","","","","","","","","","","",""
"","response","","html-keyboard-response","314","268616","0.0-1.0-428.0-0.0","0","0","51763","","257","","","68","47","","","1","47","training","adjacent","CD","3","4","L.jpg","P.jpg","0","1","0","",""
"","feedback","","html-keyboard-response","315","269633","0.0-1.0-429.0-0.0","0","0","51763","","null","","","null","47","","","","","","","","","","","","","","","",""
"","time_out","","html-keyboard-response","316","271636","0.0-1.0-431.0-0.0","0","0","51763","","null","","","null","47","","","","","","","","","","","","","","","",""
"","ITI","","html-keyboard-response","317","272640","0.0-1.0-432.0","0","0","51763","","null","","","null","47","","","","","","","","","","","","","","","NaN",""
"","block_over","","html-keyboard-response","318","279316","0.0-1.0-433.0-0.0","0","0","51763","","6673","","","32","47","","","","","","","","","","","","","","","",""
"","S1","","html-keyboard-response","319","279568","0.0-1.0-434.0","0","0","51763","","null","","","null","48","","","","","","","","","","","","","","","",""
"","ISI","","html-keyboard-response","320","279720","0.0-1.0-435.0","0","0","51763","","null","","","null","48","NaN","","","","","","","","","","","","","","",""
"","S2","","html-keyboard-response","321","279972","0.0-1.0-436.0","0","0","51763","","null","","","null","48","","NaN","","","","","","","","","","","","","",""
"","response","","html-keyboard-response","322","280327","0.0-1.0-437.0-0.0","0","0","51763","","353","","","68","48","","","2","48","training","adjacent","CD","3","4","L.jpg","P.jpg","0","1","0","",""
"","feedback","","html-keyboard-response","323","281329","0.0-1.0-438.0-0.0","0","0","51763","","null","","","null","48","","","","","","","","","","","","","","","",""
"","time_out","","html-keyboard-response","324","283331","0.0-1.0-440.0-0.0","0","0","51763","","null","","","null","48","","","","","","","","","","","","","","","",""
"","ITI","","html-keyboard-response","325","284348","0.0-1.0-441.0","0","0","51763","","null","","","null","48","","","","","","","","","","","","","","","NaN",""
"","S1","","html-keyboard-response","326","284601","0.0-1.0-443.0","0","0","51763","","null","","","null","49","","","","","","","","","","","","","","","",""
"","ISI","","html-keyboard-response","327","284753","0.0-1.0-444.0","0","0","51763","","null","","","null","49","NaN","","","","","","","","","","","","","","",""
"","S2","","html-keyboard-response","328","285018","0.0-1.0-445.0","0","0","51763","","null","","","null","49","","NaN","","","","","","","","","","","","","",""
"","response","","html-keyboard-response","329","285210","0.0-1.0-446.0-0.0","0","0","51763","","190","","","75","49","","","2","49","training","adjacent","FG","6","7","N.jpg","R.jpg","1","1","1","",""
"","feedback","","html-keyboard-response","330","286212","0.0-1.0-447.0-0.0","0","0","51763","","null","","","null","49","","","","","","","","","","","","","","","",""
"","ITI","","html-keyboard-response","331","287215","0.0-1.0-450.0","0","0","51763","","null","","","null","49","","","","","","","","","","","","","","","NaN",""
"","S1","","html-keyboard-response","332","287468","0.0-1.0-452.0","0","0","51763","","null","","","null","50","","","","","","","","","","","","","","","",""
"","ISI","","html-keyboard-response","333","287621","0.0-1.0-453.0","0","0","51763","","null","","","null","50","NaN","","","","","","","","","","","","","","",""
"","S2","","html-keyboard-response","334","287873","0.0-1.0-454.0","0","0","51763","","null","","","null","50","","NaN","","","","","","","","","","","","","",""
"","response","","html-keyboard-response","335","288269","0.0-1.0-455.0-0.0","0","0","51763","","394","","","68","50","","","2","50","training","adjacent","EF","5","6","M.jpg","N.jpg","0","1","0","",""
"","feedback","","html-keyboard-response","336","289272","0.0-1.0-456.0-0.0","0","0","51763","","null","","","null","50","","","","","","","","","","","","","","","",""
"","time_out","","html-keyboard-response","337","291274","0.0-1.0-458.0-0.0","0","0","51763","","null","","","null","50","","","","","","","","","","","","","","","",""
"","ITI","","html-keyboard-response","338","292278","0.0-1.0-459.0","0","0","51763","","null","","","null","50","","","","","","","","","","","","","","","NaN",""
"","S1","","html-keyboard-response","339","292530","0.0-1.0-461.0","0","0","51763","","null","","","null","51","","","","","","","","","","","","","","","",""
"","ISI","","html-keyboard-response","340","292683","0.0-1.0-462.0","0","0","51763","","null","","","null","51","NaN","","","","","","","","","","","","","","",""
"","S2","","html-keyboard-response","341","292935","0.0-1.0-463.0","0","0","51763","","null","","","null","51","","NaN","","","","","","","","","","","","","",""
"","response","","html-keyboard-response","342","293175","0.0-1.0-464.0-0.0","0","0","51763","","238","","","75","51","","","2","51","training","adjacent","DC","4","3","P.jpg","L.jpg","1","0","0","",""
"","feedback","","html-keyboard-response","343","294178","0.0-1.0-465.0-0.0","0","0","51763","","null","","","null","51","","","","","","","","","","","","","","","",""
"","time_out","","html-keyboard-response","344","296181","0.0-1.0-467.0-0.0","0","0","51763","","null","","","null","51","","","","","","","","","","","","","","","",""
"","ITI","","html-keyboard-response","345","297183","0.0-1.0-468.0","0","0","51763","","null","","","null","51","","","","","","","","","","","","","","","NaN",""
"","S1","","html-keyboard-response","346","297435","0.0-1.0-470.0","0","0","51763","","null","","","null","52","","","","","","","","","","","","","","","",""
"","ISI","","html-keyboard-response","347","297602","0.0-1.0-471.0","0","0","51763","","null","","","null","52","NaN","","","","","","","","","","","","","","",""
"","S2","","html-keyboard-response","348","297856","0.0-1.0-472.0","0","0","51763","","null","","","null","52","","NaN","","","","","","","","","","","","","",""
"","response","","html-keyboard-response","349","298048","0.0-1.0-473.0-0.0","0","0","51763","","191","","","68","52","","","2","52","training","adjacent","BC","2","3","O.jpg","L.jpg","0","1","0","",""
"","feedback","","html-keyboard-response","350","299051","0.0-1.0-474.0-0.0","0","0","51763","","null","","","null","52","","","","","","","","","","","","","","","",""
"","time_out","","html-keyboard-response","351","301054","0.0-1.0-476.0-0.0","0","0","51763","","null","","","null","52","","","","","","","","","","","","","","","",""
"","ITI","","html-keyboard-response","352","302056","0.0-1.0-477.0","0","0","51763","","null","","","null","52","","","","","","","","","","","","","","","NaN",""
"","S1","","html-keyboard-response","353","302309","0.0-1.0-479.0","0","0","51763","","null","","","null","53","","","","","","","","","","","","","","","",""
"","ISI","","html-keyboard-response","354","302461","0.0-1.0-480.0","0","0","51763","","null","","","null","53","NaN","","","","","","","","","","","","","","",""
"","S2","","html-keyboard-response","355","302713","0.0-1.0-481.0","0","0","51763","","null","","","null","53","","NaN","","","","","","","","","","","","","",""
"","response","","html-keyboard-response","356","303080","0.0-1.0-482.0-0.0","0","0","51763","","365","","","68","53","","","2","53","training","adjacent","CB","3","2","L.jpg","O.jpg","0","0","1","",""
"","feedback","","html-keyboard-response","357","304083","0.0-1.0-483.0-0.0","0","0","51763","","null","","","null","53","","","","","","","","","","","","","","","",""
"","ITI","","html-keyboard-response","358","305086","0.0-1.0-486.0","0","0","51763","","null","","","null","53","","","","","","","","","","","","","","","NaN",""
"","S1","","html-keyboard-response","359","305339","0.0-1.0-488.0","0","0","51763","","null","","","null","54","","","","","","","","","","","","","","","",""
"","ISI","","html-keyboard-response","360","305492","0.0-1.0-489.0","0","0","51763","","null","","","null","54","NaN","","","","","","","","","","","","","","",""
"","S2","","html-keyboard-response","361","305744","0.0-1.0-490.0","0","0","51763","","null","","","null","54","","NaN","","","","","","","","","","","","","",""
"","response","","html-keyboard-response","362","306122","0.0-1.0-491.0-0.0","0","0","51763","","375","","","68","54","","","2","54","training","adjacent","DE","4","5","P.jpg","M.jpg","0","1","0","",""
"","feedback","","html-keyboard-response","363","307125","0.0-1.0-492.0-0.0","0","0","51763","","null","","","null","54","","","","","","","","","","","","","","","",""
"","time_out","","html-keyboard-response","364","309128","0.0-1.0-494.0-0.0","0","0","51763","","null","","","null","54","","","","","","","","","","","","","","","",""
"","ITI","","html-keyboard-response","365","310130","0.0-1.0-495.0","0","0","51763","","null","","","null","54","","","","","","","","","","","","","","","NaN",""
"","S1","","html-keyboard-response","366","310383","0.0-1.0-497.0","0","0","51763","","null","","","null","55","","","","","","","","","","","","","","","",""
"","ISI","","html-keyboard-response","367","310534","0.0-1.0-498.0","0","0","51763","","null","","","null","55","NaN","","","","","","","","","","","","","","",""
"","S2","","html-keyboard-response","368","310787","0.0-1.0-499.0","0","0","51763","","null","","","null","55","","NaN","","","","","","","","","","","","","",""
"","response","","html-keyboard-response","369","310894","0.0-1.0-500.0-0.0","0","0","51763","","105","","","75","55","","","2","55","training","adjacent","GF","7","6","R.jpg","N.jpg","1","0","0","",""
"","feedback","","html-keyboard-response","370","311898","0.0-1.0-501.0-0.0","0","0","51763","","null","","","null","55","","","","","","","","","","","","","","","",""
"","time_out","","html-keyboard-response","371","313901","0.0-1.0-503.0-0.0","0","0","51763","","null","","","null","55","","","","","","","","","","","","","","","",""
"","ITI","","html-keyboard-response","372","314903","0.0-1.0-504.0","0","0","51763","","null","","","null","55","","","","","","","","","","","","","","","NaN",""
"","S1","","html-keyboard-response","373","315160","0.0-1.0-506.0","0","0","51763","","null","","","null","56","","","","","","","","","","","","","","","",""
"","ISI","","html-keyboard-response","374","315312","0.0-1.0-507.0","0","0","51763","","null","","","null","56","NaN","","","","","","","","","","","","","","",""
"","S2","","html-keyboard-response","375","315565","0.0-1.0-508.0","0","0","51763","","null","","","null","56","","NaN","","","","","","","","","","","","","",""
"","response","","html-keyboard-response","376","315797","0.0-1.0-509.0-0.0","0","0","51763","","230","","","68","56","","","2","56","training","adjacent","GF","7","6","R.jpg","N.jpg","0","0","1","",""
"","feedback","","html-keyboard-response","377","316800","0.0-1.0-510.0-0.0","0","0","51763","","null","","","null","56","","","","","","","","","","","","","","","",""
"","ITI","","html-keyboard-response","378","317803","0.0-1.0-513.0","0","0","51763","","null","","","null","56","","","","","","","","","","","","","","","NaN",""
"","S1","","html-keyboard-response","379","318055","0.0-1.0-515.0","0","0","51763","","null","","","null","57","","","","","","","","","","","","","","","",""
"","ISI","","html-keyboard-response","380","318208","0.0-1.0-516.0","0","0","51763","","null","","","null","57","NaN","","","","","","","","","","","","","","",""
"","S2","","html-keyboard-response","381","318460","0.0-1.0-517.0","0","0","51763","","null","","","null","57","","NaN","","","","","","","","","","","","","",""
"","response","","html-keyboard-response","382","319479","0.0-1.0-518.0-0.0","0","0","51763","","1016","","","68","57","","","2","57","training","adjacent","ED","5","4","M.jpg","P.jpg","0","0","1","",""
"","feedback","","html-keyboard-response","383","320481","0.0-1.0-519.0-0.0","0","0","51763","","null","","","null","57","","","","","","","","","","","","","","","",""
"","ITI","","html-keyboard-response","384","321484","0.0-1.0-522.0","0","0","51763","","null","","","null","57","","","","","","","","","","","","","","","NaN",""
"","S1","","html-keyboard-response","385","321745","0.0-1.0-524.0","0","0","51763","","null","","","null","58","","","","","","","","","","","","","","","",""
"","ISI","","html-keyboard-response","386","321897","0.0-1.0-525.0","0","0","51763","","null","","","null","58","NaN","","","","","","","","","","","","","","",""
"","S2","","html-keyboard-response","387","322150","0.0-1.0-526.0","0","0","51763","","null","","","null","58","","NaN","","","","","","","","","","","","","",""
"","response","","html-keyboard-response","388","322251","0.0-1.0-527.0-0.0","0","0","51763","","100","","","68","58","","","2","58","training","adjacent","CD","3","4","L.jpg","P.jpg","0","1","0","",""
"","feedback","","html-keyboard-response","389","323253","0.0-1.0-528.0-0.0","0","0","51763","","null","","","null","58","","","","","","","","","","","","","","","",""
"","time_out","","html-keyboard-response","390","325255","0.0-1.0-530.0-0.0","0","0","51763","","null","","","null","58","","","","","","","","","","","","","","","",""
"","ITI","","html-keyboard-response","391","326258","0.0-1.0-531.0","0","0","51763","","null","","","null","58","","","","","","","","","","","","","","","NaN",""
"","S1","","html-keyboard-response","392","326511","0.0-1.0-533.0","0","0","51763","","null","","","null","59","","","","","","","","","","","","","","","",""
"","ISI","","html-keyboard-response","393","326663","0.0-1.0-534.0","0","0","51763","","null","","","null","59","NaN","","","","","","","","","","","","","","",""
"","S2","","html-keyboard-response","394","326928","0.0-1.0-535.0","0","0","51763","","null","","","null","59","","NaN","","","","","","","","","","","","","",""
"","response","","html-keyboard-response","395","327103","0.0-1.0-536.0-0.0","0","0","51763","","173","","","68","59","","","2","59","training","adjacent","BC","2","3","O.jpg","L.jpg","0","1","0","",""
"","feedback","","html-keyboard-response","396","328105","0.0-1.0-537.0-0.0","0","0","51763","","null","","","null","59","","","","","","","","","","","","","","","",""
"","time_out","","html-keyboard-response","397","330108","0.0-1.0-539.0-0.0","0","0","51763","","null","","","null","59","","","","","","","","","","","","","","","",""
"","ITI","","html-keyboard-response","398","331110","0.0-1.0-540.0","0","0","51763","","null","","","null","59","","","","","","","","","","","","","","","NaN",""
"","S1","","html-keyboard-response","399","331363","0.0-1.0-542.0","0","0","51763","","null","","","null","60","","","","","","","","","","","","","","","",""
"","ISI","","html-keyboard-response","400","331515","0.0-1.0-543.0","0","0","51763","","null","","","null","60","NaN","","","","","","","","","","","","","","",""
"","S2","","html-keyboard-response","401","331768","0.0-1.0-544.0","0","0","51763","","null","","","null","60","","NaN","","","","","","","","","","","","","",""
"","response","","html-keyboard-response","402","331833","0.0-1.0-545.0-0.0","0","0","51763","","63","","","75","60","","","2","60","training","adjacent","DC","4","3","P.jpg","L.jpg","1","0","0","",""
"","feedback","","html-keyboard-response","403","332836","0.0-1.0-546.0-0.0","0","0","51763","","null","","","null","60","","","","","","","","","","","","","","","",""
"","time_out","","html-keyboard-response","404","334839","0.0-1.0-548.0-0.0","0","0","51763","","null","","","null","60","","","","","","","","","","","","","","","",""
"","ITI","","html-keyboard-response","405","335841","0.0-1.0-549.0","0","0","51763","","null","","","null","60","","","","","","","","","","","","","","","NaN",""
"","S1","","html-keyboard-response","406","336094","0.0-1.0-551.0","0","0","51763","","null","","","null","61","","","","","","","","","","","","","","","",""
"","ISI","","html-keyboard-response","407","336246","0.0-1.0-552.0","0","0","51763","","null","","","null","61","NaN","","","","","","","","","","","","","","",""
"","S2","","html-keyboard-response","408","336499","0.0-1.0-553.0","0","0","51763","","null","","","null","61","","NaN","","","","","","","","","","","","","",""
"","response","","html-keyboard-response","409","336596","0.0-1.0-554.0-0.0","0","0","51763","","96","","","68","61","","","2","61","training","adjacent","BC","2","3","O.jpg","L.jpg","0","1","0","",""
"","feedback","","html-keyboard-response","410","337599","0.0-1.0-555.0-0.0","0","0","51763","","null","","","null","61","","","","","","","","","","","","","","","",""
"","time_out","","html-keyboard-response","411","339602","0.0-1.0-557.0-0.0","0","0","51763","","null","","","null","61","","","","","","","","","","","","","","","",""
"","ITI","","html-keyboard-response","412","340604","0.0-1.0-558.0","0","0","51763","","null","","","null","61","","","","","","","","","","","","","","","NaN",""
"","S1","","html-keyboard-response","413","340858","0.0-1.0-560.0","0","0","51763","","null","","","null","62","","","","","","","","","","","","","","","",""
"","ISI","","html-keyboard-response","414","341010","0.0-1.0-561.0","0","0","51763","","null","","","null","62","NaN","","","","","","","","","","","","","","",""
"","S2","","html-keyboard-response","415","341263","0.0-1.0-562.0","0","0","51763","","null","","","null","62","","NaN","","","","","","","","","","","","","",""
"","response","","html-keyboard-response","416","341523","0.0-1.0-563.0-0.0","0","0","51763","","258","","","68","62","","","2","62","training","adjacent","CB","3","2","L.jpg","O.jpg","0","0","1","",""
"","feedback","","html-keyboard-response","417","342538","0.0-1.0-564.0-0.0","0","0","51763","","null","","","null","62","","","","","","","","","","","","","","","",""
"","ITI","","html-keyboard-response","418","343541","0.0-1.0-567.0","0","0","51763","","null","","","null","62","","","","","","","","","","","","","","","NaN",""
"","S1","","html-keyboard-response","419","343794","0.0-1.0-569.0","0","0","51763","","null","","","null","63","","","","","","","","","","","","","","","",""
"","ISI","","html-keyboard-response","420","343953","0.0-1.0-570.0","0","0","51763","","null","","","null","63","NaN","","","","","","","","","","","","","","",""
"","S2","","html-keyboard-response","421","344207","0.0-1.0-571.0","0","0","51763","","null","","","null","63","","NaN","","","","","","","","","","","","","",""
"","response","","html-keyboard-response","422","344560","0.0-1.0-572.0-0.0","0","0","51763","","352","","","75","63","","","2","63","training","adjacent","AB","1","2","Q.jpg","O.jpg","1","1","1","",""
"","feedback","","html-keyboard-response","423","345563","0.0-1.0-573.0-0.0","0","0","51763","","null","","","null","63","","","","","","","","","","","","","","","",""
"","ITI","","html-keyboard-response","424","346565","0.0-1.0-576.0","0","0","51763","","null","","","null","63","","","","","","","","","","","","","","","NaN",""
"","S1","","html-keyboard-response","425","346818","0.0-1.0-578.0","0","0","51763","","null","","","null","64","","","","","","","","","","","","","","","",""
"","ISI","","html-keyboard-response","426","346970","0.0-1.0-579.0","0","0","51763","","null","","","null","64","NaN","","","","","","","","","","","","","","",""
"","S2","","html-keyboard-response","427","347223","0.0-1.0-580.0","0","0","51763","","null","","","null","64","","NaN","","","","","","","","","","","","","",""
"","response","","html-keyboard-response","428","347835","0.0-1.0-581.0-0.0","0","0","51763","","610","","","68","64","","","2","64","training","adjacent","DE","4","5","P.jpg","M.jpg","0","1","0","",""
"","feedback","","html-keyboard-response","429","348844","0.0-1.0-582.0-0.0","0","0","51763","","null","","","null","64","","","","","","","","","","","","","","","",""
"","time_out","","html-keyboard-response","430","350847","0.0-1.0-584.0-0.0","0","0","51763","","null","","","null","64","","","","","","","","","","","","","","","",""
"","ITI","","html-keyboard-response","431","351850","0.0-1.0-585.0","0","0","51763","","null","","","null","64","","","","","","","","","","","","","","","NaN",""
"","S1","","html-keyboard-response","432","352102","0.0-1.0-587.0","0","0","51763","","null","","","null","65","","","","","","","","","","","","","","","",""
"","ISI","","html-keyboard-response","433","352255","0.0-1.0-588.0","0","0","51763","","null","","","null","65","NaN","","","","","","","","","","","","","","",""
"","S2","","html-keyboard-response","434","352508","0.0-1.0-589.0","0","0","51763","","null","","","null","65","","NaN","","","","","","","","","","","","","",""
"","response","","html-keyboard-response","435","352747","0.0-1.0-590.0-0.0","0","0","51763","","238","","","75","65","","","2","65","training","adjacent","ED","5","4","M.jpg","P.jpg","1","0","0","",""
"","feedback","","html-keyboard-response","436","353751","0.0-1.0-591.0-0.0","0","0","51763","","null","","","null","65","","","","","","","","","","","","","","","",""
"","time_out","","html-keyboard-response","437","355753","0.0-1.0-593.0-0.0","0","0","51763","","null","","","null","65","","","","","","","","","","","","","","","",""
"","ITI","","html-keyboard-response","438","356755","0.0-1.0-594.0","0","0","51763","","null","","","null","65","","","","","","","","","","","","","","","NaN",""
"","S1","","html-keyboard-response","439","357008","0.0-1.0-596.0","0","0","51763","","null","","","null","66","","","","","","","","","","","","","","","",""
"","ISI","","html-keyboard-response","440","357161","0.0-1.0-597.0","0","0","51763","","null","","","null","66","NaN","","","","","","","","","","","","","","",""
"","S2","","html-keyboard-response","441","357413","0.0-1.0-598.0","0","0","51763","","null","","","null","66","","NaN","","","","","","","","","","","","","",""
"","response","","html-keyboard-response","442","357475","0.0-1.0-599.0-0.0","0","0","51763","","60","","","68","66","","","2","66","training","adjacent","DC","4","3","P.jpg","L.jpg","0","0","1","",""
"","feedback","","html-keyboard-response","443","358477","0.0-1.0-600.0-0.0","0","0","51763","","null","","","null","66","","","","","","","","","","","","","","","",""
"","ITI","","html-keyboard-response","444","359480","0.0-1.0-603.0","0","0","51763","","null","","","null","66","","","","","","","","","","","","","","","NaN",""
"","S1","","html-keyboard-response","445","359734","0.0-1.0-605.0","0","0","51763","","null","","","null","67","","","","","","","","","","","","","","","",""
"","ISI","","html-keyboard-response","446","359888","0.0-1.0-606.0","0","0","51763","","null","","","null","67","NaN","","","","","","","","","","","","","","",""
"","S2","","html-keyboard-response","447","360140","0.0-1.0-607.0","0","0","51763","","null","","","null","67","","NaN","","","","","","","","","","","","","",""
"","response","","html-keyboard-response","448","360483","0.0-1.0-608.0-0.0","0","0","51763","","341","","","68","67","","","2","67","training","adjacent","DE","4","5","P.jpg","M.jpg","0","1","0","",""
"","feedback","","html-keyboard-response","449","361486","0.0-1.0-609.0-0.0","0","0","51763","","null","","","null","67","","","","","","","","","","","","","","","",""
"","time_out","","html-keyboard-response","450","363494","0.0-1.0-611.0-0.0","0","0","51763","","null","","","null","67","","","","","","","","","","","","","","","",""
"","ITI","","html-keyboard-response","451","364496","0.0-1.0-612.0","0","0","51763","","null","","","null","67","","","","","","","","","","","","","","","NaN",""
"","S1","","html-keyboard-response","452","364749","0.0-1.0-614.0","0","0","51763","","null","","","null","68","","","","","","","","","","","","","","","",""
"","ISI","","html-keyboard-response","453","364902","0.0-1.0-615.0","0","0","51763","","null","","","null","68","NaN","","","","","","","","","","","","","","",""
"","S2","","html-keyboard-response","454","365154","0.0-1.0-616.0","0","0","51763","","null","","","null","68","","NaN","","","","","","","","","","","","","",""
"","response","","html-keyboard-response","455","365272","0.0-1.0-617.0-0.0","0","0","51763","","116","","","68","68","","","2","68","training","adjacent","GF","7","6","R.jpg","N.jpg","0","0","1","",""
"","feedback","","html-keyboard-response","456","366275","0.0-1.0-618.0-0.0","0","0","51763","","null","","","null","68","","","","","","","","","","","","","","","",""
"","ITI","","html-keyboard-response","457","367278","0.0-1.0-621.0","0","0","51763","","null","","","null","68","","","","","","","","","","","","","","","NaN",""
"","S1","","html-keyboard-response","458","367530","0.0-1.0-623.0","0","0","51763","","null","","","null","69","","","","","","","","","","","","","","","",""
"","ISI","","html-keyboard-response","459","367683","0.0-1.0-624.0","0","0","51763","","null","","","null","69","NaN","","","","","","","","","","","","","","",""
"","S2","","html-keyboard-response","460","367936","0.0-1.0-625.0","0","0","51763","","null","","","null","69","","NaN","","","","","","","","","","","","","",""
"","response","","html-keyboard-response","461","368204","0.0-1.0-626.0-0.0","0","0","51763","","267","","","75","69","","","2","69","training","adjacent","FG","6","7","N.jpg","R.jpg","1","1","1","",""
"","feedback","","html-keyboard-response","462","369206","0.0-1.0-627.0-0.0","0","0","51763","","null","","","null","69","","","","","","","","","","","","","","","",""
"","ITI","","html-keyboard-response","463","370213","0.0-1.0-630.0","0","0","51763","","null","","","null","69","","","","","","","","","","","","","","","NaN",""
"","S1","","html-keyboard-response","464","370466","0.0-1.0-632.0","0","0","51763","","null","","","null","70","","","","","","","","","","","","","","","",""
"","ISI","","html-keyboard-response","465","370618","0.0-1.0-633.0","0","0","51763","","null","","","null","70","NaN","","","","","","","","","","","","","","",""
"","S2","","html-keyboard-response","466","370871","0.0-1.0-634.0","0","0","51763","","null","","","null","70","","NaN","","","","","","","","","","","","","",""
"","response","","html-keyboard-response","467","371188","0.0-1.0-635.0-0.0","0","0","51763","","316","","","68","70","","","2","70","training","adjacent","CB","3","2","L.jpg","O.jpg","0","0","1","",""
"","feedback","","html-keyboard-response","468","372192","0.0-1.0-636.0-0.0","0","0","51763","","null","","","null","70","","","","","","","","","","","","","","","",""
"","ITI","","html-keyboard-response","469","373195","0.0-1.0-639.0","0","0","51763","","null","","","null","70","","","","","","","","","","","","","","","NaN",""
"","S1","","html-keyboard-response","470","373447","0.0-1.0-641.0","0","0","51763","","null","","","null","71","","","","","","","","","","","","","","","",""
"","ISI","","html-keyboard-response","471","373600","0.0-1.0-642.0","0","0","51763","","null","","","null","71","NaN","","","","","","","","","","","","","","",""
"","S2","","html-keyboard-response","472","373853","0.0-1.0-643.0","0","0","51763","","null","","","null","71","","NaN","","","","","","","","","","","","","",""
"","response","","html-keyboard-response","473","374129","0.0-1.0-644.0-0.0","0","0","51763","","274","","","75","71","","","2","71","training","adjacent","FG","6","7","N.jpg","R.jpg","1","1","1","",""
"","feedback","","html-keyboard-response","474","375132","0.0-1.0-645.0-0.0","0","0","51763","","null","","","null","71","","","","","","","","","","","","","","","",""
"","ITI","","html-keyboard-response","475","376134","0.0-1.0-648.0","0","0","51763","","null","","","null","71","","","","","","","","","","","","","","","NaN",""
"","S1","","html-keyboard-response","476","376387","0.0-1.0-650.0","0","0","51763","","null","","","null","72","","","","","","","","","","","","","","","",""
"","ISI","","html-keyboard-response","477","376539","0.0-1.0-651.0","0","0","51763","","null","","","null","72","NaN","","","","","","","","","","","","","","",""
"","S2","","html-keyboard-response","478","376792","0.0-1.0-652.0","0","0","51763","","null","","","null","72","","NaN","","","","","","","","","","","","","",""
"","response","","html-keyboard-response","479","377377","0.0-1.0-653.0-0.0","0","0","51763","","584","","","68","72","","","2","72","training","adjacent","BA","2","1","O.jpg","Q.jpg","0","0","1","",""
"","feedback","","html-keyboard-response","480","378380","0.0-1.0-654.0-0.0","0","0","51763","","null","","","null","72","","","","","","","","","","","","","","","",""
"","ITI","","html-keyboard-response","481","379383","0.0-1.0-657.0","0","0","51763","","null","","","null","72","","","","","","","","","","","","","","","NaN",""
"","S1","","html-keyboard-response","482","379636","0.0-1.0-659.0","0","0","51763","","null","","","null","73","","","","","","","","","","","","","","","",""
"","ISI","","html-keyboard-response","483","379788","0.0-1.0-660.0","0","0","51763","","null","","","null","73","NaN","","","","","","","","","","","","","","",""
"","S2","","html-keyboard-response","484","380041","0.0-1.0-661.0","0","0","51763","","null","","","null","73","","NaN","","","","","","","","","","","","","",""
"","response","","html-keyboard-response","485","380271","0.0-1.0-662.0-0.0","0","0","51763","","228","","","68","73","","","2","73","training","adjacent","BA","2","1","O.jpg","Q.jpg","0","0","1","",""
"","feedback","","html-keyboard-response","486","381274","0.0-1.0-663.0-0.0","0","0","51763","","null","","","null","73","","","","","","","","","","","","","","","",""
"","ITI","","html-keyboard-response","487","382276","0.0-1.0-666.0","0","0","51763","","null","","","null","73","","","","","","","","","","","","","","","NaN",""
"","S1","","html-keyboard-response","488","382529","0.0-1.0-668.0","0","0","51763","","null","","","null","74","","","","","","","","","","","","","","","",""
"","ISI","","html-keyboard-response","489","382682","0.0-1.0-669.0","0","0","51763","","null","","","null","74","NaN","","","","","","","","","","","","","","",""
"","S2","","html-keyboard-response","490","382865","0.0-1.0-670.0","0","0","51763","","182","","","75","74","","k","2","74","training","adjacent","AB","1","2","Q.jpg","O.jpg","1","1","1","",""
"","feedback","","html-keyboard-response","491","383869","0.0-1.0-672.0-0.0","0","0","51763","","null","","","null","74","","","","","","","","","","","","","","","",""
"","ITI","","html-keyboard-response","492","384873","0.0-1.0-675.0","0","0","51763","","null","","","null","74","","","","","","","","","","","","","","","NaN",""
"","S1","","html-keyboard-response","493","385138","0.0-1.0-677.0","0","0","51763","","null","","","null","75","","","","","","","","","","","","","","","",""
"","ISI","","html-keyboard-response","494","385290","0.0-1.0-678.0","0","0","51763","","null","","","null","75","NaN","","","","","","","","","","","","","","",""
"","S2","","html-keyboard-response","495","385543","0.0-1.0-679.0","0","0","51763","","null","","","null","75","","NaN","","","","","","","","","","","","","",""
"","response","","html-keyboard-response","496","386100","0.0-1.0-680.0-0.0","0","0","51763","","554","","","68","75","","","2","75","training","adjacent","FE","6","5","N.jpg","M.jpg","0","0","1","",""
"","feedback","","html-keyboard-response","497","387103","0.0-1.0-681.0-0.0","0","0","51763","","null","","","null","75","","","","","","","","","","","","","","","",""
"","ITI","","html-keyboard-response","498","388105","0.0-1.0-684.0","0","0","51763","","null","","","null","75","","","","","","","","","","","","","","","NaN",""
"","S1","","html-keyboard-response","499","388357","0.0-1.0-686.0","0","0","51763","","null","","","null","76","","","","","","","","","","","","","","","",""
"","ISI","","html-keyboard-response","500","388510","0.0-1.0-687.0","0","0","51763","","null","","","null","76","NaN","","","","","","","","","","","","","","",""
"","S2","","html-keyboard-response","501","388763","0.0-1.0-688.0","0","0","51763","","null","","","null","76","","NaN","","","","","","","","","","","","","",""
"","response","","html-keyboard-response","502","389507","0.0-1.0-689.0-0.0","0","0","51763","","742","","","75","76","","","2","76","training","adjacent","EF","5","6","M.jpg","N.jpg","1","1","1","",""
"","feedback","","html-keyboard-response","503","390511","0.0-1.0-690.0-0.0","0","0","51763","","null","","","null","76","","","","","","","","","","","","","","","",""
"","ITI","","html-keyboard-response","504","391514","0.0-1.0-693.0","0","0","51763","","null","","","null","76","","","","","","","","","","","","","","","NaN",""
"","S1","","html-keyboard-response","505","391767","0.0-1.0-695.0","0","0","51763","","null","","","null","77","","","","","","","","","","","","","","","",""
"","ISI","","html-keyboard-response","506","391920","0.0-1.0-696.0","0","0","51763","","null","","","null","77","NaN","","","","","","","","","","","","","","",""
"","S2","","html-keyboard-response","507","392173","0.0-1.0-697.0","0","0","51763","","null","","","null","77","","NaN","","","","","","","","","","","","","",""
"","response","","html-keyboard-response","508","392341","0.0-1.0-698.0-0.0","0","0","51763","","167","","","68","77","","","2","77","training","adjacent","BA","2","1","O.jpg","Q.jpg","0","0","1","",""
"","feedback","","html-keyboard-response","509","393345","0.0-1.0-699.0-0.0","0","0","51763","","null","","","null","77","","","","","","","","","","","","","","","",""
"","ITI","","html-keyboard-response","510","394361","0.0-1.0-702.0","0","0","51763","","null","","","null","77","","","","","","","","","","","","","","","NaN",""
"","S1","","html-keyboard-response","511","394613","0.0-1.0-704.0","0","0","51763","","null","","","null","78","","","","","","","","","","","","","","","",""
"","ISI","","html-keyboard-response","512","394765","0.0-1.0-705.0","0","0","51763","","null","","","null","78","NaN","","","","","","","","","","","","","","",""
"","S2","","html-keyboard-response","513","395018","0.0-1.0-706.0","0","0","51763","","null","","","null","78","","NaN","","","","","","","","","","","","","",""
"","response","","html-keyboard-response","514","395427","0.0-1.0-707.0-0.0","0","0","51763","","408","","","68","78","","","2","78","training","adjacent","DC","4","3","P.jpg","L.jpg","0","0","1","",""
"","feedback","","html-keyboard-response","515","396430","0.0-1.0-708.0-0.0","0","0","51763","","null","","","null","78","","","","","","","","","","","","","","","",""
"","ITI","","html-keyboard-response","516","397432","0.0-1.0-711.0","0","0","51763","","null","","","null","78","","","","","","","","","","","","","","","NaN",""
"","S1","","html-keyboard-response","517","397685","0.0-1.0-713.0","0","0","51763","","null","","","null","79","","","","","","","","","","","","","","","",""
"","ISI","","html-keyboard-response","518","397837","0.0-1.0-714.0","0","0","51763","","null","","","null","79","NaN","","","","","","","","","","","","","","",""
"","S2","","html-keyboard-response","519","398090","0.0-1.0-715.0","0","0","51763","","null","","","null","79","","NaN","","","","","","","","","","","","","",""
"","response","","html-keyboard-response","520","398183","0.0-1.0-716.0-0.0","0","0","51763","","92","","","75","79","","","2","79","training","adjacent","CD","3","4","L.jpg","P.jpg","1","1","1","",""
"","feedback","","html-keyboard-response","521","399187","0.0-1.0-717.0-0.0","0","0","51763","","null","","","null","79","","","","","","","","","","","","","","","",""
"","ITI","","html-keyboard-response","522","400190","0.0-1.0-720.0","0","0","51763","","null","","","null","79","","","","","","","","","","","","","","","NaN",""
"","S1","","html-keyboard-response","523","400443","0.0-1.0-722.0","0","0","51763","","null","","","null","80","","","","","","","","","","","","","","","",""
"","ISI","","html-keyboard-response","524","400596","0.0-1.0-723.0","0","0","51763","","null","","","null","80","NaN","","","","","","","","","","","","","","",""
"","S2","","html-keyboard-response","525","400849","0.0-1.0-724.0","0","0","51763","","null","","","null","80","","NaN","","","","","","","","","","","","","",""
"","response","","html-keyboard-response","526","401194","0.0-1.0-725.0-0.0","0","0","51763","","343","","","68","80","","","2","80","training","adjacent","FG","6","7","N.jpg","R.jpg","0","1","0","",""
"","feedback","","html-keyboard-response","527","402198","0.0-1.0-726.0-0.0","0","0","51763","","null","","","null","80","","","","","","","","","","","","","","","",""
"","time_out","","html-keyboard-response","528","404200","0.0-1.0-728.0-0.0","0","0","51763","","null","","","null","80","","","","","","","","","","","","","","","",""
"","ITI","","html-keyboard-response","529","405203","0.0-1.0-729.0","0","0","51763","","null","","","null","80","","","","","","","","","","","","","","","NaN",""
"","S1","","html-keyboard-response","530","405455","0.0-1.0-731.0","0","0","51763","","null","","","null","81","","","","","","","","","","","","","","","",""
"","ISI","","html-keyboard-response","531","405608","0.0-1.0-732.0","0","0","51763","","null","","","null","81","NaN","","","","","","","","","","","","","","",""
"","S2","","html-keyboard-response","532","405861","0.0-1.0-733.0","0","0","51763","","null","","","null","81","","NaN","","","","","","","","","","","","","",""
"","response","","html-keyboard-response","533","406449","0.0-1.0-734.0-0.0","0","0","51763","","587","","","68","81","","","2","81","training","adjacent","EF","5","6","M.jpg","N.jpg","0","1","0","",""
"","feedback","","html-keyboard-response","534","407453","0.0-1.0-735.0-0.0","0","0","51763","","null","","","null","81","","","","","","","","","","","","","","","",""
"","time_out","","html-keyboard-response","535","409456","0.0-1.0-737.0-0.0","0","0","51763","","null","","","null","81","","","","","","","","","","","","","","","",""
"","ITI","","html-keyboard-response","536","410459","0.0-1.0-738.0","0","0","51763","","null","","","null","81","","","","","","","","","","","","","","","NaN",""
"","S1","","html-keyboard-response","537","410711","0.0-1.0-740.0","0","0","51763","","null","","","null","82","","","","","","","","","","","","","","","",""
"","ISI","","html-keyboard-response","538","410863","0.0-1.0-741.0","0","0","51763","","null","","","null","82","NaN","","","","","","","","","","","","","","",""
"","S2","","html-keyboard-response","539","411128","0.0-1.0-742.0","0","0","51763","","null","","","null","82","","NaN","","","","","","","","","","","","","",""
"","response","","html-keyboard-response","540","411568","0.0-1.0-743.0-0.0","0","0","51763","","439","","","75","82","","","2","82","training","adjacent","EF","5","6","M.jpg","N.jpg","1","1","1","",""
"","feedback","","html-keyboard-response","541","412571","0.0-1.0-744.0-0.0","0","0","51763","","null","","","null","82","","","","","","","","","","","","","","","",""
"","ITI","","html-keyboard-response","542","413574","0.0-1.0-747.0","0","0","51763","","null","","","null","82","","","","","","","","","","","","","","","NaN",""
"","S1","","html-keyboard-response","543","413827","0.0-1.0-749.0","0","0","51763","","null","","","null","83","","","","","","","","","","","","","","","",""
"","ISI","","html-keyboard-response","544","413980","0.0-1.0-750.0","0","0","51763","","null","","","null","83","NaN","","","","","","","","","","","","","","",""
"","S2","","html-keyboard-response","545","414233","0.0-1.0-751.0","0","0","51763","","null","","","null","83","","NaN","","","","","","","","","","","","","",""
"","response","","html-keyboard-response","546","414761","0.0-1.0-752.0-0.0","0","0","51763","","526","","","75","83","","","2","83","training","adjacent","ED","5","4","M.jpg","P.jpg","1","0","0","",""
"","feedback","","html-keyboard-response","547","415763","0.0-1.0-753.0-0.0","0","0","51763","","null","","","null","83","","","","","","","","","","","","","","","",""
"","time_out","","html-keyboard-response","548","417766","0.0-1.0-755.0-0.0","0","0","51763","","null","","","null","83","","","","","","","","","","","","","","","",""
"","ITI","","html-keyboard-response","549","418767","0.0-1.0-756.0","0","0","51763","","null","","","null","83","","","","","","","","","","","","","","","NaN",""
"","S1","","html-keyboard-response","550","419019","0.0-1.0-758.0","0","0","51763","","null","","","null","84","","","","","","","","","","","","","","","",""
"","ISI","","html-keyboard-response","551","419171","0.0-1.0-759.0","0","0","51763","","null","","","null","84","NaN","","","","","","","","","","","","","","",""
"","S2","","html-keyboard-response","552","419424","0.0-1.0-760.0","0","0","51763","","null","","","null","84","","NaN","","","","","","","","","","","","","",""
"","response","","html-keyboard-response","553","419465","0.0-1.0-761.0-0.0","0","0","51763","","39","","","75","84","","","2","84","training","adjacent","AB","1","2","Q.jpg","O.jpg","1","1","1","",""
"","feedback","","html-keyboard-response","554","420469","0.0-1.0-762.0-0.0","0","0","51763","","null","","","null","84","","","","","","","","","","","","","","","",""
"","ITI","","html-keyboard-response","555","421472","0.0-1.0-765.0","0","0","51763","","null","","","null","84","","","","","","","","","","","","","","","NaN",""
"","S1","","html-keyboard-response","556","421724","0.0-1.0-767.0","0","0","51763","","null","","","null","85","","","","","","","","","","","","","","","",""
"","ISI","","html-keyboard-response","557","421877","0.0-1.0-768.0","0","0","51763","","null","","","null","85","NaN","","","","","","","","","","","","","","",""
"","S2","","html-keyboard-response","558","422130","0.0-1.0-769.0","0","0","51763","","null","","","null","85","","NaN","","","","","","","","","","","","","",""
"","response","","html-keyboard-response","559","422704","0.0-1.0-770.0-0.0","0","0","51763","","573","","","68","85","","","2","85","training","adjacent","BC","2","3","O.jpg","L.jpg","0","1","0","",""
"","feedback","","html-keyboard-response","560","423717","0.0-1.0-771.0-0.0","0","0","51763","","null","","","null","85","","","","","","","","","","","","","","","",""
"","time_out","","html-keyboard-response","561","425733","0.0-1.0-773.0-0.0","0","0","51763","","null","","","null","85","","","","","","","","","","","","","","","",""
"","ITI","","html-keyboard-response","562","426736","0.0-1.0-774.0","0","0","51763","","null","","","null","85","","","","","","","","","","","","","","","NaN",""
"","S1","","html-keyboard-response","563","426989","0.0-1.0-776.0","0","0","51763","","null","","","null","86","","","","","","","","","","","","","","","",""
"","ISI","","html-keyboard-response","564","427142","0.0-1.0-777.0","0","0","51763","","null","","","null","86","NaN","","","","","","","","","","","","","","",""
"","S2","","html-keyboard-response","565","427408","0.0-1.0-778.0","0","0","51763","","null","","","null","86","","NaN","","","","","","","","","","","","","",""
"","response","","html-keyboard-response","566","427613","0.0-1.0-779.0-0.0","0","0","51763","","203","","","75","86","","","2","86","training","adjacent","CB","3","2","L.jpg","O.jpg","1","0","0","",""
"","feedback","","html-keyboard-response","567","428617","0.0-1.0-780.0-0.0","0","0","51763","","null","","","null","86","","","","","","","","","","","","","","","",""
"","time_out","","html-keyboard-response","568","430619","0.0-1.0-782.0-0.0","0","0","51763","","null","","","null","86","","","","","","","","","","","","","","","",""
"","ITI","","html-keyboard-response","569","431622","0.0-1.0-783.0","0","0","51763","","null","","","null","86","","","","","","","","","","","","","","","NaN",""
"","S1","","html-keyboard-response","570","431875","0.0-1.0-785.0","0","0","51763","","null","","","null","87","","","","","","","","","","","","","","","",""
"","ISI","","html-keyboard-response","571","432027","0.0-1.0-786.0","0","0","51763","","null","","","null","87","NaN","","","","","","","","","","","","","","",""
"","S2","","html-keyboard-response","572","432280","0.0-1.0-787.0","0","0","51763","","null","","","null","87","","NaN","","","","","","","","","","","","","",""
"","response","","html-keyboard-response","573","432573","0.0-1.0-788.0-0.0","0","0","51763","","291","","","75","87","","","2","87","training","adjacent","FE","6","5","N.jpg","M.jpg","1","0","0","",""
"","feedback","","html-keyboard-response","574","433576","0.0-1.0-789.0-0.0","0","0","51763","","null","","","null","87","","","","","","","","","","","","","","","",""
"","time_out","","html-keyboard-response","575","435579","0.0-1.0-791.0-0.0","0","0","51763","","null","","","null","87","","","","","","","","","","","","","","","",""
"","ITI","","html-keyboard-response","576","436582","0.0-1.0-792.0","0","0","51763","","null","","","null","87","","","","","","","","","","","","","","","NaN",""
"","S1","","html-keyboard-response","577","436847","0.0-1.0-794.0","0","0","51763","","null","","","null","88","","","","","","","","","","","","","","","",""
"","ISI","","html-keyboard-response","578","436999","0.0-1.0-795.0","0","0","51763","","null","","","null","88","NaN","","","","","","","","","","","","","","",""
"","S2","","html-keyboard-response","579","437252","0.0-1.0-796.0","0","0","51763","","null","","","null","88","","NaN","","","","","","","","","","","","","",""
"","response","","html-keyboard-response","580","437366","0.0-1.0-797.0-0.0","0","0","51763","","112","","","68","88","","","2","88","training","adjacent","FE","6","5","N.jpg","M.jpg","0","0","1","",""
"","feedback","","html-keyboard-response","581","438369","0.0-1.0-798.0-0.0","0","0","51763","","null","","","null","88","","","","","","","","","","","","","","","",""
"","ITI","","html-keyboard-response","582","439372","0.0-1.0-801.0","0","0","51763","","null","","","null","88","","","","","","","","","","","","","","","NaN",""
"","S1","","html-keyboard-response","583","439625","0.0-1.0-803.0","0","0","51763","","null","","","null","89","","","","","","","","","","","","","","","",""
