"success","ttype","start_time","trial_type","trial_index","time_elapsed","internal_node_id","warning","missed_checkup","PID","view_history","rt","responses","repeat_instructions","key_press","index","keypress_isi","keypress_S2","block","trial_num","phase","group_type","pair_type","S1_stim","S2_stim","S1_img","S2_img","S1_chosen","S1_higher","accuracy","keypress_iti","total_bonus_tally"
"true","full_screen","d04062023hr1804","fullscreen","0","7506","0.0-0.0","0","0","43883","","","","","","","","","","","","","","","","","","","","","",""
"","instructions","","instructions","1","16881","0.0-1.0-0.0-0.0","0","0","43883","[{""page_index"":0,""viewing_time"":1790},{""page_index"":1,""viewing_time"":3489},{""page_index"":2,""viewing_time"":3322},{""page_index"":3,""viewing_time"":772}]","9374","","","","","","","","","","","","","","","","","","","",""
"","comprehension_check","","survey-multi-choice","2","28360","0.0-1.0-0.0-1.0","0","0","43883","","11476","{""Q0"":""True"",""Q1"":""D"",""Q2"":""Only when the screen 'MAKE A CHOICE' is shown"",""Q3"":""Green mark"",""Q4"":""either D or K""}","1","","","","","","","","","","","","","","","","","",""
"","missed_instruction_checkup","","html-keyboard-response","3","29455","0.0-1.0-0.0-2.0-0.0","0","1","43883","","1094","","","32","","","","","","","","","","","","","","","","",""
"","instructions","","instructions","4","36761","0.0-1.0-0.1-0.1","0","0","43883","[{""page_index"":0,""viewing_time"":1150},{""page_index"":1,""viewing_time"":4422},{""page_index"":2,""viewing_time"":756},{""page_index"":3,""viewing_time"":977}]","7305","","","","","","","","","","","","","","","","","","","",""
"","comprehension_check","","survey-multi-choice","5","43288","0.0-1.0-0.1-1.1","0","0","43883","","6524","{""Q0"":""True"",""Q1"":""K"",""Q2"":""Only when the screen 'MAKE A CHOICE' is shown"",""Q3"":""Green mark"",""Q4"":""either D or K""}","1","","","","","","","","","","","","","","","","","",""
"","missed_instruction_checkup","","html-keyboard-response","6","44187","0.0-1.0-0.1-2.1-0.1","0","1","43883","","897","","","32","","","","","","","","","","","","","","","","",""
"","instructions","","instructions","7","53098","0.0-1.0-0.2-0.2","0","0","43883","[{""page_index"":0,""viewing_time"":1478},{""page_index"":1,""viewing_time"":5895},{""page_index"":2,""viewing_time"":898},{""page_index"":3,""viewing_time"":640}]","8911","","","","","","","","","","","","","","","","","","","",""
"","comprehension_check","","survey-multi-choice","8","59215","0.0-1.0-0.2-1.2","0","0","43883","","6114","{""Q0"":""True"",""Q1"":""K"",""Q2"":""Once the second image appears and while the screen 'MAKE A CHOICE' is shown"",""Q3"":""Green mark"",""Q4"":""either D or K""}","0","","","","","","","","","","","","","","","","","",""
"","start_exp","","html-keyboard-response","9","60037","0.0-1.0-1.0","0","0","43883","","821","","","32","","","","","","","","","","","","","","","","",""
"","S1","","html-keyboard-response","10","60190","0.0-1.0-2.0","0","0","43883","","null","","","null","0","","","","","","","","","","","","","","","",""
"","ISI","","html-keyboard-response","11","62192","0.0-1.0-3.0","0","0","43883","","null","","","null","0","NaN","","","","","","","","","","","","","","",""
"","S2","","html-keyboard-response","12","62344","0.0-1.0-4.0","0","0","43883","","null","","","null","0","","NaN","","","","","","","","","","","","","",""
"","response","","html-keyboard-response","13","63264","0.0-1.0-5.0-0.0","0","0","43883","","918","","","68","0","","","1","0","training","adjacent","FE","6","5","M.jpg","N.jpg","0","0","1","",""
"","feedback","","html-keyboard-response","14","64266","0.0-1.0-6.0-0.0","0","0","43883","","null","","","null","0","","","","","","","","","","","","","","","",""
"","ITI","","html-keyboard-response","15","65268","0.0-1.0-9.0","0","0","43883","","null","","","null","0","","","","","","","","","","","","","","","NaN",""
"","S1","","html-keyboard-response","16","65419","0.0-1.0-11.0","0","0","43883","","null","","","null","1","","","","","","","","","","","","","","","",""
"","ISI","","html-keyboard-response","17","67420","0.0-1.0-12.0","0","0","43883","","null","","","null","1","NaN","","","","","","","","","","","","","","",""
"","S2","","html-keyboard-response","18","67572","0.0-1.0-13.0","0","0","43883","","null","","","null","1","","NaN","","","","","","","","","","","","","",""
"","response","","html-keyboard-response","19","68153","0.0-1.0-14.0-0.0","0","0","43883","","580","","","75","1","","","1","1","training","adjacent","DC","4","3","L.jpg","O.jpg","1","0","0","",""
"","feedback","","html-keyboard-response","20","69156","0.0-1.0-15.0-0.0","0","0","43883","","null","","","null","1","","","","","","","","","","","","","","","",""
"","time_out","","html-keyboard-response","21","71157","0.0-1.0-17.0-0.0","0","0","43883","","null","","","null","1","","","","","","","","","","","","","","","",""
"","ITI","","html-keyboard-response","22","72159","0.0-1.0-18.0","0","0","43883","","null","","","null","1","","","","","","","","","","","","","","","NaN",""
"","S1","","html-keyboard-response","23","72310","0.0-1.0-20.0","0","0","43883","","null","","","null","2","","","","","","","","","","","","","","","",""
"","ISI","","html-keyboard-response","24","74311","0.0-1.0-21.0","0","0","43883","","null","","","null","2","NaN","","","","","","","","","","","","","","",""
"","S2","","html-keyboard-response","25","74464","0.0-1.0-22.0","0","0","43883","","null","","","null","2","","NaN","","","","","","","","","","","","","",""
"","response","","html-keyboard-response","26","75151","0.0-1.0-23.0-0.0","0","0","43883","","686","","","68","2","","","1","2","training","adjacent","BC","2","3","Q.jpg","O.jpg","0","1","0","",""
"","feedback","","html-keyboard-response","27","76152","0.0-1.0-24.0-0.0","0","0","43883","","null","","","null","2","","","","","","","","","","","","","","","",""
"","time_out","","html-keyboard-response","28","78154","0.0-1.0-26.0-0.0","0","0","43883","","null","","","null","2","","","","","","","","","","","","","","","",""
"","ITI","","html-keyboard-response","29","79156","0.0-1.0-27.0","0","0","43883","","null","","","null","2","","","","","","","","","","","","","","","NaN",""
"","S1","","html-keyboard-response","30","79308","0.0-1.0-29.0","0","0","43883","","null","","","null","3","","","","","","","","","","","","","","","",""
"","ISI","","html-keyboard-response","31","81310","0.0-1.0-30.0","0","0","43883","","null","","","null","3","NaN","","","","","","","","","","","","","","",""
"","S2","","html-keyboard-response","32","81462","0.0-1.0-31.0","0","0","43883","","null","","","null","3","","NaN","","","","","","","","","","","","","",""
"","response","","html-keyboard-response","33","81922","0.0-1.0-32.0-0.0","0","0","43883","","458","","","75","3","","","1","3","training","adjacent","BA","2","1","Q.jpg","P.jpg","1","0","0","",""
"","feedback","","html-keyboard-response","34","82924","0.0-1.0-33.0-0.0","0","0","43883","","null","","","null","3","","","","","","","","","","","","","","","",""
"","time_out","","html-keyboard-response","35","84926","0.0-1.0-35.0-0.0","0","0","43883","","null","","","null","3","","","","","","","","","","","","","","","",""
"","ITI","","html-keyboard-response","36","85928","0.0-1.0-36.0","0","0","43883","","null","","","null","3","","","","","","","","","","","","","","","NaN",""
"","S1","","html-keyboard-response","37","86080","0.0-1.0-38.0","0","0","43883","","null","","","null","4","","","","","","","","","","","","","","","",""
"","ISI","","html-keyboard-response","38","88082","0.0-1.0-39.0","0","0","43883","","null","","","null","4","NaN","","","","","","","","","","","","","","",""
"","S2","","html-keyboard-response","39","88236","0.0-1.0-40.0","0","0","43883","","null","","","null","4","","NaN","","","","","","","","","","","","","",""
"","response","","html-keyboard-response","40","88431","0.0-1.0-41.0-0.0","0","0","43883","","195","","","68","4","","","1","4","training","adjacent","BC","2","3","Q.jpg","O.jpg","0","1","0","",""
"","feedback","","html-keyboard-response","41","89433","0.0-1.0-42.0-0.0","0","0","43883","","null","","","null","4","","","","","","","","","","","","","","","",""
"","time_out","","html-keyboard-response","42","91435","0.0-1.0-44.0-0.0","0","0","43883","","null","","","null","4","","","","","","","","","","","","","","","",""
"","ITI","","html-keyboard-response","43","92437","0.0-1.0-45.0","0","0","43883","","null","","","null","4","","","","","","","","","","","","","","","NaN",""
"","S1","","html-keyboard-response","44","92589","0.0-1.0-47.0","0","0","43883","","null","","","null","5","","","","","","","","","","","","","","","",""
"","ISI","","html-keyboard-response","45","94590","0.0-1.0-48.0","0","0","43883","","null","","","null","5","NaN","","","","","","","","","","","","","","",""
"","S2","","html-keyboard-response","46","94743","0.0-1.0-49.0","0","0","43883","","null","","","null","5","","NaN","","","","","","","","","","","","","",""
"","response","","html-keyboard-response","47","94892","0.0-1.0-50.0-0.0","0","0","43883","","148","","","68","5","","","1","5","training","adjacent","AB","1","2","P.jpg","Q.jpg","0","1","0","",""
"","feedback","","html-keyboard-response","48","95894","0.0-1.0-51.0-0.0","0","0","43883","","null","","","null","5","","","","","","","","","","","","","","","",""
"","time_out","","html-keyboard-response","49","97895","0.0-1.0-53.0-0.0","0","0","43883","","null","","","null","5","","","","","","","","","","","","","","","",""
"","ITI","","html-keyboard-response","50","98897","0.0-1.0-54.0","0","0","43883","","null","","","null","5","","","","","","","","","","","","","","","NaN",""
"","S1","","html-keyboard-response","51","99049","0.0-1.0-56.0","0","0","43883","","null","","","null","6","","","","","","","","","","","","","","","",""
"","ISI","","html-keyboard-response","52","101051","0.0-1.0-57.0","0","0","43883","","null","","","null","6","NaN","","","","","","","","","","","","","","",""
"","S2","","html-keyboard-response","53","101135","0.0-1.0-58.0","0","0","43883","","83","","","75","6","","k","1","6","training","adjacent","DE","4","5","L.jpg","N.jpg","1","1","1","",""
"","feedback","","html-keyboard-response","54","102137","0.0-1.0-60.0-0.0","0","0","43883","","null","","","null","6","","","","","","","","","","","","","","","",""
"","ITI","","html-keyboard-response","55","103139","0.0-1.0-63.0","0","0","43883","","null","","","null","6","","","","","","","","","","","","","","","NaN",""
"","S1","","html-keyboard-response","56","103291","0.0-1.0-65.0","0","0","43883","","null","","","null","7","","","","","","","","","","","","","","","",""
"","ISI","","html-keyboard-response","57","105292","0.0-1.0-66.0","0","0","43883","","1808","","","75","7","k","","","","","","","","","","","","","","",""
"","S2","","html-keyboard-response","58","105445","0.0-1.0-67.0","0","0","43883","","null","","","null","7","","NaN","","","","","","","","","","","","","",""
"","response","","html-keyboard-response","59","105458","0.0-1.0-68.0-0.0","0","0","43883","","12","","","75","7","","","1","7","training","adjacent","ED","5","4","N.jpg","L.jpg","1","0","0","",""
"","feedback","","html-keyboard-response","60","106460","0.0-1.0-69.0-0.0","0","0","43883","","null","","","null","7","","","","","","","","","","","","","","","",""
"","time_out","","html-keyboard-response","61","108463","0.0-1.0-71.0-0.0","0","0","43883","","null","","","null","7","","","","","","","","","","","","","","","",""
"","ITI","","html-keyboard-response","62","109464","0.0-1.0-72.0","0","0","43883","","null","","","null","7","","","","","","","","","","","","","","","NaN",""
"","S1","","html-keyboard-response","63","109617","0.0-1.0-74.0","0","0","43883","","null","","","null","8","","","","","","","","","","","","","","","",""
"","ISI","","html-keyboard-response","64","111618","0.0-1.0-75.0","0","0","43883","","null","","","null","8","NaN","","","","","","","","","","","","","","",""
"","S2","","html-keyboard-response","65","111627","0.0-1.0-76.0","0","0","43883","","8","","","68","8","","d","1","8","training","adjacent","CD","3","4","O.jpg","L.jpg","0","1","0","",""
"","feedback","","html-keyboard-response","66","112629","0.0-1.0-78.0-0.0","0","0","43883","","null","","","null","8","","","","","","","","","","","","","","","",""
"","time_out","","html-keyboard-response","67","114631","0.0-1.0-80.0-0.0","0","0","43883","","null","","","null","8","","","","","","","","","","","","","","","",""
"","ITI","","html-keyboard-response","68","115632","0.0-1.0-81.0","0","0","43883","","null","","","null","8","","","","","","","","","","","","","","","NaN",""
"","S1","","html-keyboard-response","69","115784","0.0-1.0-83.0","0","0","43883","","null","","","null","9","","","","","","","","","","","","","","","",""
"","ISI","","html-keyboard-response","70","117786","0.0-1.0-84.0","0","0","43883","","null","","","null","9","NaN","","","","","","","","","","","","","","",""
"","S2","","html-keyboard-response","71","117938","0.0-1.0-85.0","0","0","43883","","null","","","null","9","","NaN","","","","","","","","","","","","","",""
"","response","","html-keyboard-response","72","118468","0.0-1.0-86.0-0.0","0","0","43883","","529","","","68","9","","","1","9","training","adjacent","EF","5","6","N.jpg","M.jpg","0","1","0","",""
"","feedback","","html-keyboard-response","73","119470","0.0-1.0-87.0-0.0","0","0","43883","","null","","","null","9","","","","","","","","","","","","","","","",""
"","time_out","","html-keyboard-response","74","121472","0.0-1.0-89.0-0.0","0","0","43883","","null","","","null","9","","","","","","","","","","","","","","","",""
"","ITI","","html-keyboard-response","75","122474","0.0-1.0-90.0","0","0","43883","","null","","","null","9","","","","","","","","","","","","","","","NaN",""
"","S1","","html-keyboard-response","76","122626","0.0-1.0-92.0","0","0","43883","","null","","","null","10","","","","","","","","","","","","","","","",""
"","ISI","","html-keyboard-response","77","124628","0.0-1.0-93.0","0","0","43883","","null","","","null","10","NaN","","","","","","","","","","","","","","",""
"","S2","","html-keyboard-response","78","124780","0.0-1.0-94.0","0","0","43883","","null","","","null","10","","NaN","","","","","","","","","","","","","",""
"","response","","html-keyboard-response","79","125421","0.0-1.0-95.0-0.0","0","0","43883","","640","","","68","10","","","1","10","training","adjacent","FG","6","7","M.jpg","R.jpg","0","1","0","",""
"","feedback","","html-keyboard-response","80","126423","0.0-1.0-96.0-0.0","0","0","43883","","null","","","null","10","","","","","","","","","","","","","","","",""
"","time_out","","html-keyboard-response","81","128425","0.0-1.0-98.0-0.0","0","0","43883","","null","","","null","10","","","","","","","","","","","","","","","",""
"","ITI","","html-keyboard-response","82","129426","0.0-1.0-99.0","0","0","43883","","null","","","null","10","","","","","","","","","","","","","","","NaN",""
"","S1","","html-keyboard-response","83","129578","0.0-1.0-101.0","0","0","43883","","null","","","null","11","","","","","","","","","","","","","","","",""
"","ISI","","html-keyboard-response","84","131579","0.0-1.0-102.0","0","0","43883","","null","","","null","11","NaN","","","","","","","","","","","","","","",""
"","S2","","html-keyboard-response","85","131731","0.0-1.0-103.0","0","0","43883","","null","","","null","11","","NaN","","","","","","","","","","","","","",""
"","response","","html-keyboard-response","86","132406","0.0-1.0-104.0-0.0","0","0","43883","","673","","","75","11","","","1","11","training","adjacent","ED","5","4","N.jpg","L.jpg","1","0","0","",""
"","feedback","","html-keyboard-response","87","133407","0.0-1.0-105.0-0.0","0","0","43883","","null","","","null","11","","","","","","","","","","","","","","","",""
"","time_out","","html-keyboard-response","88","135409","0.0-1.0-107.0-0.0","0","0","43883","","null","","","null","11","","","","","","","","","","","","","","","",""
"","ITI","","html-keyboard-response","89","136411","0.0-1.0-108.0","0","0","43883","","null","","","null","11","","","","","","","","","","","","","","","NaN",""
"","S1","","html-keyboard-response","90","136562","0.0-1.0-110.0","0","0","43883","","null","","","null","12","","","","","","","","","","","","","","","",""
"","ISI","","html-keyboard-response","91","138564","0.0-1.0-111.0","0","0","43883","","null","","","null","12","NaN","","","","","","","","","","","","","","",""
"","S2","","html-keyboard-response","92","138716","0.0-1.0-112.0","0","0","43883","","null","","","null","12","","NaN","","","","","","","","","","","","","",""
"","response","","html-keyboard-response","93","139495","0.0-1.0-113.0-0.0","0","0","43883","","777","","","75","12","","","1","12","training","adjacent","ED","5","4","N.jpg","L.jpg","1","0","0","",""
"","feedback","","html-keyboard-response","94","140498","0.0-1.0-114.0-0.0","0","0","43883","","null","","","null","12","","","","","","","","","","","","","","","",""
"","time_out","","html-keyboard-response","95","142499","0.0-1.0-116.0-0.0","0","0","43883","","null","","","null","12","","","","","","","","","","","","","","","",""
"","ITI","","html-keyboard-response","96","143501","0.0-1.0-117.0","0","0","43883","","null","","","null","12","","","","","","","","","","","","","","","NaN",""
"","S1","","html-keyboard-response","97","143652","0.0-1.0-119.0","0","0","43883","","null","","","null","13","","","","","","","","","","","","","","","",""
"","ISI","","html-keyboard-response","98","145653","0.0-1.0-120.0","0","0","43883","","null","","","null","13","NaN","","","","","","","","","","","","","","",""
"","S2","","html-keyboard-response","99","145807","0.0-1.0-121.0","0","0","43883","","null","","","null","13","","NaN","","","","","","","","","","","","","",""
"","response","","html-keyboard-response","100","146395","0.0-1.0-122.0-0.0","0","0","43883","","587","","","68","13","","","1","13","training","adjacent","CD","3","4","O.jpg","L.jpg","0","1","0","",""
"","feedback","","html-keyboard-response","101","147403","0.0-1.0-123.0-0.0","0","0","43883","","null","","","null","13","","","","","","","","","","","","","","","",""
"","time_out","","html-keyboard-response","102","149405","0.0-1.0-125.0-0.0","0","0","43883","","null","","","null","13","","","","","","","","","","","","","","","",""
"","ITI","","html-keyboard-response","103","150407","0.0-1.0-126.0","0","0","43883","","null","","","null","13","","","","","","","","","","","","","","","NaN",""
"","S1","","html-keyboard-response","104","150559","0.0-1.0-128.0","0","0","43883","","null","","","null","14","","","","","","","","","","","","","","","",""
"","ISI","","html-keyboard-response","105","152560","0.0-1.0-129.0","0","0","43883","","null","","","null","14","NaN","","","","","","","","","","","","","","",""
"","S2","","html-keyboard-response","106","152713","0.0-1.0-130.0","0","0","43883","","null","","","null","14","","NaN","","","","","","","","","","","","","",""
"","response","","html-keyboard-response","107","153345","0.0-1.0-131.0-0.0","0","0","43883","","631","","","75","14","","","1","14","training","adjacent","CB","3","2","O.jpg","Q.jpg","1","0","0","",""
"","feedback","","html-keyboard-response","108","154346","0.0-1.0-132.0-0.0","0","0","43883","","null","","","null","14","","","","","","","","","","","","","","","",""
"","time_out","","html-keyboard-response","109","156348","0.0-1.0-134.0-0.0","0","0","43883","","null","","","null","14","","","","","","","","","","","","","","","",""
"","ITI","","html-keyboard-response","110","157350","0.0-1.0-135.0","0","0","43883","","null","","","null","14","","","","","","","","","","","","","","","NaN",""
"","S1","","html-keyboard-response","111","157501","0.0-1.0-137.0","0","0","43883","","null","","","null","15","","","","","","","","","","","","","","","",""
"","ISI","","html-keyboard-response","112","159502","0.0-1.0-138.0","0","0","43883","","null","","","null","15","NaN","","","","","","","","","","","","","","",""
"","S2","","html-keyboard-response","113","159662","0.0-1.0-139.0","0","0","43883","","null","","","null","15","","NaN","","","","","","","","","","","","","",""
"","response","","html-keyboard-response","114","160360","0.0-1.0-140.0-0.0","0","0","43883","","698","","","68","15","","","1","15","training","adjacent","BA","2","1","Q.jpg","P.jpg","0","0","1","",""
"","feedback","","html-keyboard-response","115","161362","0.0-1.0-141.0-0.0","0","0","43883","","null","","","null","15","","","","","","","","","","","","","","","",""
"","ITI","","html-keyboard-response","116","162364","0.0-1.0-144.0","0","0","43883","","null","","","null","15","","","","","","","","","","","","","","","NaN",""
"","S1","","html-keyboard-response","117","162517","0.0-1.0-146.0","0","0","43883","","null","","","null","16","","","","","","","","","","","","","","","",""
"","ISI","","html-keyboard-response","118","164518","0.0-1.0-147.0","0","0","43883","","null","","","null","16","NaN","","","","","","","","","","","","","","",""
"","S2","","html-keyboard-response","119","164670","0.0-1.0-148.0","0","0","43883","","null","","","null","16","","NaN","","","","","","","","","","","","","",""
"","response","","html-keyboard-response","120","165346","0.0-1.0-149.0-0.0","0","0","43883","","674","","","68","16","","","1","16","training","adjacent","BC","2","3","Q.jpg","O.jpg","0","1","0","",""
"","feedback","","html-keyboard-response","121","166348","0.0-1.0-150.0-0.0","0","0","43883","","null","","","null","16","","","","","","","","","","","","","","","",""
"","time_out","","html-keyboard-response","122","168350","0.0-1.0-152.0-0.0","0","0","43883","","null","","","null","16","","","","","","","","","","","","","","","",""
"","ITI","","html-keyboard-response","123","169351","0.0-1.0-153.0","0","0","43883","","null","","","null","16","","","","","","","","","","","","","","","NaN",""
"","S1","","html-keyboard-response","124","169503","0.0-1.0-155.0","0","0","43883","","null","","","null","17","","","","","","","","","","","","","","","",""
"","ISI","","html-keyboard-response","125","171505","0.0-1.0-156.0","0","0","43883","","null","","","null","17","NaN","","","","","","","","","","","","","","",""
"","S2","","html-keyboard-response","126","171658","0.0-1.0-157.0","0","0","43883","","null","","","null","17","","NaN","","","","","","","","","","","","","",""
"","response","","html-keyboard-response","127","171972","0.0-1.0-158.0-0.0","0","0","43883","","312","","","75","17","","","1","17","training","adjacent","CB","3","2","O.jpg","Q.jpg","1","0","0","",""
"","feedback","","html-keyboard-response","128","172974","0.0-1.0-159.0-0.0","0","0","43883","","null","","","null","17","","","","","","","","","","","","","","","",""
"","time_out","","html-keyboard-response","129","174976","0.0-1.0-161.0-0.0","0","0","43883","","null","","","null","17","","","","","","","","","","","","","","","",""
"","ITI","","html-keyboard-response","130","175977","0.0-1.0-162.0","0","0","43883","","null","","","null","17","","","","","","","","","","","","","","","NaN",""
"","S1","","html-keyboard-response","131","176129","0.0-1.0-164.0","0","0","43883","","null","","","null","18","","","","","","","","","","","","","","","",""
"","ISI","","html-keyboard-response","132","178130","0.0-1.0-165.0","0","0","43883","","null","","","null","18","NaN","","","","","","","","","","","","","","",""
"","S2","","html-keyboard-response","133","178282","0.0-1.0-166.0","0","0","43883","","null","","","null","18","","NaN","","","","","","","","","","","","","",""
"","response","","html-keyboard-response","134","178517","0.0-1.0-167.0-0.0","0","0","43883","","234","","","75","18","","","1","18","training","adjacent","FE","6","5","M.jpg","N.jpg","1","0","0","",""
"","feedback","","html-keyboard-response","135","179519","0.0-1.0-168.0-0.0","0","0","43883","","null","","","null","18","","","","","","","","","","","","","","","",""
"","time_out","","html-keyboard-response","136","181521","0.0-1.0-170.0-0.0","0","0","43883","","null","","","null","18","","","","","","","","","","","","","","","",""
"","ITI","","html-keyboard-response","137","182524","0.0-1.0-171.0","0","0","43883","","null","","","null","18","","","","","","","","","","","","","","","NaN",""
"","S1","","html-keyboard-response","138","182676","0.0-1.0-173.0","0","0","43883","","null","","","null","19","","","","","","","","","","","","","","","",""
"","ISI","","html-keyboard-response","139","184678","0.0-1.0-174.0","0","0","43883","","null","","","null","19","NaN","","","","","","","","","","","","","","",""
"","S2","","html-keyboard-response","140","184830","0.0-1.0-175.0","0","0","43883","","null","","","null","19","","NaN","","","","","","","","","","","","","",""
"","response","","html-keyboard-response","141","185625","0.0-1.0-176.0-0.0","0","0","43883","","793","","","75","19","","","1","19","training","adjacent","BA","2","1","Q.jpg","P.jpg","1","0","0","",""
"","feedback","","html-keyboard-response","142","186627","0.0-1.0-177.0-0.0","0","0","43883","","null","","","null","19","","","","","","","","","","","","","","","",""
"","time_out","","html-keyboard-response","143","188629","0.0-1.0-179.0-0.0","0","0","43883","","null","","","null","19","","","","","","","","","","","","","","","",""
"","ITI","","html-keyboard-response","144","189632","0.0-1.0-180.0","0","0","43883","","null","","","null","19","","","","","","","","","","","","","","","NaN",""
"","S1","","html-keyboard-response","145","189783","0.0-1.0-182.0","0","0","43883","","null","","","null","20","","","","","","","","","","","","","","","",""
"","ISI","","html-keyboard-response","146","191786","0.0-1.0-183.0","0","0","43883","","null","","","null","20","NaN","","","","","","","","","","","","","","",""
"","S2","","html-keyboard-response","147","191938","0.0-1.0-184.0","0","0","43883","","null","","","null","20","","NaN","","","","","","","","","","","","","",""
"","response","","html-keyboard-response","148","192540","0.0-1.0-185.0-0.0","0","0","43883","","601","","","68","20","","","1","20","training","adjacent","FG","6","7","M.jpg","R.jpg","0","1","0","",""
"","feedback","","html-keyboard-response","149","193541","0.0-1.0-186.0-0.0","0","0","43883","","null","","","null","20","","","","","","","","","","","","","","","",""
"","time_out","","html-keyboard-response","150","195543","0.0-1.0-188.0-0.0","0","0","43883","","null","","","null","20","","","","","","","","","","","","","","","",""
"","ITI","","html-keyboard-response","151","196544","0.0-1.0-189.0","0","0","43883","","null","","","null","20","","","","","","","","","","","","","","","NaN",""
"","S1","","html-keyboard-response","152","196696","0.0-1.0-191.0","0","0","43883","","null","","","null","21","","","","","","","","","","","","","","","",""
"","ISI","","html-keyboard-response","153","198698","0.0-1.0-192.0","0","0","43883","","null","","","null","21","NaN","","","","","","","","","","","","","","",""
"","S2","","html-keyboard-response","154","198850","0.0-1.0-193.0","0","0","43883","","null","","","null","21","","NaN","","","","","","","","","","","","","",""
"","response","","html-keyboard-response","155","199911","0.0-1.0-194.0-0.0","0","0","43883","","1060","","","68","21","","","1","21","training","adjacent","ED","5","4","N.jpg","L.jpg","0","0","1","",""
"","feedback","","html-keyboard-response","156","200913","0.0-1.0-195.0-0.0","0","0","43883","","null","","","null","21","","","","","","","","","","","","","","","",""
"","ITI","","html-keyboard-response","157","201914","0.0-1.0-198.0","0","0","43883","","null","","","null","21","","","","","","","","","","","","","","","NaN",""
"","S1","","html-keyboard-response","158","202080","0.0-1.0-200.0","0","0","43883","","null","","","null","22","","","","","","","","","","","","","","","",""
"","ISI","","html-keyboard-response","159","204082","0.0-1.0-201.0","0","0","43883","","null","","","null","22","NaN","","","","","","","","","","","","","","",""
"","S2","","html-keyboard-response","160","204246","0.0-1.0-202.0","0","0","43883","","null","","","null","22","","NaN","","","","","","","","","","","","","",""
"","response","","html-keyboard-response","161","204797","0.0-1.0-203.0-0.0","0","0","43883","","551","","","68","22","","","1","22","training","adjacent","FG","6","7","M.jpg","R.jpg","0","1","0","",""
"","feedback","","html-keyboard-response","162","205799","0.0-1.0-204.0-0.0","0","0","43883","","null","","","null","22","","","","","","","","","","","","","","","",""
"","time_out","","html-keyboard-response","163","207802","0.0-1.0-206.0-0.0","0","0","43883","","null","","","null","22","","","","","","","","","","","","","","","",""
"","ITI","","html-keyboard-response","164","208803","0.0-1.0-207.0","0","0","43883","","null","","","null","22","","","","","","","","","","","","","","","NaN",""
"","S1","","html-keyboard-response","165","208956","0.0-1.0-209.0","0","0","43883","","null","","","null","23","","","","","","","","","","","","","","","",""
"","ISI","","html-keyboard-response","166","210958","0.0-1.0-210.0","0","0","43883","","null","","","null","23","NaN","","","","","","","","","","","","","","",""
"","S2","","html-keyboard-response","167","211110","0.0-1.0-211.0","0","0","43883","","null","","","null","23","","NaN","","","","","","","","","","","","","",""
"","response","","html-keyboard-response","168","211644","0.0-1.0-212.0-0.0","0","0","43883","","532","","","75","23","","","1","23","training","adjacent","FG","6","7","M.jpg","R.jpg","1","1","1","",""
"","feedback","","html-keyboard-response","169","212646","0.0-1.0-213.0-0.0","0","0","43883","","null","","","null","23","","","","","","","","","","","","","","","",""
"","ITI","","html-keyboard-response","170","213648","0.0-1.0-216.0","0","0","43883","","null","","","null","23","","","","","","","","","","","","","","","NaN",""
"","S1","","html-keyboard-response","171","213800","0.0-1.0-218.0","0","0","43883","","null","","","null","24","","","","","","","","","","","","","","","",""
"","ISI","","html-keyboard-response","172","215802","0.0-1.0-219.0","0","0","43883","","null","","","null","24","NaN","","","","","","","","","","","","","","",""
"","S2","","html-keyboard-response","173","215954","0.0-1.0-220.0","0","0","43883","","null","","","null","24","","NaN","","","","","","","","","","","","","",""
"","response","","html-keyboard-response","174","216433","0.0-1.0-221.0-0.0","0","0","43883","","478","","","75","24","","","1","24","training","adjacent","DC","4","3","L.jpg","O.jpg","1","0","0","",""
"","feedback","","html-keyboard-response","175","217436","0.0-1.0-222.0-0.0","0","0","43883","","null","","","null","24","","","","","","","","","","","","","","","",""
"","time_out","","html-keyboard-response","176","219438","0.0-1.0-224.0-0.0","0","0","43883","","null","","","null","24","","","","","","","","","","","","","","","",""
"","ITI","","html-keyboard-response","177","220439","0.0-1.0-225.0","0","0","43883","","null","","","null","24","","","","","","","","","","","","","","","NaN",""
"","S1","","html-keyboard-response","178","220592","0.0-1.0-227.0","0","0","43883","","null","","","null","25","","","","","","","","","","","","","","","",""
"","ISI","","html-keyboard-response","179","222593","0.0-1.0-228.0","0","0","43883","","null","","","null","25","NaN","","","","","","","","","","","","","","",""
"","S2","","html-keyboard-response","180","222746","0.0-1.0-229.0","0","0","43883","","null","","","null","25","","NaN","","","","","","","","","","","","","",""
"","response","","html-keyboard-response","181","223263","0.0-1.0-230.0-0.0","0","0","43883","","515","","","75","25","","","1","25","training","adjacent","BC","2","3","Q.jpg","O.jpg","1","1","1","",""
"","feedback","","html-keyboard-response","182","224266","0.0-1.0-231.0-0.0","0","0","43883","","null","","","null","25","","","","","","","","","","","","","","","",""
"","ITI","","html-keyboard-response","183","225269","0.0-1.0-234.0","0","0","43883","","null","","","null","25","","","","","","","","","","","","","","","NaN",""
"","S1","","html-keyboard-response","184","225421","0.0-1.0-236.0","0","0","43883","","null","","","null","26","","","","","","","","","","","","","","","",""
"","ISI","","html-keyboard-response","185","227423","0.0-1.0-237.0","0","0","43883","","1845","","","68","26","d","","","","","","","","","","","","","","",""
"","S2","","html-keyboard-response","186","227478","0.0-1.0-238.0","0","0","43883","","54","","","68","26","","d","1","26","training","adjacent","CD","3","4","O.jpg","L.jpg","0","1","0","",""
"","feedback","","html-keyboard-response","187","228481","0.0-1.0-240.0-0.0","0","0","43883","","null","","","null","26","","","","","","","","","","","","","","","",""
"","time_out","","html-keyboard-response","188","230483","0.0-1.0-242.0-0.0","0","0","43883","","null","","","null","26","","","","","","","","","","","","","","","",""
"","ITI","","html-keyboard-response","189","231484","0.0-1.0-243.0","0","0","43883","","null","","","null","26","","","","","","","","","","","","","","","NaN",""
"","S1","","html-keyboard-response","190","231636","0.0-1.0-245.0","0","0","43883","","null","","","null","27","","","","","","","","","","","","","","","",""
"","ISI","","html-keyboard-response","191","233639","0.0-1.0-246.0","0","0","43883","","null","","","null","27","NaN","","","","","","","","","","","","","","",""
"","S2","","html-keyboard-response","192","233791","0.0-1.0-247.0","0","0","43883","","null","","","null","27","","NaN","","","","","","","","","","","","","",""
"","response","","html-keyboard-response","193","233801","0.0-1.0-248.0-0.0","0","0","43883","","9","","","68","27","","","1","27","training","adjacent","EF","5","6","N.jpg","M.jpg","0","1","0","",""
"","feedback","","html-keyboard-response","194","234804","0.0-1.0-249.0-0.0","0","0","43883","","null","","","null","27","","","","","","","","","","","","","","","",""
"","time_out","","html-keyboard-response","195","236806","0.0-1.0-251.0-0.0","0","0","43883","","null","","","null","27","","","","","","","","","","","","","","","",""
"","ITI","","html-keyboard-response","196","237807","0.0-1.0-252.0","0","0","43883","","null","","","null","27","","","","","","","","","","","","","","","NaN",""
"","S1","","html-keyboard-response","197","237958","0.0-1.0-254.0","0","0","43883","","null","","","null","28","","","","","","","","","","","","","","","",""
"","ISI","","html-keyboard-response","198","239961","0.0-1.0-255.0","0","0","43883","","null","","","null","28","NaN","","","","","","","","","","","","","","",""
"","S2","","html-keyboard-response","199","240114","0.0-1.0-256.0","0","0","43883","","null","","","null","28","","NaN","","","","","","","","","","","","","",""
"","response","","html-keyboard-response","200","240185","0.0-1.0-257.0-0.0","0","0","43883","","71","","","75","28","","","1","28","training","adjacent","GF","7","6","R.jpg","M.jpg","1","0","0","",""
"","feedback","","html-keyboard-response","201","241190","0.0-1.0-258.0-0.0","0","0","43883","","null","","","null","28","","","","","","","","","","","","","","","",""
"","time_out","","html-keyboard-response","202","243192","0.0-1.0-260.0-0.0","0","0","43883","","null","","","null","28","","","","","","","","","","","","","","","",""
"","ITI","","html-keyboard-response","203","244194","0.0-1.0-261.0","0","0","43883","","null","","","null","28","","","","","","","","","","","","","","","NaN",""
"","S1","","html-keyboard-response","204","244346","0.0-1.0-263.0","0","0","43883","","null","","","null","29","","","","","","","","","","","","","","","",""
"","ISI","","html-keyboard-response","205","246348","0.0-1.0-264.0","0","0","43883","","null","","","null","29","NaN","","","","","","","","","","","","","","",""
"","S2","","html-keyboard-response","206","246501","0.0-1.0-265.0","0","0","43883","","null","","","null","29","","NaN","","","","","","","","","","","","","",""
"","response","","html-keyboard-response","207","246892","0.0-1.0-266.0-0.0","0","0","43883","","389","","","68","29","","","1","29","training","adjacent","DE","4","5","L.jpg","N.jpg","0","1","0","",""
"","feedback","","html-keyboard-response","208","247895","0.0-1.0-267.0-0.0","0","0","43883","","null","","","null","29","","","","","","","","","","","","","","","",""
"","time_out","","html-keyboard-response","209","249907","0.0-1.0-269.0-0.0","0","0","43883","","null","","","null","29","","","","","","","","","","","","","","","",""
"","ITI","","html-keyboard-response","210","250908","0.0-1.0-270.0","0","0","43883","","null","","","null","29","","","","","","","","","","","","","","","NaN",""
"","S1","","html-keyboard-response","211","251060","0.0-1.0-272.0","0","0","43883","","null","","","null","30","","","","","","","","","","","","","","","",""
"","ISI","","html-keyboard-response","212","253061","0.0-1.0-273.0","0","0","43883","","null","","","null","30","NaN","","","","","","","","","","","","","","",""
"","S2","","html-keyboard-response","213","253213","0.0-1.0-274.0","0","0","43883","","null","","","null","30","","NaN","","","","","","","","","","","","","",""
"","response","","html-keyboard-response","214","253433","0.0-1.0-275.0-0.0","0","0","43883","","219","","","75","30","","","1","30","training","adjacent","DC","4","3","L.jpg","O.jpg","1","0","0","",""
"","feedback","","html-keyboard-response","215","254435","0.0-1.0-276.0-0.0","0","0","43883","","null","","","null","30","","","","","","","","","","","","","","","",""
"","time_out","","html-keyboard-response","216","256437","0.0-1.0-278.0-0.0","0","0","43883","","null","","","null","30","","","","","","","","","","","","","","","",""
"","ITI","","html-keyboard-response","217","257440","0.0-1.0-279.0","0","0","43883","","null","","","null","30","","","","","","","","","","","","","","","NaN",""
"","S1","","html-keyboard-response","218","257592","0.0-1.0-281.0","0","0","43883","","null","","","null","31","","","","","","","","","","","","","","","",""
"","ISI","","html-keyboard-response","219","259594","0.0-1.0-282.0","0","0","43883","","null","","","null","31","NaN","","","","","","","","","","","","","","",""
"","S2","","html-keyboard-response","220","259686","0.0-1.0-283.0","0","0","43883","","92","","","68","31","","d","1","31","training","adjacent","DE","4","5","L.jpg","N.jpg","0","1","0","",""
"","feedback","","html-keyboard-response","221","260688","0.0-1.0-285.0-0.0","0","0","43883","","null","","","null","31","","","","","","","","","","","","","","","",""
"","time_out","","html-keyboard-response","222","262690","0.0-1.0-287.0-0.0","0","0","43883","","null","","","null","31","","","","","","","","","","","","","","","",""
"","ITI","","html-keyboard-response","223","263691","0.0-1.0-288.0","0","0","43883","","null","","","null","31","","","","","","","","","","","","","","","NaN",""
"","S1","","html-keyboard-response","224","263843","0.0-1.0-290.0","0","0","43883","","null","","","null","32","","","","","","","","","","","","","","","",""
"","ISI","","html-keyboard-response","225","265844","0.0-1.0-291.0","0","0","43883","","null","","","null","32","NaN","","","","","","","","","","","","","","",""
"","S2","","html-keyboard-response","226","265997","0.0-1.0-292.0","0","0","43883","","null","","","null","32","","NaN","","","","","","","","","","","","","",""
"","response","","html-keyboard-response","227","266230","0.0-1.0-293.0-0.0","0","0","43883","","232","","","75","32","","","1","32","training","adjacent","CB","3","2","O.jpg","Q.jpg","1","0","0","",""
"","feedback","","html-keyboard-response","228","267232","0.0-1.0-294.0-0.0","0","0","43883","","null","","","null","32","","","","","","","","","","","","","","","",""
"","time_out","","html-keyboard-response","229","269233","0.0-1.0-296.0-0.0","0","0","43883","","null","","","null","32","","","","","","","","","","","","","","","",""
"","ITI","","html-keyboard-response","230","270235","0.0-1.0-297.0","0","0","43883","","null","","","null","32","","","","","","","","","","","","","","","NaN",""
"","S1","","html-keyboard-response","231","270386","0.0-1.0-299.0","0","0","43883","","null","","","null","33","","","","","","","","","","","","","","","",""
"","ISI","","html-keyboard-response","232","272388","0.0-1.0-300.0","0","0","43883","","1966","","","75","33","k","","","","","","","","","","","","","","",""
"","S2","","html-keyboard-response","233","272424","0.0-1.0-301.0","0","0","43883","","36","","","75","33","","k","1","33","training","adjacent","FE","6","5","M.jpg","N.jpg","1","0","0","",""
"","feedback","","html-keyboard-response","234","273426","0.0-1.0-303.0-0.0","0","0","43883","","null","","","null","33","","","","","","","","","","","","","","","",""
"","time_out","","html-keyboard-response","235","275428","0.0-1.0-305.0-0.0","0","0","43883","","null","","","null","33","","","","","","","","","","","","","","","",""
"","ITI","","html-keyboard-response","236","276430","0.0-1.0-306.0","0","0","43883","","null","","","null","33","","","","","","","","","","","","","","","NaN",""
"","S1","","html-keyboard-response","237","276582","0.0-1.0-308.0","0","0","43883","","null","","","null","34","","","","","","","","","","","","","","","",""
"","ISI","","html-keyboard-response","238","278584","0.0-1.0-309.0","0","0","43883","","null","","","null","34","NaN","","","","","","","","","","","","","","",""
"","S2","","html-keyboard-response","239","278736","0.0-1.0-310.0","0","0","43883","","null","","","null","34","","NaN","","","","","","","","","","","","","",""
"","response","","html-keyboard-response","240","278914","0.0-1.0-311.0-0.0","0","0","43883","","178","","","68","34","","","1","34","training","adjacent","GF","7","6","R.jpg","M.jpg","0","0","1","",""
"","feedback","","html-keyboard-response","241","279916","0.0-1.0-312.0-0.0","0","0","43883","","null","","","null","34","","","","","","","","","","","","","","","",""
"","ITI","","html-keyboard-response","242","280918","0.0-1.0-315.0","0","0","43883","","null","","","null","34","","","","","","","","","","","","","","","NaN",""
"","S1","","html-keyboard-response","243","281069","0.0-1.0-317.0","0","0","43883","","null","","","null","35","","","","","","","","","","","","","","","",""
"","ISI","","html-keyboard-response","244","283071","0.0-1.0-318.0","0","0","43883","","null","","","null","35","NaN","","","","","","","","","","","","","","",""
"","S2","","html-keyboard-response","245","283224","0.0-1.0-319.0","0","0","43883","","null","","","null","35","","NaN","","","","","","","","","","","","","",""
"","response","","html-keyboard-response","246","283255","0.0-1.0-320.0-0.0","0","0","43883","","31","","","68","35","","","1","35","training","adjacent","CD","3","4","O.jpg","L.jpg","0","1","0","",""
"","feedback","","html-keyboard-response","247","284257","0.0-1.0-321.0-0.0","0","0","43883","","null","","","null","35","","","","","","","","","","","","","","","",""
"","time_out","","html-keyboard-response","248","286258","0.0-1.0-323.0-0.0","0","0","43883","","null","","","null","35","","","","","","","","","","","","","","","",""
"","ITI","","html-keyboard-response","249","287259","0.0-1.0-324.0","0","0","43883","","null","","","null","35","","","","","","","","","","","","","","","NaN",""
"","S1","","html-keyboard-response","250","287411","0.0-1.0-326.0","0","0","43883","","null","","","null","36","","","","","","","","","","","","","","","",""
"","ISI","","html-keyboard-response","251","289413","0.0-1.0-327.0","0","0","43883","","1936","","","68","36","d","","","","","","","","","","","","","","",""
"","S2","","html-keyboard-response","252","289538","0.0-1.0-328.0","0","0","43883","","124","","","68","36","","d","1","36","training","adjacent","AB","1","2","P.jpg","Q.jpg","0","1","0","",""
"","feedback","","html-keyboard-response","253","290541","0.0-1.0-330.0-0.0","0","0","43883","","null","","","null","36","","","","","","","","","","","","","","","",""
"","time_out","","html-keyboard-response","254","292542","0.0-1.0-332.0-0.0","0","0","43883","","null","","","null","36","","","","","","","","","","","","","","","",""
"","ITI","","html-keyboard-response","255","293543","0.0-1.0-333.0","0","0","43883","","null","","","null","36","","","","","","","","","","","","","","","NaN",""
"","S1","","html-keyboard-response","256","293695","0.0-1.0-335.0","0","0","43883","","null","","","null","37","","","","","","","","","","","","","","","",""
"","ISI","","html-keyboard-response","257","295697","0.0-1.0-336.0","0","0","43883","","null","","","null","37","NaN","","","","","","","","","","","","","","",""
"","S2","","html-keyboard-response","258","295849","0.0-1.0-337.0","0","0","43883","","null","","","null","37","","NaN","","","","","","","","","","","","","",""
"","response","","html-keyboard-response","259","295938","0.0-1.0-338.0-0.0","0","0","43883","","88","","","68","37","","","1","37","training","adjacent","GF","7","6","R.jpg","M.jpg","0","0","1","",""
"","feedback","","html-keyboard-response","260","296939","0.0-1.0-339.0-0.0","0","0","43883","","null","","","null","37","","","","","","","","","","","","","","","",""
"","ITI","","html-keyboard-response","261","297941","0.0-1.0-342.0","0","0","43883","","null","","","null","37","","","","","","","","","","","","","","","NaN",""
"","S1","","html-keyboard-response","262","298092","0.0-1.0-344.0","0","0","43883","","null","","","null","38","","","","","","","","","","","","","","","",""
"","ISI","","html-keyboard-response","263","300093","0.0-1.0-345.0","0","0","43883","","null","","","null","38","NaN","","","","","","","","","","","","","","",""
"","S2","","html-keyboard-response","264","300246","0.0-1.0-346.0","0","0","43883","","null","","","null","38","","NaN","","","","","","","","","","","","","",""
"","response","","html-keyboard-response","265","300298","0.0-1.0-347.0-0.0","0","0","43883","","51","","","68","38","","","1","38","training","adjacent","EF","5","6","N.jpg","M.jpg","0","1","0","",""
"","feedback","","html-keyboard-response","266","301300","0.0-1.0-348.0-0.0","0","0","43883","","null","","","null","38","","","","","","","","","","","","","","","",""
"","time_out","","html-keyboard-response","267","303302","0.0-1.0-350.0-0.0","0","0","43883","","null","","","null","38","","","","","","","","","","","","","","","",""
"","ITI","","html-keyboard-response","268","304305","0.0-1.0-351.0","0","0","43883","","null","","","null","38","","","","","","","","","","","","","","","NaN",""
"","S1","","html-keyboard-response","269","304457","0.0-1.0-353.0","0","0","43883","","null","","","null","39","","","","","","","","","","","","","","","",""
"","ISI","","html-keyboard-response","270","306458","0.0-1.0-354.0","0","0","43883","","1901","","","75","39","k","","","","","","","","","","","","","","",""
"","S2","","html-keyboard-response","271","306605","0.0-1.0-355.0","0","0","43883","","145","","","75","39","","k","1","39","training","adjacent","GF","7","6","R.jpg","M.jpg","1","0","0","",""
"","feedback","","html-keyboard-response","272","307607","0.0-1.0-357.0-0.0","0","0","43883","","null","","","null","39","","","","","","","","","","","","","","","",""
"","time_out","","html-keyboard-response","273","309611","0.0-1.0-359.0-0.0","0","0","43883","","null","","","null","39","","","","","","","","","","","","","","","",""
"","ITI","","html-keyboard-response","274","310612","0.0-1.0-360.0","0","0","43883","","null","","","null","39","","","","","","","","","","","","","","","NaN",""
"","S1","","html-keyboard-response","275","310778","0.0-1.0-362.0","0","0","43883","","null","","","null","40","","","","","","","","","","","","","","","",""
"","ISI","","html-keyboard-response","276","312780","0.0-1.0-363.0","0","0","43883","","null","","","null","40","NaN","","","","","","","","","","","","","","",""
"","S2","","html-keyboard-response","277","312933","0.0-1.0-364.0","0","0","43883","","null","","","null","40","","NaN","","","","","","","","","","","","","",""
"","response","","html-keyboard-response","278","313139","0.0-1.0-365.0-0.0","0","0","43883","","204","","","68","40","","","1","40","training","adjacent","AB","1","2","P.jpg","Q.jpg","0","1","0","",""
"","feedback","","html-keyboard-response","279","314141","0.0-1.0-366.0-0.0","0","0","43883","","null","","","null","40","","","","","","","","","","","","","","","",""
"","time_out","","html-keyboard-response","280","316142","0.0-1.0-368.0-0.0","0","0","43883","","null","","","null","40","","","","","","","","","","","","","","","",""
"","ITI","","html-keyboard-response","281","317145","0.0-1.0-369.0","0","0","43883","","null","","","null","40","","","","","","","","","","","","","","","NaN",""
"","S1","","html-keyboard-response","282","317296","0.0-1.0-371.0","0","0","43883","","null","","","null","41","","","","","","","","","","","","","","","",""
"","ISI","","html-keyboard-response","283","319298","0.0-1.0-372.0","0","0","43883","","null","","","null","41","NaN","","","","","","","","","","","","","","",""
"","S2","","html-keyboard-response","284","319450","0.0-1.0-373.0","0","0","43883","","null","","","null","41","","NaN","","","","","","","","","","","","","",""
"","response","","html-keyboard-response","285","319643","0.0-1.0-374.0-0.0","0","0","43883","","191","","","75","41","","","1","41","training","adjacent","DE","4","5","L.jpg","N.jpg","1","1","1","",""
"","feedback","","html-keyboard-response","286","320644","0.0-1.0-375.0-0.0","0","0","43883","","null","","","null","41","","","","","","","","","","","","","","","",""
"","ITI","","html-keyboard-response","287","321647","0.0-1.0-378.0","0","0","43883","","null","","","null","41","","","","","","","","","","","","","","","NaN",""
"","S1","","html-keyboard-response","288","321799","0.0-1.0-380.0","0","0","43883","","null","","","null","42","","","","","","","","","","","","","","","",""
"","ISI","","html-keyboard-response","289","323800","0.0-1.0-381.0","0","0","43883","","null","","","null","42","NaN","","","","","","","","","","","","","","",""
"","S2","","html-keyboard-response","290","323952","0.0-1.0-382.0","0","0","43883","","null","","","null","42","","NaN","","","","","","","","","","","","","",""
"","response","","html-keyboard-response","291","324425","0.0-1.0-383.0-0.0","0","0","43883","","471","","","75","42","","","1","42","training","adjacent","FE","6","5","M.jpg","N.jpg","1","0","0","",""
"","feedback","","html-keyboard-response","292","325427","0.0-1.0-384.0-0.0","0","0","43883","","null","","","null","42","","","","","","","","","","","","","","","",""
"","time_out","","html-keyboard-response","293","327429","0.0-1.0-386.0-0.0","0","0","43883","","null","","","null","42","","","","","","","","","","","","","","","",""
"","ITI","","html-keyboard-response","294","328432","0.0-1.0-387.0","0","0","43883","","null","","","null","42","","","","","","","","","","","","","","","NaN",""
"","S1","","html-keyboard-response","295","328584","0.0-1.0-389.0","0","0","43883","","null","","","null","43","","","","","","","","","","","","","","","",""
"","ISI","","html-keyboard-response","296","330585","0.0-1.0-390.0","0","0","43883","","null","","","null","43","NaN","","","","","","","","","","","","","","",""
"","S2","","html-keyboard-response","297","330736","0.0-1.0-391.0","0","0","43883","","null","","","null","43","","NaN","","","","","","","","","","","","","",""
"","response","","html-keyboard-response","298","330973","0.0-1.0-392.0-0.0","0","0","43883","","235","","","68","43","","","1","43","training","adjacent","BA","2","1","Q.jpg","P.jpg","0","0","1","",""
"","feedback","","html-keyboard-response","299","331974","0.0-1.0-393.0-0.0","0","0","43883","","null","","","null","43","","","","","","","","","","","","","","","",""
"","ITI","","html-keyboard-response","300","332976","0.0-1.0-396.0","0","0","43883","","null","","","null","43","","","","","","","","","","","","","","","NaN",""
"","S1","","html-keyboard-response","301","333128","0.0-1.0-398.0","0","0","43883","","null","","","null","44","","","","","","","","","","","","","","","",""
"","ISI","","html-keyboard-response","302","335129","0.0-1.0-399.0","0","0","43883","","null","","","null","44","NaN","","","","","","","","","","","","","","",""
"","S2","","html-keyboard-response","303","335282","0.0-1.0-400.0","0","0","43883","","null","","","null","44","","NaN","","","","","","","","","","","","","",""
"","response","","html-keyboard-response","304","335600","0.0-1.0-401.0-0.0","0","0","43883","","318","","","68","44","","","1","44","training","adjacent","CB","3","2","O.jpg","Q.jpg","0","0","1","",""
"","feedback","","html-keyboard-response","305","336602","0.0-1.0-402.0-0.0","0","0","43883","","null","","","null","44","","","","","","","","","","","","","","","",""
"","ITI","","html-keyboard-response","306","337604","0.0-1.0-405.0","0","0","43883","","null","","","null","44","","","","","","","","","","","","","","","NaN",""
"","S1","","html-keyboard-response","307","337755","0.0-1.0-407.0","0","0","43883","","null","","","null","45","","","","","","","","","","","","","","","",""
"","ISI","","html-keyboard-response","308","339757","0.0-1.0-408.0","0","0","43883","","null","","","null","45","NaN","","","","","","","","","","","","","","",""
"","S2","","html-keyboard-response","309","339909","0.0-1.0-409.0","0","0","43883","","null","","","null","45","","NaN","","","","","","","","","","","","","",""
"","response","","html-keyboard-response","310","339923","0.0-1.0-410.0-0.0","0","0","43883","","12","","","68","45","","","1","45","training","adjacent","EF","5","6","N.jpg","M.jpg","0","1","0","",""
"","feedback","","html-keyboard-response","311","340925","0.0-1.0-411.0-0.0","0","0","43883","","null","","","null","45","","","","","","","","","","","","","","","",""
"","time_out","","html-keyboard-response","312","342927","0.0-1.0-413.0-0.0","0","0","43883","","null","","","null","45","","","","","","","","","","","","","","","",""
"","ITI","","html-keyboard-response","313","343929","0.0-1.0-414.0","0","0","43883","","null","","","null","45","","","","","","","","","","","","","","","NaN",""
"","S1","","html-keyboard-response","314","344080","0.0-1.0-416.0","0","0","43883","","null","","","null","46","","","","","","","","","","","","","","","",""
"","ISI","","html-keyboard-response","315","346088","0.0-1.0-417.0","0","0","43883","","1704","","","75","46","k","","","","","","","","","","","","","","",""
"","S2","","html-keyboard-response","316","346203","0.0-1.0-418.0","0","0","43883","","114","","","75","46","","k","1","46","training","adjacent","DC","4","3","L.jpg","O.jpg","1","0","0","",""
"","feedback","","html-keyboard-response","317","347205","0.0-1.0-420.0-0.0","0","0","43883","","null","","","null","46","","","","","","","","","","","","","","","",""
"","time_out","","html-keyboard-response","318","349207","0.0-1.0-422.0-0.0","0","0","43883","","null","","","null","46","","","","","","","","","","","","","","","",""
"","ITI","","html-keyboard-response","319","350208","0.0-1.0-423.0","0","0","43883","","null","","","null","46","","","","","","","","","","","","","","","NaN",""
"","S1","","html-keyboard-response","320","350360","0.0-1.0-425.0","0","0","43883","","null","","","null","47","","","","","","","","","","","","","","","",""
"","ISI","","html-keyboard-response","321","352362","0.0-1.0-426.0","0","0","43883","","1707","","","68","47","d","","","","","","","","","","","","","","",""
"","S2","","html-keyboard-response","322","352514","0.0-1.0-427.0","0","0","43883","","null","","","null","47","","NaN","","","","","","","","","","","","","",""
"","response","","html-keyboard-response","323","352927","0.0-1.0-428.0-0.0","0","0","43883","","412","","","68","47","","","1","47","training","adjacent","AB","1","2","P.jpg","Q.jpg","0","1","0","",""
"","feedback","","html-keyboard-response","324","353930","0.0-1.0-429.0-0.0","0","0","43883","","null","","","null","47","","","","","","","","","","","","","","","",""
"","time_out","","html-keyboard-response","325","355933","0.0-1.0-431.0-0.0","0","0","43883","","null","","","null","47","","","","","","","","","","","","","","","",""
"","ITI","","html-keyboard-response","326","356934","0.0-1.0-432.0","0","0","43883","","null","","","null","47","","","","","","","","","","","","","","","NaN",""
"","block_over","","html-keyboard-response","327","362849","0.0-1.0-433.0-0.0","0","0","43883","","5914","","","32","47","","","","","","","","","","","","","","","",""
"","S1","","html-keyboard-response","328","363000","0.0-1.0-434.0","0","0","43883","","null","","","null","48","","","","","","","","","","","","","","","",""
"","ISI","","html-keyboard-response","329","365002","0.0-1.0-435.0","0","0","43883","","1716","","","75","48","k","","","","","","","","","","","","","","",""
"","S2","","html-keyboard-response","330","365056","0.0-1.0-436.0","0","0","43883","","52","","","75","48","","k","2","48","training","adjacent","FE","6","5","M.jpg","N.jpg","1","0","0","",""
"","feedback","","html-keyboard-response","331","366059","0.0-1.0-438.0-0.0","0","0","43883","","null","","","null","48","","","","","","","","","","","","","","","",""
"","time_out","","html-keyboard-response","332","368061","0.0-1.0-440.0-0.0","0","0","43883","","null","","","null","48","","","","","","","","","","","","","","","",""
"","ITI","","html-keyboard-response","333","369063","0.0-1.0-441.0","0","0","43883","","null","","","null","48","","","","","","","","","","","","","","","NaN",""
"","S1","","html-keyboard-response","334","369216","0.0-1.0-443.0","0","0","43883","","null","","","null","49","","","","","","","","","","","","","","","",""
"","ISI","","html-keyboard-response","335","371218","0.0-1.0-444.0","0","0","43883","","99","","","68","49","d","","","","","","","","","","","","","","",""
"","S2","","html-keyboard-response","336","371371","0.0-1.0-445.0","0","0","43883","","null","","","null","49","","NaN","","","","","","","","","","","","","",""
"","response","","html-keyboard-response","337","371444","0.0-1.0-446.0-0.0","0","0","43883","","72","","","68","49","","","2","49","training","adjacent","BA","2","1","Q.jpg","P.jpg","0","0","1","",""
"","feedback","","html-keyboard-response","338","372446","0.0-1.0-447.0-0.0","0","0","43883","","null","","","null","49","","","","","","","","","","","","","","","",""
"","ITI","","html-keyboard-response","339","373447","0.0-1.0-450.0","0","0","43883","","null","","","null","49","","","","","","","","","","","","","","","NaN",""
"","S1","","html-keyboard-response","340","373598","0.0-1.0-452.0","0","0","43883","","null","","","null","50","","","","","","","","","","","","","","","",""
"","ISI","","html-keyboard-response","341","375600","0.0-1.0-453.0","0","0","43883","","null","","","null","50","NaN","","","","","","","","","","","","","","",""
"","S2","","html-keyboard-response","342","375754","0.0-1.0-454.0","0","0","43883","","null","","","null","50","","NaN","","","","","","","","","","","","","",""
"","response","","html-keyboard-response","343","376124","0.0-1.0-455.0-0.0","0","0","43883","","370","","","68","50","","","2","50","training","adjacent","ED","5","4","N.jpg","L.jpg","0","0","1","",""
"","feedback","","html-keyboard-response","344","377139","0.0-1.0-456.0-0.0","0","0","43883","","null","","","null","50","","","","","","","","","","","","","","","",""
"","ITI","","html-keyboard-response","345","378140","0.0-1.0-459.0","0","0","43883","","null","","","null","50","","","","","","","","","","","","","","","NaN",""
"","S1","","html-keyboard-response","346","378292","0.0-1.0-461.0","0","0","43883","","null","","","null","51","","","","","","","","","","","","","","","",""
"","ISI","","html-keyboard-response","347","380292","0.0-1.0-462.0","0","0","43883","","null","","","null","51","NaN","","","","","","","","","","","","","","",""
"","S2","","html-keyboard-response","348","380445","0.0-1.0-463.0","0","0","43883","","null","","","null","51","","NaN","","","","","","","","","","","","","",""
"","response","","html-keyboard-response","349","380816","0.0-1.0-464.0-0.0","0","0","43883","","371","","","68","51","","","2","51","training","adjacent","AB","1","2","P.jpg","Q.jpg","0","1","0","",""
"","feedback","","html-keyboard-response","350","381818","0.0-1.0-465.0-0.0","0","0","43883","","null","","","null","51","","","","","","","","","","","","","","","",""
"","time_out","","html-keyboard-response","351","383820","0.0-1.0-467.0-0.0","0","0","43883","","null","","","null","51","","","","","","","","","","","","","","","",""
"","ITI","","html-keyboard-response","352","384824","0.0-1.0-468.0","0","0","43883","","null","","","null","51","","","","","","","","","","","","","","","NaN",""
"","S1","","html-keyboard-response","353","384976","0.0-1.0-470.0","0","0","43883","","null","","","null","52","","","","","","","","","","","","","","","",""
"","ISI","","html-keyboard-response","354","386978","0.0-1.0-471.0","0","0","43883","","null","","","null","52","NaN","","","","","","","","","","","","","","",""
"","S2","","html-keyboard-response","355","387130","0.0-1.0-472.0","0","0","43883","","null","","","null","52","","NaN","","","","","","","","","","","","","",""
"","response","","html-keyboard-response","356","387535","0.0-1.0-473.0-0.0","0","0","43883","","404","","","75","52","","","2","52","training","adjacent","BA","2","1","Q.jpg","P.jpg","1","0","0","",""
"","feedback","","html-keyboard-response","357","388537","0.0-1.0-474.0-0.0","0","0","43883","","null","","","null","52","","","","","","","","","","","","","","","",""
"","time_out","","html-keyboard-response","358","390547","0.0-1.0-476.0-0.0","0","0","43883","","null","","","null","52","","","","","","","","","","","","","","","",""
"","ITI","","html-keyboard-response","359","391548","0.0-1.0-477.0","0","0","43883","","null","","","null","52","","","","","","","","","","","","","","","NaN",""
"","S1","","html-keyboard-response","360","391700","0.0-1.0-479.0","0","0","43883","","null","","","null","53","","","","","","","","","","","","","","","",""
"","ISI","","html-keyboard-response","361","393702","0.0-1.0-480.0","0","0","43883","","null","","","null","53","NaN","","","","","","","","","","","","","","",""
"","S2","","html-keyboard-response","362","393869","0.0-1.0-481.0","0","0","43883","","null","","","null","53","","NaN","","","","","","","","","","","","","",""
"","response","","html-keyboard-response","363","394147","0.0-1.0-482.0-0.0","0","0","43883","","277","","","68","53","","","2","53","training","adjacent","CB","3","2","O.jpg","Q.jpg","0","0","1","",""
"","feedback","","html-keyboard-response","364","395149","0.0-1.0-483.0-0.0","0","0","43883","","null","","","null","53","","","","","","","","","","","","","","","",""
"","ITI","","html-keyboard-response","365","396151","0.0-1.0-486.0","0","0","43883","","null","","","null","53","","","","","","","","","","","","","","","NaN",""
"","S1","","html-keyboard-response","366","396304","0.0-1.0-488.0","0","0","43883","","null","","","null","54","","","","","","","","","","","","","","","",""
"","ISI","","html-keyboard-response","367","398305","0.0-1.0-489.0","0","0","43883","","null","","","null","54","NaN","","","","","","","","","","","","","","",""
"","S2","","html-keyboard-response","368","398458","0.0-1.0-490.0","0","0","43883","","null","","","null","54","","NaN","","","","","","","","","","","","","",""
"","response","","html-keyboard-response","369","398759","0.0-1.0-491.0-0.0","0","0","43883","","300","","","68","54","","","2","54","training","adjacent","CD","3","4","O.jpg","L.jpg","0","1","0","",""
"","feedback","","html-keyboard-response","370","399762","0.0-1.0-492.0-0.0","0","0","43883","","null","","","null","54","","","","","","","","","","","","","","","",""
"","time_out","","html-keyboard-response","371","401763","0.0-1.0-494.0-0.0","0","0","43883","","null","","","null","54","","","","","","","","","","","","","","","",""
"","ITI","","html-keyboard-response","372","402765","0.0-1.0-495.0","0","0","43883","","null","","","null","54","","","","","","","","","","","","","","","NaN",""
"","S1","","html-keyboard-response","373","402917","0.0-1.0-497.0","0","0","43883","","null","","","null","55","","","","","","","","","","","","","","","",""
"","ISI","","html-keyboard-response","374","404919","0.0-1.0-498.0","0","0","43883","","null","","","null","55","NaN","","","","","","","","","","","","","","",""
"","S2","","html-keyboard-response","375","405072","0.0-1.0-499.0","0","0","43883","","null","","","null","55","","NaN","","","","","","","","","","","","","",""
"","response","","html-keyboard-response","376","405534","0.0-1.0-500.0-0.0","0","0","43883","","462","","","75","55","","","2","55","training","adjacent","EF","5","6","N.jpg","M.jpg","1","1","1","",""
"","feedback","","html-keyboard-response","377","406537","0.0-1.0-501.0-0.0","0","0","43883","","null","","","null","55","","","","","","","","","","","","","","","",""
"","ITI","","html-keyboard-response","378","407539","0.0-1.0-504.0","0","0","43883","","null","","","null","55","","","","","","","","","","","","","","","NaN",""
"","S1","","html-keyboard-response","379","407692","0.0-1.0-506.0","0","0","43883","","null","","","null","56","","","","","","","","","","","","","","","",""
"","ISI","","html-keyboard-response","380","409695","0.0-1.0-507.0","0","0","43883","","null","","","null","56","NaN","","","","","","","","","","","","","","",""
"","S2","","html-keyboard-response","381","409847","0.0-1.0-508.0","0","0","43883","","null","","","null","56","","NaN","","","","","","","","","","","","","",""
"","response","","html-keyboard-response","382","410028","0.0-1.0-509.0-0.0","0","0","43883","","180","","","75","56","","","2","56","training","adjacent","GF","7","6","R.jpg","M.jpg","1","0","0","",""
"","feedback","","html-keyboard-response","383","411031","0.0-1.0-510.0-0.0","0","0","43883","","null","","","null","56","","","","","","","","","","","","","","","",""
"","time_out","","html-keyboard-response","384","413033","0.0-1.0-512.0-0.0","0","0","43883","","null","","","null","56","","","","","","","","","","","","","","","",""
"","ITI","","html-keyboard-response","385","414035","0.0-1.0-513.0","0","0","43883","","null","","","null","56","","","","","","","","","","","","","","","NaN",""
"","S1","","html-keyboard-response","386","414187","0.0-1.0-515.0","0","0","43883","","null","","","null","57","","","","","","","","","","","","","","","",""
"","ISI","","html-keyboard-response","387","416189","0.0-1.0-516.0","0","0","43883","","null","","","null","57","NaN","","","","","","","","","","","","","","",""
"","S2","","html-keyboard-response","388","416341","0.0-1.0-517.0","0","0","43883","","null","","","null","57","","NaN","","","","","","","","","","","","","",""
"","response","","html-keyboard-response","389","416642","0.0-1.0-518.0-0.0","0","0","43883","","299","","","68","57","","","2","57","training","adjacent","DE","4","5","L.jpg","N.jpg","0","1","0","",""
"","feedback","","html-keyboard-response","390","417645","0.0-1.0-519.0-0.0","0","0","43883","","null","","","null","57","","","","","","","","","","","","","","","",""
"","time_out","","html-keyboard-response","391","419647","0.0-1.0-521.0-0.0","0","0","43883","","null","","","null","57","","","","","","","","","","","","","","","",""
"","ITI","","html-keyboard-response","392","420649","0.0-1.0-522.0","0","0","43883","","null","","","null","57","","","","","","","","","","","","","","","NaN",""
"","S1","","html-keyboard-response","393","420801","0.0-1.0-524.0","0","0","43883","","null","","","null","58","","","","","","","","","","","","","","","",""
"","ISI","","html-keyboard-response","394","422803","0.0-1.0-525.0","0","0","43883","","null","","","null","58","NaN","","","","","","","","","","","","","","",""
"","S2","","html-keyboard-response","395","422955","0.0-1.0-526.0","0","0","43883","","null","","","null","58","","NaN","","","","","","","","","","","","","",""
"","response","","html-keyboard-response","396","422962","0.0-1.0-527.0-0.0","0","0","43883","","5","","","68","58","","","2","58","training","adjacent","GF","7","6","R.jpg","M.jpg","0","0","1","",""
"","feedback","","html-keyboard-response","397","423963","0.0-1.0-528.0-0.0","0","0","43883","","null","","","null","58","","","","","","","","","","","","","","","",""
"","ITI","","html-keyboard-response","398","424965","0.0-1.0-531.0","0","0","43883","","null","","","null","58","","","","","","","","","","","","","","","NaN",""
"","S1","","html-keyboard-response","399","425117","0.0-1.0-533.0","0","0","43883","","null","","","null","59","","","","","","","","","","","","","","","",""
"","ISI","","html-keyboard-response","400","427120","0.0-1.0-534.0","0","0","43883","","null","","","null","59","NaN","","","","","","","","","","","","","","",""
"","S2","","html-keyboard-response","401","427272","0.0-1.0-535.0","0","0","43883","","null","","","null","59","","NaN","","","","","","","","","","","","","",""
"","response","","html-keyboard-response","402","427395","0.0-1.0-536.0-0.0","0","0","43883","","122","","","68","59","","","2","59","training","adjacent","FG","6","7","M.jpg","R.jpg","0","1","0","",""
"","feedback","","html-keyboard-response","403","428396","0.0-1.0-537.0-0.0","0","0","43883","","null","","","null","59","","","","","","","","","","","","","","","",""
"","time_out","","html-keyboard-response","404","430398","0.0-1.0-539.0-0.0","0","0","43883","","null","","","null","59","","","","","","","","","","","","","","","",""
"","ITI","","html-keyboard-response","405","431399","0.0-1.0-540.0","0","0","43883","","null","","","null","59","","","","","","","","","","","","","","","NaN",""
"","S1","","html-keyboard-response","406","431551","0.0-1.0-542.0","0","0","43883","","null","","","null","60","","","","","","","","","","","","","","","",""
"","ISI","","html-keyboard-response","407","433553","0.0-1.0-543.0","0","0","43883","","null","","","null","60","NaN","","","","","","","","","","","","","","",""
"","S2","","html-keyboard-response","408","433706","0.0-1.0-544.0","0","0","43883","","null","","","null","60","","NaN","","","","","","","","","","","","","",""
"","response","","html-keyboard-response","409","433757","0.0-1.0-545.0-0.0","0","0","43883","","51","","","75","60","","","2","60","training","adjacent","FG","6","7","M.jpg","R.jpg","1","1","1","",""
"","feedback","","html-keyboard-response","410","434759","0.0-1.0-546.0-0.0","0","0","43883","","null","","","null","60","","","","","","","","","","","","","","","",""
"","ITI","","html-keyboard-response","411","435761","0.0-1.0-549.0","0","0","43883","","null","","","null","60","","","","","","","","","","","","","","","NaN",""
"","S1","","html-keyboard-response","412","435913","0.0-1.0-551.0","0","0","43883","","null","","","null","61","","","","","","","","","","","","","","","",""
"","ISI","","html-keyboard-response","413","437915","0.0-1.0-552.0","0","0","43883","","null","","","null","61","NaN","","","","","","","","","","","","","","",""
"","S2","","html-keyboard-response","414","438067","0.0-1.0-553.0","0","0","43883","","null","","","null","61","","NaN","","","","","","","","","","","","","",""
"","response","","html-keyboard-response","415","438161","0.0-1.0-554.0-0.0","0","0","43883","","92","","","75","61","","","2","61","training","adjacent","DC","4","3","L.jpg","O.jpg","1","0","0","",""
"","feedback","","html-keyboard-response","416","439162","0.0-1.0-555.0-0.0","0","0","43883","","null","","","null","61","","","","","","","","","","","","","","","",""
"","time_out","","html-keyboard-response","417","441164","0.0-1.0-557.0-0.0","0","0","43883","","null","","","null","61","","","","","","","","","","","","","","","",""
"","ITI","","html-keyboard-response","418","442167","0.0-1.0-558.0","0","0","43883","","null","","","null","61","","","","","","","","","","","","","","","NaN",""
"","S1","","html-keyboard-response","419","442319","0.0-1.0-560.0","0","0","43883","","null","","","null","62","","","","","","","","","","","","","","","",""
"","ISI","","html-keyboard-response","420","444321","0.0-1.0-561.0","0","0","43883","","null","","","null","62","NaN","","","","","","","","","","","","","","",""
"","S2","","html-keyboard-response","421","444474","0.0-1.0-562.0","0","0","43883","","null","","","null","62","","NaN","","","","","","","","","","","","","",""
"","response","","html-keyboard-response","422","445408","0.0-1.0-563.0-0.0","0","0","43883","","932","","","68","62","","","2","62","training","adjacent","GF","7","6","R.jpg","M.jpg","0","0","1","",""
"","feedback","","html-keyboard-response","423","446409","0.0-1.0-564.0-0.0","0","0","43883","","null","","","null","62","","","","","","","","","","","","","","","",""
"","ITI","","html-keyboard-response","424","447411","0.0-1.0-567.0","0","0","43883","","null","","","null","62","","","","","","","","","","","","","","","NaN",""
"","S1","","html-keyboard-response","425","447563","0.0-1.0-569.0","0","0","43883","","null","","","null","63","","","","","","","","","","","","","","","",""
"","ISI","","html-keyboard-response","426","449564","0.0-1.0-570.0","0","0","43883","","null","","","null","63","NaN","","","","","","","","","","","","","","",""
"","S2","","html-keyboard-response","427","449717","0.0-1.0-571.0","0","0","43883","","null","","","null","63","","NaN","","","","","","","","","","","","","",""
"","response","","html-keyboard-response","428","450141","0.0-1.0-572.0-0.0","0","0","43883","","423","","","68","63","","","2","63","training","adjacent","BC","2","3","Q.jpg","O.jpg","0","1","0","",""
"","feedback","","html-keyboard-response","429","451143","0.0-1.0-573.0-0.0","0","0","43883","","null","","","null","63","","","","","","","","","","","","","","","",""
"","time_out","","html-keyboard-response","430","453145","0.0-1.0-575.0-0.0","0","0","43883","","null","","","null","63","","","","","","","","","","","","","","","",""
"","ITI","","html-keyboard-response","431","454147","0.0-1.0-576.0","0","0","43883","","null","","","null","63","","","","","","","","","","","","","","","NaN",""
"","S1","","html-keyboard-response","432","454299","0.0-1.0-578.0","0","0","43883","","null","","","null","64","","","","","","","","","","","","","","","",""
"","ISI","","html-keyboard-response","433","456301","0.0-1.0-579.0","0","0","43883","","null","","","null","64","NaN","","","","","","","","","","","","","","",""
"","S2","","html-keyboard-response","434","456453","0.0-1.0-580.0","0","0","43883","","null","","","null","64","","NaN","","","","","","","","","","","","","",""
"","response","","html-keyboard-response","435","456620","0.0-1.0-581.0-0.0","0","0","43883","","167","","","75","64","","","2","64","training","adjacent","FG","6","7","M.jpg","R.jpg","1","1","1","",""
"","feedback","","html-keyboard-response","436","457623","0.0-1.0-582.0-0.0","0","0","43883","","null","","","null","64","","","","","","","","","","","","","","","",""
"","ITI","","html-keyboard-response","437","458625","0.0-1.0-585.0","0","0","43883","","null","","","null","64","","","","","","","","","","","","","","","NaN",""
"","S1","","html-keyboard-response","438","458777","0.0-1.0-587.0","0","0","43883","","null","","","null","65","","","","","","","","","","","","","","","",""
"","ISI","","html-keyboard-response","439","460778","0.0-1.0-588.0","0","0","43883","","null","","","null","65","NaN","","","","","","","","","","","","","","",""
"","S2","","html-keyboard-response","440","460843","0.0-1.0-589.0","0","0","43883","","64","","","75","65","","k","2","65","training","adjacent","ED","5","4","N.jpg","L.jpg","1","0","0","",""
"","feedback","","html-keyboard-response","441","461845","0.0-1.0-591.0-0.0","0","0","43883","","null","","","null","65","","","","","","","","","","","","","","","",""
"","time_out","","html-keyboard-response","442","463847","0.0-1.0-593.0-0.0","0","0","43883","","null","","","null","65","","","","","","","","","","","","","","","",""
"","ITI","","html-keyboard-response","443","464848","0.0-1.0-594.0","0","0","43883","","null","","","null","65","","","","","","","","","","","","","","","NaN",""
"","S1","","html-keyboard-response","444","465001","0.0-1.0-596.0","0","0","43883","","null","","","null","66","","","","","","","","","","","","","","","",""
"","ISI","","html-keyboard-response","445","467003","0.0-1.0-597.0","0","0","43883","","null","","","null","66","NaN","","","","","","","","","","","","","","",""
"","S2","","html-keyboard-response","446","467156","0.0-1.0-598.0","0","0","43883","","null","","","null","66","","NaN","","","","","","","","","","","","","",""
"","response","","html-keyboard-response","447","467288","0.0-1.0-599.0-0.0","0","0","43883","","130","","","68","66","","","2","66","training","adjacent","EF","5","6","N.jpg","M.jpg","0","1","0","",""
"","feedback","","html-keyboard-response","448","468290","0.0-1.0-600.0-0.0","0","0","43883","","null","","","null","66","","","","","","","","","","","","","","","",""
"","time_out","","html-keyboard-response","449","470292","0.0-1.0-602.0-0.0","0","0","43883","","null","","","null","66","","","","","","","","","","","","","","","",""
"","ITI","","html-keyboard-response","450","471294","0.0-1.0-603.0","0","0","43883","","null","","","null","66","","","","","","","","","","","","","","","NaN",""
"","S1","","html-keyboard-response","451","471447","0.0-1.0-605.0","0","0","43883","","null","","","null","67","","","","","","","","","","","","","","","",""
"","ISI","","html-keyboard-response","452","473449","0.0-1.0-606.0","0","0","43883","","null","","","null","67","NaN","","","","","","","","","","","","","","",""
"","S2","","html-keyboard-response","453","473602","0.0-1.0-607.0","0","0","43883","","null","","","null","67","","NaN","","","","","","","","","","","","","",""
"","response","","html-keyboard-response","454","473710","0.0-1.0-608.0-0.0","0","0","43883","","106","","","75","67","","","2","67","training","adjacent","CD","3","4","O.jpg","L.jpg","1","1","1","",""
"","feedback","","html-keyboard-response","455","474712","0.0-1.0-609.0-0.0","0","0","43883","","null","","","null","67","","","","","","","","","","","","","","","",""
"","ITI","","html-keyboard-response","456","475714","0.0-1.0-612.0","0","0","43883","","null","","","null","67","","","","","","","","","","","","","","","NaN",""
"","S1","","html-keyboard-response","457","475866","0.0-1.0-614.0","0","0","43883","","null","","","null","68","","","","","","","","","","","","","","","",""
"","ISI","","html-keyboard-response","458","477868","0.0-1.0-615.0","0","0","43883","","null","","","null","68","NaN","","","","","","","","","","","","","","",""
"","S2","","html-keyboard-response","459","478020","0.0-1.0-616.0","0","0","43883","","null","","","null","68","","NaN","","","","","","","","","","","","","",""
"","response","","html-keyboard-response","460","478127","0.0-1.0-617.0-0.0","0","0","43883","","106","","","75","68","","","2","68","training","adjacent","ED","5","4","N.jpg","L.jpg","1","0","0","",""
"","feedback","","html-keyboard-response","461","479130","0.0-1.0-618.0-0.0","0","0","43883","","null","","","null","68","","","","","","","","","","","","","","","",""
"","time_out","","html-keyboard-response","462","481147","0.0-1.0-620.0-0.0","0","0","43883","","null","","","null","68","","","","","","","","","","","","","","","",""
"","ITI","","html-keyboard-response","463","482148","0.0-1.0-621.0","0","0","43883","","null","","","null","68","","","","","","","","","","","","","","","NaN",""
"","S1","","html-keyboard-response","464","482301","0.0-1.0-623.0","0","0","43883","","null","","","null","69","","","","","","","","","","","","","","","",""
"","ISI","","html-keyboard-response","465","484302","0.0-1.0-624.0","0","0","43883","","null","","","null","69","NaN","","","","","","","","","","","","","","",""
"","S2","","html-keyboard-response","466","484453","0.0-1.0-625.0","0","0","43883","","null","","","null","69","","NaN","","","","","","","","","","","","","",""
"","response","","html-keyboard-response","467","484660","0.0-1.0-626.0-0.0","0","0","43883","","205","","","75","69","","","2","69","training","adjacent","BC","2","3","Q.jpg","O.jpg","1","1","1","",""
"","feedback","","html-keyboard-response","468","485662","0.0-1.0-627.0-0.0","0","0","43883","","null","","","null","69","","","","","","","","","","","","","","","",""
"","ITI","","html-keyboard-response","469","486664","0.0-1.0-630.0","0","0","43883","","null","","","null","69","","","","","","","","","","","","","","","NaN",""
"","S1","","html-keyboard-response","470","486816","0.0-1.0-632.0","0","0","43883","","null","","","null","70","","","","","","","","","","","","","","","",""
"","ISI","","html-keyboard-response","471","488818","0.0-1.0-633.0","0","0","43883","","null","","","null","70","NaN","","","","","","","","","","","","","","",""
"","S2","","html-keyboard-response","472","488970","0.0-1.0-634.0","0","0","43883","","null","","","null","70","","NaN","","","","","","","","","","","","","",""
"","response","","html-keyboard-response","473","489105","0.0-1.0-635.0-0.0","0","0","43883","","133","","","75","70","","","2","70","training","adjacent","FE","6","5","M.jpg","N.jpg","1","0","0","",""
"","feedback","","html-keyboard-response","474","490107","0.0-1.0-636.0-0.0","0","0","43883","","null","","","null","70","","","","","","","","","","","","","","","",""
"","time_out","","html-keyboard-response","475","492109","0.0-1.0-638.0-0.0","0","0","43883","","null","","","null","70","","","","","","","","","","","","","","","",""
"","ITI","","html-keyboard-response","476","493111","0.0-1.0-639.0","0","0","43883","","null","","","null","70","","","","","","","","","","","","","","","NaN",""
"","S1","","html-keyboard-response","477","493263","0.0-1.0-641.0","0","0","43883","","null","","","null","71","","","","","","","","","","","","","","","",""
"","ISI","","html-keyboard-response","478","495264","0.0-1.0-642.0","0","0","43883","","652","","","68","71","d","","","","","","","","","","","","","","",""
"","S2","","html-keyboard-response","479","495417","0.0-1.0-643.0","0","0","43883","","null","","","null","71","","NaN","","","","","","","","","","","","","",""
"","response","","html-keyboard-response","480","495501","0.0-1.0-644.0-0.0","0","0","43883","","82","","","68","71","","","2","71","training","adjacent","DC","4","3","L.jpg","O.jpg","0","0","1","",""
"","feedback","","html-keyboard-response","481","496503","0.0-1.0-645.0-0.0","0","0","43883","","null","","","null","71","","","","","","","","","","","","","","","",""
"","ITI","","html-keyboard-response","482","497505","0.0-1.0-648.0","0","0","43883","","null","","","null","71","","","","","","","","","","","","","","","NaN",""
"","S1","","html-keyboard-response","483","497657","0.0-1.0-650.0","0","0","43883","","null","","","null","72","","","","","","","","","","","","","","","",""
"","ISI","","html-keyboard-response","484","499660","0.0-1.0-651.0","0","0","43883","","null","","","null","72","NaN","","","","","","","","","","","","","","",""
"","S2","","html-keyboard-response","485","499812","0.0-1.0-652.0","0","0","43883","","null","","","null","72","","NaN","","","","","","","","","","","","","",""
"","response","","html-keyboard-response","486","501664","0.0-1.0-653.0-0.0","0","0","43883","","null","","","null","72","","","2","72","training","adjacent","DE","4","5","L.jpg","N.jpg","NaN","1","0","",""
"","too_slow_prompt","","html-keyboard-response","487","502667","0.0-1.0-655.0-0.0","1","0","43883","","null","","","null","","","","","","","","","","","","","","","","",""
"","time_out","","html-keyboard-response","488","504668","0.0-1.0-656.0-0.0","0","0","43883","","null","","","null","72","","","","","","","","","","","","","","","",""
"","ITI","","html-keyboard-response","489","505669","0.0-1.0-657.0","0","0","43883","","372","","","68","72","","","","","","","","","","","","","","","d",""
"","S1","","html-keyboard-response","490","505822","0.0-1.0-659.0","0","0","43883","","null","","","null","73","","","","","","","","","","","","","","","",""
"","ISI","","html-keyboard-response","491","507823","0.0-1.0-660.0","0","0","43883","","143","","","68","73","d","","","","","","","","","","","","","","",""
"","S2","","html-keyboard-response","492","507975","0.0-1.0-661.0","0","0","43883","","null","","","null","73","","NaN","","","","","","","","","","","","","",""
"","response","","html-keyboard-response","493","508317","0.0-1.0-662.0-0.0","0","0","43883","","341","","","75","73","","","2","73","training","adjacent","BA","2","1","Q.jpg","P.jpg","1","0","0","",""
"","feedback","","html-keyboard-response","494","509319","0.0-1.0-663.0-0.0","0","0","43883","","null","","","null","73","","","","","","","","","","","","","","","",""
"","time_out","","html-keyboard-response","495","511320","0.0-1.0-665.0-0.0","0","0","43883","","null","","","null","73","","","","","","","","","","","","","","","",""
"","ITI","","html-keyboard-response","496","512322","0.0-1.0-666.0","0","0","43883","","null","","","null","73","","","","","","","","","","","","","","","NaN",""
"","S1","","html-keyboard-response","497","512473","0.0-1.0-668.0","0","0","43883","","null","","","null","74","","","","","","","","","","","","","","","",""
"","ISI","","html-keyboard-response","498","514476","0.0-1.0-669.0","0","0","43883","","null","","","null","74","NaN","","","","","","","","","","","","","","",""
"","S2","","html-keyboard-response","499","514639","0.0-1.0-670.0","0","0","43883","","null","","","null","74","","NaN","","","","","","","","","","","","","",""
"","response","","html-keyboard-response","500","515127","0.0-1.0-671.0-0.0","0","0","43883","","487","","","68","74","","","2","74","training","adjacent","FE","6","5","M.jpg","N.jpg","0","0","1","",""
"","feedback","","html-keyboard-response","501","516129","0.0-1.0-672.0-0.0","0","0","43883","","null","","","null","74","","","","","","","","","","","","","","","",""
"","ITI","","html-keyboard-response","502","517131","0.0-1.0-675.0","0","0","43883","","null","","","null","74","","","","","","","","","","","","","","","NaN",""
"","S1","","html-keyboard-response","503","517283","0.0-1.0-677.0","0","0","43883","","null","","","null","75","","","","","","","","","","","","","","","",""
"","ISI","","html-keyboard-response","504","519284","0.0-1.0-678.0","0","0","43883","","null","","","null","75","NaN","","","","","","","","","","","","","","",""
"","S2","","html-keyboard-response","505","519437","0.0-1.0-679.0","0","0","43883","","null","","","null","75","","NaN","","","","","","","","","","","","","",""
"","response","","html-keyboard-response","506","519646","0.0-1.0-680.0-0.0","0","0","43883","","209","","","68","75","","","2","75","training","adjacent","EF","5","6","N.jpg","M.jpg","0","1","0","",""
"","feedback","","html-keyboard-response","507","520648","0.0-1.0-681.0-0.0","0","0","43883","","null","","","null","75","","","","","","","","","","","","","","","",""
"","time_out","","html-keyboard-response","508","522651","0.0-1.0-683.0-0.0","0","0","43883","","null","","","null","75","","","","","","","","","","","","","","","",""
"","ITI","","html-keyboard-response","509","523652","0.0-1.0-684.0","0","0","43883","","null","","","null","75","","","","","","","","","","","","","","","NaN",""
"","S1","","html-keyboard-response","510","523803","0.0-1.0-686.0","0","0","43883","","null","","","null","76","","","","","","","","","","","","","","","",""
"","ISI","","html-keyboard-response","511","525806","0.0-1.0-687.0","0","0","43883","","169","","","75","76","k","","","","","","","","","","","","","","",""
"","S2","","html-keyboard-response","512","525959","0.0-1.0-688.0","0","0","43883","","null","","","null","76","","NaN","","","","","","","","","","","","","",""
"","response","","html-keyboard-response","513","526030","0.0-1.0-689.0-0.0","0","0","43883","","70","","","75","76","","","2","76","training","adjacent","CB","3","2","O.jpg","Q.jpg","1","0","0","",""
"","feedback","","html-keyboard-response","514","527032","0.0-1.0-690.0-0.0","0","0","43883","","null","","","null","76","","","","","","","","","","","","","","","",""
"","time_out","","html-keyboard-response","515","529035","0.0-1.0-692.0-0.0","0","0","43883","","null","","","null","76","","","","","","","","","","","","","","","",""
"","ITI","","html-keyboard-response","516","530036","0.0-1.0-693.0","0","0","43883","","null","","","null","76","","","","","","","","","","","","","","","NaN",""
"","S1","","html-keyboard-response","517","530188","0.0-1.0-695.0","0","0","43883","","null","","","null","77","","","","","","","","","","","","","","","",""
"","ISI","","html-keyboard-response","518","532190","0.0-1.0-696.0","0","0","43883","","null","","","null","77","NaN","","","","","","","","","","","","","","",""
"","S2","","html-keyboard-response","519","532342","0.0-1.0-697.0","0","0","43883","","null","","","null","77","","NaN","","","","","","","","","","","","","",""
"","response","","html-keyboard-response","520","532885","0.0-1.0-698.0-0.0","0","0","43883","","541","","","68","77","","","2","77","training","adjacent","AB","1","2","P.jpg","Q.jpg","0","1","0","",""
"","feedback","","html-keyboard-response","521","533900","0.0-1.0-699.0-0.0","0","0","43883","","null","","","null","77","","","","","","","","","","","","","","","",""
"","time_out","","html-keyboard-response","522","535902","0.0-1.0-701.0-0.0","0","0","43883","","null","","","null","77","","","","","","","","","","","","","","","",""
"","ITI","","html-keyboard-response","523","536904","0.0-1.0-702.0","0","0","43883","","null","","","null","77","","","","","","","","","","","","","","","NaN",""
"","S1","","html-keyboard-response","524","537056","0.0-1.0-704.0","0","0","43883","","null","","","null","78","","","","","","","","","","","","","","","",""
"","ISI","","html-keyboard-response","525","539058","0.0-1.0-705.0","0","0","43883","","336","","","75","78","k","","","","","","","","","","","","","","",""
"","S2","","html-keyboard-response","526","539209","0.0-1.0-706.0","0","0","43883","","null","","","null","78","","NaN","","","","","","","","","","","","","",""
"","response","","html-keyboard-response","527","539467","0.0-1.0-707.0-0.0","0","0","43883","","256","","","75","78","","","2","78","training","adjacent","DE","4","5","L.jpg","N.jpg","1","1","1","",""
"","feedback","","html-keyboard-response","528","540469","0.0-1.0-708.0-0.0","0","0","43883","","null","","","null","78","","","","","","","","","","","","","","","",""
"","ITI","","html-keyboard-response","529","541471","0.0-1.0-711.0","0","0","43883","","null","","","null","78","","","","","","","","","","","","","","","NaN",""
"","S1","","html-keyboard-response","530","541623","0.0-1.0-713.0","0","0","43883","","null","","","null","79","","","","","","","","","","","","","","","",""
"","ISI","","html-keyboard-response","531","543625","0.0-1.0-714.0","0","0","43883","","null","","","null","79","NaN","","","","","","","","","","","","","","",""
"","S2","","html-keyboard-response","532","543777","0.0-1.0-715.0","0","0","43883","","null","","","null","79","","NaN","","","","","","","","","","","","","",""
"","response","","html-keyboard-response","533","544234","0.0-1.0-716.0-0.0","0","0","43883","","456","","","75","79","","","2","79","training","adjacent","GF","7","6","R.jpg","M.jpg","1","0","0","",""
"","feedback","","html-keyboard-response","534","545235","0.0-1.0-717.0-0.0","0","0","43883","","null","","","null","79","","","","","","","","","","","","","","","",""
"","time_out","","html-keyboard-response","535","547237","0.0-1.0-719.0-0.0","0","0","43883","","null","","","null","79","","","","","","","","","","","","","","","",""
"","ITI","","html-keyboard-response","536","548240","0.0-1.0-720.0","0","0","43883","","null","","","null","79","","","","","","","","","","","","","","","NaN",""
"","S1","","html-keyboard-response","537","548392","0.0-1.0-722.0","0","0","43883","","null","","","null","80","","","","","","","","","","","","","","","",""
"","ISI","","html-keyboard-response","538","550393","0.0-1.0-723.0","0","0","43883","","null","","","null","80","NaN","","","","","","","","","","","","","","",""
"","S2","","html-keyboard-response","539","550550","0.0-1.0-724.0","0","0","43883","","null","","","null","80","","NaN","","","","","","","","","","","","","",""
"","response","","html-keyboard-response","540","550669","0.0-1.0-725.0-0.0","0","0","43883","","119","","","68","80","","","2","80","training","adjacent","FG","6","7","M.jpg","R.jpg","0","1","0","",""
"","feedback","","html-keyboard-response","541","551672","0.0-1.0-726.0-0.0","0","0","43883","","null","","","null","80","","","","","","","","","","","","","","","",""
"","time_out","","html-keyboard-response","542","553674","0.0-1.0-728.0-0.0","0","0","43883","","null","","","null","80","","","","","","","","","","","","","","","",""
"","ITI","","html-keyboard-response","543","554677","0.0-1.0-729.0","0","0","43883","","null","","","null","80","","","","","","","","","","","","","","","NaN",""
"","S1","","html-keyboard-response","544","554830","0.0-1.0-731.0","0","0","43883","","null","","","null","81","","","","","","","","","","","","","","","",""
"","ISI","","html-keyboard-response","545","556831","0.0-1.0-732.0","0","0","43883","","1817","","","75","81","k","","","","","","","","","","","","","","",""
"","S2","","html-keyboard-response","546","556943","0.0-1.0-733.0","0","0","43883","","110","","","75","81","","k","2","81","training","adjacent","DE","4","5","L.jpg","N.jpg","1","1","1","",""
"","feedback","","html-keyboard-response","547","557946","0.0-1.0-735.0-0.0","0","0","43883","","null","","","null","81","","","","","","","","","","","","","","","",""
"","ITI","","html-keyboard-response","548","558948","0.0-1.0-738.0","0","0","43883","","null","","","null","81","","","","","","","","","","","","","","","NaN",""
"","S1","","html-keyboard-response","549","559100","0.0-1.0-740.0","0","0","43883","","null","","","null","82","","","","","","","","","","","","","","","",""
"","ISI","","html-keyboard-response","550","561101","0.0-1.0-741.0","0","0","43883","","1887","","","75","82","k","","","","","","","","","","","","","","",""
"","S2","","html-keyboard-response","551","561167","0.0-1.0-742.0","0","0","43883","","65","","","75","82","","k","2","82","training","adjacent","DC","4","3","L.jpg","O.jpg","1","0","0","",""
"","feedback","","html-keyboard-response","552","562170","0.0-1.0-744.0-0.0","0","0","43883","","null","","","null","82","","","","","","","","","","","","","","","",""
"","time_out","","html-keyboard-response","553","564172","0.0-1.0-746.0-0.0","0","0","43883","","null","","","null","82","","","","","","","","","","","","","","","",""
"","ITI","","html-keyboard-response","554","565173","0.0-1.0-747.0","0","0","43883","","null","","","null","82","","","","","","","","","","","","","","","NaN",""
"","S1","","html-keyboard-response","555","565325","0.0-1.0-749.0","0","0","43883","","null","","","null","83","","","","","","","","","","","","","","","",""
"","ISI","","html-keyboard-response","556","567327","0.0-1.0-750.0","0","0","43883","","null","","","null","83","NaN","","","","","","","","","","","","","","",""
"","S2","","html-keyboard-response","557","567480","0.0-1.0-751.0","0","0","43883","","null","","","null","83","","NaN","","","","","","","","","","","","","",""
"","response","","html-keyboard-response","558","567662","0.0-1.0-752.0-0.0","0","0","43883","","180","","","68","83","","","2","83","training","adjacent","CB","3","2","O.jpg","Q.jpg","0","0","1","",""
"","feedback","","html-keyboard-response","559","568664","0.0-1.0-753.0-0.0","0","0","43883","","null","","","null","83","","","","","","","","","","","","","","","",""
"","ITI","","html-keyboard-response","560","569666","0.0-1.0-756.0","0","0","43883","","null","","","null","83","","","","","","","","","","","","","","","NaN",""
"","S1","","html-keyboard-response","561","569818","0.0-1.0-758.0","0","0","43883","","null","","","null","84","","","","","","","","","","","","","","","",""
"","ISI","","html-keyboard-response","562","571820","0.0-1.0-759.0","0","0","43883","","null","","","null","84","NaN","","","","","","","","","","","","","","",""
"","S2","","html-keyboard-response","563","571973","0.0-1.0-760.0","0","0","43883","","null","","","null","84","","NaN","","","","","","","","","","","","","",""
"","response","","html-keyboard-response","564","572316","0.0-1.0-761.0-0.0","0","0","43883","","341","","","68","84","","","2","84","training","adjacent","BC","2","3","Q.jpg","O.jpg","0","1","0","",""
"","feedback","","html-keyboard-response","565","573317","0.0-1.0-762.0-0.0","0","0","43883","","null","","","null","84","","","","","","","","","","","","","","","",""
"","time_out","","html-keyboard-response","566","575319","0.0-1.0-764.0-0.0","0","0","43883","","null","","","null","84","","","","","","","","","","","","","","","",""
"","ITI","","html-keyboard-response","567","576321","0.0-1.0-765.0","0","0","43883","","null","","","null","84","","","","","","","","","","","","","","","NaN",""
"","S1","","html-keyboard-response","568","576474","0.0-1.0-767.0","0","0","43883","","null","","","null","85","","","","","","","","","","","","","","","",""
"","ISI","","html-keyboard-response","569","578475","0.0-1.0-768.0","0","0","43883","","null","","","null","85","NaN","","","","","","","","","","","","","","",""
"","S2","","html-keyboard-response","570","578627","0.0-1.0-769.0","0","0","43883","","null","","","null","85","","NaN","","","","","","","","","","","","","",""
"","response","","html-keyboard-response","571","579084","0.0-1.0-770.0-0.0","0","0","43883","","456","","","75","85","","","2","85","training","adjacent","DC","4","3","L.jpg","O.jpg","1","0","0","",""
"","feedback","","html-keyboard-response","572","580086","0.0-1.0-771.0-0.0","0","0","43883","","null","","","null","85","","","","","","","","","","","","","","","",""
"","time_out","","html-keyboard-response","573","582088","0.0-1.0-773.0-0.0","0","0","43883","","null","","","null","85","","","","","","","","","","","","","","","",""
"","ITI","","html-keyboard-response","574","583090","0.0-1.0-774.0","0","0","43883","","null","","","null","85","","","","","","","","","","","","","","","NaN",""
"","S1","","html-keyboard-response","575","583242","0.0-1.0-776.0","0","0","43883","","null","","","null","86","","","","","","","","","","","","","","","",""
"","ISI","","html-keyboard-response","576","585243","0.0-1.0-777.0","0","0","43883","","338","","","68","86","d","","","","","","","","","","","","","","",""
"","S2","","html-keyboard-response","577","585370","0.0-1.0-778.0","0","0","43883","","125","","","68","86","","d","2","86","training","adjacent","AB","1","2","P.jpg","Q.jpg","0","1","0","",""
"","feedback","","html-keyboard-response","578","586371","0.0-1.0-780.0-0.0","0","0","43883","","null","","","null","86","","","","","","","","","","","","","","","",""
"","time_out","","html-keyboard-response","579","588374","0.0-1.0-782.0-0.0","0","0","43883","","null","","","null","86","","","","","","","","","","","","","","","",""
"","ITI","","html-keyboard-response","580","589376","0.0-1.0-783.0","0","0","43883","","null","","","null","86","","","","","","","","","","","","","","","NaN",""
