"success","ttype","start_time","trial_type","trial_index","time_elapsed","internal_node_id","warning","missed_checkup","PID","view_history","rt","responses","repeat_instructions","key_press","index","keypress_isi","keypress_S2","block","trial_num","phase","group_type","pair_type","S1_stim","S2_stim","S1_img","S2_img","S1_chosen","S1_higher","accuracy","keypress_iti","total_bonus_tally"
"true","full_screen","d03082023hr1502","fullscreen","0","4380","0.0-0.0","0","0","10184","","","","","","","","","","","","","","","","","","","","","",""
"","instructions","","instructions","1","14153","0.0-1.0-0.0-0.0","0","0","10184","[{""page_index"":0,""viewing_time"":2155},{""page_index"":1,""viewing_time"":4506},{""page_index"":2,""viewing_time"":1711},{""page_index"":3,""viewing_time"":1389}]","9763","","","","","","","","","","","","","","","","","","","",""
"","comprehension_check","","survey-multi-choice","2","21475","0.0-1.0-0.0-1.0","0","0","10184","","7310","{""Q0"":""True"",""Q1"":""K"",""Q2"":""Only when the screen 'MAKE A CHOICE' is shown"",""Q3"":""Green mark"",""Q4"":""either D or K""}","1","","","","","","","","","","","","","","","","","",""
"","missed_instruction_checkup","","html-keyboard-response","3","23409","0.0-1.0-0.0-2.0-0.0","0","1","10184","","1922","","","32","","","","","","","","","","","","","","","","",""
"","instructions","","instructions","4","35672","0.0-1.0-0.1-0.1","0","0","10184","[{""page_index"":0,""viewing_time"":2069},{""page_index"":1,""viewing_time"":3667},{""page_index"":2,""viewing_time"":4570},{""page_index"":3,""viewing_time"":1955}]","12261","","","","","","","","","","","","","","","","","","","",""
"","comprehension_check","","survey-multi-choice","5","52173","0.0-1.0-0.1-1.1","0","0","10184","","16464","{""Q0"":""True"",""Q1"":""D"",""Q2"":""Only when the screen 'MAKE A CHOICE' is shown"",""Q3"":""Green mark"",""Q4"":""either D or K""}","1","","","","","","","","","","","","","","","","","",""
"","missed_instruction_checkup","","html-keyboard-response","6","53677","0.0-1.0-0.1-2.1-0.1","0","1","10184","","1495","","","32","","","","","","","","","","","","","","","","",""
"","instructions","","instructions","7","61576","0.0-1.0-0.2-0.2","0","0","10184","[{""page_index"":0,""viewing_time"":1735},{""page_index"":1,""viewing_time"":2344},{""page_index"":2,""viewing_time"":2741},{""page_index"":3,""viewing_time"":1071}]","7892","","","","","","","","","","","","","","","","","","","",""
"","comprehension_check","","survey-multi-choice","8","73414","0.0-1.0-0.2-1.2","0","0","10184","","11816","{""Q0"":""False"",""Q1"":""D"",""Q2"":""Only when the screen 'MAKE A CHOICE' is shown"",""Q3"":""Green mark"",""Q4"":""either D or K""}","1","","","","","","","","","","","","","","","","","",""
"","missed_instruction_checkup","","html-keyboard-response","9","74469","0.0-1.0-0.2-2.2-0.2","0","1","10184","","1046","","","32","","","","","","","","","","","","","","","","",""
"","instructions","","instructions","10","83480","0.0-1.0-0.3-0.3","0","0","10184","[{""page_index"":0,""viewing_time"":1736},{""page_index"":1,""viewing_time"":1258},{""page_index"":2,""viewing_time"":4326},{""page_index"":3,""viewing_time"":1681}]","9002","","","","","","","","","","","","","","","","","","","",""
"","comprehension_check","","survey-multi-choice","11","103758","0.0-1.0-0.3-1.3","0","0","10184","","20258","{""Q0"":""False"",""Q1"":""D"",""Q2"":""Only when the screen 'MAKE A CHOICE' is shown"",""Q3"":""Green mark"",""Q4"":""Use a mouse""}","1","","","","","","","","","","","","","","","","","",""
"","missed_instruction_checkup","","html-keyboard-response","12","105425","0.0-1.0-0.3-2.3-0.3","0","1","10184","","1661","","","32","","","","","","","","","","","","","","","","",""
"","instructions","","instructions","13","117763","0.0-1.0-0.4-0.4","0","0","10184","[{""page_index"":0,""viewing_time"":2808},{""page_index"":1,""viewing_time"":6300},{""page_index"":2,""viewing_time"":2268},{""page_index"":3,""viewing_time"":950}]","12327","","","","","","","","","","","","","","","","","","","",""
"","comprehension_check","","survey-multi-choice","14","137965","0.0-1.0-0.4-1.4","0","0","10184","","20148","{""Q0"":""True"",""Q1"":""D"",""Q2"":""Only when the screen 'MAKE A CHOICE' is shown"",""Q3"":""Green mark"",""Q4"":""either D or K""}","1","","","","","","","","","","","","","","","","","",""
"","missed_instruction_checkup","","html-keyboard-response","15","139105","0.0-1.0-0.4-2.4-0.4","0","1","10184","","1133","","","32","","","","","","","","","","","","","","","","",""
"","instructions","","instructions","16","148910","0.0-1.0-0.5-0.5","0","0","10184","[{""page_index"":0,""viewing_time"":1856},{""page_index"":1,""viewing_time"":4631},{""page_index"":2,""viewing_time"":1663},{""page_index"":3,""viewing_time"":1647}]","9798","","","","","","","","","","","","","","","","","","","",""
"","comprehension_check","","survey-multi-choice","17","160073","0.0-1.0-0.5-1.5","0","0","10184","","11149","{""Q0"":""True"",""Q1"":""D"",""Q2"":""Once the second image appears and while the screen 'MAKE A CHOICE' is shown"",""Q3"":""Green mark"",""Q4"":""either D or K""}","0","","","","","","","","","","","","","","","","","",""
"","start_exp","","html-keyboard-response","18","161711","0.0-1.0-1.0","0","0","10184","","1629","","","32","","","","","","","","","","","","","","","","",""
"","S1","","html-keyboard-response","19","161978","0.0-1.0-2.0","0","0","10184","","null","","","null","0","","","","","","","","","","","","","","","",""
"","ISI","","html-keyboard-response","20","162134","0.0-1.0-3.0","0","0","10184","","null","","","null","0","NaN","","","","","","","","","","","","","","",""
"","S2","","html-keyboard-response","21","162390","0.0-1.0-4.0","0","0","10184","","null","","","null","0","","NaN","","","","","","","","","","","","","",""
"","response","","html-keyboard-response","22","164151","0.0-1.0-5.0-0.0","0","0","10184","","null","","","null","0","","","1","0","training","adjacent","CB","3","2","M.jpg","P.jpg","NaN","0","0","",""
"","too_slow_prompt","","html-keyboard-response","23","165158","0.0-1.0-7.0-0.0","1","0","10184","","null","","","null","","","","","","","","","","","","","","","","",""
"","time_out","","html-keyboard-response","24","167169","0.0-1.0-8.0-0.0","0","0","10184","","null","","","null","0","","","","","","","","","","","","","","","",""
"","ITI","","html-keyboard-response","25","168175","0.0-1.0-9.0","0","0","10184","","null","","","null","0","","","","","","","","","","","","","","","NaN",""
"","S1","","html-keyboard-response","26","168430","0.0-1.0-11.0","0","0","10184","","null","","","null","1","","","","","","","","","","","","","","","",""
"","ISI","","html-keyboard-response","27","168589","0.0-1.0-12.0","0","0","10184","","null","","","null","1","NaN","","","","","","","","","","","","","","",""
"","S2","","html-keyboard-response","28","168854","0.0-1.0-13.0","0","0","10184","","null","","","null","1","","NaN","","","","","","","","","","","","","",""
"","response","","html-keyboard-response","29","168927","0.0-1.0-14.0-0.0","0","0","10184","","69","","","68","1","","","1","1","training","adjacent","BC","2","3","P.jpg","M.jpg","1","1","1","",""
"","feedback","","html-keyboard-response","30","169935","0.0-1.0-15.0-0.0","0","0","10184","","null","","","null","1","","","","","","","","","","","","","","","",""
"","ITI","","html-keyboard-response","31","170942","0.0-1.0-18.0","0","0","10184","","null","","","null","1","","","","","","","","","","","","","","","NaN",""
"","S1","","html-keyboard-response","32","171198","0.0-1.0-20.0","0","0","10184","","null","","","null","2","","","","","","","","","","","","","","","",""
"","ISI","","html-keyboard-response","33","171358","0.0-1.0-21.0","0","0","10184","","null","","","null","2","NaN","","","","","","","","","","","","","","",""
"","S2","","html-keyboard-response","34","171444","0.0-1.0-22.0","0","0","10184","","82","","","68","2","","d","1","2","training","adjacent","DC","4","3","Q.jpg","M.jpg","1","0","0","",""
"","feedback","","html-keyboard-response","35","172454","0.0-1.0-24.0-0.0","0","0","10184","","null","","","null","2","","","","","","","","","","","","","","","",""
"","time_out","","html-keyboard-response","36","174462","0.0-1.0-26.0-0.0","0","0","10184","","null","","","null","2","","","","","","","","","","","","","","","",""
"","ITI","","html-keyboard-response","37","175467","0.0-1.0-27.0","0","0","10184","","55","","","75","2","","","","","","","","","","","","","","","k",""
"","S1","","html-keyboard-response","38","175728","0.0-1.0-29.0","0","0","10184","","null","","","null","3","","","","","","","","","","","","","","","",""
"","ISI","","html-keyboard-response","39","175885","0.0-1.0-30.0","0","0","10184","","null","","","null","3","NaN","","","","","","","","","","","","","","",""
"","S2","","html-keyboard-response","40","175899","0.0-1.0-31.0","0","0","10184","","10","","","68","3","","d","1","3","training","adjacent","DE","4","5","Q.jpg","R.jpg","1","1","1","",""
"","feedback","","html-keyboard-response","41","176910","0.0-1.0-33.0-0.0","0","0","10184","","null","","","null","3","","","","","","","","","","","","","","","",""
"","ITI","","html-keyboard-response","42","177919","0.0-1.0-36.0","0","0","10184","","57","","","75","3","","","","","","","","","","","","","","","k",""
"","S1","","html-keyboard-response","43","178176","0.0-1.0-38.0","0","0","10184","","null","","","null","4","","","","","","","","","","","","","","","",""
"","ISI","","html-keyboard-response","44","178335","0.0-1.0-39.0","0","0","10184","","29","","","68","4","d","","","","","","","","","","","","","","",""
"","S2","","html-keyboard-response","45","178354","0.0-1.0-40.0","0","0","10184","","15","","","75","4","","k","1","4","training","adjacent","CD","3","4","M.jpg","Q.jpg","0","1","0","",""
"","feedback","","html-keyboard-response","46","179367","0.0-1.0-42.0-0.0","0","0","10184","","null","","","null","4","","","","","","","","","","","","","","","",""
"","time_out","","html-keyboard-response","47","181374","0.0-1.0-44.0-0.0","0","0","10184","","null","","","null","4","","","","","","","","","","","","","","","",""
"","ITI","","html-keyboard-response","48","182383","0.0-1.0-45.0","0","0","10184","","167","","","75","4","","","","","","","","","","","","","","","k",""
"","S1","","html-keyboard-response","49","182638","0.0-1.0-47.0","0","0","10184","","null","","","null","5","","","","","","","","","","","","","","","",""
"","ISI","","html-keyboard-response","50","182799","0.0-1.0-48.0","0","0","10184","","null","","","null","5","NaN","","","","","","","","","","","","","","",""
"","S2","","html-keyboard-response","51","182885","0.0-1.0-49.0","0","0","10184","","82","","","68","5","","d","1","5","training","adjacent","BA","2","1","P.jpg","N.jpg","1","0","0","",""
"","feedback","","html-keyboard-response","52","183894","0.0-1.0-51.0-0.0","0","0","10184","","null","","","null","5","","","","","","","","","","","","","","","",""
"","time_out","","html-keyboard-response","53","185906","0.0-1.0-53.0-0.0","0","0","10184","","null","","","null","5","","","","","","","","","","","","","","","",""
"","ITI","","html-keyboard-response","54","186912","0.0-1.0-54.0","0","0","10184","","null","","","null","5","","","","","","","","","","","","","","","NaN",""
"","S1","","html-keyboard-response","55","187174","0.0-1.0-56.0","0","0","10184","","null","","","null","6","","","","","","","","","","","","","","","",""
"","ISI","","html-keyboard-response","56","187333","0.0-1.0-57.0","0","0","10184","","null","","","null","6","NaN","","","","","","","","","","","","","","",""
"","S2","","html-keyboard-response","57","187348","0.0-1.0-58.0","0","0","10184","","13","","","75","6","","k","1","6","training","adjacent","BA","2","1","P.jpg","N.jpg","0","0","1","",""
"","feedback","","html-keyboard-response","58","188359","0.0-1.0-60.0-0.0","0","0","10184","","null","","","null","6","","","","","","","","","","","","","","","",""
"","ITI","","html-keyboard-response","59","189367","0.0-1.0-63.0","0","0","10184","","null","","","null","6","","","","","","","","","","","","","","","NaN",""
"","S1","","html-keyboard-response","60","189622","0.0-1.0-65.0","0","0","10184","","null","","","null","7","","","","","","","","","","","","","","","",""
"","ISI","","html-keyboard-response","61","189784","0.0-1.0-66.0","0","0","10184","","null","","","null","7","NaN","","","","","","","","","","","","","","",""
"","S2","","html-keyboard-response","62","189861","0.0-1.0-67.0","0","0","10184","","74","","","68","7","","d","1","7","training","adjacent","GF","7","6","O.jpg","L.jpg","1","0","0","",""
"","feedback","","html-keyboard-response","63","190870","0.0-1.0-69.0-0.0","0","0","10184","","null","","","null","7","","","","","","","","","","","","","","","",""
"","time_out","","html-keyboard-response","64","192879","0.0-1.0-71.0-0.0","0","0","10184","","null","","","null","7","","","","","","","","","","","","","","","",""
"","ITI","","html-keyboard-response","65","193886","0.0-1.0-72.0","0","0","10184","","299","","","75","7","","","","","","","","","","","","","","","k",""
"","S1","","html-keyboard-response","66","194142","0.0-1.0-74.0","0","0","10184","","null","","","null","8","","","","","","","","","","","","","","","",""
"","ISI","","html-keyboard-response","67","194302","0.0-1.0-75.0","0","0","10184","","null","","","null","8","NaN","","","","","","","","","","","","","","",""
"","S2","","html-keyboard-response","68","194329","0.0-1.0-76.0","0","0","10184","","24","","","75","8","","k","1","8","training","adjacent","DC","4","3","Q.jpg","M.jpg","0","0","1","",""
"","feedback","","html-keyboard-response","69","195336","0.0-1.0-78.0-0.0","0","0","10184","","null","","","null","8","","","","","","","","","","","","","","","",""
"","ITI","","html-keyboard-response","70","196341","0.0-1.0-81.0","0","0","10184","","105","","","75","8","","","","","","","","","","","","","","","k",""
"","S1","","html-keyboard-response","71","196598","0.0-1.0-83.0","0","0","10184","","null","","","null","9","","","","","","","","","","","","","","","",""
"","ISI","","html-keyboard-response","72","196759","0.0-1.0-84.0","0","0","10184","","null","","","null","9","NaN","","","","","","","","","","","","","","",""
"","S2","","html-keyboard-response","73","196811","0.0-1.0-85.0","0","0","10184","","49","","","75","9","","k","1","9","training","adjacent","BC","2","3","P.jpg","M.jpg","0","1","0","",""
"","feedback","","html-keyboard-response","74","197823","0.0-1.0-87.0-0.0","0","0","10184","","null","","","null","9","","","","","","","","","","","","","","","",""
"","time_out","","html-keyboard-response","75","199831","0.0-1.0-89.0-0.0","0","0","10184","","null","","","null","9","","","","","","","","","","","","","","","",""
"","ITI","","html-keyboard-response","76","200840","0.0-1.0-90.0","0","0","10184","","168","","","75","9","","","","","","","","","","","","","","","k",""
"","S1","","html-keyboard-response","77","201103","0.0-1.0-92.0","0","0","10184","","null","","","null","10","","","","","","","","","","","","","","","",""
"","ISI","","html-keyboard-response","78","201262","0.0-1.0-93.0","0","0","10184","","null","","","null","10","NaN","","","","","","","","","","","","","","",""
"","S2","","html-keyboard-response","79","201352","0.0-1.0-94.0","0","0","10184","","86","","","68","10","","d","1","10","training","adjacent","BA","2","1","P.jpg","N.jpg","1","0","0","",""
"","feedback","","html-keyboard-response","80","202359","0.0-1.0-96.0-0.0","0","0","10184","","null","","","null","10","","","","","","","","","","","","","","","",""
"","time_out","","html-keyboard-response","81","204370","0.0-1.0-98.0-0.0","0","0","10184","","null","","","null","10","","","","","","","","","","","","","","","",""
"","ITI","","html-keyboard-response","82","205375","0.0-1.0-99.0","0","0","10184","","152","","","75","10","","","","","","","","","","","","","","","k",""
"","S1","","html-keyboard-response","83","205631","0.0-1.0-101.0","0","0","10184","","null","","","null","11","","","","","","","","","","","","","","","",""
"","ISI","","html-keyboard-response","84","205789","0.0-1.0-102.0","0","0","10184","","null","","","null","11","NaN","","","","","","","","","","","","","","",""
"","S2","","html-keyboard-response","85","205956","0.0-1.0-103.0","0","0","10184","","162","","","75","11","","k","1","11","training","adjacent","EF","5","6","R.jpg","L.jpg","0","1","0","",""
"","feedback","","html-keyboard-response","86","206966","0.0-1.0-105.0-0.0","0","0","10184","","null","","","null","11","","","","","","","","","","","","","","","",""
"","time_out","","html-keyboard-response","87","208975","0.0-1.0-107.0-0.0","0","0","10184","","null","","","null","11","","","","","","","","","","","","","","","",""
"","ITI","","html-keyboard-response","88","209988","0.0-1.0-108.0","0","0","10184","","24","","","68","11","","","","","","","","","","","","","","","d",""
"","S1","","html-keyboard-response","89","210246","0.0-1.0-110.0","0","0","10184","","null","","","null","12","","","","","","","","","","","","","","","",""
"","ISI","","html-keyboard-response","90","210405","0.0-1.0-111.0","0","0","10184","","93","","","75","12","k","","","","","","","","","","","","","","",""
"","S2","","html-keyboard-response","91","210558","0.0-1.0-112.0","0","0","10184","","150","","","68","12","","d","1","12","training","adjacent","ED","5","4","R.jpg","Q.jpg","1","0","0","",""
"","feedback","","html-keyboard-response","92","211567","0.0-1.0-114.0-0.0","0","0","10184","","null","","","null","12","","","","","","","","","","","","","","","",""
"","time_out","","html-keyboard-response","93","213576","0.0-1.0-116.0-0.0","0","0","10184","","null","","","null","12","","","","","","","","","","","","","","","",""
"","ITI","","html-keyboard-response","94","214584","0.0-1.0-117.0","0","0","10184","","184","","","75","12","","","","","","","","","","","","","","","k",""
"","S1","","html-keyboard-response","95","214839","0.0-1.0-119.0","0","0","10184","","null","","","null","13","","","","","","","","","","","","","","","",""
"","ISI","","html-keyboard-response","96","214997","0.0-1.0-120.0","0","0","10184","","null","","","null","13","NaN","","","","","","","","","","","","","","",""
"","S2","","html-keyboard-response","97","215123","0.0-1.0-121.0","0","0","10184","","122","","","75","13","","k","1","13","training","adjacent","BC","2","3","P.jpg","M.jpg","0","1","0","",""
"","feedback","","html-keyboard-response","98","216135","0.0-1.0-123.0-0.0","0","0","10184","","null","","","null","13","","","","","","","","","","","","","","","",""
"","time_out","","html-keyboard-response","99","218142","0.0-1.0-125.0-0.0","0","0","10184","","null","","","null","13","","","","","","","","","","","","","","","",""
"","ITI","","html-keyboard-response","100","219150","0.0-1.0-126.0","0","0","10184","","178","","","75","13","","","","","","","","","","","","","","","k",""
"","S1","","html-keyboard-response","101","219408","0.0-1.0-128.0","0","0","10184","","null","","","null","14","","","","","","","","","","","","","","","",""
"","ISI","","html-keyboard-response","102","219565","0.0-1.0-129.0","0","0","10184","","null","","","null","14","NaN","","","","","","","","","","","","","","",""
"","S2","","html-keyboard-response","103","219634","0.0-1.0-130.0","0","0","10184","","65","","","75","14","","k","1","14","training","adjacent","FG","6","7","L.jpg","O.jpg","0","1","0","",""
"","feedback","","html-keyboard-response","104","220638","0.0-1.0-132.0-0.0","0","0","10184","","null","","","null","14","","","","","","","","","","","","","","","",""
"","time_out","","html-keyboard-response","105","222647","0.0-1.0-134.0-0.0","0","0","10184","","null","","","null","14","","","","","","","","","","","","","","","",""
"","ITI","","html-keyboard-response","106","223655","0.0-1.0-135.0","0","0","10184","","193","","","75","14","","","","","","","","","","","","","","","k",""
"","S1","","html-keyboard-response","107","223909","0.0-1.0-137.0","0","0","10184","","null","","","null","15","","","","","","","","","","","","","","","",""
"","ISI","","html-keyboard-response","108","224070","0.0-1.0-138.0","0","0","10184","","36","","","75","15","k","","","","","","","","","","","","","","",""
"","S2","","html-keyboard-response","109","224282","0.0-1.0-139.0","0","0","10184","","207","","","68","15","","d","1","15","training","adjacent","AB","1","2","N.jpg","P.jpg","1","1","1","",""
"","feedback","","html-keyboard-response","110","225286","0.0-1.0-141.0-0.0","0","0","10184","","null","","","null","15","","","","","","","","","","","","","","","",""
"","ITI","","html-keyboard-response","111","226294","0.0-1.0-144.0","0","0","10184","","789","","","75","15","","","","","","","","","","","","","","","k",""
"","S1","","html-keyboard-response","112","226552","0.0-1.0-146.0","0","0","10184","","null","","","null","16","","","","","","","","","","","","","","","",""
"","ISI","","html-keyboard-response","113","226710","0.0-1.0-147.0","0","0","10184","","139","","","75","16","k","","","","","","","","","","","","","","",""
"","S2","","html-keyboard-response","114","226870","0.0-1.0-148.0","0","0","10184","","155","","","68","16","","d","1","16","training","adjacent","AB","1","2","N.jpg","P.jpg","1","1","1","",""
"","feedback","","html-keyboard-response","115","227880","0.0-1.0-150.0-0.0","0","0","10184","","null","","","null","16","","","","","","","","","","","","","","","",""
"","ITI","","html-keyboard-response","116","228887","0.0-1.0-153.0","0","0","10184","","2","","","68","16","","","","","","","","","","","","","","","d",""
"","S1","","html-keyboard-response","117","229141","0.0-1.0-155.0","0","0","10184","","null","","","null","17","","","","","","","","","","","","","","","",""
"","ISI","","html-keyboard-response","118","229302","0.0-1.0-156.0","0","0","10184","","88","","","75","17","k","","","","","","","","","","","","","","",""
"","S2","","html-keyboard-response","119","229368","0.0-1.0-157.0","0","0","10184","","61","","","68","17","","d","1","17","training","adjacent","FE","6","5","L.jpg","R.jpg","1","0","0","",""
"","feedback","","html-keyboard-response","120","230375","0.0-1.0-159.0-0.0","0","0","10184","","null","","","null","17","","","","","","","","","","","","","","","",""
"","time_out","","html-keyboard-response","121","232384","0.0-1.0-161.0-0.0","0","0","10184","","null","","","null","17","","","","","","","","","","","","","","","",""
"","ITI","","html-keyboard-response","122","233396","0.0-1.0-162.0","0","0","10184","","725","","","75","17","","","","","","","","","","","","","","","k",""
"","S1","","html-keyboard-response","123","233655","0.0-1.0-164.0","0","0","10184","","null","","","null","18","","","","","","","","","","","","","","","",""
"","ISI","","html-keyboard-response","124","233807","0.0-1.0-165.0","0","0","10184","","null","","","null","18","NaN","","","","","","","","","","","","","","",""
"","S2","","html-keyboard-response","125","233885","0.0-1.0-166.0","0","0","10184","","74","","","68","18","","d","1","18","training","adjacent","CD","3","4","M.jpg","Q.jpg","1","1","1","",""
"","feedback","","html-keyboard-response","126","234895","0.0-1.0-168.0-0.0","0","0","10184","","null","","","null","18","","","","","","","","","","","","","","","",""
"","ITI","","html-keyboard-response","127","235903","0.0-1.0-171.0","0","0","10184","","98","","","68","18","","","","","","","","","","","","","","","d",""
"","S1","","html-keyboard-response","128","236160","0.0-1.0-173.0","0","0","10184","","null","","","null","19","","","","","","","","","","","","","","","",""
"","ISI","","html-keyboard-response","129","236319","0.0-1.0-174.0","0","0","10184","","14","","","68","19","d","","","","","","","","","","","","","","",""
"","S2","","html-keyboard-response","130","236575","0.0-1.0-175.0","0","0","10184","","null","","","null","19","","NaN","","","","","","","","","","","","","",""
"","response","","html-keyboard-response","131","236708","0.0-1.0-176.0-0.0","0","0","10184","","127","","","75","19","","","1","19","training","adjacent","FG","6","7","L.jpg","O.jpg","0","1","0","",""
"","feedback","","html-keyboard-response","132","237719","0.0-1.0-177.0-0.0","0","0","10184","","null","","","null","19","","","","","","","","","","","","","","","",""
"","time_out","","html-keyboard-response","133","239730","0.0-1.0-179.0-0.0","0","0","10184","","null","","","null","19","","","","","","","","","","","","","","","",""
"","ITI","","html-keyboard-response","134","240736","0.0-1.0-180.0","0","0","10184","","445","","","75","19","","","","","","","","","","","","","","","k",""
"","S1","","html-keyboard-response","135","240993","0.0-1.0-182.0","0","0","10184","","null","","","null","20","","","","","","","","","","","","","","","",""
"","ISI","","html-keyboard-response","136","241151","0.0-1.0-183.0","0","0","10184","","null","","","null","20","NaN","","","","","","","","","","","","","","",""
"","S2","","html-keyboard-response","137","241254","0.0-1.0-184.0","0","0","10184","","99","","","68","20","","d","1","20","training","adjacent","EF","5","6","R.jpg","L.jpg","1","1","1","",""
"","feedback","","html-keyboard-response","138","242264","0.0-1.0-186.0-0.0","0","0","10184","","null","","","null","20","","","","","","","","","","","","","","","",""
"","ITI","","html-keyboard-response","139","243271","0.0-1.0-189.0","0","0","10184","","161","","","75","20","","","","","","","","","","","","","","","k",""
"","S1","","html-keyboard-response","140","243528","0.0-1.0-191.0","0","0","10184","","null","","","null","21","","","","","","","","","","","","","","","",""
"","ISI","","html-keyboard-response","141","243688","0.0-1.0-192.0","0","0","10184","","null","","","null","21","NaN","","","","","","","","","","","","","","",""
"","S2","","html-keyboard-response","142","243917","0.0-1.0-193.0","0","0","10184","","223","","","68","21","","d","1","21","training","adjacent","GF","7","6","O.jpg","L.jpg","1","0","0","",""
"","feedback","","html-keyboard-response","143","244929","0.0-1.0-195.0-0.0","0","0","10184","","null","","","null","21","","","","","","","","","","","","","","","",""
"","time_out","","html-keyboard-response","144","246936","0.0-1.0-197.0-0.0","0","0","10184","","null","","","null","21","","","","","","","","","","","","","","","",""
"","ITI","","html-keyboard-response","145","247948","0.0-1.0-198.0","0","0","10184","","187","","","68","21","","","","","","","","","","","","","","","d",""
"","S1","","html-keyboard-response","146","248207","0.0-1.0-200.0","0","0","10184","","null","","","null","22","","","","","","","","","","","","","","","",""
"","ISI","","html-keyboard-response","147","248366","0.0-1.0-201.0","0","0","10184","","43","","","68","22","d","","","","","","","","","","","","","","",""
"","S2","","html-keyboard-response","148","248464","0.0-1.0-202.0","0","0","10184","","95","","","68","22","","d","1","22","training","adjacent","DC","4","3","Q.jpg","M.jpg","1","0","0","",""
"","feedback","","html-keyboard-response","149","249472","0.0-1.0-204.0-0.0","0","0","10184","","null","","","null","22","","","","","","","","","","","","","","","",""
"","time_out","","html-keyboard-response","150","251479","0.0-1.0-206.0-0.0","0","0","10184","","null","","","null","22","","","","","","","","","","","","","","","",""
"","ITI","","html-keyboard-response","151","252488","0.0-1.0-207.0","0","0","10184","","201","","","75","22","","","","","","","","","","","","","","","k",""
"","S1","","html-keyboard-response","152","252751","0.0-1.0-209.0","0","0","10184","","null","","","null","23","","","","","","","","","","","","","","","",""
"","ISI","","html-keyboard-response","153","252912","0.0-1.0-210.0","0","0","10184","","null","","","null","23","NaN","","","","","","","","","","","","","","",""
"","S2","","html-keyboard-response","154","253113","0.0-1.0-211.0","0","0","10184","","193","","","75","23","","k","1","23","training","adjacent","EF","5","6","R.jpg","L.jpg","0","1","0","",""
"","feedback","","html-keyboard-response","155","254118","0.0-1.0-213.0-0.0","0","0","10184","","null","","","null","23","","","","","","","","","","","","","","","",""
"","time_out","","html-keyboard-response","156","256128","0.0-1.0-215.0-0.0","0","0","10184","","null","","","null","23","","","","","","","","","","","","","","","",""
"","ITI","","html-keyboard-response","157","257135","0.0-1.0-216.0","0","0","10184","","762","","","68","23","","","","","","","","","","","","","","","d",""
"","S1","","html-keyboard-response","158","257392","0.0-1.0-218.0","0","0","10184","","null","","","null","24","","","","","","","","","","","","","","","",""
"","ISI","","html-keyboard-response","159","257554","0.0-1.0-219.0","0","0","10184","","78","","","68","24","d","","","","","","","","","","","","","","",""
"","S2","","html-keyboard-response","160","257700","0.0-1.0-220.0","0","0","10184","","141","","","68","24","","d","1","24","training","adjacent","AB","1","2","N.jpg","P.jpg","1","1","1","",""
"","feedback","","html-keyboard-response","161","258711","0.0-1.0-222.0-0.0","0","0","10184","","null","","","null","24","","","","","","","","","","","","","","","",""
"","ITI","","html-keyboard-response","162","259722","0.0-1.0-225.0","0","0","10184","","19","","","75","24","","","","","","","","","","","","","","","k",""
"","S1","","html-keyboard-response","163","259982","0.0-1.0-227.0","0","0","10184","","null","","","null","25","","","","","","","","","","","","","","","",""
"","ISI","","html-keyboard-response","164","260142","0.0-1.0-228.0","0","0","10184","","null","","","null","25","NaN","","","","","","","","","","","","","","",""
"","S2","","html-keyboard-response","165","260398","0.0-1.0-229.0","0","0","10184","","null","","","null","25","","NaN","","","","","","","","","","","","","",""
"","response","","html-keyboard-response","166","260407","0.0-1.0-230.0-0.0","0","0","10184","","5","","","75","25","","","1","25","training","adjacent","CD","3","4","M.jpg","Q.jpg","0","1","0","",""
"","feedback","","html-keyboard-response","167","261415","0.0-1.0-231.0-0.0","0","0","10184","","null","","","null","25","","","","","","","","","","","","","","","",""
"","time_out","","html-keyboard-response","168","263424","0.0-1.0-233.0-0.0","0","0","10184","","null","","","null","25","","","","","","","","","","","","","","","",""
"","ITI","","html-keyboard-response","169","264433","0.0-1.0-234.0","0","0","10184","","null","","","null","25","","","","","","","","","","","","","","","NaN",""
"","S1","","html-keyboard-response","170","264687","0.0-1.0-236.0","0","0","10184","","null","","","null","26","","","","","","","","","","","","","","","",""
"","ISI","","html-keyboard-response","171","264849","0.0-1.0-237.0","0","0","10184","","null","","","null","26","NaN","","","","","","","","","","","","","","",""
"","S2","","html-keyboard-response","172","265111","0.0-1.0-238.0","0","0","10184","","null","","","null","26","","NaN","","","","","","","","","","","","","",""
"","response","","html-keyboard-response","173","265424","0.0-1.0-239.0-0.0","0","0","10184","","310","","","68","26","","","1","26","training","adjacent","ED","5","4","R.jpg","Q.jpg","1","0","0","",""
"","feedback","","html-keyboard-response","174","266431","0.0-1.0-240.0-0.0","0","0","10184","","null","","","null","26","","","","","","","","","","","","","","","",""
"","time_out","","html-keyboard-response","175","268441","0.0-1.0-242.0-0.0","0","0","10184","","null","","","null","26","","","","","","","","","","","","","","","",""
"","ITI","","html-keyboard-response","176","269451","0.0-1.0-243.0","0","0","10184","","6","","","68","26","","","","","","","","","","","","","","","d",""
"","S1","","html-keyboard-response","177","269711","0.0-1.0-245.0","0","0","10184","","null","","","null","27","","","","","","","","","","","","","","","",""
"","ISI","","html-keyboard-response","178","269871","0.0-1.0-246.0","0","0","10184","","95","","","68","27","d","","","","","","","","","","","","","","",""
"","S2","","html-keyboard-response","179","270018","0.0-1.0-247.0","0","0","10184","","143","","","75","27","","k","1","27","training","adjacent","AB","1","2","N.jpg","P.jpg","0","1","0","",""
"","feedback","","html-keyboard-response","180","271023","0.0-1.0-249.0-0.0","0","0","10184","","null","","","null","27","","","","","","","","","","","","","","","",""
"","time_out","","html-keyboard-response","181","273037","0.0-1.0-251.0-0.0","0","0","10184","","null","","","null","27","","","","","","","","","","","","","","","",""
"","ITI","","html-keyboard-response","182","274049","0.0-1.0-252.0","0","0","10184","","46","","","68","27","","","","","","","","","","","","","","","d",""
"","S1","","html-keyboard-response","183","274303","0.0-1.0-254.0","0","0","10184","","null","","","null","28","","","","","","","","","","","","","","","",""
"","ISI","","html-keyboard-response","184","274463","0.0-1.0-255.0","0","0","10184","","77","","","68","28","d","","","","","","","","","","","","","","",""
"","S2","","html-keyboard-response","185","274555","0.0-1.0-256.0","0","0","10184","","87","","","75","28","","k","1","28","training","adjacent","ED","5","4","R.jpg","Q.jpg","0","0","1","",""
"","feedback","","html-keyboard-response","186","275560","0.0-1.0-258.0-0.0","0","0","10184","","null","","","null","28","","","","","","","","","","","","","","","",""
"","ITI","","html-keyboard-response","187","276568","0.0-1.0-261.0","0","0","10184","","170","","","68","28","","","","","","","","","","","","","","","d",""
"","S1","","html-keyboard-response","188","276824","0.0-1.0-263.0","0","0","10184","","null","","","null","29","","","","","","","","","","","","","","","",""
"","ISI","","html-keyboard-response","189","276983","0.0-1.0-264.0","0","0","10184","","null","","","null","29","NaN","","","","","","","","","","","","","","",""
"","S2","","html-keyboard-response","190","277097","0.0-1.0-265.0","0","0","10184","","109","","","68","29","","d","1","29","training","adjacent","EF","5","6","R.jpg","L.jpg","1","1","1","",""
"","feedback","","html-keyboard-response","191","278105","0.0-1.0-267.0-0.0","0","0","10184","","null","","","null","29","","","","","","","","","","","","","","","",""
"","ITI","","html-keyboard-response","192","279112","0.0-1.0-270.0","0","0","10184","","168","","","68","29","","","","","","","","","","","","","","","d",""
"","S1","","html-keyboard-response","193","279368","0.0-1.0-272.0","0","0","10184","","null","","","null","30","","","","","","","","","","","","","","","",""
"","ISI","","html-keyboard-response","194","279528","0.0-1.0-273.0","0","0","10184","","14","","","68","30","d","","","","","","","","","","","","","","",""
"","S2","","html-keyboard-response","195","279745","0.0-1.0-274.0","0","0","10184","","211","","","75","30","","k","1","30","training","adjacent","CD","3","4","M.jpg","Q.jpg","0","1","0","",""
"","feedback","","html-keyboard-response","196","280751","0.0-1.0-276.0-0.0","0","0","10184","","null","","","null","30","","","","","","","","","","","","","","","",""
"","time_out","","html-keyboard-response","197","282761","0.0-1.0-278.0-0.0","0","0","10184","","null","","","null","30","","","","","","","","","","","","","","","",""
"","ITI","","html-keyboard-response","198","283767","0.0-1.0-279.0","0","0","10184","","111","","","75","30","","","","","","","","","","","","","","","k",""
"","S1","","html-keyboard-response","199","284024","0.0-1.0-281.0","0","0","10184","","null","","","null","31","","","","","","","","","","","","","","","",""
"","ISI","","html-keyboard-response","200","284182","0.0-1.0-282.0","0","0","10184","","null","","","null","31","NaN","","","","","","","","","","","","","","",""
"","S2","","html-keyboard-response","201","284232","0.0-1.0-283.0","0","0","10184","","47","","","68","31","","d","1","31","training","adjacent","DE","4","5","Q.jpg","R.jpg","1","1","1","",""
"","feedback","","html-keyboard-response","202","285239","0.0-1.0-285.0-0.0","0","0","10184","","null","","","null","31","","","","","","","","","","","","","","","",""
"","ITI","","html-keyboard-response","203","286249","0.0-1.0-288.0","0","0","10184","","300","","","75","31","","","","","","","","","","","","","","","k",""
"","S1","","html-keyboard-response","204","286503","0.0-1.0-290.0","0","0","10184","","null","","","null","32","","","","","","","","","","","","","","","",""
"","ISI","","html-keyboard-response","205","286664","0.0-1.0-291.0","0","0","10184","","108","","","75","32","k","","","","","","","","","","","","","","",""
"","S2","","html-keyboard-response","206","286919","0.0-1.0-292.0","0","0","10184","","null","","","null","32","","NaN","","","","","","","","","","","","","",""
"","response","","html-keyboard-response","207","286986","0.0-1.0-293.0-0.0","0","0","10184","","62","","","75","32","","","1","32","training","adjacent","DC","4","3","Q.jpg","M.jpg","0","0","1","",""
"","feedback","","html-keyboard-response","208","287993","0.0-1.0-294.0-0.0","0","0","10184","","null","","","null","32","","","","","","","","","","","","","","","",""
"","ITI","","html-keyboard-response","209","289001","0.0-1.0-297.0","0","0","10184","","269","","","68","32","","","","","","","","","","","","","","","d",""
"","S1","","html-keyboard-response","210","289263","0.0-1.0-299.0","0","0","10184","","null","","","null","33","","","","","","","","","","","","","","","",""
"","ISI","","html-keyboard-response","211","289424","0.0-1.0-300.0","0","0","10184","","136","","","75","33","k","","","","","","","","","","","","","","",""
"","S2","","html-keyboard-response","212","289681","0.0-1.0-301.0","0","0","10184","","null","","","null","33","","NaN","","","","","","","","","","","","","",""
"","response","","html-keyboard-response","213","289697","0.0-1.0-302.0-0.0","0","0","10184","","13","","","75","33","","","1","33","training","adjacent","ED","5","4","R.jpg","Q.jpg","0","0","1","",""
"","feedback","","html-keyboard-response","214","290703","0.0-1.0-303.0-0.0","0","0","10184","","null","","","null","33","","","","","","","","","","","","","","","",""
"","ITI","","html-keyboard-response","215","291713","0.0-1.0-306.0","0","0","10184","","10","","","68","33","","","","","","","","","","","","","","","d",""
"","S1","","html-keyboard-response","216","291968","0.0-1.0-308.0","0","0","10184","","null","","","null","34","","","","","","","","","","","","","","","",""
"","ISI","","html-keyboard-response","217","292132","0.0-1.0-309.0","0","0","10184","","141","","","68","34","d","","","","","","","","","","","","","","",""
"","S2","","html-keyboard-response","218","292362","0.0-1.0-310.0","0","0","10184","","224","","","68","34","","d","1","34","training","adjacent","CB","3","2","M.jpg","P.jpg","1","0","0","",""
"","feedback","","html-keyboard-response","219","293368","0.0-1.0-312.0-0.0","0","0","10184","","null","","","null","34","","","","","","","","","","","","","","","",""
"","time_out","","html-keyboard-response","220","295380","0.0-1.0-314.0-0.0","0","0","10184","","null","","","null","34","","","","","","","","","","","","","","","",""
"","ITI","","html-keyboard-response","221","296392","0.0-1.0-315.0","0","0","10184","","1","","","68","34","","","","","","","","","","","","","","","d",""
"","S1","","html-keyboard-response","222","296647","0.0-1.0-317.0","0","0","10184","","null","","","null","35","","","","","","","","","","","","","","","",""
"","ISI","","html-keyboard-response","223","296808","0.0-1.0-318.0","0","0","10184","","82","","","68","35","d","","","","","","","","","","","","","","",""
"","S2","","html-keyboard-response","224","296960","0.0-1.0-319.0","0","0","10184","","148","","","75","35","","k","1","35","training","adjacent","BC","2","3","P.jpg","M.jpg","0","1","0","",""
"","feedback","","html-keyboard-response","225","297967","0.0-1.0-321.0-0.0","0","0","10184","","null","","","null","35","","","","","","","","","","","","","","","",""
"","time_out","","html-keyboard-response","226","299975","0.0-1.0-323.0-0.0","0","0","10184","","null","","","null","35","","","","","","","","","","","","","","","",""
"","ITI","","html-keyboard-response","227","300983","0.0-1.0-324.0","0","0","10184","","84","","","68","35","","","","","","","","","","","","","","","d",""
"","S1","","html-keyboard-response","228","301245","0.0-1.0-326.0","0","0","10184","","null","","","null","36","","","","","","","","","","","","","","","",""
"","ISI","","html-keyboard-response","229","301399","0.0-1.0-327.0","0","0","10184","","null","","","null","36","NaN","","","","","","","","","","","","","","",""
"","S2","","html-keyboard-response","230","301503","0.0-1.0-328.0","0","0","10184","","100","","","68","36","","d","1","36","training","adjacent","CB","3","2","M.jpg","P.jpg","1","0","0","",""
"","feedback","","html-keyboard-response","231","302512","0.0-1.0-330.0-0.0","0","0","10184","","null","","","null","36","","","","","","","","","","","","","","","",""
"","time_out","","html-keyboard-response","232","304522","0.0-1.0-332.0-0.0","0","0","10184","","null","","","null","36","","","","","","","","","","","","","","","",""
"","ITI","","html-keyboard-response","233","305528","0.0-1.0-333.0","0","0","10184","","575","","","68","36","","","","","","","","","","","","","","","d",""
"","S1","","html-keyboard-response","234","305785","0.0-1.0-335.0","0","0","10184","","null","","","null","37","","","","","","","","","","","","","","","",""
"","ISI","","html-keyboard-response","235","305943","0.0-1.0-336.0","0","0","10184","","null","","","null","37","NaN","","","","","","","","","","","","","","",""
"","S2","","html-keyboard-response","236","306098","0.0-1.0-337.0","0","0","10184","","149","","","68","37","","d","1","37","training","adjacent","DE","4","5","Q.jpg","R.jpg","1","1","1","",""
"","feedback","","html-keyboard-response","237","307103","0.0-1.0-339.0-0.0","0","0","10184","","null","","","null","37","","","","","","","","","","","","","","","",""
"","ITI","","html-keyboard-response","238","308114","0.0-1.0-342.0","0","0","10184","","276","","","68","37","","","","","","","","","","","","","","","d",""
"","S1","","html-keyboard-response","239","308377","0.0-1.0-344.0","0","0","10184","","null","","","null","38","","","","","","","","","","","","","","","",""
"","ISI","","html-keyboard-response","240","308535","0.0-1.0-345.0","0","0","10184","","null","","","null","38","NaN","","","","","","","","","","","","","","",""
"","S2","","html-keyboard-response","241","308793","0.0-1.0-346.0","0","0","10184","","null","","","null","38","","NaN","","","","","","","","","","","","","",""
"","response","","html-keyboard-response","242","308836","0.0-1.0-347.0-0.0","0","0","10184","","40","","","68","38","","","1","38","training","adjacent","FE","6","5","L.jpg","R.jpg","1","0","0","",""
"","feedback","","html-keyboard-response","243","309847","0.0-1.0-348.0-0.0","0","0","10184","","null","","","null","38","","","","","","","","","","","","","","","",""
"","time_out","","html-keyboard-response","244","311856","0.0-1.0-350.0-0.0","0","0","10184","","null","","","null","38","","","","","","","","","","","","","","","",""
"","ITI","","html-keyboard-response","245","312863","0.0-1.0-351.0","0","0","10184","","330","","","68","38","","","","","","","","","","","","","","","d",""
"","S1","","html-keyboard-response","246","313117","0.0-1.0-353.0","0","0","10184","","null","","","null","39","","","","","","","","","","","","","","","",""
"","ISI","","html-keyboard-response","247","313279","0.0-1.0-354.0","0","0","10184","","null","","","null","39","NaN","","","","","","","","","","","","","","",""
"","S2","","html-keyboard-response","248","313498","0.0-1.0-355.0","0","0","10184","","214","","","75","39","","k","1","39","training","adjacent","GF","7","6","O.jpg","L.jpg","0","0","1","",""
"","feedback","","html-keyboard-response","249","314505","0.0-1.0-357.0-0.0","0","0","10184","","null","","","null","39","","","","","","","","","","","","","","","",""
"","ITI","","html-keyboard-response","250","315511","0.0-1.0-360.0","0","0","10184","","375","","","68","39","","","","","","","","","","","","","","","d",""
"","S1","","html-keyboard-response","251","315766","0.0-1.0-362.0","0","0","10184","","null","","","null","40","","","","","","","","","","","","","","","",""
"","ISI","","html-keyboard-response","252","315918","0.0-1.0-363.0","0","0","10184","","null","","","null","40","NaN","","","","","","","","","","","","","","",""
"","S2","","html-keyboard-response","253","315963","0.0-1.0-364.0","0","0","10184","","42","","","75","40","","k","1","40","training","adjacent","CB","3","2","M.jpg","P.jpg","0","0","1","",""
"","feedback","","html-keyboard-response","254","316969","0.0-1.0-366.0-0.0","0","0","10184","","null","","","null","40","","","","","","","","","","","","","","","",""
"","ITI","","html-keyboard-response","255","317977","0.0-1.0-369.0","0","0","10184","","735","","","75","40","","","","","","","","","","","","","","","k",""
"","S1","","html-keyboard-response","256","318238","0.0-1.0-371.0","0","0","10184","","null","","","null","41","","","","","","","","","","","","","","","",""
"","ISI","","html-keyboard-response","257","318391","0.0-1.0-372.0","0","0","10184","","1","","","75","41","k","","","","","","","","","","","","","","",""
"","S2","","html-keyboard-response","258","318394","0.0-1.0-373.0","0","0","10184","","1","","","68","41","","d","1","41","training","adjacent","GF","7","6","O.jpg","L.jpg","1","0","0","",""
"","feedback","","html-keyboard-response","259","319400","0.0-1.0-375.0-0.0","0","0","10184","","null","","","null","41","","","","","","","","","","","","","","","",""
"","time_out","","html-keyboard-response","260","321407","0.0-1.0-377.0-0.0","0","0","10184","","null","","","null","41","","","","","","","","","","","","","","","",""
"","ITI","","html-keyboard-response","261","322414","0.0-1.0-378.0","0","0","10184","","115","","","75","41","","","","","","","","","","","","","","","k",""
"","S1","","html-keyboard-response","262","322674","0.0-1.0-380.0","0","0","10184","","null","","","null","42","","","","","","","","","","","","","","","",""
"","ISI","","html-keyboard-response","263","322830","0.0-1.0-381.0","0","0","10184","","145","","","68","42","d","","","","","","","","","","","","","","",""
"","S2","","html-keyboard-response","264","322833","0.0-1.0-382.0","0","0","10184","","0","","","75","42","","k","1","42","training","adjacent","FE","6","5","L.jpg","R.jpg","0","0","1","",""
"","feedback","","html-keyboard-response","265","323846","0.0-1.0-384.0-0.0","0","0","10184","","null","","","null","42","","","","","","","","","","","","","","","",""
"","ITI","","html-keyboard-response","266","324856","0.0-1.0-387.0","0","0","10184","","7","","","68","42","","","","","","","","","","","","","","","d",""
"","S1","","html-keyboard-response","267","325110","0.0-1.0-389.0","0","0","10184","","null","","","null","43","","","","","","","","","","","","","","","",""
"","ISI","","html-keyboard-response","268","325272","0.0-1.0-390.0","0","0","10184","","null","","","null","43","NaN","","","","","","","","","","","","","","",""
"","S2","","html-keyboard-response","269","325330","0.0-1.0-391.0","0","0","10184","","52","","","68","43","","d","1","43","training","adjacent","FE","6","5","L.jpg","R.jpg","1","0","0","",""
"","feedback","","html-keyboard-response","270","326335","0.0-1.0-393.0-0.0","0","0","10184","","null","","","null","43","","","","","","","","","","","","","","","",""
"","time_out","","html-keyboard-response","271","328344","0.0-1.0-395.0-0.0","0","0","10184","","null","","","null","43","","","","","","","","","","","","","","","",""
"","ITI","","html-keyboard-response","272","329352","0.0-1.0-396.0","0","0","10184","","197","","","68","43","","","","","","","","","","","","","","","d",""
"","S1","","html-keyboard-response","273","329608","0.0-1.0-398.0","0","0","10184","","null","","","null","44","","","","","","","","","","","","","","","",""
"","ISI","","html-keyboard-response","274","329769","0.0-1.0-399.0","0","0","10184","","32","","","68","44","d","","","","","","","","","","","","","","",""
"","S2","","html-keyboard-response","275","329973","0.0-1.0-400.0","0","0","10184","","200","","","75","44","","k","1","44","training","adjacent","FG","6","7","L.jpg","O.jpg","0","1","0","",""
"","feedback","","html-keyboard-response","276","330986","0.0-1.0-402.0-0.0","0","0","10184","","null","","","null","44","","","","","","","","","","","","","","","",""
"","time_out","","html-keyboard-response","277","332994","0.0-1.0-404.0-0.0","0","0","10184","","null","","","null","44","","","","","","","","","","","","","","","",""
"","ITI","","html-keyboard-response","278","334005","0.0-1.0-405.0","0","0","10184","","436","","","75","44","","","","","","","","","","","","","","","k",""
"","S1","","html-keyboard-response","279","334263","0.0-1.0-407.0","0","0","10184","","null","","","null","45","","","","","","","","","","","","","","","",""
"","ISI","","html-keyboard-response","280","334423","0.0-1.0-408.0","0","0","10184","","null","","","null","45","NaN","","","","","","","","","","","","","","",""
"","S2","","html-keyboard-response","281","334461","0.0-1.0-409.0","0","0","10184","","35","","","68","45","","d","1","45","training","adjacent","BA","2","1","P.jpg","N.jpg","1","0","0","",""
"","feedback","","html-keyboard-response","282","335472","0.0-1.0-411.0-0.0","0","0","10184","","null","","","null","45","","","","","","","","","","","","","","","",""
"","time_out","","html-keyboard-response","283","337481","0.0-1.0-413.0-0.0","0","0","10184","","null","","","null","45","","","","","","","","","","","","","","","",""
"","ITI","","html-keyboard-response","284","338492","0.0-1.0-414.0","0","0","10184","","583","","","68","45","","","","","","","","","","","","","","","d",""
"","S1","","html-keyboard-response","285","338752","0.0-1.0-416.0","0","0","10184","","null","","","null","46","","","","","","","","","","","","","","","",""
"","ISI","","html-keyboard-response","286","338907","0.0-1.0-417.0","0","0","10184","","null","","","null","46","NaN","","","","","","","","","","","","","","",""
"","S2","","html-keyboard-response","287","339169","0.0-1.0-418.0","0","0","10184","","null","","","null","46","","NaN","","","","","","","","","","","","","",""
"","response","","html-keyboard-response","288","339961","0.0-1.0-419.0-0.0","0","0","10184","","784","","","68","46","","","1","46","training","adjacent","FG","6","7","L.jpg","O.jpg","1","1","1","",""
"","feedback","","html-keyboard-response","289","340967","0.0-1.0-420.0-0.0","0","0","10184","","null","","","null","46","","","","","","","","","","","","","","","",""
"","ITI","","html-keyboard-response","290","341976","0.0-1.0-423.0","0","0","10184","","null","","","null","46","","","","","","","","","","","","","","","NaN",""
"","S1","","html-keyboard-response","291","342232","0.0-1.0-425.0","0","0","10184","","null","","","null","47","","","","","","","","","","","","","","","",""
"","ISI","","html-keyboard-response","292","342392","0.0-1.0-426.0","0","0","10184","","null","","","null","47","NaN","","","","","","","","","","","","","","",""
"","S2","","html-keyboard-response","293","342651","0.0-1.0-427.0","0","0","10184","","null","","","null","47","","NaN","","","","","","","","","","","","","",""
"","response","","html-keyboard-response","294","342933","0.0-1.0-428.0-0.0","0","0","10184","","279","","","68","47","","","1","47","training","adjacent","DE","4","5","Q.jpg","R.jpg","1","1","1","",""
"","feedback","","html-keyboard-response","295","343944","0.0-1.0-429.0-0.0","0","0","10184","","null","","","null","47","","","","","","","","","","","","","","","",""
"","ITI","","html-keyboard-response","296","344953","0.0-1.0-432.0","0","0","10184","","242","","","68","47","","","","","","","","","","","","","","","d",""
"","block_over","","html-keyboard-response","297","351234","0.0-1.0-433.0-0.0","0","0","10184","","6265","","","32","47","","","","","","","","","","","","","","","",""
"","S1","","html-keyboard-response","298","351496","0.0-1.0-434.0","0","0","10184","","null","","","null","48","","","","","","","","","","","","","","","",""
"","ISI","","html-keyboard-response","299","351656","0.0-1.0-435.0","0","0","10184","","null","","","null","48","NaN","","","","","","","","","","","","","","",""
"","S2","","html-keyboard-response","300","351911","0.0-1.0-436.0","0","0","10184","","null","","","null","48","","NaN","","","","","","","","","","","","","",""
"","response","","html-keyboard-response","301","352834","0.0-1.0-437.0-0.0","0","0","10184","","918","","","68","48","","","2","48","training","adjacent","GF","7","6","O.jpg","L.jpg","1","0","0","",""
"","feedback","","html-keyboard-response","302","353842","0.0-1.0-438.0-0.0","0","0","10184","","null","","","null","48","","","","","","","","","","","","","","","",""
"","time_out","","html-keyboard-response","303","355849","0.0-1.0-440.0-0.0","0","0","10184","","null","","","null","48","","","","","","","","","","","","","","","",""
"","ITI","","html-keyboard-response","304","356855","0.0-1.0-441.0","0","0","10184","","275","","","68","48","","","","","","","","","","","","","","","d",""
"","S1","","html-keyboard-response","305","357113","0.0-1.0-443.0","0","0","10184","","null","","","null","49","","","","","","","","","","","","","","","",""
"","ISI","","html-keyboard-response","306","357271","0.0-1.0-444.0","0","0","10184","","117","","","75","49","k","","","","","","","","","","","","","","",""
"","S2","","html-keyboard-response","307","357526","0.0-1.0-445.0","0","0","10184","","null","","","null","49","","NaN","","","","","","","","","","","","","",""
"","response","","html-keyboard-response","308","357678","0.0-1.0-446.0-0.0","0","0","10184","","147","","","68","49","","","2","49","training","adjacent","CD","3","4","M.jpg","Q.jpg","1","1","1","",""
"","feedback","","html-keyboard-response","309","358687","0.0-1.0-447.0-0.0","0","0","10184","","null","","","null","49","","","","","","","","","","","","","","","",""
"","ITI","","html-keyboard-response","310","359695","0.0-1.0-450.0","0","0","10184","","59","","","68","49","","","","","","","","","","","","","","","d",""
"","S1","","html-keyboard-response","311","359950","0.0-1.0-452.0","0","0","10184","","null","","","null","50","","","","","","","","","","","","","","","",""
"","ISI","","html-keyboard-response","312","360112","0.0-1.0-453.0","0","0","10184","","null","","","null","50","NaN","","","","","","","","","","","","","","",""
"","S2","","html-keyboard-response","313","360353","0.0-1.0-454.0","0","0","10184","","237","","","75","50","","k","2","50","training","adjacent","FG","6","7","L.jpg","O.jpg","0","1","0","",""
"","feedback","","html-keyboard-response","314","361370","0.0-1.0-456.0-0.0","0","0","10184","","null","","","null","50","","","","","","","","","","","","","","","",""
"","time_out","","html-keyboard-response","315","363377","0.0-1.0-458.0-0.0","0","0","10184","","null","","","null","50","","","","","","","","","","","","","","","",""
"","ITI","","html-keyboard-response","316","364384","0.0-1.0-459.0","0","0","10184","","2","","","68","50","","","","","","","","","","","","","","","d",""
"","S1","","html-keyboard-response","317","364638","0.0-1.0-461.0","0","0","10184","","null","","","null","51","","","","","","","","","","","","","","","",""
"","ISI","","html-keyboard-response","318","364800","0.0-1.0-462.0","0","0","10184","","null","","","null","51","NaN","","","","","","","","","","","","","","",""
"","S2","","html-keyboard-response","319","364809","0.0-1.0-463.0","0","0","10184","","4","","","68","51","","d","2","51","training","adjacent","DE","4","5","Q.jpg","R.jpg","1","1","1","",""
"","feedback","","html-keyboard-response","320","365824","0.0-1.0-465.0-0.0","0","0","10184","","null","","","null","51","","","","","","","","","","","","","","","",""
"","ITI","","html-keyboard-response","321","366831","0.0-1.0-468.0","0","0","10184","","175","","","75","51","","","","","","","","","","","","","","","k",""
"","S1","","html-keyboard-response","322","367086","0.0-1.0-470.0","0","0","10184","","null","","","null","52","","","","","","","","","","","","","","","",""
"","ISI","","html-keyboard-response","323","367247","0.0-1.0-471.0","0","0","10184","","null","","","null","52","NaN","","","","","","","","","","","","","","",""
"","S2","","html-keyboard-response","324","367393","0.0-1.0-472.0","0","0","10184","","143","","","75","52","","k","2","52","training","adjacent","BC","2","3","P.jpg","M.jpg","0","1","0","",""
"","feedback","","html-keyboard-response","325","368399","0.0-1.0-474.0-0.0","0","0","10184","","null","","","null","52","","","","","","","","","","","","","","","",""
"","time_out","","html-keyboard-response","326","370410","0.0-1.0-476.0-0.0","0","0","10184","","null","","","null","52","","","","","","","","","","","","","","","",""
"","ITI","","html-keyboard-response","327","371416","0.0-1.0-477.0","0","0","10184","","28","","","68","52","","","","","","","","","","","","","","","d",""
"","S1","","html-keyboard-response","328","371672","0.0-1.0-479.0","0","0","10184","","null","","","null","53","","","","","","","","","","","","","","","",""
"","ISI","","html-keyboard-response","329","371832","0.0-1.0-480.0","0","0","10184","","1","","","68","53","d","","","","","","","","","","","","","","",""
"","S2","","html-keyboard-response","330","371937","0.0-1.0-481.0","0","0","10184","","100","","","68","53","","d","2","53","training","adjacent","CB","3","2","M.jpg","P.jpg","1","0","0","",""
"","feedback","","html-keyboard-response","331","372942","0.0-1.0-483.0-0.0","0","0","10184","","null","","","null","53","","","","","","","","","","","","","","","",""
"","time_out","","html-keyboard-response","332","374953","0.0-1.0-485.0-0.0","0","0","10184","","null","","","null","53","","","","","","","","","","","","","","","",""
"","ITI","","html-keyboard-response","333","375961","0.0-1.0-486.0","0","0","10184","","246","","","68","53","","","","","","","","","","","","","","","d",""
"","S1","","html-keyboard-response","334","376215","0.0-1.0-488.0","0","0","10184","","null","","","null","54","","","","","","","","","","","","","","","",""
"","ISI","","html-keyboard-response","335","376374","0.0-1.0-489.0","0","0","10184","","null","","","null","54","NaN","","","","","","","","","","","","","","",""
"","S2","","html-keyboard-response","336","376631","0.0-1.0-490.0","0","0","10184","","null","","","null","54","","NaN","","","","","","","","","","","","","",""
"","response","","html-keyboard-response","337","378392","0.0-1.0-491.0-0.0","0","0","10184","","null","","","null","54","","","2","54","training","adjacent","DC","4","3","Q.jpg","M.jpg","NaN","0","0","",""
"","too_slow_prompt","","html-keyboard-response","338","379400","0.0-1.0-493.0-0.0","1","0","10184","","null","","","null","","","","","","","","","","","","","","","","",""
"","time_out","","html-keyboard-response","339","381408","0.0-1.0-494.0-0.0","0","0","10184","","null","","","null","54","","","","","","","","","","","","","","","",""
"","ITI","","html-keyboard-response","340","382413","0.0-1.0-495.0","0","0","10184","","643","","","68","54","","","","","","","","","","","","","","","d",""
"","S1","","html-keyboard-response","341","382671","0.0-1.0-497.0","0","0","10184","","null","","","null","55","","","","","","","","","","","","","","","",""
"","ISI","","html-keyboard-response","342","382830","0.0-1.0-498.0","0","0","10184","","null","","","null","55","NaN","","","","","","","","","","","","","","",""
"","S2","","html-keyboard-response","343","383088","0.0-1.0-499.0","0","0","10184","","null","","","null","55","","NaN","","","","","","","","","","","","","",""
"","response","","html-keyboard-response","344","383705","0.0-1.0-500.0-0.0","0","0","10184","","611","","","68","55","","","2","55","training","adjacent","DE","4","5","Q.jpg","R.jpg","1","1","1","",""
"","feedback","","html-keyboard-response","345","384712","0.0-1.0-501.0-0.0","0","0","10184","","null","","","null","55","","","","","","","","","","","","","","","",""
"","ITI","","html-keyboard-response","346","385719","0.0-1.0-504.0","0","0","10184","","null","","","null","55","","","","","","","","","","","","","","","NaN",""
"","S1","","html-keyboard-response","347","385975","0.0-1.0-506.0","0","0","10184","","null","","","null","56","","","","","","","","","","","","","","","",""
"","ISI","","html-keyboard-response","348","386135","0.0-1.0-507.0","0","0","10184","","null","","","null","56","NaN","","","","","","","","","","","","","","",""
"","S2","","html-keyboard-response","349","386391","0.0-1.0-508.0","0","0","10184","","null","","","null","56","","NaN","","","","","","","","","","","","","",""
"","response","","html-keyboard-response","350","387736","0.0-1.0-509.0-0.0","0","0","10184","","1341","","","68","56","","","2","56","training","adjacent","AB","1","2","N.jpg","P.jpg","1","1","1","",""
"","feedback","","html-keyboard-response","351","388746","0.0-1.0-510.0-0.0","0","0","10184","","null","","","null","56","","","","","","","","","","","","","","","",""
"","ITI","","html-keyboard-response","352","389751","0.0-1.0-513.0","0","0","10184","","null","","","null","56","","","","","","","","","","","","","","","NaN",""
"","S1","","html-keyboard-response","353","390009","0.0-1.0-515.0","0","0","10184","","null","","","null","57","","","","","","","","","","","","","","","",""
"","ISI","","html-keyboard-response","354","390166","0.0-1.0-516.0","0","0","10184","","null","","","null","57","NaN","","","","","","","","","","","","","","",""
"","S2","","html-keyboard-response","355","390426","0.0-1.0-517.0","0","0","10184","","null","","","null","57","","NaN","","","","","","","","","","","","","",""
"","response","","html-keyboard-response","356","392185","0.0-1.0-518.0-0.0","0","0","10184","","null","","","null","57","","","2","57","training","adjacent","EF","5","6","R.jpg","L.jpg","NaN","1","0","",""
"","too_slow_prompt","","html-keyboard-response","357","393193","0.0-1.0-520.0-0.0","1","0","10184","","null","","","null","","","","","","","","","","","","","","","","",""
"","time_out","","html-keyboard-response","358","395200","0.0-1.0-521.0-0.0","0","0","10184","","null","","","null","57","","","","","","","","","","","","","","","",""
"","ITI","","html-keyboard-response","359","396210","0.0-1.0-522.0","0","0","10184","","260","","","75","57","","","","","","","","","","","","","","","k",""
"","S1","","html-keyboard-response","360","396472","0.0-1.0-524.0","0","0","10184","","null","","","null","58","","","","","","","","","","","","","","","",""
"","ISI","","html-keyboard-response","361","396630","0.0-1.0-525.0","0","0","10184","","null","","","null","58","NaN","","","","","","","","","","","","","","",""
"","S2","","html-keyboard-response","362","396887","0.0-1.0-526.0","0","0","10184","","250","","","68","58","","d","2","58","training","adjacent","EF","5","6","R.jpg","L.jpg","1","1","1","",""
"","feedback","","html-keyboard-response","363","397896","0.0-1.0-528.0-0.0","0","0","10184","","null","","","null","58","","","","","","","","","","","","","","","",""
"","ITI","","html-keyboard-response","364","398903","0.0-1.0-531.0","0","0","10184","","598","","","68","58","","","","","","","","","","","","","","","d",""
"","S1","","html-keyboard-response","365","399164","0.0-1.0-533.0","0","0","10184","","null","","","null","59","","","","","","","","","","","","","","","",""
"","ISI","","html-keyboard-response","366","399319","0.0-1.0-534.0","0","0","10184","","null","","","null","59","NaN","","","","","","","","","","","","","","",""
"","S2","","html-keyboard-response","367","399574","0.0-1.0-535.0","0","0","10184","","null","","","null","59","","NaN","","","","","","","","","","","","","",""
"","response","","html-keyboard-response","368","400208","0.0-1.0-536.0-0.0","0","0","10184","","630","","","68","59","","","2","59","training","adjacent","ED","5","4","R.jpg","Q.jpg","1","0","0","",""
"","feedback","","html-keyboard-response","369","401214","0.0-1.0-537.0-0.0","0","0","10184","","null","","","null","59","","","","","","","","","","","","","","","",""
"","time_out","","html-keyboard-response","370","403225","0.0-1.0-539.0-0.0","0","0","10184","","null","","","null","59","","","","","","","","","","","","","","","",""
"","ITI","","html-keyboard-response","371","404230","0.0-1.0-540.0","0","0","10184","","197","","","68","59","","","","","","","","","","","","","","","d",""
"","S1","","html-keyboard-response","372","404486","0.0-1.0-542.0","0","0","10184","","null","","","null","60","","","","","","","","","","","","","","","",""
"","ISI","","html-keyboard-response","373","404639","0.0-1.0-543.0","0","0","10184","","13","","","68","60","d","","","","","","","","","","","","","","",""
"","S2","","html-keyboard-response","374","404811","0.0-1.0-544.0","0","0","10184","","169","","","75","60","","k","2","60","training","adjacent","DC","4","3","Q.jpg","M.jpg","0","0","1","",""
"","feedback","","html-keyboard-response","375","405816","0.0-1.0-546.0-0.0","0","0","10184","","null","","","null","60","","","","","","","","","","","","","","","",""
"","ITI","","html-keyboard-response","376","406825","0.0-1.0-549.0","0","0","10184","","127","","","75","60","","","","","","","","","","","","","","","k",""
"","S1","","html-keyboard-response","377","407078","0.0-1.0-551.0","0","0","10184","","null","","","null","61","","","","","","","","","","","","","","","",""
"","ISI","","html-keyboard-response","378","407239","0.0-1.0-552.0","0","0","10184","","null","","","null","61","NaN","","","","","","","","","","","","","","",""
"","S2","","html-keyboard-response","379","407392","0.0-1.0-553.0","0","0","10184","","148","","","68","61","","d","2","61","training","adjacent","FE","6","5","L.jpg","R.jpg","1","0","0","",""
"","feedback","","html-keyboard-response","380","408409","0.0-1.0-555.0-0.0","0","0","10184","","null","","","null","61","","","","","","","","","","","","","","","",""
"","time_out","","html-keyboard-response","381","410417","0.0-1.0-557.0-0.0","0","0","10184","","null","","","null","61","","","","","","","","","","","","","","","",""
"","ITI","","html-keyboard-response","382","411424","0.0-1.0-558.0","0","0","10184","","142","","","75","61","","","","","","","","","","","","","","","k",""
"","S1","","html-keyboard-response","383","411677","0.0-1.0-560.0","0","0","10184","","null","","","null","62","","","","","","","","","","","","","","","",""
"","ISI","","html-keyboard-response","384","411838","0.0-1.0-561.0","0","0","10184","","null","","","null","62","NaN","","","","","","","","","","","","","","",""
"","S2","","html-keyboard-response","385","412094","0.0-1.0-562.0","0","0","10184","","null","","","null","62","","NaN","","","","","","","","","","","","","",""
"","response","","html-keyboard-response","386","412321","0.0-1.0-563.0-0.0","0","0","10184","","224","","","68","62","","","2","62","training","adjacent","ED","5","4","R.jpg","Q.jpg","1","0","0","",""
"","feedback","","html-keyboard-response","387","413335","0.0-1.0-564.0-0.0","0","0","10184","","null","","","null","62","","","","","","","","","","","","","","","",""
"","time_out","","html-keyboard-response","388","415343","0.0-1.0-566.0-0.0","0","0","10184","","null","","","null","62","","","","","","","","","","","","","","","",""
"","ITI","","html-keyboard-response","389","416352","0.0-1.0-567.0","0","0","10184","","694","","","68","62","","","","","","","","","","","","","","","d",""
"","S1","","html-keyboard-response","390","416613","0.0-1.0-569.0","0","0","10184","","null","","","null","63","","","","","","","","","","","","","","","",""
"","ISI","","html-keyboard-response","391","416775","0.0-1.0-570.0","0","0","10184","","null","","","null","63","NaN","","","","","","","","","","","","","","",""
"","S2","","html-keyboard-response","392","417030","0.0-1.0-571.0","0","0","10184","","null","","","null","63","","NaN","","","","","","","","","","","","","",""
"","response","","html-keyboard-response","393","417344","0.0-1.0-572.0-0.0","0","0","10184","","309","","","68","63","","","2","63","training","adjacent","GF","7","6","O.jpg","L.jpg","1","0","0","",""
"","feedback","","html-keyboard-response","394","418353","0.0-1.0-573.0-0.0","0","0","10184","","null","","","null","63","","","","","","","","","","","","","","","",""
"","time_out","","html-keyboard-response","395","420359","0.0-1.0-575.0-0.0","0","0","10184","","null","","","null","63","","","","","","","","","","","","","","","",""
"","ITI","","html-keyboard-response","396","421366","0.0-1.0-576.0","0","0","10184","","800","","","68","63","","","","","","","","","","","","","","","d",""
"","S1","","html-keyboard-response","397","421624","0.0-1.0-578.0","0","0","10184","","null","","","null","64","","","","","","","","","","","","","","","",""
"","ISI","","html-keyboard-response","398","421782","0.0-1.0-579.0","0","0","10184","","null","","","null","64","NaN","","","","","","","","","","","","","","",""
"","S2","","html-keyboard-response","399","422039","0.0-1.0-580.0","0","0","10184","","null","","","null","64","","NaN","","","","","","","","","","","","","",""
"","response","","html-keyboard-response","400","422452","0.0-1.0-581.0-0.0","0","0","10184","","410","","","68","64","","","2","64","training","adjacent","GF","7","6","O.jpg","L.jpg","1","0","0","",""
"","feedback","","html-keyboard-response","401","423463","0.0-1.0-582.0-0.0","0","0","10184","","null","","","null","64","","","","","","","","","","","","","","","",""
"","time_out","","html-keyboard-response","402","425471","0.0-1.0-584.0-0.0","0","0","10184","","null","","","null","64","","","","","","","","","","","","","","","",""
"","ITI","","html-keyboard-response","403","426480","0.0-1.0-585.0","0","0","10184","","null","","","null","64","","","","","","","","","","","","","","","NaN",""
"","S1","","html-keyboard-response","404","426734","0.0-1.0-587.0","0","0","10184","","null","","","null","65","","","","","","","","","","","","","","","",""
"","ISI","","html-keyboard-response","405","426893","0.0-1.0-588.0","0","0","10184","","72","","","75","65","k","","","","","","","","","","","","","","",""
"","S2","","html-keyboard-response","406","427150","0.0-1.0-589.0","0","0","10184","","null","","","null","65","","NaN","","","","","","","","","","","","","",""
"","response","","html-keyboard-response","407","428403","0.0-1.0-590.0-0.0","0","0","10184","","1249","","","68","65","","","2","65","training","adjacent","BC","2","3","P.jpg","M.jpg","1","1","1","",""
"","feedback","","html-keyboard-response","408","429414","0.0-1.0-591.0-0.0","0","0","10184","","null","","","null","65","","","","","","","","","","","","","","","",""
"","ITI","","html-keyboard-response","409","430424","0.0-1.0-594.0","0","0","10184","","634","","","68","65","","","","","","","","","","","","","","","d",""
"","S1","","html-keyboard-response","410","430686","0.0-1.0-596.0","0","0","10184","","null","","","null","66","","","","","","","","","","","","","","","",""
"","ISI","","html-keyboard-response","411","430847","0.0-1.0-597.0","0","0","10184","","null","","","null","66","NaN","","","","","","","","","","","","","","",""
"","S2","","html-keyboard-response","412","431101","0.0-1.0-598.0","0","0","10184","","null","","","null","66","","NaN","","","","","","","","","","","","","",""
"","response","","html-keyboard-response","413","431459","0.0-1.0-599.0-0.0","0","0","10184","","352","","","68","66","","","2","66","training","adjacent","ED","5","4","R.jpg","Q.jpg","1","0","0","",""
"","feedback","","html-keyboard-response","414","432470","0.0-1.0-600.0-0.0","0","0","10184","","null","","","null","66","","","","","","","","","","","","","","","",""
"","time_out","","html-keyboard-response","415","434478","0.0-1.0-602.0-0.0","0","0","10184","","null","","","null","66","","","","","","","","","","","","","","","",""
"","ITI","","html-keyboard-response","416","435487","0.0-1.0-603.0","0","0","10184","","null","","","null","66","","","","","","","","","","","","","","","NaN",""
"","S1","","html-keyboard-response","417","435742","0.0-1.0-605.0","0","0","10184","","null","","","null","67","","","","","","","","","","","","","","","",""
"","ISI","","html-keyboard-response","418","435901","0.0-1.0-606.0","0","0","10184","","null","","","null","67","NaN","","","","","","","","","","","","","","",""
"","S2","","html-keyboard-response","419","436157","0.0-1.0-607.0","0","0","10184","","null","","","null","67","","NaN","","","","","","","","","","","","","",""
"","response","","html-keyboard-response","420","436223","0.0-1.0-608.0-0.0","0","0","10184","","62","","","68","67","","","2","67","training","adjacent","CD","3","4","M.jpg","Q.jpg","1","1","1","",""
"","feedback","","html-keyboard-response","421","437238","0.0-1.0-609.0-0.0","0","0","10184","","null","","","null","67","","","","","","","","","","","","","","","",""
"","ITI","","html-keyboard-response","422","438247","0.0-1.0-612.0","0","0","10184","","829","","","68","67","","","","","","","","","","","","","","","d",""
"","S1","","html-keyboard-response","423","438504","0.0-1.0-614.0","0","0","10184","","null","","","null","68","","","","","","","","","","","","","","","",""
"","ISI","","html-keyboard-response","424","438664","0.0-1.0-615.0","0","0","10184","","null","","","null","68","NaN","","","","","","","","","","","","","","",""
"","S2","","html-keyboard-response","425","438918","0.0-1.0-616.0","0","0","10184","","null","","","null","68","","NaN","","","","","","","","","","","","","",""
"","response","","html-keyboard-response","426","440617","0.0-1.0-617.0-0.0","0","0","10184","","1695","","","68","68","","","2","68","training","adjacent","FE","6","5","L.jpg","R.jpg","1","0","0","",""
"","feedback","","html-keyboard-response","427","441621","0.0-1.0-618.0-0.0","0","0","10184","","null","","","null","68","","","","","","","","","","","","","","","",""
"","time_out","","html-keyboard-response","428","443634","0.0-1.0-620.0-0.0","0","0","10184","","null","","","null","68","","","","","","","","","","","","","","","",""
"","ITI","","html-keyboard-response","429","444640","0.0-1.0-621.0","0","0","10184","","null","","","null","68","","","","","","","","","","","","","","","NaN",""
"","S1","","html-keyboard-response","430","444903","0.0-1.0-623.0","0","0","10184","","null","","","null","69","","","","","","","","","","","","","","","",""
"","ISI","","html-keyboard-response","431","445061","0.0-1.0-624.0","0","0","10184","","26","","","68","69","d","","","","","","","","","","","","","","",""
"","S2","","html-keyboard-response","432","445197","0.0-1.0-625.0","0","0","10184","","131","","","75","69","","k","2","69","training","adjacent","FG","6","7","L.jpg","O.jpg","0","1","0","",""
"","feedback","","html-keyboard-response","433","446209","0.0-1.0-627.0-0.0","0","0","10184","","null","","","null","69","","","","","","","","","","","","","","","",""
"","time_out","","html-keyboard-response","434","448218","0.0-1.0-629.0-0.0","0","0","10184","","null","","","null","69","","","","","","","","","","","","","","","",""
"","ITI","","html-keyboard-response","435","449222","0.0-1.0-630.0","0","0","10184","","921","","","68","69","","","","","","","","","","","","","","","d",""
"","S1","","html-keyboard-response","436","449479","0.0-1.0-632.0","0","0","10184","","null","","","null","70","","","","","","","","","","","","","","","",""
"","ISI","","html-keyboard-response","437","449638","0.0-1.0-633.0","0","0","10184","","null","","","null","70","NaN","","","","","","","","","","","","","","",""
"","S2","","html-keyboard-response","438","449894","0.0-1.0-634.0","0","0","10184","","null","","","null","70","","NaN","","","","","","","","","","","","","",""
"","response","","html-keyboard-response","439","451444","0.0-1.0-635.0-0.0","0","0","10184","","1546","","","68","70","","","2","70","training","adjacent","BA","2","1","P.jpg","N.jpg","1","0","0","",""
"","feedback","","html-keyboard-response","440","452455","0.0-1.0-636.0-0.0","0","0","10184","","null","","","null","70","","","","","","","","","","","","","","","",""
"","time_out","","html-keyboard-response","441","454462","0.0-1.0-638.0-0.0","0","0","10184","","null","","","null","70","","","","","","","","","","","","","","","",""
"","ITI","","html-keyboard-response","442","455471","0.0-1.0-639.0","0","0","10184","","666","","","68","70","","","","","","","","","","","","","","","d",""
"","S1","","html-keyboard-response","443","455726","0.0-1.0-641.0","0","0","10184","","null","","","null","71","","","","","","","","","","","","","","","",""
"","ISI","","html-keyboard-response","444","455888","0.0-1.0-642.0","0","0","10184","","null","","","null","71","NaN","","","","","","","","","","","","","","",""
"","S2","","html-keyboard-response","445","456077","0.0-1.0-643.0","0","0","10184","","184","","","68","71","","d","2","71","training","adjacent","BC","2","3","P.jpg","M.jpg","1","1","1","",""
"","feedback","","html-keyboard-response","446","457092","0.0-1.0-645.0-0.0","0","0","10184","","null","","","null","71","","","","","","","","","","","","","","","",""
"","ITI","","html-keyboard-response","447","458101","0.0-1.0-648.0","0","0","10184","","716","","","68","71","","","","","","","","","","","","","","","d",""
"","S1","","html-keyboard-response","448","458358","0.0-1.0-650.0","0","0","10184","","null","","","null","72","","","","","","","","","","","","","","","",""
"","ISI","","html-keyboard-response","449","458517","0.0-1.0-651.0","0","0","10184","","null","","","null","72","NaN","","","","","","","","","","","","","","",""
"","S2","","html-keyboard-response","450","458776","0.0-1.0-652.0","0","0","10184","","null","","","null","72","","NaN","","","","","","","","","","","","","",""
"","response","","html-keyboard-response","451","459454","0.0-1.0-653.0-0.0","0","0","10184","","673","","","68","72","","","2","72","training","adjacent","AB","1","2","N.jpg","P.jpg","1","1","1","",""
"","feedback","","html-keyboard-response","452","460467","0.0-1.0-654.0-0.0","0","0","10184","","null","","","null","72","","","","","","","","","","","","","","","",""
"","ITI","","html-keyboard-response","453","461479","0.0-1.0-657.0","0","0","10184","","838","","","68","72","","","","","","","","","","","","","","","d",""
"","S1","","html-keyboard-response","454","461733","0.0-1.0-659.0","0","0","10184","","null","","","null","73","","","","","","","","","","","","","","","",""
"","ISI","","html-keyboard-response","455","461894","0.0-1.0-660.0","0","0","10184","","null","","","null","73","NaN","","","","","","","","","","","","","","",""
"","S2","","html-keyboard-response","456","462150","0.0-1.0-661.0","0","0","10184","","null","","","null","73","","NaN","","","","","","","","","","","","","",""
"","response","","html-keyboard-response","457","462417","0.0-1.0-662.0-0.0","0","0","10184","","263","","","68","73","","","2","73","training","adjacent","DC","4","3","Q.jpg","M.jpg","1","0","0","",""
"","feedback","","html-keyboard-response","458","463422","0.0-1.0-663.0-0.0","0","0","10184","","null","","","null","73","","","","","","","","","","","","","","","",""
"","time_out","","html-keyboard-response","459","465429","0.0-1.0-665.0-0.0","0","0","10184","","null","","","null","73","","","","","","","","","","","","","","","",""
"","ITI","","html-keyboard-response","460","466440","0.0-1.0-666.0","0","0","10184","","857","","","68","73","","","","","","","","","","","","","","","d",""
"","S1","","html-keyboard-response","461","466694","0.0-1.0-668.0","0","0","10184","","null","","","null","74","","","","","","","","","","","","","","","",""
"","ISI","","html-keyboard-response","462","466854","0.0-1.0-669.0","0","0","10184","","null","","","null","74","NaN","","","","","","","","","","","","","","",""
"","S2","","html-keyboard-response","463","467112","0.0-1.0-670.0","0","0","10184","","null","","","null","74","","NaN","","","","","","","","","","","","","",""
"","response","","html-keyboard-response","464","468224","0.0-1.0-671.0-0.0","0","0","10184","","1107","","","75","74","","","2","74","training","adjacent","DE","4","5","Q.jpg","R.jpg","0","1","0","",""
"","feedback","","html-keyboard-response","465","469231","0.0-1.0-672.0-0.0","0","0","10184","","null","","","null","74","","","","","","","","","","","","","","","",""
"","time_out","","html-keyboard-response","466","471239","0.0-1.0-674.0-0.0","0","0","10184","","null","","","null","74","","","","","","","","","","","","","","","",""
"","ITI","","html-keyboard-response","467","472248","0.0-1.0-675.0","0","0","10184","","null","","","null","74","","","","","","","","","","","","","","","NaN",""
"","S1","","html-keyboard-response","468","472510","0.0-1.0-677.0","0","0","10184","","null","","","null","75","","","","","","","","","","","","","","","",""
"","ISI","","html-keyboard-response","469","472671","0.0-1.0-678.0","0","0","10184","","92","","","68","75","d","","","","","","","","","","","","","","",""
"","S2","","html-keyboard-response","470","472926","0.0-1.0-679.0","0","0","10184","","null","","","null","75","","NaN","","","","","","","","","","","","","",""
"","response","","html-keyboard-response","471","474689","0.0-1.0-680.0-0.0","0","0","10184","","null","","","null","75","","","2","75","training","adjacent","CD","3","4","M.jpg","Q.jpg","NaN","1","0","",""
"","too_slow_prompt","","html-keyboard-response","472","475702","0.0-1.0-682.0-0.0","1","0","10184","","null","","","null","","","","","","","","","","","","","","","","",""
"","time_out","","html-keyboard-response","473","477712","0.0-1.0-683.0-0.0","0","0","10184","","null","","","null","75","","","","","","","","","","","","","","","",""
"","ITI","","html-keyboard-response","474","478719","0.0-1.0-684.0","0","0","10184","","null","","","null","75","","","","","","","","","","","","","","","NaN",""
"","S1","","html-keyboard-response","475","478974","0.0-1.0-686.0","0","0","10184","","null","","","null","76","","","","","","","","","","","","","","","",""
"","ISI","","html-keyboard-response","476","479135","0.0-1.0-687.0","0","0","10184","","null","","","null","76","NaN","","","","","","","","","","","","","","",""
"","S2","","html-keyboard-response","477","479391","0.0-1.0-688.0","0","0","10184","","null","","","null","76","","NaN","","","","","","","","","","","","","",""
"","response","","html-keyboard-response","478","479572","0.0-1.0-689.0-0.0","0","0","10184","","177","","","68","76","","","2","76","training","adjacent","DE","4","5","Q.jpg","R.jpg","1","1","1","",""
"","feedback","","html-keyboard-response","479","480584","0.0-1.0-690.0-0.0","0","0","10184","","null","","","null","76","","","","","","","","","","","","","","","",""
"","ITI","","html-keyboard-response","480","481592","0.0-1.0-693.0","0","0","10184","","638","","","68","76","","","","","","","","","","","","","","","d",""
"","S1","","html-keyboard-response","481","481855","0.0-1.0-695.0","0","0","10184","","null","","","null","77","","","","","","","","","","","","","","","",""
"","ISI","","html-keyboard-response","482","482015","0.0-1.0-696.0","0","0","10184","","null","","","null","77","NaN","","","","","","","","","","","","","","",""
"","S2","","html-keyboard-response","483","482270","0.0-1.0-697.0","0","0","10184","","null","","","null","77","","NaN","","","","","","","","","","","","","",""
"","response","","html-keyboard-response","484","482695","0.0-1.0-698.0-0.0","0","0","10184","","420","","","68","77","","","2","77","training","adjacent","BA","2","1","P.jpg","N.jpg","1","0","0","",""
"","feedback","","html-keyboard-response","485","483703","0.0-1.0-699.0-0.0","0","0","10184","","null","","","null","77","","","","","","","","","","","","","","","",""
"","time_out","","html-keyboard-response","486","485711","0.0-1.0-701.0-0.0","0","0","10184","","null","","","null","77","","","","","","","","","","","","","","","",""
"","ITI","","html-keyboard-response","487","486717","0.0-1.0-702.0","0","0","10184","","810","","","68","77","","","","","","","","","","","","","","","d",""
"","S1","","html-keyboard-response","488","486976","0.0-1.0-704.0","0","0","10184","","null","","","null","78","","","","","","","","","","","","","","","",""
"","ISI","","html-keyboard-response","489","487133","0.0-1.0-705.0","0","0","10184","","null","","","null","78","NaN","","","","","","","","","","","","","","",""
"","S2","","html-keyboard-response","490","487390","0.0-1.0-706.0","0","0","10184","","null","","","null","78","","NaN","","","","","","","","","","","","","",""
"","response","","html-keyboard-response","491","487986","0.0-1.0-707.0-0.0","0","0","10184","","591","","","68","78","","","2","78","training","adjacent","BA","2","1","P.jpg","N.jpg","1","0","0","",""
"","feedback","","html-keyboard-response","492","488994","0.0-1.0-708.0-0.0","0","0","10184","","null","","","null","78","","","","","","","","","","","","","","","",""
"","time_out","","html-keyboard-response","493","491008","0.0-1.0-710.0-0.0","0","0","10184","","null","","","null","78","","","","","","","","","","","","","","","",""
"","ITI","","html-keyboard-response","494","492015","0.0-1.0-711.0","0","0","10184","","null","","","null","78","","","","","","","","","","","","","","","NaN",""
"","S1","","html-keyboard-response","495","492270","0.0-1.0-713.0","0","0","10184","","null","","","null","79","","","","","","","","","","","","","","","",""
"","ISI","","html-keyboard-response","496","492430","0.0-1.0-714.0","0","0","10184","","136","","","68","79","d","","","","","","","","","","","","","","",""
"","S2","","html-keyboard-response","497","492667","0.0-1.0-715.0","0","0","10184","","232","","","75","79","","k","2","79","training","adjacent","CB","3","2","M.jpg","P.jpg","0","0","1","",""
"","feedback","","html-keyboard-response","498","493681","0.0-1.0-717.0-0.0","0","0","10184","","null","","","null","79","","","","","","","","","","","","","","","",""
"","ITI","","html-keyboard-response","499","494693","0.0-1.0-720.0","0","0","10184","","null","","","null","79","","","","","","","","","","","","","","","NaN",""
"","S1","","html-keyboard-response","500","494951","0.0-1.0-722.0","0","0","10184","","null","","","null","80","","","","","","","","","","","","","","","",""
"","ISI","","html-keyboard-response","501","495109","0.0-1.0-723.0","0","0","10184","","0","","","68","80","d","","","","","","","","","","","","","","",""
"","S2","","html-keyboard-response","502","495142","0.0-1.0-724.0","0","0","10184","","29","","","75","80","","k","2","80","training","adjacent","CB","3","2","M.jpg","P.jpg","0","0","1","",""
"","feedback","","html-keyboard-response","503","496156","0.0-1.0-726.0-0.0","0","0","10184","","null","","","null","80","","","","","","","","","","","","","","","",""
"","ITI","","html-keyboard-response","504","497165","0.0-1.0-729.0","0","0","10184","","null","","","null","80","","","","","","","","","","","","","","","NaN",""
"","S1","","html-keyboard-response","505","497424","0.0-1.0-731.0","0","0","10184","","null","","","null","81","","","","","","","","","","","","","","","",""
"","ISI","","html-keyboard-response","506","497582","0.0-1.0-732.0","0","0","10184","","137","","","75","81","k","","","","","","","","","","","","","","",""
"","S2","","html-keyboard-response","507","497752","0.0-1.0-733.0","0","0","10184","","165","","","68","81","","d","2","81","training","adjacent","BC","2","3","P.jpg","M.jpg","1","1","1","",""
"","feedback","","html-keyboard-response","508","498758","0.0-1.0-735.0-0.0","0","0","10184","","null","","","null","81","","","","","","","","","","","","","","","",""
"","ITI","","html-keyboard-response","509","499766","0.0-1.0-738.0","0","0","10184","","959","","","68","81","","","","","","","","","","","","","","","d",""
"","S1","","html-keyboard-response","510","500022","0.0-1.0-740.0","0","0","10184","","null","","","null","82","","","","","","","","","","","","","","","",""
"","ISI","","html-keyboard-response","511","500182","0.0-1.0-741.0","0","0","10184","","57","","","68","82","d","","","","","","","","","","","","","","",""
"","S2","","html-keyboard-response","512","500321","0.0-1.0-742.0","0","0","10184","","135","","","75","82","","k","2","82","training","adjacent","FG","6","7","L.jpg","O.jpg","0","1","0","",""
"","feedback","","html-keyboard-response","513","501326","0.0-1.0-744.0-0.0","0","0","10184","","null","","","null","82","","","","","","","","","","","","","","","",""
"","time_out","","html-keyboard-response","514","503337","0.0-1.0-746.0-0.0","0","0","10184","","null","","","null","82","","","","","","","","","","","","","","","",""
"","ITI","","html-keyboard-response","515","504344","0.0-1.0-747.0","0","0","10184","","471","","","75","82","","","","","","","","","","","","","","","k",""
"","S1","","html-keyboard-response","516","504605","0.0-1.0-749.0","0","0","10184","","null","","","null","83","","","","","","","","","","","","","","","",""
"","ISI","","html-keyboard-response","517","504765","0.0-1.0-750.0","0","0","10184","","142","","","68","83","d","","","","","","","","","","","","","","",""
"","S2","","html-keyboard-response","518","505023","0.0-1.0-751.0","0","0","10184","","null","","","null","83","","NaN","","","","","","","","","","","","","",""
"","response","","html-keyboard-response","519","505152","0.0-1.0-752.0-0.0","0","0","10184","","124","","","75","83","","","2","83","training","adjacent","FG","6","7","L.jpg","O.jpg","0","1","0","",""
"","feedback","","html-keyboard-response","520","506160","0.0-1.0-753.0-0.0","0","0","10184","","null","","","null","83","","","","","","","","","","","","","","","",""
"","time_out","","html-keyboard-response","521","508169","0.0-1.0-755.0-0.0","0","0","10184","","null","","","null","83","","","","","","","","","","","","","","","",""
"","ITI","","html-keyboard-response","522","509176","0.0-1.0-756.0","0","0","10184","","null","","","null","83","","","","","","","","","","","","","","","NaN",""
"","S1","","html-keyboard-response","523","509438","0.0-1.0-758.0","0","0","10184","","null","","","null","84","","","","","","","","","","","","","","","",""
"","ISI","","html-keyboard-response","524","509599","0.0-1.0-759.0","0","0","10184","","null","","","null","84","NaN","","","","","","","","","","","","","","",""
"","S2","","html-keyboard-response","525","509853","0.0-1.0-760.0","0","0","10184","","null","","","null","84","","NaN","","","","","","","","","","","","","",""
"","response","","html-keyboard-response","526","510768","0.0-1.0-761.0-0.0","0","0","10184","","912","","","75","84","","","2","84","training","adjacent","EF","5","6","R.jpg","L.jpg","0","1","0","",""
"","feedback","","html-keyboard-response","527","511774","0.0-1.0-762.0-0.0","0","0","10184","","null","","","null","84","","","","","","","","","","","","","","","",""
"","time_out","","html-keyboard-response","528","513783","0.0-1.0-764.0-0.0","0","0","10184","","null","","","null","84","","","","","","","","","","","","","","","",""
"","ITI","","html-keyboard-response","529","514790","0.0-1.0-765.0","0","0","10184","","null","","","null","84","","","","","","","","","","","","","","","NaN",""
"","S1","","html-keyboard-response","530","515047","0.0-1.0-767.0","0","0","10184","","null","","","null","85","","","","","","","","","","","","","","","",""
"","ISI","","html-keyboard-response","531","515206","0.0-1.0-768.0","0","0","10184","","null","","","null","85","NaN","","","","","","","","","","","","","","",""
"","S2","","html-keyboard-response","532","515403","0.0-1.0-769.0","0","0","10184","","193","","","68","85","","d","2","85","training","adjacent","CB","3","2","M.jpg","P.jpg","1","0","0","",""
"","feedback","","html-keyboard-response","533","516415","0.0-1.0-771.0-0.0","0","0","10184","","null","","","null","85","","","","","","","","","","","","","","","",""
"","time_out","","html-keyboard-response","534","518423","0.0-1.0-773.0-0.0","0","0","10184","","null","","","null","85","","","","","","","","","","","","","","","",""
"","ITI","","html-keyboard-response","535","519431","0.0-1.0-774.0","0","0","10184","","764","","","68","85","","","","","","","","","","","","","","","d",""
"","S1","","html-keyboard-response","536","519685","0.0-1.0-776.0","0","0","10184","","null","","","null","86","","","","","","","","","","","","","","","",""
"","ISI","","html-keyboard-response","537","519846","0.0-1.0-777.0","0","0","10184","","null","","","null","86","NaN","","","","","","","","","","","","","","",""
"","S2","","html-keyboard-response","538","520102","0.0-1.0-778.0","0","0","10184","","null","","","null","86","","NaN","","","","","","","","","","","","","",""
"","response","","html-keyboard-response","539","520573","0.0-1.0-779.0-0.0","0","0","10184","","467","","","68","86","","","2","86","training","adjacent","ED","5","4","R.jpg","Q.jpg","1","0","0","",""
"","feedback","","html-keyboard-response","540","521582","0.0-1.0-780.0-0.0","0","0","10184","","null","","","null","86","","","","","","","","","","","","","","","",""
"","time_out","","html-keyboard-response","541","523596","0.0-1.0-782.0-0.0","0","0","10184","","null","","","null","86","","","","","","","","","","","","","","","",""
"","ITI","","html-keyboard-response","542","524608","0.0-1.0-783.0","0","0","10184","","null","","","null","86","","","","","","","","","","","","","","","NaN",""
"","S1","","html-keyboard-response","543","524869","0.0-1.0-785.0","0","0","10184","","null","","","null","87","","","","","","","","","","","","","","","",""
"","ISI","","html-keyboard-response","544","525021","0.0-1.0-786.0","0","0","10184","","null","","","null","87","NaN","","","","","","","","","","","","","","",""
"","S2","","html-keyboard-response","545","525191","0.0-1.0-787.0","0","0","10184","","166","","","68","87","","d","2","87","training","adjacent","EF","5","6","R.jpg","L.jpg","1","1","1","",""
"","feedback","","html-keyboard-response","546","526198","0.0-1.0-789.0-0.0","0","0","10184","","null","","","null","87","","","","","","","","","","","","","","","",""
"","ITI","","html-keyboard-response","547","527206","0.0-1.0-792.0","0","0","10184","","691","","","68","87","","","","","","","","","","","","","","","d",""
"","S1","","html-keyboard-response","548","527461","0.0-1.0-794.0","0","0","10184","","null","","","null","88","","","","","","","","","","","","","","","",""
"","ISI","","html-keyboard-response","549","527614","0.0-1.0-795.0","0","0","10184","","null","","","null","88","NaN","","","","","","","","","","","","","","",""
"","S2","","html-keyboard-response","550","527870","0.0-1.0-796.0","0","0","10184","","null","","","null","88","","NaN","","","","","","","","","","","","","",""
"","response","","html-keyboard-response","551","528444","0.0-1.0-797.0-0.0","0","0","10184","","569","","","68","88","","","2","88","training","adjacent","FE","6","5","L.jpg","R.jpg","1","0","0","",""
"","feedback","","html-keyboard-response","552","529456","0.0-1.0-798.0-0.0","0","0","10184","","null","","","null","88","","","","","","","","","","","","","","","",""
"","time_out","","html-keyboard-response","553","531474","0.0-1.0-800.0-0.0","0","0","10184","","null","","","null","88","","","","","","","","","","","","","","","",""
"","ITI","","html-keyboard-response","554","532479","0.0-1.0-801.0","0","0","10184","","null","","","null","88","","","","","","","","","","","","","","","NaN",""
"","S1","","html-keyboard-response","555","532734","0.0-1.0-803.0","0","0","10184","","null","","","null","89","","","","","","","","","","","","","","","",""
"","ISI","","html-keyboard-response","556","532893","0.0-1.0-804.0","0","0","10184","","125","","","68","89","d","","","","","","","","","","","","","","",""
"","S2","","html-keyboard-response","557","533035","0.0-1.0-805.0","0","0","10184","","139","","","75","89","","k","2","89","training","adjacent","AB","1","2","N.jpg","P.jpg","0","1","0","",""
"","feedback","","html-keyboard-response","558","534046","0.0-1.0-807.0-0.0","0","0","10184","","null","","","null","89","","","","","","","","","","","","","","","",""
"","time_out","","html-keyboard-response","559","536055","0.0-1.0-809.0-0.0","0","0","10184","","null","","","null","89","","","","","","","","","","","","","","","",""
"","ITI","","html-keyboard-response","560","537062","0.0-1.0-810.0","0","0","10184","","null","","","null","89","","","","","","","","","","","","","","","NaN",""
"","S1","","html-keyboard-response","561","537319","0.0-1.0-812.0","0","0","10184","","null","","","null","90","","","","","","","","","","","","","","","",""
"","ISI","","html-keyboard-response","562","537484","0.0-1.0-813.0","0","0","10184","","null","","","null","90","NaN","","","","","","","","","","","","","","",""
"","S2","","html-keyboard-response","563","537742","0.0-1.0-814.0","0","0","10184","","null","","","null","90","","NaN","","","","","","","","","","","","","",""
"","response","","html-keyboard-response","564","538494","0.0-1.0-815.0-0.0","0","0","10184","","747","","","68","90","","","2","90","training","adjacent","AB","1","2","N.jpg","P.jpg","1","1","1","",""
"","feedback","","html-keyboard-response","565","539502","0.0-1.0-816.0-0.0","0","0","10184","","null","","","null","90","","","","","","","","","","","","","","","",""
"","ITI","","html-keyboard-response","566","540510","0.0-1.0-819.0","0","0","10184","","null","","","null","90","","","","","","","","","","","","","","","NaN",""
"","S1","","html-keyboard-response","567","540767","0.0-1.0-821.0","0","0","10184","","null","","","null","91","","","","","","","","","","","","","","","",""
"","ISI","","html-keyboard-response","568","540925","0.0-1.0-822.0","0","0","10184","","null","","","null","91","NaN","","","","","","","","","","","","","","",""
"","S2","","html-keyboard-response","569","541037","0.0-1.0-823.0","0","0","10184","","107","","","68","91","","d","2","91","training","adjacent","CD","3","4","M.jpg","Q.jpg","1","1","1","",""
"","feedback","","html-keyboard-response","570","542053","0.0-1.0-825.0-0.0","0","0","10184","","null","","","null","91","","","","","","","","","","","","","","","",""
"","ITI","","html-keyboard-response","571","543062","0.0-1.0-828.0","0","0","10184","","1","","","68","91","","","","","","","","","","","","","","","d",""
"","S1","","html-keyboard-response","572","543320","0.0-1.0-830.0","0","0","10184","","null","","","null","92","","","","","","","","","","","","","","","",""
"","ISI","","html-keyboard-response","573","543478","0.0-1.0-831.0","0","0","10184","","null","","","null","92","NaN","","","","","","","","","","","","","","",""
"","S2","","html-keyboard-response","574","543734","0.0-1.0-832.0","0","0","10184","","null","","","null","92","","NaN","","","","","","","","","","","","","",""
"","response","","html-keyboard-response","575","543754","0.0-1.0-833.0-0.0","0","0","10184","","15","","","68","92","","","2","92","training","adjacent","FE","6","5","L.jpg","R.jpg","1","0","0","",""
"","feedback","","html-keyboard-response","576","544759","0.0-1.0-834.0-0.0","0","0","10184","","null","","","null","92","","","","","","","","","","","","","","","",""
"","time_out","","html-keyboard-response","577","546768","0.0-1.0-836.0-0.0","0","0","10184","","null","","","null","92","","","","","","","","","","","","","","","",""
