"success","ttype","start_time","trial_type","trial_index","time_elapsed","internal_node_id","warning","missed_checkup","PID","view_history","rt","responses","repeat_instructions","key_press","index","keypress_isi","keypress_S2","block","trial_num","phase","group_type","pair_type","S1_stim","S2_stim","S1_img","S2_img","S1_chosen","S1_higher","accuracy","keypress_iti","total_bonus_tally"
"true","full_screen","d03072023hr1749","fullscreen","0","2692","0.0-0.0","0","0","64375","","","","","","","","","","","","","","","","","","","","","",""
"","instructions","","instructions","1","20372","0.0-1.0-0.0-0.0","0","0","64375","[{""page_index"":0,""viewing_time"":4484},{""page_index"":1,""viewing_time"":8107},{""page_index"":2,""viewing_time"":3666},{""page_index"":3,""viewing_time"":1413}]","17671","","","","","","","","","","","","","","","","","","","",""
"","comprehension_check","","survey-multi-choice","2","43590","0.0-1.0-0.0-1.0","0","0","64375","","23213","{""Q0"":""False"",""Q1"":""K"",""Q2"":""Only while the second image is shown"",""Q3"":""Green mark"",""Q4"":""either D or K""}","1","","","","","","","","","","","","","","","","","",""
"","missed_instruction_checkup","","html-keyboard-response","3","45575","0.0-1.0-0.0-2.0-0.0","0","1","64375","","1981","","","32","","","","","","","","","","","","","","","","",""
"","instructions","","instructions","4","78975","0.0-1.0-0.1-0.1","0","0","64375","[{""page_index"":0,""viewing_time"":3268},{""page_index"":1,""viewing_time"":19190},{""page_index"":2,""viewing_time"":10011},{""page_index"":3,""viewing_time"":925}]","33395","","","","","","","","","","","","","","","","","","","",""
"","comprehension_check","","survey-multi-choice","5","103969","0.0-1.0-0.1-1.1","0","0","64375","","24986","{""Q0"":""True"",""Q1"":""K"",""Q2"":""Only when the screen 'MAKE A CHOICE' is shown"",""Q3"":""Green mark"",""Q4"":""either D or K""}","1","","","","","","","","","","","","","","","","","",""
"","missed_instruction_checkup","","html-keyboard-response","6","105537","0.0-1.0-0.1-2.1-0.1","0","1","64375","","1557","","","32","","","","","","","","","","","","","","","","",""
"","instructions","","instructions","7","126717","0.0-1.0-0.2-0.2","0","0","64375","[{""page_index"":0,""viewing_time"":2043},{""page_index"":1,""viewing_time"":16932},{""page_index"":2,""viewing_time"":1618},{""page_index"":3,""viewing_time"":582}]","21176","","","","","","","","","","","","","","","","","","","",""
"","comprehension_check","","survey-multi-choice","8","141554","0.0-1.0-0.2-1.2","0","0","64375","","14828","{""Q0"":""True"",""Q1"":""K"",""Q2"":""Once the second image appears and while the screen 'MAKE A CHOICE' is shown"",""Q3"":""Green mark"",""Q4"":""either D or K""}","0","","","","","","","","","","","","","","","","","",""
"","start_exp","","html-keyboard-response","9","142907","0.0-1.0-1.0","0","0","64375","","1349","","","32","","","","","","","","","","","","","","","","",""
"","S1","","html-keyboard-response","10","143167","0.0-1.0-2.0","0","0","64375","","null","","","null","0","","","","","","","","","","","","","","","",""
"","ISI","","html-keyboard-response","11","144176","0.0-1.0-3.0","0","0","64375","","null","","","null","0","NaN","","","","","","","","","","","","","","",""
"","S2","","html-keyboard-response","12","144433","0.0-1.0-4.0","0","0","64375","","null","","","null","0","","NaN","","","","","","","","","","","","","",""
"","response","","html-keyboard-response","13","146192","0.0-1.0-5.0-0.0","0","0","64375","","null","","","null","0","","","1","0","training","adjacent","BC","2","3","O.jpg","P.jpg","NaN","1","0","",""
"","too_slow_prompt","","html-keyboard-response","14","147200","0.0-1.0-7.0-0.0","1","0","64375","","null","","","null","","","","","","","","","","","","","","","","",""
"","time_out","","html-keyboard-response","15","149211","0.0-1.0-8.0-0.0","0","0","64375","","null","","","null","0","","","","","","","","","","","","","","","",""
"","ITI","","html-keyboard-response","16","150225","0.0-1.0-9.0","0","0","64375","","787","","","75","0","","","","","","","","","","","","","","","k",""
"","S1","","html-keyboard-response","17","150489","0.0-1.0-11.0","0","0","64375","","null","","","null","1","","","","","","","","","","","","","","","",""
"","ISI","","html-keyboard-response","18","151498","0.0-1.0-12.0","0","0","64375","","null","","","null","1","NaN","","","","","","","","","","","","","","",""
"","S2","","html-keyboard-response","19","151761","0.0-1.0-13.0","0","0","64375","","null","","","null","1","","NaN","","","","","","","","","","","","","",""
"","response","","html-keyboard-response","20","152503","0.0-1.0-14.0-0.0","0","0","64375","","737","","","68","1","","","1","1","training","adjacent","EF","5","6","N.jpg","M.jpg","0","1","0","",""
"","feedback","","html-keyboard-response","21","153514","0.0-1.0-15.0-0.0","0","0","64375","","null","","","null","1","","","","","","","","","","","","","","","",""
"","time_out","","html-keyboard-response","22","155528","0.0-1.0-17.0-0.0","0","0","64375","","null","","","null","1","","","","","","","","","","","","","","","",""
"","ITI","","html-keyboard-response","23","156539","0.0-1.0-18.0","0","0","64375","","null","","","null","1","","","","","","","","","","","","","","","NaN",""
"","S1","","html-keyboard-response","24","156800","0.0-1.0-20.0","0","0","64375","","null","","","null","2","","","","","","","","","","","","","","","",""
"","ISI","","html-keyboard-response","25","157806","0.0-1.0-21.0","0","0","64375","","261","","","75","2","k","","","","","","","","","","","","","","",""
"","S2","","html-keyboard-response","26","158064","0.0-1.0-22.0","0","0","64375","","null","","","null","2","","NaN","","","","","","","","","","","","","",""
"","response","","html-keyboard-response","27","158698","0.0-1.0-23.0-0.0","0","0","64375","","631","","","75","2","","","1","2","training","adjacent","FG","6","7","M.jpg","Q.jpg","1","1","1","",""
"","feedback","","html-keyboard-response","28","159706","0.0-1.0-24.0-0.0","0","0","64375","","null","","","null","2","","","","","","","","","","","","","","","",""
"","ITI","","html-keyboard-response","29","160715","0.0-1.0-27.0","0","0","64375","","null","","","null","2","","","","","","","","","","","","","","","NaN",""
"","S1","","html-keyboard-response","30","160974","0.0-1.0-29.0","0","0","64375","","null","","","null","3","","","","","","","","","","","","","","","",""
"","ISI","","html-keyboard-response","31","161981","0.0-1.0-30.0","0","0","64375","","null","","","null","3","NaN","","","","","","","","","","","","","","",""
"","S2","","html-keyboard-response","32","162238","0.0-1.0-31.0","0","0","64375","","null","","","null","3","","NaN","","","","","","","","","","","","","",""
"","response","","html-keyboard-response","33","162407","0.0-1.0-32.0-0.0","0","0","64375","","165","","","75","3","","","1","3","training","adjacent","GF","7","6","Q.jpg","M.jpg","1","0","0","",""
"","feedback","","html-keyboard-response","34","163418","0.0-1.0-33.0-0.0","0","0","64375","","null","","","null","3","","","","","","","","","","","","","","","",""
"","time_out","","html-keyboard-response","35","165423","0.0-1.0-35.0-0.0","0","0","64375","","null","","","null","3","","","","","","","","","","","","","","","",""
"","ITI","","html-keyboard-response","36","166432","0.0-1.0-36.0","0","0","64375","","null","","","null","3","","","","","","","","","","","","","","","NaN",""
"","S1","","html-keyboard-response","37","166698","0.0-1.0-38.0","0","0","64375","","null","","","null","4","","","","","","","","","","","","","","","",""
"","ISI","","html-keyboard-response","38","167706","0.0-1.0-39.0","0","0","64375","","null","","","null","4","NaN","","","","","","","","","","","","","","",""
"","S2","","html-keyboard-response","39","167968","0.0-1.0-40.0","0","0","64375","","null","","","null","4","","NaN","","","","","","","","","","","","","",""
"","response","","html-keyboard-response","40","168344","0.0-1.0-41.0-0.0","0","0","64375","","371","","","75","4","","","1","4","training","adjacent","CB","3","2","P.jpg","O.jpg","1","0","0","",""
"","feedback","","html-keyboard-response","41","169355","0.0-1.0-42.0-0.0","0","0","64375","","null","","","null","4","","","","","","","","","","","","","","","",""
"","time_out","","html-keyboard-response","42","171371","0.0-1.0-44.0-0.0","0","0","64375","","null","","","null","4","","","","","","","","","","","","","","","",""
"","ITI","","html-keyboard-response","43","172381","0.0-1.0-45.0","0","0","64375","","null","","","null","4","","","","","","","","","","","","","","","NaN",""
"","S1","","html-keyboard-response","44","172640","0.0-1.0-47.0","0","0","64375","","null","","","null","5","","","","","","","","","","","","","","","",""
"","ISI","","html-keyboard-response","45","173649","0.0-1.0-48.0","0","0","64375","","null","","","null","5","NaN","","","","","","","","","","","","","","",""
"","S2","","html-keyboard-response","46","173913","0.0-1.0-49.0","0","0","64375","","null","","","null","5","","NaN","","","","","","","","","","","","","",""
"","response","","html-keyboard-response","47","174177","0.0-1.0-50.0-0.0","0","0","64375","","262","","","68","5","","","1","5","training","adjacent","FG","6","7","M.jpg","Q.jpg","0","1","0","",""
"","feedback","","html-keyboard-response","48","175182","0.0-1.0-51.0-0.0","0","0","64375","","null","","","null","5","","","","","","","","","","","","","","","",""
"","time_out","","html-keyboard-response","49","177192","0.0-1.0-53.0-0.0","0","0","64375","","null","","","null","5","","","","","","","","","","","","","","","",""
"","ITI","","html-keyboard-response","50","178202","0.0-1.0-54.0","0","0","64375","","null","","","null","5","","","","","","","","","","","","","","","NaN",""
"","S1","","html-keyboard-response","51","178464","0.0-1.0-56.0","0","0","64375","","null","","","null","6","","","","","","","","","","","","","","","",""
"","ISI","","html-keyboard-response","52","179472","0.0-1.0-57.0","0","0","64375","","81","","","75","6","k","","","","","","","","","","","","","","",""
"","S2","","html-keyboard-response","53","179737","0.0-1.0-58.0","0","0","64375","","null","","","null","6","","NaN","","","","","","","","","","","","","",""
"","response","","html-keyboard-response","54","180151","0.0-1.0-59.0-0.0","0","0","64375","","410","","","75","6","","","1","6","training","adjacent","GF","7","6","Q.jpg","M.jpg","1","0","0","",""
"","feedback","","html-keyboard-response","55","181162","0.0-1.0-60.0-0.0","0","0","64375","","null","","","null","6","","","","","","","","","","","","","","","",""
"","time_out","","html-keyboard-response","56","183168","0.0-1.0-62.0-0.0","0","0","64375","","null","","","null","6","","","","","","","","","","","","","","","",""
"","ITI","","html-keyboard-response","57","184175","0.0-1.0-63.0","0","0","64375","","null","","","null","6","","","","","","","","","","","","","","","NaN",""
"","S1","","html-keyboard-response","58","184432","0.0-1.0-65.0","0","0","64375","","null","","","null","7","","","","","","","","","","","","","","","",""
"","ISI","","html-keyboard-response","59","185440","0.0-1.0-66.0","0","0","64375","","null","","","null","7","NaN","","","","","","","","","","","","","","",""
"","S2","","html-keyboard-response","60","185706","0.0-1.0-67.0","0","0","64375","","null","","","null","7","","NaN","","","","","","","","","","","","","",""
"","response","","html-keyboard-response","61","185979","0.0-1.0-68.0-0.0","0","0","64375","","271","","","75","7","","","1","7","training","adjacent","ED","5","4","N.jpg","R.jpg","1","0","0","",""
"","feedback","","html-keyboard-response","62","186989","0.0-1.0-69.0-0.0","0","0","64375","","null","","","null","7","","","","","","","","","","","","","","","",""
"","time_out","","html-keyboard-response","63","189000","0.0-1.0-71.0-0.0","0","0","64375","","null","","","null","7","","","","","","","","","","","","","","","",""
"","ITI","","html-keyboard-response","64","190010","0.0-1.0-72.0","0","0","64375","","null","","","null","7","","","","","","","","","","","","","","","NaN",""
"","S1","","html-keyboard-response","65","190272","0.0-1.0-74.0","0","0","64375","","null","","","null","8","","","","","","","","","","","","","","","",""
"","ISI","","html-keyboard-response","66","191280","0.0-1.0-75.0","0","0","64375","","null","","","null","8","NaN","","","","","","","","","","","","","","",""
"","S2","","html-keyboard-response","67","191536","0.0-1.0-76.0","0","0","64375","","null","","","null","8","","NaN","","","","","","","","","","","","","",""
"","response","","html-keyboard-response","68","191824","0.0-1.0-77.0-0.0","0","0","64375","","284","","","68","8","","","1","8","training","adjacent","FE","6","5","M.jpg","N.jpg","0","0","1","",""
"","feedback","","html-keyboard-response","69","192832","0.0-1.0-78.0-0.0","0","0","64375","","null","","","null","8","","","","","","","","","","","","","","","",""
"","ITI","","html-keyboard-response","70","193840","0.0-1.0-81.0","0","0","64375","","null","","","null","8","","","","","","","","","","","","","","","NaN",""
"","S1","","html-keyboard-response","71","194104","0.0-1.0-83.0","0","0","64375","","null","","","null","9","","","","","","","","","","","","","","","",""
"","ISI","","html-keyboard-response","72","195114","0.0-1.0-84.0","0","0","64375","","null","","","null","9","NaN","","","","","","","","","","","","","","",""
"","S2","","html-keyboard-response","73","195375","0.0-1.0-85.0","0","0","64375","","null","","","null","9","","NaN","","","","","","","","","","","","","",""
"","response","","html-keyboard-response","74","197136","0.0-1.0-86.0-0.0","0","0","64375","","null","","","null","9","","","1","9","training","adjacent","CB","3","2","P.jpg","O.jpg","NaN","0","0","",""
"","too_slow_prompt","","html-keyboard-response","75","198143","0.0-1.0-88.0-0.0","1","0","64375","","null","","","null","","","","","","","","","","","","","","","","",""
"","time_out","","html-keyboard-response","76","200154","0.0-1.0-89.0-0.0","0","0","64375","","null","","","null","9","","","","","","","","","","","","","","","",""
"","ITI","","html-keyboard-response","77","201163","0.0-1.0-90.0","0","0","64375","","null","","","null","9","","","","","","","","","","","","","","","NaN",""
"","S1","","html-keyboard-response","78","201424","0.0-1.0-92.0","0","0","64375","","null","","","null","10","","","","","","","","","","","","","","","",""
"","ISI","","html-keyboard-response","79","202432","0.0-1.0-93.0","0","0","64375","","null","","","null","10","NaN","","","","","","","","","","","","","","",""
"","S2","","html-keyboard-response","80","202698","0.0-1.0-94.0","0","0","64375","","null","","","null","10","","NaN","","","","","","","","","","","","","",""
"","response","","html-keyboard-response","81","203140","0.0-1.0-95.0-0.0","0","0","64375","","439","","","68","10","","","1","10","training","adjacent","DE","4","5","R.jpg","N.jpg","0","1","0","",""
"","feedback","","html-keyboard-response","82","204155","0.0-1.0-96.0-0.0","0","0","64375","","null","","","null","10","","","","","","","","","","","","","","","",""
"","time_out","","html-keyboard-response","83","206171","0.0-1.0-98.0-0.0","0","0","64375","","null","","","null","10","","","","","","","","","","","","","","","",""
"","ITI","","html-keyboard-response","84","207183","0.0-1.0-99.0","0","0","64375","","null","","","null","10","","","","","","","","","","","","","","","NaN",""
"","S1","","html-keyboard-response","85","207440","0.0-1.0-101.0","0","0","64375","","null","","","null","11","","","","","","","","","","","","","","","",""
"","ISI","","html-keyboard-response","86","208448","0.0-1.0-102.0","0","0","64375","","162","","","75","11","k","","","","","","","","","","","","","","",""
"","S2","","html-keyboard-response","87","208715","0.0-1.0-103.0","0","0","64375","","null","","","null","11","","NaN","","","","","","","","","","","","","",""
"","response","","html-keyboard-response","88","208751","0.0-1.0-104.0-0.0","0","0","64375","","31","","","68","11","","","1","11","training","adjacent","AB","1","2","L.jpg","O.jpg","0","1","0","",""
"","feedback","","html-keyboard-response","89","209761","0.0-1.0-105.0-0.0","0","0","64375","","null","","","null","11","","","","","","","","","","","","","","","",""
"","time_out","","html-keyboard-response","90","211771","0.0-1.0-107.0-0.0","0","0","64375","","null","","","null","11","","","","","","","","","","","","","","","",""
"","ITI","","html-keyboard-response","91","212783","0.0-1.0-108.0","0","0","64375","","null","","","null","11","","","","","","","","","","","","","","","NaN",""
"","S1","","html-keyboard-response","92","213042","0.0-1.0-110.0","0","0","64375","","null","","","null","12","","","","","","","","","","","","","","","",""
"","ISI","","html-keyboard-response","93","214048","0.0-1.0-111.0","0","0","64375","","null","","","null","12","NaN","","","","","","","","","","","","","","",""
"","S2","","html-keyboard-response","94","214315","0.0-1.0-112.0","0","0","64375","","null","","","null","12","","NaN","","","","","","","","","","","","","",""
"","response","","html-keyboard-response","95","214398","0.0-1.0-113.0-0.0","0","0","64375","","81","","","75","12","","","1","12","training","adjacent","FG","6","7","M.jpg","Q.jpg","1","1","1","",""
"","feedback","","html-keyboard-response","96","215405","0.0-1.0-114.0-0.0","0","0","64375","","null","","","null","12","","","","","","","","","","","","","","","",""
"","ITI","","html-keyboard-response","97","216416","0.0-1.0-117.0","0","0","64375","","null","","","null","12","","","","","","","","","","","","","","","NaN",""
"","S1","","html-keyboard-response","98","216679","0.0-1.0-119.0","0","0","64375","","null","","","null","13","","","","","","","","","","","","","","","",""
"","ISI","","html-keyboard-response","99","217689","0.0-1.0-120.0","0","0","64375","","null","","","null","13","NaN","","","","","","","","","","","","","","",""
"","S2","","html-keyboard-response","100","217952","0.0-1.0-121.0","0","0","64375","","null","","","null","13","","NaN","","","","","","","","","","","","","",""
"","response","","html-keyboard-response","101","218445","0.0-1.0-122.0-0.0","0","0","64375","","488","","","68","13","","","1","13","training","adjacent","CB","3","2","P.jpg","O.jpg","0","0","1","",""
"","feedback","","html-keyboard-response","102","219459","0.0-1.0-123.0-0.0","0","0","64375","","null","","","null","13","","","","","","","","","","","","","","","",""
"","ITI","","html-keyboard-response","103","220475","0.0-1.0-126.0","0","0","64375","","null","","","null","13","","","","","","","","","","","","","","","NaN",""
"","S1","","html-keyboard-response","104","220736","0.0-1.0-128.0","0","0","64375","","null","","","null","14","","","","","","","","","","","","","","","",""
"","ISI","","html-keyboard-response","105","221744","0.0-1.0-129.0","0","0","64375","","null","","","null","14","NaN","","","","","","","","","","","","","","",""
"","S2","","html-keyboard-response","106","222008","0.0-1.0-130.0","0","0","64375","","null","","","null","14","","NaN","","","","","","","","","","","","","",""
"","response","","html-keyboard-response","107","222783","0.0-1.0-131.0-0.0","0","0","64375","","772","","","75","14","","","1","14","training","adjacent","ED","5","4","N.jpg","R.jpg","1","0","0","",""
"","feedback","","html-keyboard-response","108","223791","0.0-1.0-132.0-0.0","0","0","64375","","null","","","null","14","","","","","","","","","","","","","","","",""
"","time_out","","html-keyboard-response","109","225802","0.0-1.0-134.0-0.0","0","0","64375","","null","","","null","14","","","","","","","","","","","","","","","",""
"","ITI","","html-keyboard-response","110","226816","0.0-1.0-135.0","0","0","64375","","null","","","null","14","","","","","","","","","","","","","","","NaN",""
"","S1","","html-keyboard-response","111","227080","0.0-1.0-137.0","0","0","64375","","null","","","null","15","","","","","","","","","","","","","","","",""
"","ISI","","html-keyboard-response","112","228088","0.0-1.0-138.0","0","0","64375","","null","","","null","15","NaN","","","","","","","","","","","","","","",""
"","S2","","html-keyboard-response","113","228347","0.0-1.0-139.0","0","0","64375","","null","","","null","15","","NaN","","","","","","","","","","","","","",""
"","response","","html-keyboard-response","114","228608","0.0-1.0-140.0-0.0","0","0","64375","","258","","","75","15","","","1","15","training","adjacent","BC","2","3","O.jpg","P.jpg","1","1","1","",""
"","feedback","","html-keyboard-response","115","229616","0.0-1.0-141.0-0.0","0","0","64375","","null","","","null","15","","","","","","","","","","","","","","","",""
"","ITI","","html-keyboard-response","116","230624","0.0-1.0-144.0","0","0","64375","","null","","","null","15","","","","","","","","","","","","","","","NaN",""
"","S1","","html-keyboard-response","117","230888","0.0-1.0-146.0","0","0","64375","","null","","","null","16","","","","","","","","","","","","","","","",""
"","ISI","","html-keyboard-response","118","231898","0.0-1.0-147.0","0","0","64375","","null","","","null","16","NaN","","","","","","","","","","","","","","",""
"","S2","","html-keyboard-response","119","232160","0.0-1.0-148.0","0","0","64375","","null","","","null","16","","NaN","","","","","","","","","","","","","",""
"","response","","html-keyboard-response","120","232508","0.0-1.0-149.0-0.0","0","0","64375","","344","","","75","16","","","1","16","training","adjacent","FE","6","5","M.jpg","N.jpg","1","0","0","",""
"","feedback","","html-keyboard-response","121","233517","0.0-1.0-150.0-0.0","0","0","64375","","null","","","null","16","","","","","","","","","","","","","","","",""
"","time_out","","html-keyboard-response","122","235528","0.0-1.0-152.0-0.0","0","0","64375","","null","","","null","16","","","","","","","","","","","","","","","",""
"","ITI","","html-keyboard-response","123","236538","0.0-1.0-153.0","0","0","64375","","null","","","null","16","","","","","","","","","","","","","","","NaN",""
"","S1","","html-keyboard-response","124","236799","0.0-1.0-155.0","0","0","64375","","null","","","null","17","","","","","","","","","","","","","","","",""
"","ISI","","html-keyboard-response","125","237807","0.0-1.0-156.0","0","0","64375","","null","","","null","17","NaN","","","","","","","","","","","","","","",""
"","S2","","html-keyboard-response","126","238064","0.0-1.0-157.0","0","0","64375","","null","","","null","17","","NaN","","","","","","","","","","","","","",""
"","response","","html-keyboard-response","127","238824","0.0-1.0-158.0-0.0","0","0","64375","","755","","","68","17","","","1","17","training","adjacent","DC","4","3","R.jpg","P.jpg","0","0","1","",""
"","feedback","","html-keyboard-response","128","239836","0.0-1.0-159.0-0.0","0","0","64375","","null","","","null","17","","","","","","","","","","","","","","","",""
"","ITI","","html-keyboard-response","129","240848","0.0-1.0-162.0","0","0","64375","","null","","","null","17","","","","","","","","","","","","","","","NaN",""
"","S1","","html-keyboard-response","130","241114","0.0-1.0-164.0","0","0","64375","","null","","","null","18","","","","","","","","","","","","","","","",""
"","ISI","","html-keyboard-response","131","242125","0.0-1.0-165.0","0","0","64375","","null","","","null","18","NaN","","","","","","","","","","","","","","",""
"","S2","","html-keyboard-response","132","242382","0.0-1.0-166.0","0","0","64375","","null","","","null","18","","NaN","","","","","","","","","","","","","",""
"","response","","html-keyboard-response","133","242626","0.0-1.0-167.0-0.0","0","0","64375","","240","","","75","18","","","1","18","training","adjacent","BA","2","1","O.jpg","L.jpg","1","0","0","",""
"","feedback","","html-keyboard-response","134","243642","0.0-1.0-168.0-0.0","0","0","64375","","null","","","null","18","","","","","","","","","","","","","","","",""
"","time_out","","html-keyboard-response","135","245659","0.0-1.0-170.0-0.0","0","0","64375","","null","","","null","18","","","","","","","","","","","","","","","",""
"","ITI","","html-keyboard-response","136","246672","0.0-1.0-171.0","0","0","64375","","null","","","null","18","","","","","","","","","","","","","","","NaN",""
"","S1","","html-keyboard-response","137","246938","0.0-1.0-173.0","0","0","64375","","null","","","null","19","","","","","","","","","","","","","","","",""
"","ISI","","html-keyboard-response","138","247952","0.0-1.0-174.0","0","0","64375","","null","","","null","19","NaN","","","","","","","","","","","","","","",""
"","S2","","html-keyboard-response","139","248219","0.0-1.0-175.0","0","0","64375","","null","","","null","19","","NaN","","","","","","","","","","","","","",""
"","response","","html-keyboard-response","140","248228","0.0-1.0-176.0-0.0","0","0","64375","","2","","","75","19","","","1","19","training","adjacent","FG","6","7","M.jpg","Q.jpg","1","1","1","",""
"","feedback","","html-keyboard-response","141","249242","0.0-1.0-177.0-0.0","0","0","64375","","null","","","null","19","","","","","","","","","","","","","","","",""
"","ITI","","html-keyboard-response","142","250253","0.0-1.0-180.0","0","0","64375","","null","","","null","19","","","","","","","","","","","","","","","NaN",""
"","S1","","html-keyboard-response","143","250512","0.0-1.0-182.0","0","0","64375","","null","","","null","20","","","","","","","","","","","","","","","",""
"","ISI","","html-keyboard-response","144","251517","0.0-1.0-183.0","0","0","64375","","null","","","null","20","NaN","","","","","","","","","","","","","","",""
"","S2","","html-keyboard-response","145","251631","0.0-1.0-184.0","0","0","64375","","111","","","75","20","","k","1","20","training","adjacent","DC","4","3","R.jpg","P.jpg","1","0","0","",""
"","feedback","","html-keyboard-response","146","252640","0.0-1.0-186.0-0.0","0","0","64375","","null","","","null","20","","","","","","","","","","","","","","","",""
"","time_out","","html-keyboard-response","147","254650","0.0-1.0-188.0-0.0","0","0","64375","","null","","","null","20","","","","","","","","","","","","","","","",""
"","ITI","","html-keyboard-response","148","255663","0.0-1.0-189.0","0","0","64375","","null","","","null","20","","","","","","","","","","","","","","","NaN",""
"","S1","","html-keyboard-response","149","255931","0.0-1.0-191.0","0","0","64375","","null","","","null","21","","","","","","","","","","","","","","","",""
"","ISI","","html-keyboard-response","150","256943","0.0-1.0-192.0","0","0","64375","","null","","","null","21","NaN","","","","","","","","","","","","","","",""
"","S2","","html-keyboard-response","151","257210","0.0-1.0-193.0","0","0","64375","","null","","","null","21","","NaN","","","","","","","","","","","","","",""
"","response","","html-keyboard-response","152","257246","0.0-1.0-194.0-0.0","0","0","64375","","32","","","68","21","","","1","21","training","adjacent","DC","4","3","R.jpg","P.jpg","0","0","1","",""
"","feedback","","html-keyboard-response","153","258256","0.0-1.0-195.0-0.0","0","0","64375","","null","","","null","21","","","","","","","","","","","","","","","",""
"","ITI","","html-keyboard-response","154","259264","0.0-1.0-198.0","0","0","64375","","null","","","null","21","","","","","","","","","","","","","","","NaN",""
"","S1","","html-keyboard-response","155","259530","0.0-1.0-200.0","0","0","64375","","null","","","null","22","","","","","","","","","","","","","","","",""
"","ISI","","html-keyboard-response","156","260543","0.0-1.0-201.0","0","0","64375","","null","","","null","22","NaN","","","","","","","","","","","","","","",""
"","S2","","html-keyboard-response","157","260810","0.0-1.0-202.0","0","0","64375","","null","","","null","22","","NaN","","","","","","","","","","","","","",""
"","response","","html-keyboard-response","158","260990","0.0-1.0-203.0-0.0","0","0","64375","","178","","","68","22","","","1","22","training","adjacent","GF","7","6","Q.jpg","M.jpg","0","0","1","",""
"","feedback","","html-keyboard-response","159","261999","0.0-1.0-204.0-0.0","0","0","64375","","null","","","null","22","","","","","","","","","","","","","","","",""
"","ITI","","html-keyboard-response","160","263006","0.0-1.0-207.0","0","0","64375","","null","","","null","22","","","","","","","","","","","","","","","NaN",""
"","S1","","html-keyboard-response","161","263264","0.0-1.0-209.0","0","0","64375","","null","","","null","23","","","","","","","","","","","","","","","",""
"","ISI","","html-keyboard-response","162","264270","0.0-1.0-210.0","0","0","64375","","null","","","null","23","NaN","","","","","","","","","","","","","","",""
"","S2","","html-keyboard-response","163","264526","0.0-1.0-211.0","0","0","64375","","null","","","null","23","","NaN","","","","","","","","","","","","","",""
"","response","","html-keyboard-response","164","264860","0.0-1.0-212.0-0.0","0","0","64375","","330","","","68","23","","","1","23","training","adjacent","EF","5","6","N.jpg","M.jpg","0","1","0","",""
"","feedback","","html-keyboard-response","165","265871","0.0-1.0-213.0-0.0","0","0","64375","","null","","","null","23","","","","","","","","","","","","","","","",""
"","time_out","","html-keyboard-response","166","267879","0.0-1.0-215.0-0.0","0","0","64375","","null","","","null","23","","","","","","","","","","","","","","","",""
"","ITI","","html-keyboard-response","167","268889","0.0-1.0-216.0","0","0","64375","","null","","","null","23","","","","","","","","","","","","","","","NaN",""
"","S1","","html-keyboard-response","168","269151","0.0-1.0-218.0","0","0","64375","","null","","","null","24","","","","","","","","","","","","","","","",""
"","ISI","","html-keyboard-response","169","270159","0.0-1.0-219.0","0","0","64375","","null","","","null","24","NaN","","","","","","","","","","","","","","",""
"","S2","","html-keyboard-response","170","270426","0.0-1.0-220.0","0","0","64375","","null","","","null","24","","NaN","","","","","","","","","","","","","",""
"","response","","html-keyboard-response","171","270762","0.0-1.0-221.0-0.0","0","0","64375","","332","","","68","24","","","1","24","training","adjacent","DE","4","5","R.jpg","N.jpg","0","1","0","",""
"","feedback","","html-keyboard-response","172","271775","0.0-1.0-222.0-0.0","0","0","64375","","null","","","null","24","","","","","","","","","","","","","","","",""
"","time_out","","html-keyboard-response","173","273786","0.0-1.0-224.0-0.0","0","0","64375","","null","","","null","24","","","","","","","","","","","","","","","",""
"","ITI","","html-keyboard-response","174","274800","0.0-1.0-225.0","0","0","64375","","null","","","null","24","","","","","","","","","","","","","","","NaN",""
"","S1","","html-keyboard-response","175","275063","0.0-1.0-227.0","0","0","64375","","null","","","null","25","","","","","","","","","","","","","","","",""
"","ISI","","html-keyboard-response","176","276074","0.0-1.0-228.0","0","0","64375","","null","","","null","25","NaN","","","","","","","","","","","","","","",""
"","S2","","html-keyboard-response","177","276337","0.0-1.0-229.0","0","0","64375","","null","","","null","25","","NaN","","","","","","","","","","","","","",""
"","response","","html-keyboard-response","178","276481","0.0-1.0-230.0-0.0","0","0","64375","","142","","","68","25","","","1","25","training","adjacent","AB","1","2","L.jpg","O.jpg","0","1","0","",""
"","feedback","","html-keyboard-response","179","277487","0.0-1.0-231.0-0.0","0","0","64375","","null","","","null","25","","","","","","","","","","","","","","","",""
"","time_out","","html-keyboard-response","180","279496","0.0-1.0-233.0-0.0","0","0","64375","","null","","","null","25","","","","","","","","","","","","","","","",""
"","ITI","","html-keyboard-response","181","280506","0.0-1.0-234.0","0","0","64375","","null","","","null","25","","","","","","","","","","","","","","","NaN",""
"","S1","","html-keyboard-response","182","280767","0.0-1.0-236.0","0","0","64375","","null","","","null","26","","","","","","","","","","","","","","","",""
"","ISI","","html-keyboard-response","183","281775","0.0-1.0-237.0","0","0","64375","","null","","","null","26","NaN","","","","","","","","","","","","","","",""
"","S2","","html-keyboard-response","184","282034","0.0-1.0-238.0","0","0","64375","","null","","","null","26","","NaN","","","","","","","","","","","","","",""
"","response","","html-keyboard-response","185","282236","0.0-1.0-239.0-0.0","0","0","64375","","198","","","68","26","","","1","26","training","adjacent","CD","3","4","P.jpg","R.jpg","0","1","0","",""
"","feedback","","html-keyboard-response","186","283244","0.0-1.0-240.0-0.0","0","0","64375","","null","","","null","26","","","","","","","","","","","","","","","",""
"","time_out","","html-keyboard-response","187","285258","0.0-1.0-242.0-0.0","0","0","64375","","null","","","null","26","","","","","","","","","","","","","","","",""
"","ITI","","html-keyboard-response","188","286270","0.0-1.0-243.0","0","0","64375","","null","","","null","26","","","","","","","","","","","","","","","NaN",""
"","S1","","html-keyboard-response","189","286527","0.0-1.0-245.0","0","0","64375","","null","","","null","27","","","","","","","","","","","","","","","",""
"","ISI","","html-keyboard-response","190","287533","0.0-1.0-246.0","0","0","64375","","162","","","75","27","k","","","","","","","","","","","","","","",""
"","S2","","html-keyboard-response","191","287791","0.0-1.0-247.0","0","0","64375","","null","","","null","27","","NaN","","","","","","","","","","","","","",""
"","response","","html-keyboard-response","192","287931","0.0-1.0-248.0-0.0","0","0","64375","","136","","","75","27","","","1","27","training","adjacent","EF","5","6","N.jpg","M.jpg","1","1","1","",""
"","feedback","","html-keyboard-response","193","288943","0.0-1.0-249.0-0.0","0","0","64375","","null","","","null","27","","","","","","","","","","","","","","","",""
"","ITI","","html-keyboard-response","194","289953","0.0-1.0-252.0","0","0","64375","","null","","","null","27","","","","","","","","","","","","","","","NaN",""
"","S1","","html-keyboard-response","195","290217","0.0-1.0-254.0","0","0","64375","","null","","","null","28","","","","","","","","","","","","","","","",""
"","ISI","","html-keyboard-response","196","291226","0.0-1.0-255.0","0","0","64375","","null","","","null","28","NaN","","","","","","","","","","","","","","",""
"","S2","","html-keyboard-response","197","291484","0.0-1.0-256.0","0","0","64375","","null","","","null","28","","NaN","","","","","","","","","","","","","",""
"","response","","html-keyboard-response","198","291901","0.0-1.0-257.0-0.0","0","0","64375","","415","","","68","28","","","1","28","training","adjacent","CB","3","2","P.jpg","O.jpg","0","0","1","",""
"","feedback","","html-keyboard-response","199","292910","0.0-1.0-258.0-0.0","0","0","64375","","null","","","null","28","","","","","","","","","","","","","","","",""
"","ITI","","html-keyboard-response","200","293919","0.0-1.0-261.0","0","0","64375","","null","","","null","28","","","","","","","","","","","","","","","NaN",""
"","S1","","html-keyboard-response","201","294175","0.0-1.0-263.0","0","0","64375","","null","","","null","29","","","","","","","","","","","","","","","",""
"","ISI","","html-keyboard-response","202","295181","0.0-1.0-264.0","0","0","64375","","null","","","null","29","NaN","","","","","","","","","","","","","","",""
"","S2","","html-keyboard-response","203","295438","0.0-1.0-265.0","0","0","64375","","null","","","null","29","","NaN","","","","","","","","","","","","","",""
"","response","","html-keyboard-response","204","295704","0.0-1.0-266.0-0.0","0","0","64375","","262","","","75","29","","","1","29","training","adjacent","BA","2","1","O.jpg","L.jpg","1","0","0","",""
"","feedback","","html-keyboard-response","205","296715","0.0-1.0-267.0-0.0","0","0","64375","","null","","","null","29","","","","","","","","","","","","","","","",""
"","time_out","","html-keyboard-response","206","298731","0.0-1.0-269.0-0.0","0","0","64375","","null","","","null","29","","","","","","","","","","","","","","","",""
"","ITI","","html-keyboard-response","207","299743","0.0-1.0-270.0","0","0","64375","","null","","","null","29","","","","","","","","","","","","","","","NaN",""
"","S1","","html-keyboard-response","208","300007","0.0-1.0-272.0","0","0","64375","","null","","","null","30","","","","","","","","","","","","","","","",""
"","ISI","","html-keyboard-response","209","301017","0.0-1.0-273.0","0","0","64375","","null","","","null","30","NaN","","","","","","","","","","","","","","",""
"","S2","","html-keyboard-response","210","301279","0.0-1.0-274.0","0","0","64375","","null","","","null","30","","NaN","","","","","","","","","","","","","",""
"","response","","html-keyboard-response","211","301326","0.0-1.0-275.0-0.0","0","0","64375","","45","","","75","30","","","1","30","training","adjacent","ED","5","4","N.jpg","R.jpg","1","0","0","",""
"","feedback","","html-keyboard-response","212","302335","0.0-1.0-276.0-0.0","0","0","64375","","null","","","null","30","","","","","","","","","","","","","","","",""
"","time_out","","html-keyboard-response","213","304346","0.0-1.0-278.0-0.0","0","0","64375","","null","","","null","30","","","","","","","","","","","","","","","",""
"","ITI","","html-keyboard-response","214","305359","0.0-1.0-279.0","0","0","64375","","null","","","null","30","","","","","","","","","","","","","","","NaN",""
"","S1","","html-keyboard-response","215","305626","0.0-1.0-281.0","0","0","64375","","null","","","null","31","","","","","","","","","","","","","","","",""
"","ISI","","html-keyboard-response","216","306638","0.0-1.0-282.0","0","0","64375","","null","","","null","31","NaN","","","","","","","","","","","","","","",""
"","S2","","html-keyboard-response","217","306894","0.0-1.0-283.0","0","0","64375","","null","","","null","31","","NaN","","","","","","","","","","","","","",""
"","response","","html-keyboard-response","218","307029","0.0-1.0-284.0-0.0","0","0","64375","","133","","","75","31","","","1","31","training","adjacent","BC","2","3","O.jpg","P.jpg","1","1","1","",""
"","feedback","","html-keyboard-response","219","308043","0.0-1.0-285.0-0.0","0","0","64375","","null","","","null","31","","","","","","","","","","","","","","","",""
"","ITI","","html-keyboard-response","220","309055","0.0-1.0-288.0","0","0","64375","","null","","","null","31","","","","","","","","","","","","","","","NaN",""
"","S1","","html-keyboard-response","221","309322","0.0-1.0-290.0","0","0","64375","","null","","","null","32","","","","","","","","","","","","","","","",""
"","ISI","","html-keyboard-response","222","310332","0.0-1.0-291.0","0","0","64375","","446","","","75","32","k","","","","","","","","","","","","","","",""
"","S2","","html-keyboard-response","223","310367","0.0-1.0-292.0","0","0","64375","","32","","","75","32","","k","1","32","training","adjacent","DC","4","3","R.jpg","P.jpg","1","0","0","",""
"","feedback","","html-keyboard-response","224","311374","0.0-1.0-294.0-0.0","0","0","64375","","null","","","null","32","","","","","","","","","","","","","","","",""
"","time_out","","html-keyboard-response","225","313383","0.0-1.0-296.0-0.0","0","0","64375","","null","","","null","32","","","","","","","","","","","","","","","",""
"","ITI","","html-keyboard-response","226","314393","0.0-1.0-297.0","0","0","64375","","null","","","null","32","","","","","","","","","","","","","","","NaN",""
"","S1","","html-keyboard-response","227","314655","0.0-1.0-299.0","0","0","64375","","null","","","null","33","","","","","","","","","","","","","","","",""
"","ISI","","html-keyboard-response","228","315663","0.0-1.0-300.0","0","0","64375","","null","","","null","33","NaN","","","","","","","","","","","","","","",""
"","S2","","html-keyboard-response","229","315929","0.0-1.0-301.0","0","0","64375","","null","","","null","33","","NaN","","","","","","","","","","","","","",""
"","response","","html-keyboard-response","230","316133","0.0-1.0-302.0-0.0","0","0","64375","","198","","","68","33","","","1","33","training","adjacent","GF","7","6","Q.jpg","M.jpg","0","0","1","",""
"","feedback","","html-keyboard-response","231","317146","0.0-1.0-303.0-0.0","0","0","64375","","null","","","null","33","","","","","","","","","","","","","","","",""
"","ITI","","html-keyboard-response","232","318159","0.0-1.0-306.0","0","0","64375","","null","","","null","33","","","","","","","","","","","","","","","NaN",""
"","S1","","html-keyboard-response","233","318414","0.0-1.0-308.0","0","0","64375","","null","","","null","34","","","","","","","","","","","","","","","",""
"","ISI","","html-keyboard-response","234","319423","0.0-1.0-309.0","0","0","64375","","null","","","null","34","NaN","","","","","","","","","","","","","","",""
"","S2","","html-keyboard-response","235","319689","0.0-1.0-310.0","0","0","64375","","null","","","null","34","","NaN","","","","","","","","","","","","","",""
"","response","","html-keyboard-response","236","320116","0.0-1.0-311.0-0.0","0","0","64375","","425","","","75","34","","","1","34","training","adjacent","BA","2","1","O.jpg","L.jpg","1","0","0","",""
"","feedback","","html-keyboard-response","237","321130","0.0-1.0-312.0-0.0","0","0","64375","","null","","","null","34","","","","","","","","","","","","","","","",""
"","time_out","","html-keyboard-response","238","323146","0.0-1.0-314.0-0.0","0","0","64375","","null","","","null","34","","","","","","","","","","","","","","","",""
"","ITI","","html-keyboard-response","239","324159","0.0-1.0-315.0","0","0","64375","","null","","","null","34","","","","","","","","","","","","","","","NaN",""
"","S1","","html-keyboard-response","240","324426","0.0-1.0-317.0","0","0","64375","","null","","","null","35","","","","","","","","","","","","","","","",""
"","ISI","","html-keyboard-response","241","325440","0.0-1.0-318.0","0","0","64375","","null","","","null","35","NaN","","","","","","","","","","","","","","",""
"","S2","","html-keyboard-response","242","325705","0.0-1.0-319.0","0","0","64375","","null","","","null","35","","NaN","","","","","","","","","","","","","",""
"","response","","html-keyboard-response","243","325710","0.0-1.0-320.0-0.0","0","0","64375","","2","","","75","35","","","1","35","training","adjacent","AB","1","2","L.jpg","O.jpg","1","1","1","",""
"","feedback","","html-keyboard-response","244","326716","0.0-1.0-321.0-0.0","0","0","64375","","null","","","null","35","","","","","","","","","","","","","","","",""
"","ITI","","html-keyboard-response","245","327727","0.0-1.0-324.0","0","0","64375","","null","","","null","35","","","","","","","","","","","","","","","NaN",""
"","S1","","html-keyboard-response","246","327991","0.0-1.0-326.0","0","0","64375","","null","","","null","36","","","","","","","","","","","","","","","",""
"","ISI","","html-keyboard-response","247","328998","0.0-1.0-327.0","0","0","64375","","null","","","null","36","NaN","","","","","","","","","","","","","","",""
"","S2","","html-keyboard-response","248","329257","0.0-1.0-328.0","0","0","64375","","null","","","null","36","","NaN","","","","","","","","","","","","","",""
"","response","","html-keyboard-response","249","330142","0.0-1.0-329.0-0.0","0","0","64375","","880","","","68","36","","","1","36","training","adjacent","AB","1","2","L.jpg","O.jpg","0","1","0","",""
"","feedback","","html-keyboard-response","250","331151","0.0-1.0-330.0-0.0","0","0","64375","","null","","","null","36","","","","","","","","","","","","","","","",""
"","time_out","","html-keyboard-response","251","333161","0.0-1.0-332.0-0.0","0","0","64375","","null","","","null","36","","","","","","","","","","","","","","","",""
"","ITI","","html-keyboard-response","252","334174","0.0-1.0-333.0","0","0","64375","","null","","","null","36","","","","","","","","","","","","","","","NaN",""
"","S1","","html-keyboard-response","253","334431","0.0-1.0-335.0","0","0","64375","","null","","","null","37","","","","","","","","","","","","","","","",""
"","ISI","","html-keyboard-response","254","335439","0.0-1.0-336.0","0","0","64375","","null","","","null","37","NaN","","","","","","","","","","","","","","",""
"","S2","","html-keyboard-response","255","335705","0.0-1.0-337.0","0","0","64375","","null","","","null","37","","NaN","","","","","","","","","","","","","",""
"","response","","html-keyboard-response","256","336633","0.0-1.0-338.0-0.0","0","0","64375","","925","","","75","37","","","1","37","training","adjacent","CD","3","4","P.jpg","R.jpg","1","1","1","",""
"","feedback","","html-keyboard-response","257","337650","0.0-1.0-339.0-0.0","0","0","64375","","null","","","null","37","","","","","","","","","","","","","","","",""
"","ITI","","html-keyboard-response","258","338666","0.0-1.0-342.0","0","0","64375","","null","","","null","37","","","","","","","","","","","","","","","NaN",""
"","S1","","html-keyboard-response","259","338927","0.0-1.0-344.0","0","0","64375","","null","","","null","38","","","","","","","","","","","","","","","",""
"","ISI","","html-keyboard-response","260","339935","0.0-1.0-345.0","0","0","64375","","null","","","null","38","NaN","","","","","","","","","","","","","","",""
"","S2","","html-keyboard-response","261","340201","0.0-1.0-346.0","0","0","64375","","null","","","null","38","","NaN","","","","","","","","","","","","","",""
"","response","","html-keyboard-response","262","340975","0.0-1.0-347.0-0.0","0","0","64375","","772","","","68","38","","","1","38","training","adjacent","CD","3","4","P.jpg","R.jpg","0","1","0","",""
"","feedback","","html-keyboard-response","263","341980","0.0-1.0-348.0-0.0","0","0","64375","","null","","","null","38","","","","","","","","","","","","","","","",""
"","time_out","","html-keyboard-response","264","343991","0.0-1.0-350.0-0.0","0","0","64375","","null","","","null","38","","","","","","","","","","","","","","","",""
"","ITI","","html-keyboard-response","265","344999","0.0-1.0-351.0","0","0","64375","","null","","","null","38","","","","","","","","","","","","","","","NaN",""
"","S1","","html-keyboard-response","266","345263","0.0-1.0-353.0","0","0","64375","","null","","","null","39","","","","","","","","","","","","","","","",""
"","ISI","","html-keyboard-response","267","346270","0.0-1.0-354.0","0","0","64375","","null","","","null","39","NaN","","","","","","","","","","","","","","",""
"","S2","","html-keyboard-response","268","346527","0.0-1.0-355.0","0","0","64375","","null","","","null","39","","NaN","","","","","","","","","","","","","",""
"","response","","html-keyboard-response","269","347385","0.0-1.0-356.0-0.0","0","0","64375","","856","","","68","39","","","1","39","training","adjacent","CD","3","4","P.jpg","R.jpg","0","1","0","",""
"","feedback","","html-keyboard-response","270","348398","0.0-1.0-357.0-0.0","0","0","64375","","null","","","null","39","","","","","","","","","","","","","","","",""
"","time_out","","html-keyboard-response","271","350414","0.0-1.0-359.0-0.0","0","0","64375","","null","","","null","39","","","","","","","","","","","","","","","",""
"","ITI","","html-keyboard-response","272","351423","0.0-1.0-360.0","0","0","64375","","null","","","null","39","","","","","","","","","","","","","","","NaN",""
"","S1","","html-keyboard-response","273","351686","0.0-1.0-362.0","0","0","64375","","null","","","null","40","","","","","","","","","","","","","","","",""
"","ISI","","html-keyboard-response","274","352694","0.0-1.0-363.0","0","0","64375","","null","","","null","40","NaN","","","","","","","","","","","","","","",""
"","S2","","html-keyboard-response","275","352951","0.0-1.0-364.0","0","0","64375","","null","","","null","40","","NaN","","","","","","","","","","","","","",""
"","response","","html-keyboard-response","276","355111","0.0-1.0-365.0-0.0","0","0","64375","","null","","","null","40","","","1","40","training","adjacent","BA","2","1","O.jpg","L.jpg","NaN","0","0","",""
"","too_slow_prompt","","html-keyboard-response","277","356121","0.0-1.0-367.0-0.0","1","0","64375","","null","","","null","","","","","","","","","","","","","","","","",""
"","time_out","","html-keyboard-response","278","358131","0.0-1.0-368.0-0.0","0","0","64375","","null","","","null","40","","","","","","","","","","","","","","","",""
"","ITI","","html-keyboard-response","279","359144","0.0-1.0-369.0","0","0","64375","","null","","","null","40","","","","","","","","","","","","","","","NaN",""
"","S1","","html-keyboard-response","280","359406","0.0-1.0-371.0","0","0","64375","","null","","","null","41","","","","","","","","","","","","","","","",""
"","ISI","","html-keyboard-response","281","360411","0.0-1.0-372.0","0","0","64375","","null","","","null","41","NaN","","","","","","","","","","","","","","",""
"","S2","","html-keyboard-response","282","360667","0.0-1.0-373.0","0","0","64375","","null","","","null","41","","NaN","","","","","","","","","","","","","",""
"","response","","html-keyboard-response","283","360972","0.0-1.0-374.0-0.0","0","0","64375","","302","","","68","41","","","1","41","training","adjacent","ED","5","4","N.jpg","R.jpg","0","0","1","",""
"","feedback","","html-keyboard-response","284","361980","0.0-1.0-375.0-0.0","0","0","64375","","null","","","null","41","","","","","","","","","","","","","","","",""
"","ITI","","html-keyboard-response","285","362988","0.0-1.0-378.0","0","0","64375","","null","","","null","41","","","","","","","","","","","","","","","NaN",""
"","S1","","html-keyboard-response","286","363245","0.0-1.0-380.0","0","0","64375","","null","","","null","42","","","","","","","","","","","","","","","",""
"","ISI","","html-keyboard-response","287","364269","0.0-1.0-381.0","0","0","64375","","null","","","null","42","NaN","","","","","","","","","","","","","","",""
"","S2","","html-keyboard-response","288","365379","0.0-1.0-382.0","0","0","64375","","null","","","null","42","","NaN","","","","","","","","","","","","","",""
"","response","","html-keyboard-response","289","367064","0.0-1.0-383.0-0.0","0","0","64375","","1681","","","75","42","","","1","42","training","adjacent","FE","6","5","M.jpg","N.jpg","1","0","0","",""
"","feedback","","html-keyboard-response","290","368077","0.0-1.0-384.0-0.0","0","0","64375","","null","","","null","42","","","","","","","","","","","","","","","",""
"","time_out","","html-keyboard-response","291","370079","0.0-1.0-386.0-0.0","0","0","64375","","null","","","null","42","","","","","","","","","","","","","","","",""
"","ITI","","html-keyboard-response","292","371088","0.0-1.0-387.0","0","0","64375","","null","","","null","42","","","","","","","","","","","","","","","NaN",""
"","S1","","html-keyboard-response","293","371352","0.0-1.0-389.0","0","0","64375","","null","","","null","43","","","","","","","","","","","","","","","",""
"","ISI","","html-keyboard-response","294","372361","0.0-1.0-390.0","0","0","64375","","847","","","68","43","d","","","","","","","","","","","","","","",""
"","S2","","html-keyboard-response","295","372623","0.0-1.0-391.0","0","0","64375","","null","","","null","43","","NaN","","","","","","","","","","","","","",""
"","response","","html-keyboard-response","296","373391","0.0-1.0-392.0-0.0","0","0","64375","","765","","","68","43","","","1","43","training","adjacent","FE","6","5","M.jpg","N.jpg","0","0","1","",""
"","feedback","","html-keyboard-response","297","374396","0.0-1.0-393.0-0.0","0","0","64375","","null","","","null","43","","","","","","","","","","","","","","","",""
"","ITI","","html-keyboard-response","298","375401","0.0-1.0-396.0","0","0","64375","","null","","","null","43","","","","","","","","","","","","","","","NaN",""
"","S1","","html-keyboard-response","299","375662","0.0-1.0-398.0","0","0","64375","","null","","","null","44","","","","","","","","","","","","","","","",""
"","ISI","","html-keyboard-response","300","376670","0.0-1.0-399.0","0","0","64375","","null","","","null","44","NaN","","","","","","","","","","","","","","",""
"","S2","","html-keyboard-response","301","376937","0.0-1.0-400.0","0","0","64375","","null","","","null","44","","NaN","","","","","","","","","","","","","",""
"","response","","html-keyboard-response","302","377769","0.0-1.0-401.0-0.0","0","0","64375","","828","","","75","44","","","1","44","training","adjacent","DE","4","5","R.jpg","N.jpg","1","1","1","",""
"","feedback","","html-keyboard-response","303","378780","0.0-1.0-402.0-0.0","0","0","64375","","null","","","null","44","","","","","","","","","","","","","","","",""
"","ITI","","html-keyboard-response","304","379790","0.0-1.0-405.0","0","0","64375","","null","","","null","44","","","","","","","","","","","","","","","NaN",""
"","S1","","html-keyboard-response","305","380056","0.0-1.0-407.0","0","0","64375","","null","","","null","45","","","","","","","","","","","","","","","",""
"","ISI","","html-keyboard-response","306","381071","0.0-1.0-408.0","0","0","64375","","null","","","null","45","NaN","","","","","","","","","","","","","","",""
"","S2","","html-keyboard-response","307","381334","0.0-1.0-409.0","0","0","64375","","null","","","null","45","","NaN","","","","","","","","","","","","","",""
"","response","","html-keyboard-response","308","383376","0.0-1.0-410.0-0.0","0","0","64375","","null","","","null","45","","","1","45","training","adjacent","DE","4","5","R.jpg","N.jpg","NaN","1","0","",""
"","too_slow_prompt","","html-keyboard-response","309","384383","0.0-1.0-412.0-0.0","1","0","64375","","null","","","null","","","","","","","","","","","","","","","","",""
"","time_out","","html-keyboard-response","310","386392","0.0-1.0-413.0-0.0","0","0","64375","","null","","","null","45","","","","","","","","","","","","","","","",""
"","ITI","","html-keyboard-response","311","387406","0.0-1.0-414.0","0","0","64375","","null","","","null","45","","","","","","","","","","","","","","","NaN",""
"","S1","","html-keyboard-response","312","387662","0.0-1.0-416.0","0","0","64375","","null","","","null","46","","","","","","","","","","","","","","","",""
"","ISI","","html-keyboard-response","313","388667","0.0-1.0-417.0","0","0","64375","","null","","","null","46","NaN","","","","","","","","","","","","","","",""
"","S2","","html-keyboard-response","314","388926","0.0-1.0-418.0","0","0","64375","","null","","","null","46","","NaN","","","","","","","","","","","","","",""
"","response","","html-keyboard-response","315","389378","0.0-1.0-419.0-0.0","0","0","64375","","450","","","75","46","","","1","46","training","adjacent","BC","2","3","O.jpg","P.jpg","1","1","1","",""
"","feedback","","html-keyboard-response","316","390392","0.0-1.0-420.0-0.0","0","0","64375","","null","","","null","46","","","","","","","","","","","","","","","",""
"","ITI","","html-keyboard-response","317","391406","0.0-1.0-423.0","0","0","64375","","null","","","null","46","","","","","","","","","","","","","","","NaN",""
"","S1","","html-keyboard-response","318","391664","0.0-1.0-425.0","0","0","64375","","null","","","null","47","","","","","","","","","","","","","","","",""
"","ISI","","html-keyboard-response","319","392670","0.0-1.0-426.0","0","0","64375","","null","","","null","47","NaN","","","","","","","","","","","","","","",""
"","S2","","html-keyboard-response","320","392934","0.0-1.0-427.0","0","0","64375","","null","","","null","47","","NaN","","","","","","","","","","","","","",""
"","response","","html-keyboard-response","321","393697","0.0-1.0-428.0-0.0","0","0","64375","","759","","","75","47","","","1","47","training","adjacent","EF","5","6","N.jpg","M.jpg","1","1","1","",""
"","feedback","","html-keyboard-response","322","394713","0.0-1.0-429.0-0.0","0","0","64375","","null","","","null","47","","","","","","","","","","","","","","","",""
"","ITI","","html-keyboard-response","323","395726","0.0-1.0-432.0","0","0","64375","","null","","","null","47","","","","","","","","","","","","","","","NaN",""
"","block_over","","html-keyboard-response","324","827387","0.0-1.0-433.0-0.0","0","0","64375","","431653","","","32","47","","","","","","","","","","","","","","","",""
"","S1","","html-keyboard-response","325","827652","0.0-1.0-434.0","0","0","64375","","null","","","null","48","","","","","","","","","","","","","","","",""
"","ISI","","html-keyboard-response","326","828668","0.0-1.0-435.0","0","0","64375","","null","","","null","48","NaN","","","","","","","","","","","","","","",""
"","S2","","html-keyboard-response","327","828932","0.0-1.0-436.0","0","0","64375","","null","","","null","48","","NaN","","","","","","","","","","","","","",""
"","response","","html-keyboard-response","328","830266","0.0-1.0-437.0-0.0","0","0","64375","","1329","","","75","48","","","2","48","training","adjacent","GF","7","6","Q.jpg","M.jpg","1","0","0","",""
"","feedback","","html-keyboard-response","329","831274","0.0-1.0-438.0-0.0","0","0","64375","","null","","","null","48","","","","","","","","","","","","","","","",""
"","time_out","","html-keyboard-response","330","833281","0.0-1.0-440.0-0.0","0","0","64375","","null","","","null","48","","","","","","","","","","","","","","","",""
"","ITI","","html-keyboard-response","331","834291","0.0-1.0-441.0","0","0","64375","","null","","","null","48","","","","","","","","","","","","","","","NaN",""
"","S1","","html-keyboard-response","332","834554","0.0-1.0-443.0","0","0","64375","","null","","","null","49","","","","","","","","","","","","","","","",""
"","ISI","","html-keyboard-response","333","835561","0.0-1.0-444.0","0","0","64375","","863","","","68","49","d","","","","","","","","","","","","","","",""
"","S2","","html-keyboard-response","334","835828","0.0-1.0-445.0","0","0","64375","","null","","","null","49","","NaN","","","","","","","","","","","","","",""
"","response","","html-keyboard-response","335","835839","0.0-1.0-446.0-0.0","0","0","64375","","7","","","68","49","","","2","49","training","adjacent","GF","7","6","Q.jpg","M.jpg","0","0","1","",""
"","feedback","","html-keyboard-response","336","836852","0.0-1.0-447.0-0.0","0","0","64375","","null","","","null","49","","","","","","","","","","","","","","","",""
"","ITI","","html-keyboard-response","337","837865","0.0-1.0-450.0","0","0","64375","","null","","","null","49","","","","","","","","","","","","","","","NaN",""
"","S1","","html-keyboard-response","338","838122","0.0-1.0-452.0","0","0","64375","","null","","","null","50","","","","","","","","","","","","","","","",""
"","ISI","","html-keyboard-response","339","839126","0.0-1.0-453.0","0","0","64375","","null","","","null","50","NaN","","","","","","","","","","","","","","",""
"","S2","","html-keyboard-response","340","839383","0.0-1.0-454.0","0","0","64375","","null","","","null","50","","NaN","","","","","","","","","","","","","",""
"","response","","html-keyboard-response","341","839622","0.0-1.0-455.0-0.0","0","0","64375","","238","","","68","50","","","2","50","training","adjacent","EF","5","6","N.jpg","M.jpg","0","1","0","",""
"","feedback","","html-keyboard-response","342","840634","0.0-1.0-456.0-0.0","0","0","64375","","null","","","null","50","","","","","","","","","","","","","","","",""
"","time_out","","html-keyboard-response","343","842641","0.0-1.0-458.0-0.0","0","0","64375","","null","","","null","50","","","","","","","","","","","","","","","",""
"","ITI","","html-keyboard-response","344","843652","0.0-1.0-459.0","0","0","64375","","null","","","null","50","","","","","","","","","","","","","","","NaN",""
"","S1","","html-keyboard-response","345","843912","0.0-1.0-461.0","0","0","64375","","null","","","null","51","","","","","","","","","","","","","","","",""
"","ISI","","html-keyboard-response","346","844919","0.0-1.0-462.0","0","0","64375","","null","","","null","51","NaN","","","","","","","","","","","","","","",""
"","S2","","html-keyboard-response","347","845177","0.0-1.0-463.0","0","0","64375","","null","","","null","51","","NaN","","","","","","","","","","","","","",""
"","response","","html-keyboard-response","348","845241","0.0-1.0-464.0-0.0","0","0","64375","","60","","","75","51","","","2","51","training","adjacent","FE","6","5","M.jpg","N.jpg","1","0","0","",""
"","feedback","","html-keyboard-response","349","846249","0.0-1.0-465.0-0.0","0","0","64375","","null","","","null","51","","","","","","","","","","","","","","","",""
"","time_out","","html-keyboard-response","350","848260","0.0-1.0-467.0-0.0","0","0","64375","","null","","","null","51","","","","","","","","","","","","","","","",""
"","ITI","","html-keyboard-response","351","849273","0.0-1.0-468.0","0","0","64375","","null","","","null","51","","","","","","","","","","","","","","","NaN",""
"","S1","","html-keyboard-response","352","849529","0.0-1.0-470.0","0","0","64375","","null","","","null","52","","","","","","","","","","","","","","","",""
"","ISI","","html-keyboard-response","353","850534","0.0-1.0-471.0","0","0","64375","","168","","","68","52","d","","","","","","","","","","","","","","",""
"","S2","","html-keyboard-response","354","850794","0.0-1.0-472.0","0","0","64375","","null","","","null","52","","NaN","","","","","","","","","","","","","",""
"","response","","html-keyboard-response","355","850926","0.0-1.0-473.0-0.0","0","0","64375","","127","","","68","52","","","2","52","training","adjacent","DE","4","5","R.jpg","N.jpg","0","1","0","",""
"","feedback","","html-keyboard-response","356","851937","0.0-1.0-474.0-0.0","0","0","64375","","null","","","null","52","","","","","","","","","","","","","","","",""
"","time_out","","html-keyboard-response","357","853942","0.0-1.0-476.0-0.0","0","0","64375","","null","","","null","52","","","","","","","","","","","","","","","",""
"","ITI","","html-keyboard-response","358","854953","0.0-1.0-477.0","0","0","64375","","862","","","75","52","","","","","","","","","","","","","","","k",""
"","S1","","html-keyboard-response","359","855220","0.0-1.0-479.0","0","0","64375","","null","","","null","53","","","","","","","","","","","","","","","",""
"","ISI","","html-keyboard-response","360","856233","0.0-1.0-480.0","0","0","64375","","null","","","null","53","NaN","","","","","","","","","","","","","","",""
"","S2","","html-keyboard-response","361","856500","0.0-1.0-481.0","0","0","64375","","null","","","null","53","","NaN","","","","","","","","","","","","","",""
"","response","","html-keyboard-response","362","856839","0.0-1.0-482.0-0.0","0","0","64375","","336","","","68","53","","","2","53","training","adjacent","GF","7","6","Q.jpg","M.jpg","0","0","1","",""
"","feedback","","html-keyboard-response","363","857849","0.0-1.0-483.0-0.0","0","0","64375","","null","","","null","53","","","","","","","","","","","","","","","",""
"","ITI","","html-keyboard-response","364","858857","0.0-1.0-486.0","0","0","64375","","null","","","null","53","","","","","","","","","","","","","","","NaN",""
"","S1","","html-keyboard-response","365","859123","0.0-1.0-488.0","0","0","64375","","null","","","null","54","","","","","","","","","","","","","","","",""
"","ISI","","html-keyboard-response","366","860132","0.0-1.0-489.0","0","0","64375","","null","","","null","54","NaN","","","","","","","","","","","","","","",""
"","S2","","html-keyboard-response","367","860394","0.0-1.0-490.0","0","0","64375","","null","","","null","54","","NaN","","","","","","","","","","","","","",""
"","response","","html-keyboard-response","368","860917","0.0-1.0-491.0-0.0","0","0","64375","","519","","","75","54","","","2","54","training","adjacent","FE","6","5","M.jpg","N.jpg","1","0","0","",""
"","feedback","","html-keyboard-response","369","861929","0.0-1.0-492.0-0.0","0","0","64375","","null","","","null","54","","","","","","","","","","","","","","","",""
"","time_out","","html-keyboard-response","370","863940","0.0-1.0-494.0-0.0","0","0","64375","","null","","","null","54","","","","","","","","","","","","","","","",""
"","ITI","","html-keyboard-response","371","864956","0.0-1.0-495.0","0","0","64375","","null","","","null","54","","","","","","","","","","","","","","","NaN",""
"","S1","","html-keyboard-response","372","865220","0.0-1.0-497.0","0","0","64375","","null","","","null","55","","","","","","","","","","","","","","","",""
"","ISI","","html-keyboard-response","373","866234","0.0-1.0-498.0","0","0","64375","","null","","","null","55","NaN","","","","","","","","","","","","","","",""
"","S2","","html-keyboard-response","374","866499","0.0-1.0-499.0","0","0","64375","","null","","","null","55","","NaN","","","","","","","","","","","","","",""
"","response","","html-keyboard-response","375","866511","0.0-1.0-500.0-0.0","0","0","64375","","10","","","75","55","","","2","55","training","adjacent","FG","6","7","M.jpg","Q.jpg","1","1","1","",""
"","feedback","","html-keyboard-response","376","867524","0.0-1.0-501.0-0.0","0","0","64375","","null","","","null","55","","","","","","","","","","","","","","","",""
"","ITI","","html-keyboard-response","377","868537","0.0-1.0-504.0","0","0","64375","","null","","","null","55","","","","","","","","","","","","","","","NaN",""
"","S1","","html-keyboard-response","378","868804","0.0-1.0-506.0","0","0","64375","","null","","","null","56","","","","","","","","","","","","","","","",""
"","ISI","","html-keyboard-response","379","869817","0.0-1.0-507.0","0","0","64375","","null","","","null","56","NaN","","","","","","","","","","","","","","",""
"","S2","","html-keyboard-response","380","870083","0.0-1.0-508.0","0","0","64375","","null","","","null","56","","NaN","","","","","","","","","","","","","",""
"","response","","html-keyboard-response","381","870534","0.0-1.0-509.0-0.0","0","0","64375","","447","","","68","56","","","2","56","training","adjacent","AB","1","2","L.jpg","O.jpg","0","1","0","",""
"","feedback","","html-keyboard-response","382","871545","0.0-1.0-510.0-0.0","0","0","64375","","null","","","null","56","","","","","","","","","","","","","","","",""
"","time_out","","html-keyboard-response","383","873556","0.0-1.0-512.0-0.0","0","0","64375","","null","","","null","56","","","","","","","","","","","","","","","",""
"","ITI","","html-keyboard-response","384","874568","0.0-1.0-513.0","0","0","64375","","null","","","null","56","","","","","","","","","","","","","","","NaN",""
"","S1","","html-keyboard-response","385","874825","0.0-1.0-515.0","0","0","64375","","null","","","null","57","","","","","","","","","","","","","","","",""
"","ISI","","html-keyboard-response","386","875834","0.0-1.0-516.0","0","0","64375","","null","","","null","57","NaN","","","","","","","","","","","","","","",""
"","S2","","html-keyboard-response","387","876099","0.0-1.0-517.0","0","0","64375","","null","","","null","57","","NaN","","","","","","","","","","","","","",""
"","response","","html-keyboard-response","388","876106","0.0-1.0-518.0-0.0","0","0","64375","","3","","","75","57","","","2","57","training","adjacent","BA","2","1","O.jpg","L.jpg","1","0","0","",""
"","feedback","","html-keyboard-response","389","877112","0.0-1.0-519.0-0.0","0","0","64375","","null","","","null","57","","","","","","","","","","","","","","","",""
"","time_out","","html-keyboard-response","390","879122","0.0-1.0-521.0-0.0","0","0","64375","","null","","","null","57","","","","","","","","","","","","","","","",""
"","ITI","","html-keyboard-response","391","880132","0.0-1.0-522.0","0","0","64375","","null","","","null","57","","","","","","","","","","","","","","","NaN",""
"","S1","","html-keyboard-response","392","880391","0.0-1.0-524.0","0","0","64375","","null","","","null","58","","","","","","","","","","","","","","","",""
"","ISI","","html-keyboard-response","393","881398","0.0-1.0-525.0","0","0","64375","","null","","","null","58","NaN","","","","","","","","","","","","","","",""
"","S2","","html-keyboard-response","394","881657","0.0-1.0-526.0","0","0","64375","","null","","","null","58","","NaN","","","","","","","","","","","","","",""
"","response","","html-keyboard-response","395","882037","0.0-1.0-527.0-0.0","0","0","64375","","376","","","75","58","","","2","58","training","adjacent","AB","1","2","L.jpg","O.jpg","1","1","1","",""
"","feedback","","html-keyboard-response","396","883050","0.0-1.0-528.0-0.0","0","0","64375","","null","","","null","58","","","","","","","","","","","","","","","",""
"","ITI","","html-keyboard-response","397","884055","0.0-1.0-531.0","0","0","64375","","null","","","null","58","","","","","","","","","","","","","","","NaN",""
"","S1","","html-keyboard-response","398","884312","0.0-1.0-533.0","0","0","64375","","null","","","null","59","","","","","","","","","","","","","","","",""
"","ISI","","html-keyboard-response","399","885321","0.0-1.0-534.0","0","0","64375","","null","","","null","59","NaN","","","","","","","","","","","","","","",""
"","S2","","html-keyboard-response","400","885587","0.0-1.0-535.0","0","0","64375","","null","","","null","59","","NaN","","","","","","","","","","","","","",""
"","response","","html-keyboard-response","401","885983","0.0-1.0-536.0-0.0","0","0","64375","","393","","","75","59","","","2","59","training","adjacent","CD","3","4","P.jpg","R.jpg","1","1","1","",""
"","feedback","","html-keyboard-response","402","886993","0.0-1.0-537.0-0.0","0","0","64375","","null","","","null","59","","","","","","","","","","","","","","","",""
"","ITI","","html-keyboard-response","403","888000","0.0-1.0-540.0","0","0","64375","","null","","","null","59","","","","","","","","","","","","","","","NaN",""
"","S1","","html-keyboard-response","404","888258","0.0-1.0-542.0","0","0","64375","","null","","","null","60","","","","","","","","","","","","","","","",""
"","ISI","","html-keyboard-response","405","889267","0.0-1.0-543.0","0","0","64375","","null","","","null","60","NaN","","","","","","","","","","","","","","",""
"","S2","","html-keyboard-response","406","889531","0.0-1.0-544.0","0","0","64375","","null","","","null","60","","NaN","","","","","","","","","","","","","",""
"","response","","html-keyboard-response","407","889901","0.0-1.0-545.0-0.0","0","0","64375","","367","","","75","60","","","2","60","training","adjacent","FG","6","7","M.jpg","Q.jpg","1","1","1","",""
"","feedback","","html-keyboard-response","408","890915","0.0-1.0-546.0-0.0","0","0","64375","","null","","","null","60","","","","","","","","","","","","","","","",""
"","ITI","","html-keyboard-response","409","891927","0.0-1.0-549.0","0","0","64375","","null","","","null","60","","","","","","","","","","","","","","","NaN",""
"","S1","","html-keyboard-response","410","892184","0.0-1.0-551.0","0","0","64375","","null","","","null","61","","","","","","","","","","","","","","","",""
"","ISI","","html-keyboard-response","411","893192","0.0-1.0-552.0","0","0","64375","","null","","","null","61","NaN","","","","","","","","","","","","","","",""
"","S2","","html-keyboard-response","412","893449","0.0-1.0-553.0","0","0","64375","","null","","","null","61","","NaN","","","","","","","","","","","","","",""
"","response","","html-keyboard-response","413","893853","0.0-1.0-554.0-0.0","0","0","64375","","399","","","68","61","","","2","61","training","adjacent","ED","5","4","N.jpg","R.jpg","0","0","1","",""
"","feedback","","html-keyboard-response","414","894867","0.0-1.0-555.0-0.0","0","0","64375","","null","","","null","61","","","","","","","","","","","","","","","",""
"","ITI","","html-keyboard-response","415","895874","0.0-1.0-558.0","0","0","64375","","null","","","null","61","","","","","","","","","","","","","","","NaN",""
"","S1","","html-keyboard-response","416","896136","0.0-1.0-560.0","0","0","64375","","null","","","null","62","","","","","","","","","","","","","","","",""
"","ISI","","html-keyboard-response","417","897145","0.0-1.0-561.0","0","0","64375","","null","","","null","62","NaN","","","","","","","","","","","","","","",""
"","S2","","html-keyboard-response","418","897411","0.0-1.0-562.0","0","0","64375","","null","","","null","62","","NaN","","","","","","","","","","","","","",""
"","response","","html-keyboard-response","419","897676","0.0-1.0-563.0-0.0","0","0","64375","","262","","","75","62","","","2","62","training","adjacent","CD","3","4","P.jpg","R.jpg","1","1","1","",""
"","feedback","","html-keyboard-response","420","898691","0.0-1.0-564.0-0.0","0","0","64375","","null","","","null","62","","","","","","","","","","","","","","","",""
"","ITI","","html-keyboard-response","421","899704","0.0-1.0-567.0","0","0","64375","","null","","","null","62","","","","","","","","","","","","","","","NaN",""
"","S1","","html-keyboard-response","422","899959","0.0-1.0-569.0","0","0","64375","","null","","","null","63","","","","","","","","","","","","","","","",""
"","ISI","","html-keyboard-response","423","900966","0.0-1.0-570.0","0","0","64375","","null","","","null","63","NaN","","","","","","","","","","","","","","",""
"","S2","","html-keyboard-response","424","901225","0.0-1.0-571.0","0","0","64375","","null","","","null","63","","NaN","","","","","","","","","","","","","",""
"","response","","html-keyboard-response","425","901553","0.0-1.0-572.0-0.0","0","0","64375","","325","","","75","63","","","2","63","training","adjacent","BA","2","1","O.jpg","L.jpg","1","0","0","",""
"","feedback","","html-keyboard-response","426","902563","0.0-1.0-573.0-0.0","0","0","64375","","null","","","null","63","","","","","","","","","","","","","","","",""
"","time_out","","html-keyboard-response","427","904579","0.0-1.0-575.0-0.0","0","0","64375","","null","","","null","63","","","","","","","","","","","","","","","",""
"","ITI","","html-keyboard-response","428","905587","0.0-1.0-576.0","0","0","64375","","null","","","null","63","","","","","","","","","","","","","","","NaN",""
"","S1","","html-keyboard-response","429","905849","0.0-1.0-578.0","0","0","64375","","null","","","null","64","","","","","","","","","","","","","","","",""
"","ISI","","html-keyboard-response","430","906857","0.0-1.0-579.0","0","0","64375","","null","","","null","64","NaN","","","","","","","","","","","","","","",""
"","S2","","html-keyboard-response","431","907123","0.0-1.0-580.0","0","0","64375","","null","","","null","64","","NaN","","","","","","","","","","","","","",""
"","response","","html-keyboard-response","432","907511","0.0-1.0-581.0-0.0","0","0","64375","","383","","","68","64","","","2","64","training","adjacent","BC","2","3","O.jpg","P.jpg","0","1","0","",""
"","feedback","","html-keyboard-response","433","908523","0.0-1.0-582.0-0.0","0","0","64375","","null","","","null","64","","","","","","","","","","","","","","","",""
"","time_out","","html-keyboard-response","434","910537","0.0-1.0-584.0-0.0","0","0","64375","","null","","","null","64","","","","","","","","","","","","","","","",""
"","ITI","","html-keyboard-response","435","911545","0.0-1.0-585.0","0","0","64375","","null","","","null","64","","","","","","","","","","","","","","","NaN",""
"","S1","","html-keyboard-response","436","911811","0.0-1.0-587.0","0","0","64375","","null","","","null","65","","","","","","","","","","","","","","","",""
"","ISI","","html-keyboard-response","437","912825","0.0-1.0-588.0","0","0","64375","","null","","","null","65","NaN","","","","","","","","","","","","","","",""
"","S2","","html-keyboard-response","438","913091","0.0-1.0-589.0","0","0","64375","","null","","","null","65","","NaN","","","","","","","","","","","","","",""
"","response","","html-keyboard-response","439","913396","0.0-1.0-590.0-0.0","0","0","64375","","301","","","68","65","","","2","65","training","adjacent","ED","5","4","N.jpg","R.jpg","0","0","1","",""
"","feedback","","html-keyboard-response","440","914409","0.0-1.0-591.0-0.0","0","0","64375","","null","","","null","65","","","","","","","","","","","","","","","",""
"","ITI","","html-keyboard-response","441","915417","0.0-1.0-594.0","0","0","64375","","null","","","null","65","","","","","","","","","","","","","","","NaN",""
"","S1","","html-keyboard-response","442","915682","0.0-1.0-596.0","0","0","64375","","null","","","null","66","","","","","","","","","","","","","","","",""
"","ISI","","html-keyboard-response","443","916690","0.0-1.0-597.0","0","0","64375","","null","","","null","66","NaN","","","","","","","","","","","","","","",""
"","S2","","html-keyboard-response","444","916950","0.0-1.0-598.0","0","0","64375","","null","","","null","66","","NaN","","","","","","","","","","","","","",""
"","response","","html-keyboard-response","445","917247","0.0-1.0-599.0-0.0","0","0","64375","","293","","","75","66","","","2","66","training","adjacent","FG","6","7","M.jpg","Q.jpg","1","1","1","",""
"","feedback","","html-keyboard-response","446","918259","0.0-1.0-600.0-0.0","0","0","64375","","null","","","null","66","","","","","","","","","","","","","","","",""
"","ITI","","html-keyboard-response","447","919272","0.0-1.0-603.0","0","0","64375","","null","","","null","66","","","","","","","","","","","","","","","NaN",""
"","S1","","html-keyboard-response","448","919529","0.0-1.0-605.0","0","0","64375","","null","","","null","67","","","","","","","","","","","","","","","",""
"","ISI","","html-keyboard-response","449","920537","0.0-1.0-606.0","0","0","64375","","null","","","null","67","NaN","","","","","","","","","","","","","","",""
"","S2","","html-keyboard-response","450","920803","0.0-1.0-607.0","0","0","64375","","null","","","null","67","","NaN","","","","","","","","","","","","","",""
"","response","","html-keyboard-response","451","921130","0.0-1.0-608.0-0.0","0","0","64375","","323","","","68","67","","","2","67","training","adjacent","DC","4","3","R.jpg","P.jpg","0","0","1","",""
"","feedback","","html-keyboard-response","452","922137","0.0-1.0-609.0-0.0","0","0","64375","","null","","","null","67","","","","","","","","","","","","","","","",""
"","ITI","","html-keyboard-response","453","923145","0.0-1.0-612.0","0","0","64375","","null","","","null","67","","","","","","","","","","","","","","","NaN",""
"","S1","","html-keyboard-response","454","923411","0.0-1.0-614.0","0","0","64375","","null","","","null","68","","","","","","","","","","","","","","","",""
"","ISI","","html-keyboard-response","455","924425","0.0-1.0-615.0","0","0","64375","","null","","","null","68","NaN","","","","","","","","","","","","","","",""
"","S2","","html-keyboard-response","456","924691","0.0-1.0-616.0","0","0","64375","","null","","","null","68","","NaN","","","","","","","","","","","","","",""
"","response","","html-keyboard-response","457","925192","0.0-1.0-617.0-0.0","0","0","64375","","497","","","68","68","","","2","68","training","adjacent","AB","1","2","L.jpg","O.jpg","0","1","0","",""
"","feedback","","html-keyboard-response","458","926201","0.0-1.0-618.0-0.0","0","0","64375","","null","","","null","68","","","","","","","","","","","","","","","",""
"","time_out","","html-keyboard-response","459","928209","0.0-1.0-620.0-0.0","0","0","64375","","null","","","null","68","","","","","","","","","","","","","","","",""
"","ITI","","html-keyboard-response","460","929217","0.0-1.0-621.0","0","0","64375","","null","","","null","68","","","","","","","","","","","","","","","NaN",""
"","S1","","html-keyboard-response","461","929480","0.0-1.0-623.0","0","0","64375","","null","","","null","69","","","","","","","","","","","","","","","",""
"","ISI","","html-keyboard-response","462","930486","0.0-1.0-624.0","0","0","64375","","null","","","null","69","NaN","","","","","","","","","","","","","","",""
"","S2","","html-keyboard-response","463","930745","0.0-1.0-625.0","0","0","64375","","null","","","null","69","","NaN","","","","","","","","","","","","","",""
"","response","","html-keyboard-response","464","931262","0.0-1.0-626.0-0.0","0","0","64375","","515","","","75","69","","","2","69","training","adjacent","DE","4","5","R.jpg","N.jpg","1","1","1","",""
"","feedback","","html-keyboard-response","465","932273","0.0-1.0-627.0-0.0","0","0","64375","","null","","","null","69","","","","","","","","","","","","","","","",""
"","ITI","","html-keyboard-response","466","933281","0.0-1.0-630.0","0","0","64375","","null","","","null","69","","","","","","","","","","","","","","","NaN",""
"","S1","","html-keyboard-response","467","933538","0.0-1.0-632.0","0","0","64375","","null","","","null","70","","","","","","","","","","","","","","","",""
"","ISI","","html-keyboard-response","468","934547","0.0-1.0-633.0","0","0","64375","","null","","","null","70","NaN","","","","","","","","","","","","","","",""
"","S2","","html-keyboard-response","469","934808","0.0-1.0-634.0","0","0","64375","","null","","","null","70","","NaN","","","","","","","","","","","","","",""
"","response","","html-keyboard-response","470","935022","0.0-1.0-635.0-0.0","0","0","64375","","209","","","68","70","","","2","70","training","adjacent","ED","5","4","N.jpg","R.jpg","0","0","1","",""
"","feedback","","html-keyboard-response","471","936035","0.0-1.0-636.0-0.0","0","0","64375","","null","","","null","70","","","","","","","","","","","","","","","",""
"","ITI","","html-keyboard-response","472","937048","0.0-1.0-639.0","0","0","64375","","null","","","null","70","","","","","","","","","","","","","","","NaN",""
"","S1","","html-keyboard-response","473","937304","0.0-1.0-641.0","0","0","64375","","null","","","null","71","","","","","","","","","","","","","","","",""
"","ISI","","html-keyboard-response","474","938312","0.0-1.0-642.0","0","0","64375","","null","","","null","71","NaN","","","","","","","","","","","","","","",""
"","S2","","html-keyboard-response","475","938568","0.0-1.0-643.0","0","0","64375","","null","","","null","71","","NaN","","","","","","","","","","","","","",""
"","response","","html-keyboard-response","476","938906","0.0-1.0-644.0-0.0","0","0","64375","","334","","","68","71","","","2","71","training","adjacent","ED","5","4","N.jpg","R.jpg","0","0","1","",""
"","feedback","","html-keyboard-response","477","939923","0.0-1.0-645.0-0.0","0","0","64375","","null","","","null","71","","","","","","","","","","","","","","","",""
"","ITI","","html-keyboard-response","478","940936","0.0-1.0-648.0","0","0","64375","","null","","","null","71","","","","","","","","","","","","","","","NaN",""
"","S1","","html-keyboard-response","479","941192","0.0-1.0-650.0","0","0","64375","","null","","","null","72","","","","","","","","","","","","","","","",""
"","ISI","","html-keyboard-response","480","942200","0.0-1.0-651.0","0","0","64375","","null","","","null","72","NaN","","","","","","","","","","","","","","",""
"","S2","","html-keyboard-response","481","942457","0.0-1.0-652.0","0","0","64375","","null","","","null","72","","NaN","","","","","","","","","","","","","",""
"","response","","html-keyboard-response","482","942902","0.0-1.0-653.0-0.0","0","0","64375","","440","","","68","72","","","2","72","training","adjacent","EF","5","6","N.jpg","M.jpg","0","1","0","",""
"","feedback","","html-keyboard-response","483","943912","0.0-1.0-654.0-0.0","0","0","64375","","null","","","null","72","","","","","","","","","","","","","","","",""
"","time_out","","html-keyboard-response","484","945923","0.0-1.0-656.0-0.0","0","0","64375","","null","","","null","72","","","","","","","","","","","","","","","",""
"","ITI","","html-keyboard-response","485","946934","0.0-1.0-657.0","0","0","64375","","null","","","null","72","","","","","","","","","","","","","","","NaN",""
"","S1","","html-keyboard-response","486","947192","0.0-1.0-659.0","0","0","64375","","null","","","null","73","","","","","","","","","","","","","","","",""
"","ISI","","html-keyboard-response","487","948199","0.0-1.0-660.0","0","0","64375","","null","","","null","73","NaN","","","","","","","","","","","","","","",""
"","S2","","html-keyboard-response","488","948456","0.0-1.0-661.0","0","0","64375","","null","","","null","73","","NaN","","","","","","","","","","","","","",""
"","response","","html-keyboard-response","489","948568","0.0-1.0-662.0-0.0","0","0","64375","","108","","","75","73","","","2","73","training","adjacent","CD","3","4","P.jpg","R.jpg","1","1","1","",""
"","feedback","","html-keyboard-response","490","949576","0.0-1.0-663.0-0.0","0","0","64375","","null","","","null","73","","","","","","","","","","","","","","","",""
"","ITI","","html-keyboard-response","491","950585","0.0-1.0-666.0","0","0","64375","","null","","","null","73","","","","","","","","","","","","","","","NaN",""
"","S1","","html-keyboard-response","492","950851","0.0-1.0-668.0","0","0","64375","","null","","","null","74","","","","","","","","","","","","","","","",""
"","ISI","","html-keyboard-response","493","951864","0.0-1.0-669.0","0","0","64375","","null","","","null","74","NaN","","","","","","","","","","","","","","",""
"","S2","","html-keyboard-response","494","952120","0.0-1.0-670.0","0","0","64375","","null","","","null","74","","NaN","","","","","","","","","","","","","",""
"","response","","html-keyboard-response","495","952511","0.0-1.0-671.0-0.0","0","0","64375","","386","","","68","74","","","2","74","training","adjacent","BC","2","3","O.jpg","P.jpg","0","1","0","",""
"","feedback","","html-keyboard-response","496","953523","0.0-1.0-672.0-0.0","0","0","64375","","null","","","null","74","","","","","","","","","","","","","","","",""
"","time_out","","html-keyboard-response","497","955536","0.0-1.0-674.0-0.0","0","0","64375","","null","","","null","74","","","","","","","","","","","","","","","",""
"","ITI","","html-keyboard-response","498","956546","0.0-1.0-675.0","0","0","64375","","null","","","null","74","","","","","","","","","","","","","","","NaN",""
"","S1","","html-keyboard-response","499","956808","0.0-1.0-677.0","0","0","64375","","null","","","null","75","","","","","","","","","","","","","","","",""
"","ISI","","html-keyboard-response","500","957816","0.0-1.0-678.0","0","0","64375","","null","","","null","75","NaN","","","","","","","","","","","","","","",""
"","S2","","html-keyboard-response","501","958082","0.0-1.0-679.0","0","0","64375","","null","","","null","75","","NaN","","","","","","","","","","","","","",""
"","response","","html-keyboard-response","502","958314","0.0-1.0-680.0-0.0","0","0","64375","","227","","","68","75","","","2","75","training","adjacent","BA","2","1","O.jpg","L.jpg","0","0","1","",""
"","feedback","","html-keyboard-response","503","959320","0.0-1.0-681.0-0.0","0","0","64375","","null","","","null","75","","","","","","","","","","","","","","","",""
"","ITI","","html-keyboard-response","504","960328","0.0-1.0-684.0","0","0","64375","","null","","","null","75","","","","","","","","","","","","","","","NaN",""
"","S1","","html-keyboard-response","505","960584","0.0-1.0-686.0","0","0","64375","","null","","","null","76","","","","","","","","","","","","","","","",""
"","ISI","","html-keyboard-response","506","961593","0.0-1.0-687.0","0","0","64375","","null","","","null","76","NaN","","","","","","","","","","","","","","",""
"","S2","","html-keyboard-response","507","961859","0.0-1.0-688.0","0","0","64375","","null","","","null","76","","NaN","","","","","","","","","","","","","",""
"","response","","html-keyboard-response","508","962288","0.0-1.0-689.0-0.0","0","0","64375","","424","","","75","76","","","2","76","training","adjacent","CB","3","2","P.jpg","O.jpg","1","0","0","",""
"","feedback","","html-keyboard-response","509","963298","0.0-1.0-690.0-0.0","0","0","64375","","null","","","null","76","","","","","","","","","","","","","","","",""
"","time_out","","html-keyboard-response","510","965315","0.0-1.0-692.0-0.0","0","0","64375","","null","","","null","76","","","","","","","","","","","","","","","",""
"","ITI","","html-keyboard-response","511","966329","0.0-1.0-693.0","0","0","64375","","null","","","null","76","","","","","","","","","","","","","","","NaN",""
"","S1","","html-keyboard-response","512","966594","0.0-1.0-695.0","0","0","64375","","null","","","null","77","","","","","","","","","","","","","","","",""
"","ISI","","html-keyboard-response","513","967603","0.0-1.0-696.0","0","0","64375","","null","","","null","77","NaN","","","","","","","","","","","","","","",""
"","S2","","html-keyboard-response","514","967864","0.0-1.0-697.0","0","0","64375","","null","","","null","77","","NaN","","","","","","","","","","","","","",""
"","response","","html-keyboard-response","515","968240","0.0-1.0-698.0-0.0","0","0","64375","","373","","","68","77","","","2","77","training","adjacent","EF","5","6","N.jpg","M.jpg","0","1","0","",""
"","feedback","","html-keyboard-response","516","969251","0.0-1.0-699.0-0.0","0","0","64375","","null","","","null","77","","","","","","","","","","","","","","","",""
"","time_out","","html-keyboard-response","517","971268","0.0-1.0-701.0-0.0","0","0","64375","","null","","","null","77","","","","","","","","","","","","","","","",""
"","ITI","","html-keyboard-response","518","972277","0.0-1.0-702.0","0","0","64375","","null","","","null","77","","","","","","","","","","","","","","","NaN",""
"","S1","","html-keyboard-response","519","972536","0.0-1.0-704.0","0","0","64375","","null","","","null","78","","","","","","","","","","","","","","","",""
"","ISI","","html-keyboard-response","520","973544","0.0-1.0-705.0","0","0","64375","","null","","","null","78","NaN","","","","","","","","","","","","","","",""
"","S2","","html-keyboard-response","521","973811","0.0-1.0-706.0","0","0","64375","","null","","","null","78","","NaN","","","","","","","","","","","","","",""
"","response","","html-keyboard-response","522","974003","0.0-1.0-707.0-0.0","0","0","64375","","188","","","68","78","","","2","78","training","adjacent","DC","4","3","R.jpg","P.jpg","0","0","1","",""
"","feedback","","html-keyboard-response","523","975013","0.0-1.0-708.0-0.0","0","0","64375","","null","","","null","78","","","","","","","","","","","","","","","",""
"","ITI","","html-keyboard-response","524","976024","0.0-1.0-711.0","0","0","64375","","null","","","null","78","","","","","","","","","","","","","","","NaN",""
"","S1","","html-keyboard-response","525","976290","0.0-1.0-713.0","0","0","64375","","null","","","null","79","","","","","","","","","","","","","","","",""
"","ISI","","html-keyboard-response","526","977298","0.0-1.0-714.0","0","0","64375","","null","","","null","79","NaN","","","","","","","","","","","","","","",""
"","S2","","html-keyboard-response","527","977560","0.0-1.0-715.0","0","0","64375","","null","","","null","79","","NaN","","","","","","","","","","","","","",""
"","response","","html-keyboard-response","528","977969","0.0-1.0-716.0-0.0","0","0","64375","","407","","","75","79","","","2","79","training","adjacent","FE","6","5","M.jpg","N.jpg","1","0","0","",""
"","feedback","","html-keyboard-response","529","978976","0.0-1.0-717.0-0.0","0","0","64375","","null","","","null","79","","","","","","","","","","","","","","","",""
"","time_out","","html-keyboard-response","530","980981","0.0-1.0-719.0-0.0","0","0","64375","","null","","","null","79","","","","","","","","","","","","","","","",""
"","ITI","","html-keyboard-response","531","981984","0.0-1.0-720.0","0","0","64375","","null","","","null","79","","","","","","","","","","","","","","","NaN",""
"","S1","","html-keyboard-response","532","982243","0.0-1.0-722.0","0","0","64375","","null","","","null","80","","","","","","","","","","","","","","","",""
"","ISI","","html-keyboard-response","533","983255","0.0-1.0-723.0","0","0","64375","","null","","","null","80","NaN","","","","","","","","","","","","","","",""
"","S2","","html-keyboard-response","534","983512","0.0-1.0-724.0","0","0","64375","","null","","","null","80","","NaN","","","","","","","","","","","","","",""
"","response","","html-keyboard-response","535","983695","0.0-1.0-725.0-0.0","0","0","64375","","179","","","75","80","","","2","80","training","adjacent","CB","3","2","P.jpg","O.jpg","1","0","0","",""
"","feedback","","html-keyboard-response","536","984707","0.0-1.0-726.0-0.0","0","0","64375","","null","","","null","80","","","","","","","","","","","","","","","",""
"","time_out","","html-keyboard-response","537","986723","0.0-1.0-728.0-0.0","0","0","64375","","null","","","null","80","","","","","","","","","","","","","","","",""
"","ITI","","html-keyboard-response","538","987736","0.0-1.0-729.0","0","0","64375","","null","","","null","80","","","","","","","","","","","","","","","NaN",""
"","S1","","html-keyboard-response","539","988002","0.0-1.0-731.0","0","0","64375","","null","","","null","81","","","","","","","","","","","","","","","",""
"","ISI","","html-keyboard-response","540","989010","0.0-1.0-732.0","0","0","64375","","null","","","null","81","NaN","","","","","","","","","","","","","","",""
"","S2","","html-keyboard-response","541","989270","0.0-1.0-733.0","0","0","64375","","null","","","null","81","","NaN","","","","","","","","","","","","","",""
"","response","","html-keyboard-response","542","989723","0.0-1.0-734.0-0.0","0","0","64375","","448","","","75","81","","","2","81","training","adjacent","CB","3","2","P.jpg","O.jpg","1","0","0","",""
"","feedback","","html-keyboard-response","543","990736","0.0-1.0-735.0-0.0","0","0","64375","","null","","","null","81","","","","","","","","","","","","","","","",""
"","time_out","","html-keyboard-response","544","992745","0.0-1.0-737.0-0.0","0","0","64375","","null","","","null","81","","","","","","","","","","","","","","","",""
"","ITI","","html-keyboard-response","545","993749","0.0-1.0-738.0","0","0","64375","","null","","","null","81","","","","","","","","","","","","","","","NaN",""
"","S1","","html-keyboard-response","546","994007","0.0-1.0-740.0","0","0","64375","","null","","","null","82","","","","","","","","","","","","","","","",""
"","ISI","","html-keyboard-response","547","995016","0.0-1.0-741.0","0","0","64375","","null","","","null","82","NaN","","","","","","","","","","","","","","",""
"","S2","","html-keyboard-response","548","995282","0.0-1.0-742.0","0","0","64375","","null","","","null","82","","NaN","","","","","","","","","","","","","",""
"","response","","html-keyboard-response","549","995539","0.0-1.0-743.0-0.0","0","0","64375","","252","","","75","82","","","2","82","training","adjacent","AB","1","2","L.jpg","O.jpg","1","1","1","",""
"","feedback","","html-keyboard-response","550","996552","0.0-1.0-744.0-0.0","0","0","64375","","null","","","null","82","","","","","","","","","","","","","","","",""
"","ITI","","html-keyboard-response","551","997560","0.0-1.0-747.0","0","0","64375","","null","","","null","82","","","","","","","","","","","","","","","NaN",""
"","S1","","html-keyboard-response","552","997826","0.0-1.0-749.0","0","0","64375","","null","","","null","83","","","","","","","","","","","","","","","",""
"","ISI","","html-keyboard-response","553","998840","0.0-1.0-750.0","0","0","64375","","null","","","null","83","NaN","","","","","","","","","","","","","","",""
"","S2","","html-keyboard-response","554","999106","0.0-1.0-751.0","0","0","64375","","null","","","null","83","","NaN","","","","","","","","","","","","","",""
"","response","","html-keyboard-response","555","999452","0.0-1.0-752.0-0.0","0","0","64375","","342","","","68","83","","","2","83","training","adjacent","GF","7","6","Q.jpg","M.jpg","0","0","1","",""
"","feedback","","html-keyboard-response","556","1000465","0.0-1.0-753.0-0.0","0","0","64375","","null","","","null","83","","","","","","","","","","","","","","","",""
"","ITI","","html-keyboard-response","557","1001472","0.0-1.0-756.0","0","0","64375","","null","","","null","83","","","","","","","","","","","","","","","NaN",""
"","S1","","html-keyboard-response","558","1001730","0.0-1.0-758.0","0","0","64375","","null","","","null","84","","","","","","","","","","","","","","","",""
"","ISI","","html-keyboard-response","559","1002744","0.0-1.0-759.0","0","0","64375","","null","","","null","84","NaN","","","","","","","","","","","","","","",""
"","S2","","html-keyboard-response","560","1003009","0.0-1.0-760.0","0","0","64375","","null","","","null","84","","NaN","","","","","","","","","","","","","",""
"","response","","html-keyboard-response","561","1003364","0.0-1.0-761.0-0.0","0","0","64375","","351","","","75","84","","","2","84","training","adjacent","FE","6","5","M.jpg","N.jpg","1","0","0","",""
"","feedback","","html-keyboard-response","562","1004373","0.0-1.0-762.0-0.0","0","0","64375","","null","","","null","84","","","","","","","","","","","","","","","",""
"","time_out","","html-keyboard-response","563","1006386","0.0-1.0-764.0-0.0","0","0","64375","","null","","","null","84","","","","","","","","","","","","","","","",""
"","ITI","","html-keyboard-response","564","1007394","0.0-1.0-765.0","0","0","64375","","null","","","null","84","","","","","","","","","","","","","","","NaN",""
"","S1","","html-keyboard-response","565","1007655","0.0-1.0-767.0","0","0","64375","","null","","","null","85","","","","","","","","","","","","","","","",""
"","ISI","","html-keyboard-response","566","1008664","0.0-1.0-768.0","0","0","64375","","null","","","null","85","NaN","","","","","","","","","","","","","","",""
"","S2","","html-keyboard-response","567","1008930","0.0-1.0-769.0","0","0","64375","","null","","","null","85","","NaN","","","","","","","","","","","","","",""
"","response","","html-keyboard-response","568","1009165","0.0-1.0-770.0-0.0","0","0","64375","","231","","","68","85","","","2","85","training","adjacent","BA","2","1","O.jpg","L.jpg","0","0","1","",""
"","feedback","","html-keyboard-response","569","1010177","0.0-1.0-771.0-0.0","0","0","64375","","null","","","null","85","","","","","","","","","","","","","","","",""
"","ITI","","html-keyboard-response","570","1011186","0.0-1.0-774.0","0","0","64375","","null","","","null","85","","","","","","","","","","","","","","","NaN",""
"","S1","","html-keyboard-response","571","1011448","0.0-1.0-776.0","0","0","64375","","null","","","null","86","","","","","","","","","","","","","","","",""
"","ISI","","html-keyboard-response","572","1012456","0.0-1.0-777.0","0","0","64375","","null","","","null","86","NaN","","","","","","","","","","","","","","",""
"","S2","","html-keyboard-response","573","1012722","0.0-1.0-778.0","0","0","64375","","null","","","null","86","","NaN","","","","","","","","","","","","","",""
"","response","","html-keyboard-response","574","1013285","0.0-1.0-779.0-0.0","0","0","64375","","560","","","75","86","","","2","86","training","adjacent","CD","3","4","P.jpg","R.jpg","1","1","1","",""
"","feedback","","html-keyboard-response","575","1014295","0.0-1.0-780.0-0.0","0","0","64375","","null","","","null","86","","","","","","","","","","","","","","","",""
"","ITI","","html-keyboard-response","576","1015303","0.0-1.0-783.0","0","0","64375","","null","","","null","86","","","","","","","","","","","","","","","NaN",""
"","S1","","html-keyboard-response","577","1015560","0.0-1.0-785.0","0","0","64375","","null","","","null","87","","","","","","","","","","","","","","","",""
"","ISI","","html-keyboard-response","578","1016566","0.0-1.0-786.0","0","0","64375","","null","","","null","87","NaN","","","","","","","","","","","","","","",""
"","S2","","html-keyboard-response","579","1016824","0.0-1.0-787.0","0","0","64375","","null","","","null","87","","NaN","","","","","","","","","","","","","",""
