"success","ttype","start_time","trial_type","trial_index","time_elapsed","internal_node_id","warning","missed_checkup","PID","view_history","rt","responses","repeat_instructions","key_press","index","keypress_isi","keypress_S2","block","trial_num","phase","group_type","pair_type","S1_stim","S2_stim","S1_img","S2_img","S1_chosen","S1_higher","accuracy","keypress_iti","total_bonus_tally"
"true","full_screen","d08052022hr1703","fullscreen","0","5714","0.0-0.0","0","0","26927","","","","","","","","","","","","","","","","","","","","","",""
"","instructions","","instructions","1","67097","0.0-1.0-0.0-0.0","0","0","26927","[{""page_index"":0,""viewing_time"":6307},{""page_index"":1,""viewing_time"":25160},{""page_index"":2,""viewing_time"":5382},{""page_index"":1,""viewing_time"":14330},{""page_index"":2,""viewing_time"":8484},{""page_index"":3,""viewing_time"":1713}]","61378","","","","","","","","","","","","","","","","","","","",""
"","comprehension_check","","survey-multi-choice","2","88125","0.0-1.0-0.0-1.0","0","0","26927","","21007","{""Q0"":""True"",""Q1"":""K"",""Q2"":""Only when the screen 'MAKE A CHOICE' is shown"",""Q3"":""Green mark"",""Q4"":""either D or K""}","1","","","","","","","","","","","","","","","","","",""
"","missed_instruction_checkup","","html-keyboard-response","3","89448","0.0-1.0-0.0-2.0-0.0","0","1","26927","","1298","","","32","","","","","","","","","","","","","","","","",""
"","instructions","","instructions","4","100262","0.0-1.0-0.1-0.1","0","0","26927","[{""page_index"":0,""viewing_time"":2135},{""page_index"":1,""viewing_time"":7489},{""page_index"":2,""viewing_time"":616},{""page_index"":3,""viewing_time"":569}]","10809","","","","","","","","","","","","","","","","","","","",""
"","comprehension_check","","survey-multi-choice","5","109919","0.0-1.0-0.1-1.1","0","0","26927","","9636","{""Q0"":""True"",""Q1"":""K"",""Q2"":""Once the second image appears and while the screen 'MAKE A CHOICE' is shown"",""Q3"":""Green mark"",""Q4"":""either D or K""}","0","","","","","","","","","","","","","","","","","",""
"","start_exp","","html-keyboard-response","6","110873","0.0-1.0-1.0","0","0","26927","","931","","","32","","","","","","","","","","","","","","","","",""
"","S1","","html-keyboard-response","7","111138","0.0-1.0-2.0","0","0","26927","","null","","","null","0","","","","","","","","","","","","","","","",""
"","ISI","","html-keyboard-response","8","113149","0.0-1.0-3.0","0","0","26927","","null","","","null","0","NaN","","","","","","","","","","","","","","",""
"","S2","","html-keyboard-response","9","113406","0.0-1.0-4.0","0","0","26927","","null","","","null","0","","NaN","","","","","","","","","","","","","",""
"","response","","html-keyboard-response","10","114239","0.0-1.0-5.0-0.0","0","0","26927","","828","","","68","0","","","1","0","training","adjacent","AB","1","2","L.jpg","P.jpg","0","1","0","",""
"","feedback","","html-keyboard-response","11","115258","0.0-1.0-6.0-0.0","0","0","26927","","null","","","null","0","","","","","","","","","","","","","","","",""
"","time_out","","html-keyboard-response","12","117265","0.0-1.0-8.0-0.0","0","0","26927","","null","","","null","0","","","","","","","","","","","","","","","",""
"","ITI","","html-keyboard-response","13","118271","0.0-1.0-9.0","0","0","26927","","null","","","null","0","","","","","","","","","","","","","","","NaN",""
"","S1","","html-keyboard-response","14","118527","0.0-1.0-11.0","0","0","26927","","null","","","null","1","","","","","","","","","","","","","","","",""
"","ISI","","html-keyboard-response","15","120533","0.0-1.0-12.0","0","0","26927","","null","","","null","1","NaN","","","","","","","","","","","","","","",""
"","S2","","html-keyboard-response","16","120789","0.0-1.0-13.0","0","0","26927","","null","","","null","1","","NaN","","","","","","","","","","","","","",""
"","response","","html-keyboard-response","17","121200","0.0-1.0-14.0-0.0","0","0","26927","","406","","","75","1","","","1","1","training","adjacent","BA","2","1","P.jpg","L.jpg","1","0","0","",""
"","feedback","","html-keyboard-response","18","122215","0.0-1.0-15.0-0.0","0","0","26927","","null","","","null","1","","","","","","","","","","","","","","","",""
"","time_out","","html-keyboard-response","19","124225","0.0-1.0-17.0-0.0","0","0","26927","","null","","","null","1","","","","","","","","","","","","","","","",""
"","ITI","","html-keyboard-response","20","125231","0.0-1.0-18.0","0","0","26927","","null","","","null","1","","","","","","","","","","","","","","","NaN",""
"","S1","","html-keyboard-response","21","125486","0.0-1.0-20.0","0","0","26927","","null","","","null","2","","","","","","","","","","","","","","","",""
"","ISI","","html-keyboard-response","22","127491","0.0-1.0-21.0","0","0","26927","","null","","","null","2","NaN","","","","","","","","","","","","","","",""
"","S2","","html-keyboard-response","23","127748","0.0-1.0-22.0","0","0","26927","","null","","","null","2","","NaN","","","","","","","","","","","","","",""
"","response","","html-keyboard-response","24","128160","0.0-1.0-23.0-0.0","0","0","26927","","406","","","68","2","","","1","2","training","adjacent","EF","5","6","O.jpg","N.jpg","0","1","0","",""
"","feedback","","html-keyboard-response","25","129167","0.0-1.0-24.0-0.0","0","0","26927","","null","","","null","2","","","","","","","","","","","","","","","",""
"","time_out","","html-keyboard-response","26","131173","0.0-1.0-26.0-0.0","0","0","26927","","null","","","null","2","","","","","","","","","","","","","","","",""
"","ITI","","html-keyboard-response","27","132180","0.0-1.0-27.0","0","0","26927","","null","","","null","2","","","","","","","","","","","","","","","NaN",""
"","S1","","html-keyboard-response","28","132435","0.0-1.0-29.0","0","0","26927","","null","","","null","3","","","","","","","","","","","","","","","",""
"","ISI","","html-keyboard-response","29","134443","0.0-1.0-30.0","0","0","26927","","null","","","null","3","NaN","","","","","","","","","","","","","","",""
"","S2","","html-keyboard-response","30","134699","0.0-1.0-31.0","0","0","26927","","null","","","null","3","","NaN","","","","","","","","","","","","","",""
"","response","","html-keyboard-response","31","135296","0.0-1.0-32.0-0.0","0","0","26927","","591","","","75","3","","","1","3","training","adjacent","EF","5","6","O.jpg","N.jpg","1","1","1","",""
"","feedback","","html-keyboard-response","32","136302","0.0-1.0-33.0-0.0","0","0","26927","","null","","","null","3","","","","","","","","","","","","","","","",""
"","ITI","","html-keyboard-response","33","137308","0.0-1.0-36.0","0","0","26927","","null","","","null","3","","","","","","","","","","","","","","","NaN",""
"","S1","","html-keyboard-response","34","137563","0.0-1.0-38.0","0","0","26927","","null","","","null","4","","","","","","","","","","","","","","","",""
"","ISI","","html-keyboard-response","35","139568","0.0-1.0-39.0","0","0","26927","","null","","","null","4","NaN","","","","","","","","","","","","","","",""
"","S2","","html-keyboard-response","36","139825","0.0-1.0-40.0","0","0","26927","","null","","","null","4","","NaN","","","","","","","","","","","","","",""
"","response","","html-keyboard-response","37","139872","0.0-1.0-41.0-0.0","0","0","26927","","42","","","75","4","","","1","4","training","adjacent","FE","6","5","N.jpg","O.jpg","1","0","0","",""
"","feedback","","html-keyboard-response","38","140879","0.0-1.0-42.0-0.0","0","0","26927","","null","","","null","4","","","","","","","","","","","","","","","",""
"","time_out","","html-keyboard-response","39","142885","0.0-1.0-44.0-0.0","0","0","26927","","null","","","null","4","","","","","","","","","","","","","","","",""
"","ITI","","html-keyboard-response","40","143892","0.0-1.0-45.0","0","0","26927","","null","","","null","4","","","","","","","","","","","","","","","NaN",""
"","S1","","html-keyboard-response","41","144149","0.0-1.0-47.0","0","0","26927","","null","","","null","5","","","","","","","","","","","","","","","",""
"","ISI","","html-keyboard-response","42","146155","0.0-1.0-48.0","0","0","26927","","null","","","null","5","NaN","","","","","","","","","","","","","","",""
"","S2","","html-keyboard-response","43","146410","0.0-1.0-49.0","0","0","26927","","null","","","null","5","","NaN","","","","","","","","","","","","","",""
"","response","","html-keyboard-response","44","146583","0.0-1.0-50.0-0.0","0","0","26927","","167","","","75","5","","","1","5","training","adjacent","ED","5","4","O.jpg","M.jpg","1","0","0","",""
"","feedback","","html-keyboard-response","45","147588","0.0-1.0-51.0-0.0","0","0","26927","","null","","","null","5","","","","","","","","","","","","","","","",""
"","time_out","","html-keyboard-response","46","149593","0.0-1.0-53.0-0.0","0","0","26927","","null","","","null","5","","","","","","","","","","","","","","","",""
"","ITI","","html-keyboard-response","47","150599","0.0-1.0-54.0","0","0","26927","","null","","","null","5","","","","","","","","","","","","","","","NaN",""
"","S1","","html-keyboard-response","48","150854","0.0-1.0-56.0","0","0","26927","","null","","","null","6","","","","","","","","","","","","","","","",""
"","ISI","","html-keyboard-response","49","152861","0.0-1.0-57.0","0","0","26927","","145","","","75","6","k","","","","","","","","","","","","","","",""
"","S2","","html-keyboard-response","50","153119","0.0-1.0-58.0","0","0","26927","","null","","","null","6","","NaN","","","","","","","","","","","","","",""
"","response","","html-keyboard-response","51","153173","0.0-1.0-59.0-0.0","0","0","26927","","50","","","75","6","","","1","6","training","adjacent","DE","4","5","M.jpg","O.jpg","1","1","1","",""
"","feedback","","html-keyboard-response","52","154178","0.0-1.0-60.0-0.0","0","0","26927","","null","","","null","6","","","","","","","","","","","","","","","",""
"","ITI","","html-keyboard-response","53","155183","0.0-1.0-63.0","0","0","26927","","null","","","null","6","","","","","","","","","","","","","","","NaN",""
"","S1","","html-keyboard-response","54","155439","0.0-1.0-65.0","0","0","26927","","null","","","null","7","","","","","","","","","","","","","","","",""
"","ISI","","html-keyboard-response","55","157443","0.0-1.0-66.0","0","0","26927","","null","","","null","7","NaN","","","","","","","","","","","","","","",""
"","S2","","html-keyboard-response","56","157699","0.0-1.0-67.0","0","0","26927","","null","","","null","7","","NaN","","","","","","","","","","","","","",""
"","response","","html-keyboard-response","57","158257","0.0-1.0-68.0-0.0","0","0","26927","","553","","","75","7","","","1","7","training","adjacent","DE","4","5","M.jpg","O.jpg","1","1","1","",""
"","feedback","","html-keyboard-response","58","159264","0.0-1.0-69.0-0.0","0","0","26927","","null","","","null","7","","","","","","","","","","","","","","","",""
"","ITI","","html-keyboard-response","59","160270","0.0-1.0-72.0","0","0","26927","","null","","","null","7","","","","","","","","","","","","","","","NaN",""
"","S1","","html-keyboard-response","60","160526","0.0-1.0-74.0","0","0","26927","","null","","","null","8","","","","","","","","","","","","","","","",""
"","ISI","","html-keyboard-response","61","162532","0.0-1.0-75.0","0","0","26927","","null","","","null","8","NaN","","","","","","","","","","","","","","",""
"","S2","","html-keyboard-response","62","162788","0.0-1.0-76.0","0","0","26927","","null","","","null","8","","NaN","","","","","","","","","","","","","",""
"","response","","html-keyboard-response","63","163190","0.0-1.0-77.0-0.0","0","0","26927","","397","","","75","8","","","1","8","training","adjacent","BA","2","1","P.jpg","L.jpg","1","0","0","",""
"","feedback","","html-keyboard-response","64","164196","0.0-1.0-78.0-0.0","0","0","26927","","null","","","null","8","","","","","","","","","","","","","","","",""
"","time_out","","html-keyboard-response","65","166202","0.0-1.0-80.0-0.0","0","0","26927","","null","","","null","8","","","","","","","","","","","","","","","",""
"","ITI","","html-keyboard-response","66","167206","0.0-1.0-81.0","0","0","26927","","null","","","null","8","","","","","","","","","","","","","","","NaN",""
"","S1","","html-keyboard-response","67","167462","0.0-1.0-83.0","0","0","26927","","null","","","null","9","","","","","","","","","","","","","","","",""
"","ISI","","html-keyboard-response","68","169467","0.0-1.0-84.0","0","0","26927","","null","","","null","9","NaN","","","","","","","","","","","","","","",""
"","S2","","html-keyboard-response","69","169723","0.0-1.0-85.0","0","0","26927","","null","","","null","9","","NaN","","","","","","","","","","","","","",""
"","response","","html-keyboard-response","70","169872","0.0-1.0-86.0-0.0","0","0","26927","","144","","","68","9","","","1","9","training","adjacent","FE","6","5","N.jpg","O.jpg","0","0","1","",""
"","feedback","","html-keyboard-response","71","170887","0.0-1.0-87.0-0.0","0","0","26927","","null","","","null","9","","","","","","","","","","","","","","","",""
"","ITI","","html-keyboard-response","72","171896","0.0-1.0-90.0","0","0","26927","","null","","","null","9","","","","","","","","","","","","","","","NaN",""
"","S1","","html-keyboard-response","73","172151","0.0-1.0-92.0","0","0","26927","","null","","","null","10","","","","","","","","","","","","","","","",""
"","ISI","","html-keyboard-response","74","174155","0.0-1.0-93.0","0","0","26927","","null","","","null","10","NaN","","","","","","","","","","","","","","",""
"","S2","","html-keyboard-response","75","174412","0.0-1.0-94.0","0","0","26927","","null","","","null","10","","NaN","","","","","","","","","","","","","",""
"","response","","html-keyboard-response","76","175096","0.0-1.0-95.0-0.0","0","0","26927","","680","","","68","10","","","1","10","training","adjacent","AB","1","2","L.jpg","P.jpg","0","1","0","",""
"","feedback","","html-keyboard-response","77","176102","0.0-1.0-96.0-0.0","0","0","26927","","null","","","null","10","","","","","","","","","","","","","","","",""
"","time_out","","html-keyboard-response","78","178108","0.0-1.0-98.0-0.0","0","0","26927","","null","","","null","10","","","","","","","","","","","","","","","",""
"","ITI","","html-keyboard-response","79","179113","0.0-1.0-99.0","0","0","26927","","null","","","null","10","","","","","","","","","","","","","","","NaN",""
"","S1","","html-keyboard-response","80","179368","0.0-1.0-101.0","0","0","26927","","null","","","null","11","","","","","","","","","","","","","","","",""
"","ISI","","html-keyboard-response","81","181374","0.0-1.0-102.0","0","0","26927","","null","","","null","11","NaN","","","","","","","","","","","","","","",""
"","S2","","html-keyboard-response","82","181630","0.0-1.0-103.0","0","0","26927","","null","","","null","11","","NaN","","","","","","","","","","","","","",""
"","response","","html-keyboard-response","83","182010","0.0-1.0-104.0-0.0","0","0","26927","","375","","","68","11","","","1","11","training","adjacent","BC","2","3","P.jpg","Q.jpg","0","1","0","",""
"","feedback","","html-keyboard-response","84","183015","0.0-1.0-105.0-0.0","0","0","26927","","null","","","null","11","","","","","","","","","","","","","","","",""
"","time_out","","html-keyboard-response","85","185022","0.0-1.0-107.0-0.0","0","0","26927","","null","","","null","11","","","","","","","","","","","","","","","",""
"","ITI","","html-keyboard-response","86","186028","0.0-1.0-108.0","0","0","26927","","null","","","null","11","","","","","","","","","","","","","","","NaN",""
"","S1","","html-keyboard-response","87","186284","0.0-1.0-110.0","0","0","26927","","null","","","null","12","","","","","","","","","","","","","","","",""
"","ISI","","html-keyboard-response","88","188297","0.0-1.0-111.0","0","0","26927","","null","","","null","12","NaN","","","","","","","","","","","","","","",""
"","S2","","html-keyboard-response","89","188557","0.0-1.0-112.0","0","0","26927","","null","","","null","12","","NaN","","","","","","","","","","","","","",""
"","response","","html-keyboard-response","90","188606","0.0-1.0-113.0-0.0","0","0","26927","","45","","","75","12","","","1","12","training","adjacent","CB","3","2","Q.jpg","P.jpg","1","0","0","",""
"","feedback","","html-keyboard-response","91","189611","0.0-1.0-114.0-0.0","0","0","26927","","null","","","null","12","","","","","","","","","","","","","","","",""
"","time_out","","html-keyboard-response","92","191616","0.0-1.0-116.0-0.0","0","0","26927","","null","","","null","12","","","","","","","","","","","","","","","",""
"","ITI","","html-keyboard-response","93","192621","0.0-1.0-117.0","0","0","26927","","null","","","null","12","","","","","","","","","","","","","","","NaN",""
"","S1","","html-keyboard-response","94","192880","0.0-1.0-119.0","0","0","26927","","null","","","null","13","","","","","","","","","","","","","","","",""
"","ISI","","html-keyboard-response","95","194897","0.0-1.0-120.0","0","0","26927","","null","","","null","13","NaN","","","","","","","","","","","","","","",""
"","S2","","html-keyboard-response","96","195155","0.0-1.0-121.0","0","0","26927","","null","","","null","13","","NaN","","","","","","","","","","","","","",""
"","response","","html-keyboard-response","97","195582","0.0-1.0-122.0-0.0","0","0","26927","","414","","","68","13","","","1","13","training","adjacent","FE","6","5","N.jpg","O.jpg","0","0","1","",""
"","feedback","","html-keyboard-response","98","196593","0.0-1.0-123.0-0.0","0","0","26927","","null","","","null","13","","","","","","","","","","","","","","","",""
"","ITI","","html-keyboard-response","99","197599","0.0-1.0-126.0","0","0","26927","","null","","","null","13","","","","","","","","","","","","","","","NaN",""
"","S1","","html-keyboard-response","100","197854","0.0-1.0-128.0","0","0","26927","","null","","","null","14","","","","","","","","","","","","","","","",""
"","ISI","","html-keyboard-response","101","199859","0.0-1.0-129.0","0","0","26927","","null","","","null","14","NaN","","","","","","","","","","","","","","",""
"","S2","","html-keyboard-response","102","200115","0.0-1.0-130.0","0","0","26927","","null","","","null","14","","NaN","","","","","","","","","","","","","",""
"","response","","html-keyboard-response","103","200684","0.0-1.0-131.0-0.0","0","0","26927","","564","","","75","14","","","1","14","training","adjacent","FG","6","7","N.jpg","R.jpg","1","1","1","",""
"","feedback","","html-keyboard-response","104","201689","0.0-1.0-132.0-0.0","0","0","26927","","null","","","null","14","","","","","","","","","","","","","","","",""
"","ITI","","html-keyboard-response","105","202695","0.0-1.0-135.0","0","0","26927","","null","","","null","14","","","","","","","","","","","","","","","NaN",""
"","S1","","html-keyboard-response","106","202950","0.0-1.0-137.0","0","0","26927","","null","","","null","15","","","","","","","","","","","","","","","",""
"","ISI","","html-keyboard-response","107","204956","0.0-1.0-138.0","0","0","26927","","null","","","null","15","NaN","","","","","","","","","","","","","","",""
"","S2","","html-keyboard-response","108","205213","0.0-1.0-139.0","0","0","26927","","null","","","null","15","","NaN","","","","","","","","","","","","","",""
"","response","","html-keyboard-response","109","205630","0.0-1.0-140.0-0.0","0","0","26927","","413","","","68","15","","","1","15","training","adjacent","DC","4","3","M.jpg","Q.jpg","0","0","1","",""
"","feedback","","html-keyboard-response","110","206636","0.0-1.0-141.0-0.0","0","0","26927","","null","","","null","15","","","","","","","","","","","","","","","",""
"","ITI","","html-keyboard-response","111","207642","0.0-1.0-144.0","0","0","26927","","null","","","null","15","","","","","","","","","","","","","","","NaN",""
"","S1","","html-keyboard-response","112","207898","0.0-1.0-146.0","0","0","26927","","null","","","null","16","","","","","","","","","","","","","","","",""
"","ISI","","html-keyboard-response","113","209903","0.0-1.0-147.0","0","0","26927","","null","","","null","16","NaN","","","","","","","","","","","","","","",""
"","S2","","html-keyboard-response","114","210169","0.0-1.0-148.0","0","0","26927","","null","","","null","16","","NaN","","","","","","","","","","","","","",""
"","response","","html-keyboard-response","115","210720","0.0-1.0-149.0-0.0","0","0","26927","","546","","","75","16","","","1","16","training","adjacent","AB","1","2","L.jpg","P.jpg","1","1","1","",""
"","feedback","","html-keyboard-response","116","211725","0.0-1.0-150.0-0.0","0","0","26927","","null","","","null","16","","","","","","","","","","","","","","","",""
"","ITI","","html-keyboard-response","117","212733","0.0-1.0-153.0","0","0","26927","","null","","","null","16","","","","","","","","","","","","","","","NaN",""
"","S1","","html-keyboard-response","118","212989","0.0-1.0-155.0","0","0","26927","","null","","","null","17","","","","","","","","","","","","","","","",""
"","ISI","","html-keyboard-response","119","214995","0.0-1.0-156.0","0","0","26927","","null","","","null","17","NaN","","","","","","","","","","","","","","",""
"","S2","","html-keyboard-response","120","215250","0.0-1.0-157.0","0","0","26927","","null","","","null","17","","NaN","","","","","","","","","","","","","",""
"","response","","html-keyboard-response","121","215685","0.0-1.0-158.0-0.0","0","0","26927","","430","","","68","17","","","1","17","training","adjacent","BA","2","1","P.jpg","L.jpg","0","0","1","",""
"","feedback","","html-keyboard-response","122","216692","0.0-1.0-159.0-0.0","0","0","26927","","null","","","null","17","","","","","","","","","","","","","","","",""
"","ITI","","html-keyboard-response","123","217697","0.0-1.0-162.0","0","0","26927","","null","","","null","17","","","","","","","","","","","","","","","NaN",""
"","S1","","html-keyboard-response","124","217953","0.0-1.0-164.0","0","0","26927","","null","","","null","18","","","","","","","","","","","","","","","",""
"","ISI","","html-keyboard-response","125","219958","0.0-1.0-165.0","0","0","26927","","null","","","null","18","NaN","","","","","","","","","","","","","","",""
"","S2","","html-keyboard-response","126","220214","0.0-1.0-166.0","0","0","26927","","null","","","null","18","","NaN","","","","","","","","","","","","","",""
"","response","","html-keyboard-response","127","220616","0.0-1.0-167.0-0.0","0","0","26927","","397","","","75","18","","","1","18","training","adjacent","GF","7","6","R.jpg","N.jpg","1","0","0","",""
"","feedback","","html-keyboard-response","128","221623","0.0-1.0-168.0-0.0","0","0","26927","","null","","","null","18","","","","","","","","","","","","","","","",""
"","time_out","","html-keyboard-response","129","223628","0.0-1.0-170.0-0.0","0","0","26927","","null","","","null","18","","","","","","","","","","","","","","","",""
"","ITI","","html-keyboard-response","130","224634","0.0-1.0-171.0","0","0","26927","","null","","","null","18","","","","","","","","","","","","","","","NaN",""
"","S1","","html-keyboard-response","131","224899","0.0-1.0-173.0","0","0","26927","","null","","","null","19","","","","","","","","","","","","","","","",""
"","ISI","","html-keyboard-response","132","226906","0.0-1.0-174.0","0","0","26927","","null","","","null","19","NaN","","","","","","","","","","","","","","",""
"","S2","","html-keyboard-response","133","227173","0.0-1.0-175.0","0","0","26927","","null","","","null","19","","NaN","","","","","","","","","","","","","",""
"","response","","html-keyboard-response","134","227212","0.0-1.0-176.0-0.0","0","0","26927","","22","","","75","19","","","1","19","training","adjacent","FG","6","7","N.jpg","R.jpg","1","1","1","",""
"","feedback","","html-keyboard-response","135","228217","0.0-1.0-177.0-0.0","0","0","26927","","null","","","null","19","","","","","","","","","","","","","","","",""
"","ITI","","html-keyboard-response","136","229232","0.0-1.0-180.0","0","0","26927","","null","","","null","19","","","","","","","","","","","","","","","NaN",""
"","S1","","html-keyboard-response","137","229491","0.0-1.0-182.0","0","0","26927","","null","","","null","20","","","","","","","","","","","","","","","",""
"","ISI","","html-keyboard-response","138","231495","0.0-1.0-183.0","0","0","26927","","null","","","null","20","NaN","","","","","","","","","","","","","","",""
"","S2","","html-keyboard-response","139","231757","0.0-1.0-184.0","0","0","26927","","null","","","null","20","","NaN","","","","","","","","","","","","","",""
"","response","","html-keyboard-response","140","232104","0.0-1.0-185.0-0.0","0","0","26927","","341","","","68","20","","","1","20","training","adjacent","EF","5","6","O.jpg","N.jpg","0","1","0","",""
"","feedback","","html-keyboard-response","141","233111","0.0-1.0-186.0-0.0","0","0","26927","","null","","","null","20","","","","","","","","","","","","","","","",""
"","time_out","","html-keyboard-response","142","235125","0.0-1.0-188.0-0.0","0","0","26927","","null","","","null","20","","","","","","","","","","","","","","","",""
"","ITI","","html-keyboard-response","143","236138","0.0-1.0-189.0","0","0","26927","","null","","","null","20","","","","","","","","","","","","","","","NaN",""
"","S1","","html-keyboard-response","144","236395","0.0-1.0-191.0","0","0","26927","","null","","","null","21","","","","","","","","","","","","","","","",""
"","ISI","","html-keyboard-response","145","238399","0.0-1.0-192.0","0","0","26927","","null","","","null","21","NaN","","","","","","","","","","","","","","",""
"","S2","","html-keyboard-response","146","238655","0.0-1.0-193.0","0","0","26927","","null","","","null","21","","NaN","","","","","","","","","","","","","",""
"","response","","html-keyboard-response","147","239199","0.0-1.0-194.0-0.0","0","0","26927","","540","","","75","21","","","1","21","training","adjacent","DC","4","3","M.jpg","Q.jpg","1","0","0","",""
"","feedback","","html-keyboard-response","148","240205","0.0-1.0-195.0-0.0","0","0","26927","","null","","","null","21","","","","","","","","","","","","","","","",""
"","time_out","","html-keyboard-response","149","242212","0.0-1.0-197.0-0.0","0","0","26927","","null","","","null","21","","","","","","","","","","","","","","","",""
"","ITI","","html-keyboard-response","150","243218","0.0-1.0-198.0","0","0","26927","","null","","","null","21","","","","","","","","","","","","","","","NaN",""
"","S1","","html-keyboard-response","151","243474","0.0-1.0-200.0","0","0","26927","","null","","","null","22","","","","","","","","","","","","","","","",""
"","ISI","","html-keyboard-response","152","245488","0.0-1.0-201.0","0","0","26927","","null","","","null","22","NaN","","","","","","","","","","","","","","",""
"","S2","","html-keyboard-response","153","245748","0.0-1.0-202.0","0","0","26927","","null","","","null","22","","NaN","","","","","","","","","","","","","",""
"","response","","html-keyboard-response","154","246158","0.0-1.0-203.0-0.0","0","0","26927","","406","","","75","22","","","1","22","training","adjacent","BC","2","3","P.jpg","Q.jpg","1","1","1","",""
"","feedback","","html-keyboard-response","155","247164","0.0-1.0-204.0-0.0","0","0","26927","","null","","","null","22","","","","","","","","","","","","","","","",""
"","ITI","","html-keyboard-response","156","248170","0.0-1.0-207.0","0","0","26927","","null","","","null","22","","","","","","","","","","","","","","","NaN",""
"","S1","","html-keyboard-response","157","248425","0.0-1.0-209.0","0","0","26927","","null","","","null","23","","","","","","","","","","","","","","","",""
"","ISI","","html-keyboard-response","158","250430","0.0-1.0-210.0","0","0","26927","","null","","","null","23","NaN","","","","","","","","","","","","","","",""
"","S2","","html-keyboard-response","159","250685","0.0-1.0-211.0","0","0","26927","","null","","","null","23","","NaN","","","","","","","","","","","","","",""
"","response","","html-keyboard-response","160","252212","0.0-1.0-212.0-0.0","0","0","26927","","1523","","","75","23","","","1","23","training","adjacent","CD","3","4","Q.jpg","M.jpg","1","1","1","",""
"","feedback","","html-keyboard-response","161","253218","0.0-1.0-213.0-0.0","0","0","26927","","null","","","null","23","","","","","","","","","","","","","","","",""
"","ITI","","html-keyboard-response","162","254224","0.0-1.0-216.0","0","0","26927","","null","","","null","23","","","","","","","","","","","","","","","NaN",""
"","S1","","html-keyboard-response","163","254479","0.0-1.0-218.0","0","0","26927","","null","","","null","24","","","","","","","","","","","","","","","",""
"","ISI","","html-keyboard-response","164","256483","0.0-1.0-219.0","0","0","26927","","null","","","null","24","NaN","","","","","","","","","","","","","","",""
"","S2","","html-keyboard-response","165","256740","0.0-1.0-220.0","0","0","26927","","null","","","null","24","","NaN","","","","","","","","","","","","","",""
"","response","","html-keyboard-response","166","257221","0.0-1.0-221.0-0.0","0","0","26927","","477","","","68","24","","","1","24","training","adjacent","CB","3","2","Q.jpg","P.jpg","0","0","1","",""
"","feedback","","html-keyboard-response","167","258227","0.0-1.0-222.0-0.0","0","0","26927","","null","","","null","24","","","","","","","","","","","","","","","",""
"","ITI","","html-keyboard-response","168","259233","0.0-1.0-225.0","0","0","26927","","null","","","null","24","","","","","","","","","","","","","","","NaN",""
"","S1","","html-keyboard-response","169","259490","0.0-1.0-227.0","0","0","26927","","null","","","null","25","","","","","","","","","","","","","","","",""
"","ISI","","html-keyboard-response","170","261495","0.0-1.0-228.0","0","0","26927","","null","","","null","25","NaN","","","","","","","","","","","","","","",""
"","S2","","html-keyboard-response","171","261752","0.0-1.0-229.0","0","0","26927","","null","","","null","25","","NaN","","","","","","","","","","","","","",""
"","response","","html-keyboard-response","172","262215","0.0-1.0-230.0-0.0","0","0","26927","","457","","","68","25","","","1","25","training","adjacent","GF","7","6","R.jpg","N.jpg","0","0","1","",""
"","feedback","","html-keyboard-response","173","263222","0.0-1.0-231.0-0.0","0","0","26927","","null","","","null","25","","","","","","","","","","","","","","","",""
"","ITI","","html-keyboard-response","174","264226","0.0-1.0-234.0","0","0","26927","","null","","","null","25","","","","","","","","","","","","","","","NaN",""
"","S1","","html-keyboard-response","175","264482","0.0-1.0-236.0","0","0","26927","","null","","","null","26","","","","","","","","","","","","","","","",""
"","ISI","","html-keyboard-response","176","266486","0.0-1.0-237.0","0","0","26927","","null","","","null","26","NaN","","","","","","","","","","","","","","",""
"","S2","","html-keyboard-response","177","266743","0.0-1.0-238.0","0","0","26927","","null","","","null","26","","NaN","","","","","","","","","","","","","",""
"","response","","html-keyboard-response","178","267297","0.0-1.0-239.0-0.0","0","0","26927","","548","","","75","26","","","1","26","training","adjacent","CD","3","4","Q.jpg","M.jpg","1","1","1","",""
"","feedback","","html-keyboard-response","179","268304","0.0-1.0-240.0-0.0","0","0","26927","","null","","","null","26","","","","","","","","","","","","","","","",""
"","ITI","","html-keyboard-response","180","269310","0.0-1.0-243.0","0","0","26927","","null","","","null","26","","","","","","","","","","","","","","","NaN",""
"","S1","","html-keyboard-response","181","269565","0.0-1.0-245.0","0","0","26927","","null","","","null","27","","","","","","","","","","","","","","","",""
"","ISI","","html-keyboard-response","182","271570","0.0-1.0-246.0","0","0","26927","","null","","","null","27","NaN","","","","","","","","","","","","","","",""
"","S2","","html-keyboard-response","183","271826","0.0-1.0-247.0","0","0","26927","","null","","","null","27","","NaN","","","","","","","","","","","","","",""
"","response","","html-keyboard-response","184","271981","0.0-1.0-248.0-0.0","0","0","26927","","150","","","68","27","","","1","27","training","adjacent","CD","3","4","Q.jpg","M.jpg","0","1","0","",""
"","feedback","","html-keyboard-response","185","272987","0.0-1.0-249.0-0.0","0","0","26927","","null","","","null","27","","","","","","","","","","","","","","","",""
"","time_out","","html-keyboard-response","186","274992","0.0-1.0-251.0-0.0","0","0","26927","","null","","","null","27","","","","","","","","","","","","","","","",""
"","ITI","","html-keyboard-response","187","275998","0.0-1.0-252.0","0","0","26927","","null","","","null","27","","","","","","","","","","","","","","","NaN",""
"","S1","","html-keyboard-response","188","276255","0.0-1.0-254.0","0","0","26927","","null","","","null","28","","","","","","","","","","","","","","","",""
"","ISI","","html-keyboard-response","189","278260","0.0-1.0-255.0","0","0","26927","","null","","","null","28","NaN","","","","","","","","","","","","","","",""
"","S2","","html-keyboard-response","190","278516","0.0-1.0-256.0","0","0","26927","","null","","","null","28","","NaN","","","","","","","","","","","","","",""
"","response","","html-keyboard-response","191","278950","0.0-1.0-257.0-0.0","0","0","26927","","430","","","75","28","","","1","28","training","adjacent","CD","3","4","Q.jpg","M.jpg","1","1","1","",""
"","feedback","","html-keyboard-response","192","279956","0.0-1.0-258.0-0.0","0","0","26927","","null","","","null","28","","","","","","","","","","","","","","","",""
"","ITI","","html-keyboard-response","193","280961","0.0-1.0-261.0","0","0","26927","","null","","","null","28","","","","","","","","","","","","","","","NaN",""
"","S1","","html-keyboard-response","194","281217","0.0-1.0-263.0","0","0","26927","","null","","","null","29","","","","","","","","","","","","","","","",""
"","ISI","","html-keyboard-response","195","283223","0.0-1.0-264.0","0","0","26927","","null","","","null","29","NaN","","","","","","","","","","","","","","",""
"","S2","","html-keyboard-response","196","283486","0.0-1.0-265.0","0","0","26927","","null","","","null","29","","NaN","","","","","","","","","","","","","",""
"","response","","html-keyboard-response","197","283837","0.0-1.0-266.0-0.0","0","0","26927","","345","","","75","29","","","1","29","training","adjacent","FG","6","7","N.jpg","R.jpg","1","1","1","",""
"","feedback","","html-keyboard-response","198","284843","0.0-1.0-267.0-0.0","0","0","26927","","null","","","null","29","","","","","","","","","","","","","","","",""
"","ITI","","html-keyboard-response","199","285849","0.0-1.0-270.0","0","0","26927","","null","","","null","29","","","","","","","","","","","","","","","NaN",""
"","S1","","html-keyboard-response","200","286105","0.0-1.0-272.0","0","0","26927","","null","","","null","30","","","","","","","","","","","","","","","",""
"","ISI","","html-keyboard-response","201","288112","0.0-1.0-273.0","0","0","26927","","null","","","null","30","NaN","","","","","","","","","","","","","","",""
"","S2","","html-keyboard-response","202","288367","0.0-1.0-274.0","0","0","26927","","null","","","null","30","","NaN","","","","","","","","","","","","","",""
"","response","","html-keyboard-response","203","288804","0.0-1.0-275.0-0.0","0","0","26927","","432","","","75","30","","","1","30","training","adjacent","CB","3","2","Q.jpg","P.jpg","1","0","0","",""
"","feedback","","html-keyboard-response","204","289810","0.0-1.0-276.0-0.0","0","0","26927","","null","","","null","30","","","","","","","","","","","","","","","",""
"","time_out","","html-keyboard-response","205","291815","0.0-1.0-278.0-0.0","0","0","26927","","null","","","null","30","","","","","","","","","","","","","","","",""
"","ITI","","html-keyboard-response","206","292822","0.0-1.0-279.0","0","0","26927","","null","","","null","30","","","","","","","","","","","","","","","NaN",""
"","S1","","html-keyboard-response","207","293078","0.0-1.0-281.0","0","0","26927","","null","","","null","31","","","","","","","","","","","","","","","",""
"","ISI","","html-keyboard-response","208","295083","0.0-1.0-282.0","0","0","26927","","null","","","null","31","NaN","","","","","","","","","","","","","","",""
"","S2","","html-keyboard-response","209","295340","0.0-1.0-283.0","0","0","26927","","null","","","null","31","","NaN","","","","","","","","","","","","","",""
"","response","","html-keyboard-response","210","295678","0.0-1.0-284.0-0.0","0","0","26927","","333","","","75","31","","","1","31","training","adjacent","BA","2","1","P.jpg","L.jpg","1","0","0","",""
"","feedback","","html-keyboard-response","211","296684","0.0-1.0-285.0-0.0","0","0","26927","","null","","","null","31","","","","","","","","","","","","","","","",""
"","time_out","","html-keyboard-response","212","298690","0.0-1.0-287.0-0.0","0","0","26927","","null","","","null","31","","","","","","","","","","","","","","","",""
"","ITI","","html-keyboard-response","213","299695","0.0-1.0-288.0","0","0","26927","","null","","","null","31","","","","","","","","","","","","","","","NaN",""
"","S1","","html-keyboard-response","214","299953","0.0-1.0-290.0","0","0","26927","","null","","","null","32","","","","","","","","","","","","","","","",""
"","ISI","","html-keyboard-response","215","301958","0.0-1.0-291.0","0","0","26927","","null","","","null","32","NaN","","","","","","","","","","","","","","",""
"","S2","","html-keyboard-response","216","302215","0.0-1.0-292.0","0","0","26927","","null","","","null","32","","NaN","","","","","","","","","","","","","",""
"","response","","html-keyboard-response","217","302560","0.0-1.0-293.0-0.0","0","0","26927","","340","","","75","32","","","1","32","training","adjacent","CB","3","2","Q.jpg","P.jpg","1","0","0","",""
"","feedback","","html-keyboard-response","218","303566","0.0-1.0-294.0-0.0","0","0","26927","","null","","","null","32","","","","","","","","","","","","","","","",""
"","time_out","","html-keyboard-response","219","305579","0.0-1.0-296.0-0.0","0","0","26927","","null","","","null","32","","","","","","","","","","","","","","","",""
"","ITI","","html-keyboard-response","220","306584","0.0-1.0-297.0","0","0","26927","","null","","","null","32","","","","","","","","","","","","","","","NaN",""
"","S1","","html-keyboard-response","221","306840","0.0-1.0-299.0","0","0","26927","","null","","","null","33","","","","","","","","","","","","","","","",""
"","ISI","","html-keyboard-response","222","308845","0.0-1.0-300.0","0","0","26927","","null","","","null","33","NaN","","","","","","","","","","","","","","",""
"","S2","","html-keyboard-response","223","309101","0.0-1.0-301.0","0","0","26927","","null","","","null","33","","NaN","","","","","","","","","","","","","",""
"","response","","html-keyboard-response","224","309523","0.0-1.0-302.0-0.0","0","0","26927","","417","","","68","33","","","1","33","training","adjacent","GF","7","6","R.jpg","N.jpg","0","0","1","",""
"","feedback","","html-keyboard-response","225","310529","0.0-1.0-303.0-0.0","0","0","26927","","null","","","null","33","","","","","","","","","","","","","","","",""
"","ITI","","html-keyboard-response","226","311534","0.0-1.0-306.0","0","0","26927","","null","","","null","33","","","","","","","","","","","","","","","NaN",""
"","S1","","html-keyboard-response","227","311790","0.0-1.0-308.0","0","0","26927","","null","","","null","34","","","","","","","","","","","","","","","",""
"","ISI","","html-keyboard-response","228","313796","0.0-1.0-309.0","0","0","26927","","null","","","null","34","NaN","","","","","","","","","","","","","","",""
"","S2","","html-keyboard-response","229","314051","0.0-1.0-310.0","0","0","26927","","null","","","null","34","","NaN","","","","","","","","","","","","","",""
"","response","","html-keyboard-response","230","314543","0.0-1.0-311.0-0.0","0","0","26927","","488","","","68","34","","","1","34","training","adjacent","FE","6","5","N.jpg","O.jpg","0","0","1","",""
"","feedback","","html-keyboard-response","231","315550","0.0-1.0-312.0-0.0","0","0","26927","","null","","","null","34","","","","","","","","","","","","","","","",""
"","ITI","","html-keyboard-response","232","316555","0.0-1.0-315.0","0","0","26927","","null","","","null","34","","","","","","","","","","","","","","","NaN",""
"","S1","","html-keyboard-response","233","316810","0.0-1.0-317.0","0","0","26927","","null","","","null","35","","","","","","","","","","","","","","","",""
"","ISI","","html-keyboard-response","234","318816","0.0-1.0-318.0","0","0","26927","","null","","","null","35","NaN","","","","","","","","","","","","","","",""
"","S2","","html-keyboard-response","235","319072","0.0-1.0-319.0","0","0","26927","","null","","","null","35","","NaN","","","","","","","","","","","","","",""
"","response","","html-keyboard-response","236","319562","0.0-1.0-320.0-0.0","0","0","26927","","485","","","75","35","","","1","35","training","adjacent","BC","2","3","P.jpg","Q.jpg","1","1","1","",""
"","feedback","","html-keyboard-response","237","320568","0.0-1.0-321.0-0.0","0","0","26927","","null","","","null","35","","","","","","","","","","","","","","","",""
"","ITI","","html-keyboard-response","238","321575","0.0-1.0-324.0","0","0","26927","","null","","","null","35","","","","","","","","","","","","","","","NaN",""
"","S1","","html-keyboard-response","239","321831","0.0-1.0-326.0","0","0","26927","","null","","","null","36","","","","","","","","","","","","","","","",""
"","ISI","","html-keyboard-response","240","323836","0.0-1.0-327.0","0","0","26927","","null","","","null","36","NaN","","","","","","","","","","","","","","",""
"","S2","","html-keyboard-response","241","324092","0.0-1.0-328.0","0","0","26927","","null","","","null","36","","NaN","","","","","","","","","","","","","",""
"","response","","html-keyboard-response","242","324547","0.0-1.0-329.0-0.0","0","0","26927","","451","","","68","36","","","1","36","training","adjacent","DC","4","3","M.jpg","Q.jpg","0","0","1","",""
"","feedback","","html-keyboard-response","243","325553","0.0-1.0-330.0-0.0","0","0","26927","","null","","","null","36","","","","","","","","","","","","","","","",""
"","ITI","","html-keyboard-response","244","326559","0.0-1.0-333.0","0","0","26927","","null","","","null","36","","","","","","","","","","","","","","","NaN",""
"","S1","","html-keyboard-response","245","326814","0.0-1.0-335.0","0","0","26927","","null","","","null","37","","","","","","","","","","","","","","","",""
"","ISI","","html-keyboard-response","246","328820","0.0-1.0-336.0","0","0","26927","","null","","","null","37","NaN","","","","","","","","","","","","","","",""
"","S2","","html-keyboard-response","247","329076","0.0-1.0-337.0","0","0","26927","","null","","","null","37","","NaN","","","","","","","","","","","","","",""
"","response","","html-keyboard-response","248","329423","0.0-1.0-338.0-0.0","0","0","26927","","341","","","75","37","","","1","37","training","adjacent","EF","5","6","O.jpg","N.jpg","1","1","1","",""
"","feedback","","html-keyboard-response","249","330428","0.0-1.0-339.0-0.0","0","0","26927","","null","","","null","37","","","","","","","","","","","","","","","",""
"","ITI","","html-keyboard-response","250","331434","0.0-1.0-342.0","0","0","26927","","null","","","null","37","","","","","","","","","","","","","","","NaN",""
"","S1","","html-keyboard-response","251","331689","0.0-1.0-344.0","0","0","26927","","null","","","null","38","","","","","","","","","","","","","","","",""
"","ISI","","html-keyboard-response","252","333694","0.0-1.0-345.0","0","0","26927","","null","","","null","38","NaN","","","","","","","","","","","","","","",""
"","S2","","html-keyboard-response","253","333951","0.0-1.0-346.0","0","0","26927","","null","","","null","38","","NaN","","","","","","","","","","","","","",""
"","response","","html-keyboard-response","254","334478","0.0-1.0-347.0-0.0","0","0","26927","","522","","","75","38","","","1","38","training","adjacent","DC","4","3","M.jpg","Q.jpg","1","0","0","",""
"","feedback","","html-keyboard-response","255","335483","0.0-1.0-348.0-0.0","0","0","26927","","null","","","null","38","","","","","","","","","","","","","","","",""
"","time_out","","html-keyboard-response","256","337490","0.0-1.0-350.0-0.0","0","0","26927","","null","","","null","38","","","","","","","","","","","","","","","",""
"","ITI","","html-keyboard-response","257","338495","0.0-1.0-351.0","0","0","26927","","null","","","null","38","","","","","","","","","","","","","","","NaN",""
"","S1","","html-keyboard-response","258","338750","0.0-1.0-353.0","0","0","26927","","null","","","null","39","","","","","","","","","","","","","","","",""
"","ISI","","html-keyboard-response","259","340754","0.0-1.0-354.0","0","0","26927","","null","","","null","39","NaN","","","","","","","","","","","","","","",""
"","S2","","html-keyboard-response","260","341010","0.0-1.0-355.0","0","0","26927","","null","","","null","39","","NaN","","","","","","","","","","","","","",""
"","response","","html-keyboard-response","261","341474","0.0-1.0-356.0-0.0","0","0","26927","","460","","","68","39","","","1","39","training","adjacent","ED","5","4","O.jpg","M.jpg","0","0","1","",""
"","feedback","","html-keyboard-response","262","342481","0.0-1.0-357.0-0.0","0","0","26927","","null","","","null","39","","","","","","","","","","","","","","","",""
"","ITI","","html-keyboard-response","263","343488","0.0-1.0-360.0","0","0","26927","","null","","","null","39","","","","","","","","","","","","","","","NaN",""
"","S1","","html-keyboard-response","264","343743","0.0-1.0-362.0","0","0","26927","","null","","","null","40","","","","","","","","","","","","","","","",""
"","ISI","","html-keyboard-response","265","345748","0.0-1.0-363.0","0","0","26927","","null","","","null","40","NaN","","","","","","","","","","","","","","",""
"","S2","","html-keyboard-response","266","346005","0.0-1.0-364.0","0","0","26927","","null","","","null","40","","NaN","","","","","","","","","","","","","",""
"","response","","html-keyboard-response","267","347279","0.0-1.0-365.0-0.0","0","0","26927","","1270","","","75","40","","","1","40","training","adjacent","GF","7","6","R.jpg","N.jpg","1","0","0","",""
"","feedback","","html-keyboard-response","268","348285","0.0-1.0-366.0-0.0","0","0","26927","","null","","","null","40","","","","","","","","","","","","","","","",""
"","time_out","","html-keyboard-response","269","350291","0.0-1.0-368.0-0.0","0","0","26927","","null","","","null","40","","","","","","","","","","","","","","","",""
"","ITI","","html-keyboard-response","270","351297","0.0-1.0-369.0","0","0","26927","","null","","","null","40","","","","","","","","","","","","","","","NaN",""
"","S1","","html-keyboard-response","271","351553","0.0-1.0-371.0","0","0","26927","","null","","","null","41","","","","","","","","","","","","","","","",""
"","ISI","","html-keyboard-response","272","353558","0.0-1.0-372.0","0","0","26927","","null","","","null","41","NaN","","","","","","","","","","","","","","",""
"","S2","","html-keyboard-response","273","353814","0.0-1.0-373.0","0","0","26927","","null","","","null","41","","NaN","","","","","","","","","","","","","",""
"","response","","html-keyboard-response","274","354329","0.0-1.0-374.0-0.0","0","0","26927","","511","","","68","41","","","1","41","training","adjacent","DE","4","5","M.jpg","O.jpg","0","1","0","",""
"","feedback","","html-keyboard-response","275","355336","0.0-1.0-375.0-0.0","0","0","26927","","null","","","null","41","","","","","","","","","","","","","","","",""
"","time_out","","html-keyboard-response","276","357342","0.0-1.0-377.0-0.0","0","0","26927","","null","","","null","41","","","","","","","","","","","","","","","",""
"","ITI","","html-keyboard-response","277","358348","0.0-1.0-378.0","0","0","26927","","null","","","null","41","","","","","","","","","","","","","","","NaN",""
"","S1","","html-keyboard-response","278","358603","0.0-1.0-380.0","0","0","26927","","null","","","null","42","","","","","","","","","","","","","","","",""
"","ISI","","html-keyboard-response","279","360608","0.0-1.0-381.0","0","0","26927","","480","","","75","42","k","","","","","","","","","","","","","","",""
"","S2","","html-keyboard-response","280","360864","0.0-1.0-382.0","0","0","26927","","null","","","null","42","","NaN","","","","","","","","","","","","","",""
"","response","","html-keyboard-response","281","361385","0.0-1.0-383.0-0.0","0","0","26927","","517","","","75","42","","","1","42","training","adjacent","ED","5","4","O.jpg","M.jpg","1","0","0","",""
"","feedback","","html-keyboard-response","282","362392","0.0-1.0-384.0-0.0","0","0","26927","","null","","","null","42","","","","","","","","","","","","","","","",""
"","time_out","","html-keyboard-response","283","364398","0.0-1.0-386.0-0.0","0","0","26927","","null","","","null","42","","","","","","","","","","","","","","","",""
"","ITI","","html-keyboard-response","284","365404","0.0-1.0-387.0","0","0","26927","","null","","","null","42","","","","","","","","","","","","","","","NaN",""
"","S1","","html-keyboard-response","285","365660","0.0-1.0-389.0","0","0","26927","","null","","","null","43","","","","","","","","","","","","","","","",""
"","ISI","","html-keyboard-response","286","367666","0.0-1.0-390.0","0","0","26927","","null","","","null","43","NaN","","","","","","","","","","","","","","",""
"","S2","","html-keyboard-response","287","367923","0.0-1.0-391.0","0","0","26927","","null","","","null","43","","NaN","","","","","","","","","","","","","",""
"","response","","html-keyboard-response","288","368313","0.0-1.0-392.0-0.0","0","0","26927","","385","","","68","43","","","1","43","training","adjacent","AB","1","2","L.jpg","P.jpg","0","1","0","",""
"","feedback","","html-keyboard-response","289","369318","0.0-1.0-393.0-0.0","0","0","26927","","null","","","null","43","","","","","","","","","","","","","","","",""
"","time_out","","html-keyboard-response","290","371324","0.0-1.0-395.0-0.0","0","0","26927","","null","","","null","43","","","","","","","","","","","","","","","",""
"","ITI","","html-keyboard-response","291","372329","0.0-1.0-396.0","0","0","26927","","null","","","null","43","","","","","","","","","","","","","","","NaN",""
"","S1","","html-keyboard-response","292","372585","0.0-1.0-398.0","0","0","26927","","null","","","null","44","","","","","","","","","","","","","","","",""
"","ISI","","html-keyboard-response","293","374591","0.0-1.0-399.0","0","0","26927","","501","","","75","44","k","","","","","","","","","","","","","","",""
"","S2","","html-keyboard-response","294","374847","0.0-1.0-400.0","0","0","26927","","null","","","null","44","","NaN","","","","","","","","","","","","","",""
"","response","","html-keyboard-response","295","375075","0.0-1.0-401.0-0.0","0","0","26927","","222","","","75","44","","","1","44","training","adjacent","FG","6","7","N.jpg","R.jpg","1","1","1","",""
"","feedback","","html-keyboard-response","296","376082","0.0-1.0-402.0-0.0","0","0","26927","","null","","","null","44","","","","","","","","","","","","","","","",""
"","ITI","","html-keyboard-response","297","377087","0.0-1.0-405.0","0","0","26927","","null","","","null","44","","","","","","","","","","","","","","","NaN",""
"","S1","","html-keyboard-response","298","377343","0.0-1.0-407.0","0","0","26927","","null","","","null","45","","","","","","","","","","","","","","","",""
"","ISI","","html-keyboard-response","299","379348","0.0-1.0-408.0","0","0","26927","","null","","","null","45","NaN","","","","","","","","","","","","","","",""
"","S2","","html-keyboard-response","300","379605","0.0-1.0-409.0","0","0","26927","","null","","","null","45","","NaN","","","","","","","","","","","","","",""
"","response","","html-keyboard-response","301","380093","0.0-1.0-410.0-0.0","0","0","26927","","483","","","75","45","","","1","45","training","adjacent","ED","5","4","O.jpg","M.jpg","1","0","0","",""
"","feedback","","html-keyboard-response","302","381099","0.0-1.0-411.0-0.0","0","0","26927","","null","","","null","45","","","","","","","","","","","","","","","",""
"","time_out","","html-keyboard-response","303","383104","0.0-1.0-413.0-0.0","0","0","26927","","null","","","null","45","","","","","","","","","","","","","","","",""
"","ITI","","html-keyboard-response","304","384119","0.0-1.0-414.0","0","0","26927","","null","","","null","45","","","","","","","","","","","","","","","NaN",""
"","S1","","html-keyboard-response","305","384380","0.0-1.0-416.0","0","0","26927","","null","","","null","46","","","","","","","","","","","","","","","",""
"","ISI","","html-keyboard-response","306","386387","0.0-1.0-417.0","0","0","26927","","null","","","null","46","NaN","","","","","","","","","","","","","","",""
"","S2","","html-keyboard-response","307","386643","0.0-1.0-418.0","0","0","26927","","null","","","null","46","","NaN","","","","","","","","","","","","","",""
"","response","","html-keyboard-response","308","387124","0.0-1.0-419.0-0.0","0","0","26927","","477","","","68","46","","","1","46","training","adjacent","DE","4","5","M.jpg","O.jpg","0","1","0","",""
"","feedback","","html-keyboard-response","309","388132","0.0-1.0-420.0-0.0","0","0","26927","","null","","","null","46","","","","","","","","","","","","","","","",""
"","time_out","","html-keyboard-response","310","390138","0.0-1.0-422.0-0.0","0","0","26927","","null","","","null","46","","","","","","","","","","","","","","","",""
"","ITI","","html-keyboard-response","311","391144","0.0-1.0-423.0","0","0","26927","","null","","","null","46","","","","","","","","","","","","","","","NaN",""
"","S1","","html-keyboard-response","312","391399","0.0-1.0-425.0","0","0","26927","","null","","","null","47","","","","","","","","","","","","","","","",""
"","ISI","","html-keyboard-response","313","393409","0.0-1.0-426.0","0","0","26927","","null","","","null","47","NaN","","","","","","","","","","","","","","",""
"","S2","","html-keyboard-response","314","393664","0.0-1.0-427.0","0","0","26927","","null","","","null","47","","NaN","","","","","","","","","","","","","",""
"","response","","html-keyboard-response","315","394517","0.0-1.0-428.0-0.0","0","0","26927","","848","","","75","47","","","1","47","training","adjacent","BC","2","3","P.jpg","Q.jpg","1","1","1","",""
"","feedback","","html-keyboard-response","316","395523","0.0-1.0-429.0-0.0","0","0","26927","","null","","","null","47","","","","","","","","","","","","","","","",""
"","ITI","","html-keyboard-response","317","396530","0.0-1.0-432.0","0","0","26927","","null","","","null","47","","","","","","","","","","","","","","","NaN",""
"","block_over","","html-keyboard-response","318","399882","0.0-1.0-433.0-0.0","0","0","26927","","3346","","","32","47","","","","","","","","","","","","","","","",""
"","S1","","html-keyboard-response","319","400137","0.0-1.0-434.0","0","0","26927","","null","","","null","48","","","","","","","","","","","","","","","",""
"","ISI","","html-keyboard-response","320","402143","0.0-1.0-435.0","0","0","26927","","null","","","null","48","NaN","","","","","","","","","","","","","","",""
"","S2","","html-keyboard-response","321","402399","0.0-1.0-436.0","0","0","26927","","null","","","null","48","","NaN","","","","","","","","","","","","","",""
"","response","","html-keyboard-response","322","402844","0.0-1.0-437.0-0.0","0","0","26927","","440","","","68","48","","","2","48","training","adjacent","ED","5","4","O.jpg","M.jpg","0","0","1","",""
"","feedback","","html-keyboard-response","323","403850","0.0-1.0-438.0-0.0","0","0","26927","","null","","","null","48","","","","","","","","","","","","","","","",""
"","ITI","","html-keyboard-response","324","404856","0.0-1.0-441.0","0","0","26927","","null","","","null","48","","","","","","","","","","","","","","","NaN",""
"","S1","","html-keyboard-response","325","405112","0.0-1.0-443.0","0","0","26927","","null","","","null","49","","","","","","","","","","","","","","","",""
"","ISI","","html-keyboard-response","326","407131","0.0-1.0-444.0","0","0","26927","","null","","","null","49","NaN","","","","","","","","","","","","","","",""
"","S2","","html-keyboard-response","327","407386","0.0-1.0-445.0","0","0","26927","","null","","","null","49","","NaN","","","","","","","","","","","","","",""
"","response","","html-keyboard-response","328","407887","0.0-1.0-446.0-0.0","0","0","26927","","495","","","68","49","","","2","49","training","adjacent","BA","2","1","P.jpg","L.jpg","0","0","1","",""
"","feedback","","html-keyboard-response","329","408893","0.0-1.0-447.0-0.0","0","0","26927","","null","","","null","49","","","","","","","","","","","","","","","",""
"","ITI","","html-keyboard-response","330","409908","0.0-1.0-450.0","0","0","26927","","null","","","null","49","","","","","","","","","","","","","","","NaN",""
"","S1","","html-keyboard-response","331","410168","0.0-1.0-452.0","0","0","26927","","null","","","null","50","","","","","","","","","","","","","","","",""
"","ISI","","html-keyboard-response","332","412172","0.0-1.0-453.0","0","0","26927","","null","","","null","50","NaN","","","","","","","","","","","","","","",""
"","S2","","html-keyboard-response","333","412428","0.0-1.0-454.0","0","0","26927","","null","","","null","50","","NaN","","","","","","","","","","","","","",""
"","response","","html-keyboard-response","334","412614","0.0-1.0-455.0-0.0","0","0","26927","","181","","","75","50","","","2","50","training","adjacent","ED","5","4","O.jpg","M.jpg","1","0","0","",""
"","feedback","","html-keyboard-response","335","413622","0.0-1.0-456.0-0.0","0","0","26927","","null","","","null","50","","","","","","","","","","","","","","","",""
"","time_out","","html-keyboard-response","336","415628","0.0-1.0-458.0-0.0","0","0","26927","","null","","","null","50","","","","","","","","","","","","","","","",""
"","ITI","","html-keyboard-response","337","416637","0.0-1.0-459.0","0","0","26927","","null","","","null","50","","","","","","","","","","","","","","","NaN",""
"","S1","","html-keyboard-response","338","416893","0.0-1.0-461.0","0","0","26927","","null","","","null","51","","","","","","","","","","","","","","","",""
"","ISI","","html-keyboard-response","339","418897","0.0-1.0-462.0","0","0","26927","","null","","","null","51","NaN","","","","","","","","","","","","","","",""
"","S2","","html-keyboard-response","340","419153","0.0-1.0-463.0","0","0","26927","","null","","","null","51","","NaN","","","","","","","","","","","","","",""
"","response","","html-keyboard-response","341","419345","0.0-1.0-464.0-0.0","0","0","26927","","187","","","68","51","","","2","51","training","adjacent","CD","3","4","Q.jpg","M.jpg","0","1","0","",""
"","feedback","","html-keyboard-response","342","420351","0.0-1.0-465.0-0.0","0","0","26927","","null","","","null","51","","","","","","","","","","","","","","","",""
"","time_out","","html-keyboard-response","343","422356","0.0-1.0-467.0-0.0","0","0","26927","","null","","","null","51","","","","","","","","","","","","","","","",""
"","ITI","","html-keyboard-response","344","423363","0.0-1.0-468.0","0","0","26927","","null","","","null","51","","","","","","","","","","","","","","","NaN",""
"","S1","","html-keyboard-response","345","423619","0.0-1.0-470.0","0","0","26927","","null","","","null","52","","","","","","","","","","","","","","","",""
"","ISI","","html-keyboard-response","346","425625","0.0-1.0-471.0","0","0","26927","","null","","","null","52","NaN","","","","","","","","","","","","","","",""
"","S2","","html-keyboard-response","347","425881","0.0-1.0-472.0","0","0","26927","","null","","","null","52","","NaN","","","","","","","","","","","","","",""
"","response","","html-keyboard-response","348","426057","0.0-1.0-473.0-0.0","0","0","26927","","170","","","75","52","","","2","52","training","adjacent","FE","6","5","N.jpg","O.jpg","1","0","0","",""
"","feedback","","html-keyboard-response","349","427064","0.0-1.0-474.0-0.0","0","0","26927","","null","","","null","52","","","","","","","","","","","","","","","",""
"","time_out","","html-keyboard-response","350","429069","0.0-1.0-476.0-0.0","0","0","26927","","null","","","null","52","","","","","","","","","","","","","","","",""
"","ITI","","html-keyboard-response","351","430075","0.0-1.0-477.0","0","0","26927","","null","","","null","52","","","","","","","","","","","","","","","NaN",""
"","S1","","html-keyboard-response","352","430332","0.0-1.0-479.0","0","0","26927","","null","","","null","53","","","","","","","","","","","","","","","",""
"","ISI","","html-keyboard-response","353","432346","0.0-1.0-480.0","0","0","26927","","null","","","null","53","NaN","","","","","","","","","","","","","","",""
"","S2","","html-keyboard-response","354","432607","0.0-1.0-481.0","0","0","26927","","null","","","null","53","","NaN","","","","","","","","","","","","","",""
"","response","","html-keyboard-response","355","432848","0.0-1.0-482.0-0.0","0","0","26927","","237","","","68","53","","","2","53","training","adjacent","DE","4","5","M.jpg","O.jpg","0","1","0","",""
"","feedback","","html-keyboard-response","356","433854","0.0-1.0-483.0-0.0","0","0","26927","","null","","","null","53","","","","","","","","","","","","","","","",""
"","time_out","","html-keyboard-response","357","435861","0.0-1.0-485.0-0.0","0","0","26927","","null","","","null","53","","","","","","","","","","","","","","","",""
"","ITI","","html-keyboard-response","358","436866","0.0-1.0-486.0","0","0","26927","","null","","","null","53","","","","","","","","","","","","","","","NaN",""
"","S1","","html-keyboard-response","359","437122","0.0-1.0-488.0","0","0","26927","","null","","","null","54","","","","","","","","","","","","","","","",""
"","ISI","","html-keyboard-response","360","439128","0.0-1.0-489.0","0","0","26927","","221","","","75","54","k","","","","","","","","","","","","","","",""
"","S2","","html-keyboard-response","361","439385","0.0-1.0-490.0","0","0","26927","","null","","","null","54","","NaN","","","","","","","","","","","","","",""
"","response","","html-keyboard-response","362","439661","0.0-1.0-491.0-0.0","0","0","26927","","271","","","75","54","","","2","54","training","adjacent","ED","5","4","O.jpg","M.jpg","1","0","0","",""
"","feedback","","html-keyboard-response","363","440668","0.0-1.0-492.0-0.0","0","0","26927","","null","","","null","54","","","","","","","","","","","","","","","",""
"","time_out","","html-keyboard-response","364","442673","0.0-1.0-494.0-0.0","0","0","26927","","null","","","null","54","","","","","","","","","","","","","","","",""
"","ITI","","html-keyboard-response","365","443680","0.0-1.0-495.0","0","0","26927","","null","","","null","54","","","","","","","","","","","","","","","NaN",""
"","S1","","html-keyboard-response","366","443935","0.0-1.0-497.0","0","0","26927","","null","","","null","55","","","","","","","","","","","","","","","",""
"","ISI","","html-keyboard-response","367","445942","0.0-1.0-498.0","0","0","26927","","null","","","null","55","NaN","","","","","","","","","","","","","","",""
"","S2","","html-keyboard-response","368","446198","0.0-1.0-499.0","0","0","26927","","null","","","null","55","","NaN","","","","","","","","","","","","","",""
"","response","","html-keyboard-response","369","446287","0.0-1.0-500.0-0.0","0","0","26927","","85","","","75","55","","","2","55","training","adjacent","DC","4","3","M.jpg","Q.jpg","1","0","0","",""
"","feedback","","html-keyboard-response","370","447294","0.0-1.0-501.0-0.0","0","0","26927","","null","","","null","55","","","","","","","","","","","","","","","",""
"","time_out","","html-keyboard-response","371","449301","0.0-1.0-503.0-0.0","0","0","26927","","null","","","null","55","","","","","","","","","","","","","","","",""
"","ITI","","html-keyboard-response","372","450307","0.0-1.0-504.0","0","0","26927","","null","","","null","55","","","","","","","","","","","","","","","NaN",""
"","S1","","html-keyboard-response","373","450562","0.0-1.0-506.0","0","0","26927","","null","","","null","56","","","","","","","","","","","","","","","",""
"","ISI","","html-keyboard-response","374","452568","0.0-1.0-507.0","0","0","26927","","null","","","null","56","NaN","","","","","","","","","","","","","","",""
"","S2","","html-keyboard-response","375","452825","0.0-1.0-508.0","0","0","26927","","null","","","null","56","","NaN","","","","","","","","","","","","","",""
"","response","","html-keyboard-response","376","452909","0.0-1.0-509.0-0.0","0","0","26927","","79","","","68","56","","","2","56","training","adjacent","FE","6","5","N.jpg","O.jpg","0","0","1","",""
"","feedback","","html-keyboard-response","377","453915","0.0-1.0-510.0-0.0","0","0","26927","","null","","","null","56","","","","","","","","","","","","","","","",""
"","ITI","","html-keyboard-response","378","454930","0.0-1.0-513.0","0","0","26927","","null","","","null","56","","","","","","","","","","","","","","","NaN",""
"","S1","","html-keyboard-response","379","455187","0.0-1.0-515.0","0","0","26927","","null","","","null","57","","","","","","","","","","","","","","","",""
"","ISI","","html-keyboard-response","380","457192","0.0-1.0-516.0","0","0","26927","","null","","","null","57","NaN","","","","","","","","","","","","","","",""
"","S2","","html-keyboard-response","381","457448","0.0-1.0-517.0","0","0","26927","","null","","","null","57","","NaN","","","","","","","","","","","","","",""
"","response","","html-keyboard-response","382","457502","0.0-1.0-518.0-0.0","0","0","26927","","48","","","68","57","","","2","57","training","adjacent","BC","2","3","P.jpg","Q.jpg","0","1","0","",""
"","feedback","","html-keyboard-response","383","458508","0.0-1.0-519.0-0.0","0","0","26927","","null","","","null","57","","","","","","","","","","","","","","","",""
"","time_out","","html-keyboard-response","384","460516","0.0-1.0-521.0-0.0","0","0","26927","","null","","","null","57","","","","","","","","","","","","","","","",""
"","ITI","","html-keyboard-response","385","461528","0.0-1.0-522.0","0","0","26927","","null","","","null","57","","","","","","","","","","","","","","","NaN",""
"","S1","","html-keyboard-response","386","461794","0.0-1.0-524.0","0","0","26927","","null","","","null","58","","","","","","","","","","","","","","","",""
"","ISI","","html-keyboard-response","387","463799","0.0-1.0-525.0","0","0","26927","","null","","","null","58","NaN","","","","","","","","","","","","","","",""
"","S2","","html-keyboard-response","388","464056","0.0-1.0-526.0","0","0","26927","","null","","","null","58","","NaN","","","","","","","","","","","","","",""
"","response","","html-keyboard-response","389","464557","0.0-1.0-527.0-0.0","0","0","26927","","497","","","75","58","","","2","58","training","adjacent","EF","5","6","O.jpg","N.jpg","1","1","1","",""
"","feedback","","html-keyboard-response","390","465564","0.0-1.0-528.0-0.0","0","0","26927","","null","","","null","58","","","","","","","","","","","","","","","",""
"","ITI","","html-keyboard-response","391","466569","0.0-1.0-531.0","0","0","26927","","null","","","null","58","","","","","","","","","","","","","","","NaN",""
"","S1","","html-keyboard-response","392","466825","0.0-1.0-533.0","0","0","26927","","null","","","null","59","","","","","","","","","","","","","","","",""
"","ISI","","html-keyboard-response","393","468831","0.0-1.0-534.0","0","0","26927","","null","","","null","59","NaN","","","","","","","","","","","","","","",""
"","S2","","html-keyboard-response","394","469094","0.0-1.0-535.0","0","0","26927","","null","","","null","59","","NaN","","","","","","","","","","","","","",""
"","response","","html-keyboard-response","395","469575","0.0-1.0-536.0-0.0","0","0","26927","","468","","","68","59","","","2","59","training","adjacent","CD","3","4","Q.jpg","M.jpg","0","1","0","",""
"","feedback","","html-keyboard-response","396","470582","0.0-1.0-537.0-0.0","0","0","26927","","null","","","null","59","","","","","","","","","","","","","","","",""
"","time_out","","html-keyboard-response","397","472588","0.0-1.0-539.0-0.0","0","0","26927","","null","","","null","59","","","","","","","","","","","","","","","",""
"","ITI","","html-keyboard-response","398","473604","0.0-1.0-540.0","0","0","26927","","null","","","null","59","","","","","","","","","","","","","","","NaN",""
"","S1","","html-keyboard-response","399","473861","0.0-1.0-542.0","0","0","26927","","null","","","null","60","","","","","","","","","","","","","","","",""
"","ISI","","html-keyboard-response","400","475867","0.0-1.0-543.0","0","0","26927","","null","","","null","60","NaN","","","","","","","","","","","","","","",""
"","S2","","html-keyboard-response","401","476124","0.0-1.0-544.0","0","0","26927","","null","","","null","60","","NaN","","","","","","","","","","","","","",""
"","response","","html-keyboard-response","402","476542","0.0-1.0-545.0-0.0","0","0","26927","","412","","","75","60","","","2","60","training","adjacent","DE","4","5","M.jpg","O.jpg","1","1","1","",""
"","feedback","","html-keyboard-response","403","477548","0.0-1.0-546.0-0.0","0","0","26927","","null","","","null","60","","","","","","","","","","","","","","","",""
"","ITI","","html-keyboard-response","404","478556","0.0-1.0-549.0","0","0","26927","","null","","","null","60","","","","","","","","","","","","","","","NaN",""
"","S1","","html-keyboard-response","405","478814","0.0-1.0-551.0","0","0","26927","","null","","","null","61","","","","","","","","","","","","","","","",""
"","ISI","","html-keyboard-response","406","480819","0.0-1.0-552.0","0","0","26927","","null","","","null","61","NaN","","","","","","","","","","","","","","",""
"","S2","","html-keyboard-response","407","481075","0.0-1.0-553.0","0","0","26927","","null","","","null","61","","NaN","","","","","","","","","","","","","",""
"","response","","html-keyboard-response","408","481537","0.0-1.0-554.0-0.0","0","0","26927","","456","","","68","61","","","2","61","training","adjacent","FG","6","7","N.jpg","R.jpg","0","1","0","",""
"","feedback","","html-keyboard-response","409","482543","0.0-1.0-555.0-0.0","0","0","26927","","null","","","null","61","","","","","","","","","","","","","","","",""
"","time_out","","html-keyboard-response","410","484549","0.0-1.0-557.0-0.0","0","0","26927","","null","","","null","61","","","","","","","","","","","","","","","",""
"","ITI","","html-keyboard-response","411","485568","0.0-1.0-558.0","0","0","26927","","null","","","null","61","","","","","","","","","","","","","","","NaN",""
"","S1","","html-keyboard-response","412","485824","0.0-1.0-560.0","0","0","26927","","null","","","null","62","","","","","","","","","","","","","","","",""
"","ISI","","html-keyboard-response","413","487829","0.0-1.0-561.0","0","0","26927","","null","","","null","62","NaN","","","","","","","","","","","","","","",""
"","S2","","html-keyboard-response","414","488089","0.0-1.0-562.0","0","0","26927","","null","","","null","62","","NaN","","","","","","","","","","","","","",""
"","response","","html-keyboard-response","415","488532","0.0-1.0-563.0-0.0","0","0","26927","","437","","","75","62","","","2","62","training","adjacent","CB","3","2","Q.jpg","P.jpg","1","0","0","",""
"","feedback","","html-keyboard-response","416","489543","0.0-1.0-564.0-0.0","0","0","26927","","null","","","null","62","","","","","","","","","","","","","","","",""
"","time_out","","html-keyboard-response","417","491550","0.0-1.0-566.0-0.0","0","0","26927","","null","","","null","62","","","","","","","","","","","","","","","",""
"","ITI","","html-keyboard-response","418","492555","0.0-1.0-567.0","0","0","26927","","null","","","null","62","","","","","","","","","","","","","","","NaN",""
"","S1","","html-keyboard-response","419","492810","0.0-1.0-569.0","0","0","26927","","null","","","null","63","","","","","","","","","","","","","","","",""
"","ISI","","html-keyboard-response","420","494823","0.0-1.0-570.0","0","0","26927","","null","","","null","63","NaN","","","","","","","","","","","","","","",""
"","S2","","html-keyboard-response","421","495085","0.0-1.0-571.0","0","0","26927","","null","","","null","63","","NaN","","","","","","","","","","","","","",""
"","response","","html-keyboard-response","422","495313","0.0-1.0-572.0-0.0","0","0","26927","","215","","","75","63","","","2","63","training","adjacent","GF","7","6","R.jpg","N.jpg","1","0","0","",""
"","feedback","","html-keyboard-response","423","496320","0.0-1.0-573.0-0.0","0","0","26927","","null","","","null","63","","","","","","","","","","","","","","","",""
"","time_out","","html-keyboard-response","424","498330","0.0-1.0-575.0-0.0","0","0","26927","","null","","","null","63","","","","","","","","","","","","","","","",""
"","ITI","","html-keyboard-response","425","499335","0.0-1.0-576.0","0","0","26927","","null","","","null","63","","","","","","","","","","","","","","","NaN",""
"","S1","","html-keyboard-response","426","499592","0.0-1.0-578.0","0","0","26927","","null","","","null","64","","","","","","","","","","","","","","","",""
"","ISI","","html-keyboard-response","427","501598","0.0-1.0-579.0","0","0","26927","","null","","","null","64","NaN","","","","","","","","","","","","","","",""
"","S2","","html-keyboard-response","428","501853","0.0-1.0-580.0","0","0","26927","","null","","","null","64","","NaN","","","","","","","","","","","","","",""
"","response","","html-keyboard-response","429","502095","0.0-1.0-581.0-0.0","0","0","26927","","237","","","68","64","","","2","64","training","adjacent","FG","6","7","N.jpg","R.jpg","0","1","0","",""
"","feedback","","html-keyboard-response","430","503101","0.0-1.0-582.0-0.0","0","0","26927","","null","","","null","64","","","","","","","","","","","","","","","",""
"","time_out","","html-keyboard-response","431","505107","0.0-1.0-584.0-0.0","0","0","26927","","null","","","null","64","","","","","","","","","","","","","","","",""
"","ITI","","html-keyboard-response","432","506120","0.0-1.0-585.0","0","0","26927","","null","","","null","64","","","","","","","","","","","","","","","NaN",""
"","S1","","html-keyboard-response","433","506388","0.0-1.0-587.0","0","0","26927","","null","","","null","65","","","","","","","","","","","","","","","",""
"","ISI","","html-keyboard-response","434","508395","0.0-1.0-588.0","0","0","26927","","254","","","68","65","d","","","","","","","","","","","","","","",""
"","S2","","html-keyboard-response","435","508652","0.0-1.0-589.0","0","0","26927","","null","","","null","65","","NaN","","","","","","","","","","","","","",""
"","response","","html-keyboard-response","436","509062","0.0-1.0-590.0-0.0","0","0","26927","","406","","","68","65","","","2","65","training","adjacent","BC","2","3","P.jpg","Q.jpg","0","1","0","",""
"","feedback","","html-keyboard-response","437","510069","0.0-1.0-591.0-0.0","0","0","26927","","null","","","null","65","","","","","","","","","","","","","","","",""
"","time_out","","html-keyboard-response","438","512074","0.0-1.0-593.0-0.0","0","0","26927","","null","","","null","65","","","","","","","","","","","","","","","",""
"","ITI","","html-keyboard-response","439","513080","0.0-1.0-594.0","0","0","26927","","null","","","null","65","","","","","","","","","","","","","","","NaN",""
"","S1","","html-keyboard-response","440","513335","0.0-1.0-596.0","0","0","26927","","null","","","null","66","","","","","","","","","","","","","","","",""
"","ISI","","html-keyboard-response","441","515340","0.0-1.0-597.0","0","0","26927","","null","","","null","66","NaN","","","","","","","","","","","","","","",""
"","S2","","html-keyboard-response","442","515596","0.0-1.0-598.0","0","0","26927","","null","","","null","66","","NaN","","","","","","","","","","","","","",""
"","response","","html-keyboard-response","443","517351","0.0-1.0-599.0-0.0","0","0","26927","","null","","","null","66","","","2","66","training","adjacent","ED","5","4","O.jpg","M.jpg","NaN","0","0","",""
"","too_slow_prompt","","html-keyboard-response","444","518358","0.0-1.0-601.0-0.0","1","0","26927","","null","","","null","","","","","","","","","","","","","","","","",""
"","time_out","","html-keyboard-response","445","520363","0.0-1.0-602.0-0.0","0","0","26927","","null","","","null","66","","","","","","","","","","","","","","","",""
"","ITI","","html-keyboard-response","446","521369","0.0-1.0-603.0","0","0","26927","","null","","","null","66","","","","","","","","","","","","","","","NaN",""
"","S1","","html-keyboard-response","447","521624","0.0-1.0-605.0","0","0","26927","","null","","","null","67","","","","","","","","","","","","","","","",""
"","ISI","","html-keyboard-response","448","523629","0.0-1.0-606.0","0","0","26927","","null","","","null","67","NaN","","","","","","","","","","","","","","",""
"","S2","","html-keyboard-response","449","523884","0.0-1.0-607.0","0","0","26927","","null","","","null","67","","NaN","","","","","","","","","","","","","",""
"","response","","html-keyboard-response","450","525101","0.0-1.0-608.0-0.0","0","0","26927","","1211","","","75","67","","","2","67","training","adjacent","CB","3","2","Q.jpg","P.jpg","1","0","0","",""
"","feedback","","html-keyboard-response","451","526107","0.0-1.0-609.0-0.0","0","0","26927","","null","","","null","67","","","","","","","","","","","","","","","",""
"","time_out","","html-keyboard-response","452","528114","0.0-1.0-611.0-0.0","0","0","26927","","null","","","null","67","","","","","","","","","","","","","","","",""
"","ITI","","html-keyboard-response","453","529119","0.0-1.0-612.0","0","0","26927","","null","","","null","67","","","","","","","","","","","","","","","NaN",""
"","S1","","html-keyboard-response","454","529381","0.0-1.0-614.0","0","0","26927","","null","","","null","68","","","","","","","","","","","","","","","",""
"","ISI","","html-keyboard-response","455","531396","0.0-1.0-615.0","0","0","26927","","null","","","null","68","NaN","","","","","","","","","","","","","","",""
"","S2","","html-keyboard-response","456","531653","0.0-1.0-616.0","0","0","26927","","null","","","null","68","","NaN","","","","","","","","","","","","","",""
"","response","","html-keyboard-response","457","532426","0.0-1.0-617.0-0.0","0","0","26927","","769","","","68","68","","","2","68","training","adjacent","BC","2","3","P.jpg","Q.jpg","0","1","0","",""
"","feedback","","html-keyboard-response","458","533433","0.0-1.0-618.0-0.0","0","0","26927","","null","","","null","68","","","","","","","","","","","","","","","",""
"","time_out","","html-keyboard-response","459","535439","0.0-1.0-620.0-0.0","0","0","26927","","null","","","null","68","","","","","","","","","","","","","","","",""
"","ITI","","html-keyboard-response","460","536445","0.0-1.0-621.0","0","0","26927","","null","","","null","68","","","","","","","","","","","","","","","NaN",""
"","S1","","html-keyboard-response","461","536700","0.0-1.0-623.0","0","0","26927","","null","","","null","69","","","","","","","","","","","","","","","",""
"","ISI","","html-keyboard-response","462","538711","0.0-1.0-624.0","0","0","26927","","null","","","null","69","NaN","","","","","","","","","","","","","","",""
"","S2","","html-keyboard-response","463","538967","0.0-1.0-625.0","0","0","26927","","null","","","null","69","","NaN","","","","","","","","","","","","","",""
"","response","","html-keyboard-response","464","539347","0.0-1.0-626.0-0.0","0","0","26927","","374","","","75","69","","","2","69","training","adjacent","GF","7","6","R.jpg","N.jpg","1","0","0","",""
"","feedback","","html-keyboard-response","465","540354","0.0-1.0-627.0-0.0","0","0","26927","","null","","","null","69","","","","","","","","","","","","","","","",""
"","time_out","","html-keyboard-response","466","542362","0.0-1.0-629.0-0.0","0","0","26927","","null","","","null","69","","","","","","","","","","","","","","","",""
"","ITI","","html-keyboard-response","467","543367","0.0-1.0-630.0","0","0","26927","","null","","","null","69","","","","","","","","","","","","","","","NaN",""
"","S1","","html-keyboard-response","468","543630","0.0-1.0-632.0","0","0","26927","","null","","","null","70","","","","","","","","","","","","","","","",""
"","ISI","","html-keyboard-response","469","545635","0.0-1.0-633.0","0","0","26927","","null","","","null","70","NaN","","","","","","","","","","","","","","",""
"","S2","","html-keyboard-response","470","545891","0.0-1.0-634.0","0","0","26927","","null","","","null","70","","NaN","","","","","","","","","","","","","",""
"","response","","html-keyboard-response","471","546075","0.0-1.0-635.0-0.0","0","0","26927","","180","","","68","70","","","2","70","training","adjacent","EF","5","6","O.jpg","N.jpg","0","1","0","",""
"","feedback","","html-keyboard-response","472","547083","0.0-1.0-636.0-0.0","0","0","26927","","null","","","null","70","","","","","","","","","","","","","","","",""
"","time_out","","html-keyboard-response","473","549088","0.0-1.0-638.0-0.0","0","0","26927","","null","","","null","70","","","","","","","","","","","","","","","",""
"","ITI","","html-keyboard-response","474","550093","0.0-1.0-639.0","0","0","26927","","null","","","null","70","","","","","","","","","","","","","","","NaN",""
"","S1","","html-keyboard-response","475","550349","0.0-1.0-641.0","0","0","26927","","null","","","null","71","","","","","","","","","","","","","","","",""
"","ISI","","html-keyboard-response","476","552355","0.0-1.0-642.0","0","0","26927","","null","","","null","71","NaN","","","","","","","","","","","","","","",""
"","S2","","html-keyboard-response","477","552611","0.0-1.0-643.0","0","0","26927","","null","","","null","71","","NaN","","","","","","","","","","","","","",""
"","response","","html-keyboard-response","478","552767","0.0-1.0-644.0-0.0","0","0","26927","","152","","","68","71","","","2","71","training","adjacent","DE","4","5","M.jpg","O.jpg","0","1","0","",""
"","feedback","","html-keyboard-response","479","553773","0.0-1.0-645.0-0.0","0","0","26927","","null","","","null","71","","","","","","","","","","","","","","","",""
"","time_out","","html-keyboard-response","480","555779","0.0-1.0-647.0-0.0","0","0","26927","","null","","","null","71","","","","","","","","","","","","","","","",""
"","ITI","","html-keyboard-response","481","556786","0.0-1.0-648.0","0","0","26927","","null","","","null","71","","","","","","","","","","","","","","","NaN",""
"","S1","","html-keyboard-response","482","557041","0.0-1.0-650.0","0","0","26927","","null","","","null","72","","","","","","","","","","","","","","","",""
"","ISI","","html-keyboard-response","483","559054","0.0-1.0-651.0","0","0","26927","","null","","","null","72","NaN","","","","","","","","","","","","","","",""
"","S2","","html-keyboard-response","484","559310","0.0-1.0-652.0","0","0","26927","","null","","","null","72","","NaN","","","","","","","","","","","","","",""
"","response","","html-keyboard-response","485","559326","0.0-1.0-653.0-0.0","0","0","26927","","5","","","68","72","","","2","72","training","adjacent","GF","7","6","R.jpg","N.jpg","0","0","1","",""
"","feedback","","html-keyboard-response","486","560341","0.0-1.0-654.0-0.0","0","0","26927","","null","","","null","72","","","","","","","","","","","","","","","",""
"","ITI","","html-keyboard-response","487","561348","0.0-1.0-657.0","0","0","26927","","null","","","null","72","","","","","","","","","","","","","","","NaN",""
"","S1","","html-keyboard-response","488","561605","0.0-1.0-659.0","0","0","26927","","null","","","null","73","","","","","","","","","","","","","","","",""
"","ISI","","html-keyboard-response","489","563611","0.0-1.0-660.0","0","0","26927","","null","","","null","73","NaN","","","","","","","","","","","","","","",""
"","S2","","html-keyboard-response","490","563868","0.0-1.0-661.0","0","0","26927","","null","","","null","73","","NaN","","","","","","","","","","","","","",""
"","response","","html-keyboard-response","491","564318","0.0-1.0-662.0-0.0","0","0","26927","","446","","","68","73","","","2","73","training","adjacent","AB","1","2","L.jpg","P.jpg","0","1","0","",""
"","feedback","","html-keyboard-response","492","565325","0.0-1.0-663.0-0.0","0","0","26927","","null","","","null","73","","","","","","","","","","","","","","","",""
"","time_out","","html-keyboard-response","493","567331","0.0-1.0-665.0-0.0","0","0","26927","","null","","","null","73","","","","","","","","","","","","","","","",""
"","ITI","","html-keyboard-response","494","568337","0.0-1.0-666.0","0","0","26927","","null","","","null","73","","","","","","","","","","","","","","","NaN",""
"","S1","","html-keyboard-response","495","568606","0.0-1.0-668.0","0","0","26927","","null","","","null","74","","","","","","","","","","","","","","","",""
"","ISI","","html-keyboard-response","496","570611","0.0-1.0-669.0","0","0","26927","","null","","","null","74","NaN","","","","","","","","","","","","","","",""
"","S2","","html-keyboard-response","497","570867","0.0-1.0-670.0","0","0","26927","","null","","","null","74","","NaN","","","","","","","","","","","","","",""
"","response","","html-keyboard-response","498","571346","0.0-1.0-671.0-0.0","0","0","26927","","474","","","68","74","","","2","74","training","adjacent","DC","4","3","M.jpg","Q.jpg","0","0","1","",""
"","feedback","","html-keyboard-response","499","572353","0.0-1.0-672.0-0.0","0","0","26927","","null","","","null","74","","","","","","","","","","","","","","","",""
"","ITI","","html-keyboard-response","500","573360","0.0-1.0-675.0","0","0","26927","","null","","","null","74","","","","","","","","","","","","","","","NaN",""
"","S1","","html-keyboard-response","501","573617","0.0-1.0-677.0","0","0","26927","","null","","","null","75","","","","","","","","","","","","","","","",""
"","ISI","","html-keyboard-response","502","575622","0.0-1.0-678.0","0","0","26927","","null","","","null","75","NaN","","","","","","","","","","","","","","",""
"","S2","","html-keyboard-response","503","575878","0.0-1.0-679.0","0","0","26927","","null","","","null","75","","NaN","","","","","","","","","","","","","",""
"","response","","html-keyboard-response","504","576457","0.0-1.0-680.0-0.0","0","0","26927","","575","","","75","75","","","2","75","training","adjacent","GF","7","6","R.jpg","N.jpg","1","0","0","",""
"","feedback","","html-keyboard-response","505","577464","0.0-1.0-681.0-0.0","0","0","26927","","null","","","null","75","","","","","","","","","","","","","","","",""
"","time_out","","html-keyboard-response","506","579470","0.0-1.0-683.0-0.0","0","0","26927","","null","","","null","75","","","","","","","","","","","","","","","",""
"","ITI","","html-keyboard-response","507","580475","0.0-1.0-684.0","0","0","26927","","null","","","null","75","","","","","","","","","","","","","","","NaN",""
"","S1","","html-keyboard-response","508","580742","0.0-1.0-686.0","0","0","26927","","null","","","null","76","","","","","","","","","","","","","","","",""
"","ISI","","html-keyboard-response","509","582754","0.0-1.0-687.0","0","0","26927","","null","","","null","76","NaN","","","","","","","","","","","","","","",""
"","S2","","html-keyboard-response","510","583014","0.0-1.0-688.0","0","0","26927","","null","","","null","76","","NaN","","","","","","","","","","","","","",""
"","response","","html-keyboard-response","511","583400","0.0-1.0-689.0-0.0","0","0","26927","","380","","","75","76","","","2","76","training","adjacent","BC","2","3","P.jpg","Q.jpg","1","1","1","",""
"","feedback","","html-keyboard-response","512","584406","0.0-1.0-690.0-0.0","0","0","26927","","null","","","null","76","","","","","","","","","","","","","","","",""
"","ITI","","html-keyboard-response","513","585411","0.0-1.0-693.0","0","0","26927","","null","","","null","76","","","","","","","","","","","","","","","NaN",""
"","S1","","html-keyboard-response","514","585667","0.0-1.0-695.0","0","0","26927","","null","","","null","77","","","","","","","","","","","","","","","",""
"","ISI","","html-keyboard-response","515","587673","0.0-1.0-696.0","0","0","26927","","null","","","null","77","NaN","","","","","","","","","","","","","","",""
"","S2","","html-keyboard-response","516","587928","0.0-1.0-697.0","0","0","26927","","null","","","null","77","","NaN","","","","","","","","","","","","","",""
"","response","","html-keyboard-response","517","588480","0.0-1.0-698.0-0.0","0","0","26927","","547","","","75","77","","","2","77","training","adjacent","AB","1","2","L.jpg","P.jpg","1","1","1","",""
"","feedback","","html-keyboard-response","518","589486","0.0-1.0-699.0-0.0","0","0","26927","","null","","","null","77","","","","","","","","","","","","","","","",""
"","ITI","","html-keyboard-response","519","590493","0.0-1.0-702.0","0","0","26927","","null","","","null","77","","","","","","","","","","","","","","","NaN",""
"","S1","","html-keyboard-response","520","590749","0.0-1.0-704.0","0","0","26927","","null","","","null","78","","","","","","","","","","","","","","","",""
"","ISI","","html-keyboard-response","521","592754","0.0-1.0-705.0","0","0","26927","","null","","","null","78","NaN","","","","","","","","","","","","","","",""
"","S2","","html-keyboard-response","522","593011","0.0-1.0-706.0","0","0","26927","","null","","","null","78","","NaN","","","","","","","","","","","","","",""
"","response","","html-keyboard-response","523","593478","0.0-1.0-707.0-0.0","0","0","26927","","463","","","68","78","","","2","78","training","adjacent","CB","3","2","Q.jpg","P.jpg","0","0","1","",""
"","feedback","","html-keyboard-response","524","594485","0.0-1.0-708.0-0.0","0","0","26927","","null","","","null","78","","","","","","","","","","","","","","","",""
"","ITI","","html-keyboard-response","525","595491","0.0-1.0-711.0","0","0","26927","","null","","","null","78","","","","","","","","","","","","","","","NaN",""
"","S1","","html-keyboard-response","526","595746","0.0-1.0-713.0","0","0","26927","","null","","","null","79","","","","","","","","","","","","","","","",""
"","ISI","","html-keyboard-response","527","597752","0.0-1.0-714.0","0","0","26927","","null","","","null","79","NaN","","","","","","","","","","","","","","",""
"","S2","","html-keyboard-response","528","598009","0.0-1.0-715.0","0","0","26927","","null","","","null","79","","NaN","","","","","","","","","","","","","",""
"","response","","html-keyboard-response","529","598488","0.0-1.0-716.0-0.0","0","0","26927","","473","","","68","79","","","2","79","training","adjacent","DC","4","3","M.jpg","Q.jpg","0","0","1","",""
"","feedback","","html-keyboard-response","530","599494","0.0-1.0-717.0-0.0","0","0","26927","","null","","","null","79","","","","","","","","","","","","","","","",""
"","ITI","","html-keyboard-response","531","600501","0.0-1.0-720.0","0","0","26927","","null","","","null","79","","","","","","","","","","","","","","","NaN",""
"","S1","","html-keyboard-response","532","600757","0.0-1.0-722.0","0","0","26927","","null","","","null","80","","","","","","","","","","","","","","","",""
"","ISI","","html-keyboard-response","533","602761","0.0-1.0-723.0","0","0","26927","","null","","","null","80","NaN","","","","","","","","","","","","","","",""
"","S2","","html-keyboard-response","534","603018","0.0-1.0-724.0","0","0","26927","","null","","","null","80","","NaN","","","","","","","","","","","","","",""
"","response","","html-keyboard-response","535","603454","0.0-1.0-725.0-0.0","0","0","26927","","432","","","75","80","","","2","80","training","adjacent","DE","4","5","M.jpg","O.jpg","1","1","1","",""
"","feedback","","html-keyboard-response","536","604461","0.0-1.0-726.0-0.0","0","0","26927","","null","","","null","80","","","","","","","","","","","","","","","",""
"","ITI","","html-keyboard-response","537","605468","0.0-1.0-729.0","0","0","26927","","null","","","null","80","","","","","","","","","","","","","","","NaN",""
"","S1","","html-keyboard-response","538","605723","0.0-1.0-731.0","0","0","26927","","null","","","null","81","","","","","","","","","","","","","","","",""
"","ISI","","html-keyboard-response","539","607728","0.0-1.0-732.0","0","0","26927","","null","","","null","81","NaN","","","","","","","","","","","","","","",""
"","S2","","html-keyboard-response","540","607984","0.0-1.0-733.0","0","0","26927","","null","","","null","81","","NaN","","","","","","","","","","","","","",""
"","response","","html-keyboard-response","541","608428","0.0-1.0-734.0-0.0","0","0","26927","","439","","","75","81","","","2","81","training","adjacent","AB","1","2","L.jpg","P.jpg","1","1","1","",""
"","feedback","","html-keyboard-response","542","609436","0.0-1.0-735.0-0.0","0","0","26927","","null","","","null","81","","","","","","","","","","","","","","","",""
"","ITI","","html-keyboard-response","543","610442","0.0-1.0-738.0","0","0","26927","","null","","","null","81","","","","","","","","","","","","","","","NaN",""
"","S1","","html-keyboard-response","544","610697","0.0-1.0-740.0","0","0","26927","","null","","","null","82","","","","","","","","","","","","","","","",""
"","ISI","","html-keyboard-response","545","612702","0.0-1.0-741.0","0","0","26927","","null","","","null","82","NaN","","","","","","","","","","","","","","",""
"","S2","","html-keyboard-response","546","612958","0.0-1.0-742.0","0","0","26927","","null","","","null","82","","NaN","","","","","","","","","","","","","",""
"","response","","html-keyboard-response","547","613129","0.0-1.0-743.0-0.0","0","0","26927","","165","","","68","82","","","2","82","training","adjacent","BA","2","1","P.jpg","L.jpg","0","0","1","",""
"","feedback","","html-keyboard-response","548","614137","0.0-1.0-744.0-0.0","0","0","26927","","null","","","null","82","","","","","","","","","","","","","","","",""
"","ITI","","html-keyboard-response","549","615143","0.0-1.0-747.0","0","0","26927","","null","","","null","82","","","","","","","","","","","","","","","NaN",""
"","S1","","html-keyboard-response","550","615399","0.0-1.0-749.0","0","0","26927","","null","","","null","83","","","","","","","","","","","","","","","",""
"","ISI","","html-keyboard-response","551","617404","0.0-1.0-750.0","0","0","26927","","null","","","null","83","NaN","","","","","","","","","","","","","","",""
"","S2","","html-keyboard-response","552","617660","0.0-1.0-751.0","0","0","26927","","null","","","null","83","","NaN","","","","","","","","","","","","","",""
"","response","","html-keyboard-response","553","618033","0.0-1.0-752.0-0.0","0","0","26927","","368","","","68","83","","","2","83","training","adjacent","EF","5","6","O.jpg","N.jpg","0","1","0","",""
"","feedback","","html-keyboard-response","554","619040","0.0-1.0-753.0-0.0","0","0","26927","","null","","","null","83","","","","","","","","","","","","","","","",""
"","time_out","","html-keyboard-response","555","621046","0.0-1.0-755.0-0.0","0","0","26927","","null","","","null","83","","","","","","","","","","","","","","","",""
"","ITI","","html-keyboard-response","556","622051","0.0-1.0-756.0","0","0","26927","","null","","","null","83","","","","","","","","","","","","","","","NaN",""
"","S1","","html-keyboard-response","557","622306","0.0-1.0-758.0","0","0","26927","","null","","","null","84","","","","","","","","","","","","","","","",""
"","ISI","","html-keyboard-response","558","624311","0.0-1.0-759.0","0","0","26927","","null","","","null","84","NaN","","","","","","","","","","","","","","",""
"","S2","","html-keyboard-response","559","624568","0.0-1.0-760.0","0","0","26927","","null","","","null","84","","NaN","","","","","","","","","","","","","",""
"","response","","html-keyboard-response","560","625246","0.0-1.0-761.0-0.0","0","0","26927","","673","","","75","84","","","2","84","training","adjacent","FE","6","5","N.jpg","O.jpg","1","0","0","",""
"","feedback","","html-keyboard-response","561","626253","0.0-1.0-762.0-0.0","0","0","26927","","null","","","null","84","","","","","","","","","","","","","","","",""
"","time_out","","html-keyboard-response","562","628267","0.0-1.0-764.0-0.0","0","0","26927","","null","","","null","84","","","","","","","","","","","","","","","",""
"","ITI","","html-keyboard-response","563","629275","0.0-1.0-765.0","0","0","26927","","null","","","null","84","","","","","","","","","","","","","","","NaN",""
"","S1","","html-keyboard-response","564","629531","0.0-1.0-767.0","0","0","26927","","null","","","null","85","","","","","","","","","","","","","","","",""
"","ISI","","html-keyboard-response","565","631535","0.0-1.0-768.0","0","0","26927","","null","","","null","85","NaN","","","","","","","","","","","","","","",""
"","S2","","html-keyboard-response","566","631792","0.0-1.0-769.0","0","0","26927","","null","","","null","85","","NaN","","","","","","","","","","","","","",""
"","response","","html-keyboard-response","567","632214","0.0-1.0-770.0-0.0","0","0","26927","","418","","","68","85","","","2","85","training","adjacent","BA","2","1","P.jpg","L.jpg","0","0","1","",""
"","feedback","","html-keyboard-response","568","633223","0.0-1.0-771.0-0.0","0","0","26927","","null","","","null","85","","","","","","","","","","","","","","","",""
"","ITI","","html-keyboard-response","569","634238","0.0-1.0-774.0","0","0","26927","","null","","","null","85","","","","","","","","","","","","","","","NaN",""
"","S1","","html-keyboard-response","570","634494","0.0-1.0-776.0","0","0","26927","","null","","","null","86","","","","","","","","","","","","","","","",""
"","ISI","","html-keyboard-response","571","636498","0.0-1.0-777.0","0","0","26927","","null","","","null","86","NaN","","","","","","","","","","","","","","",""
"","S2","","html-keyboard-response","572","636755","0.0-1.0-778.0","0","0","26927","","null","","","null","86","","NaN","","","","","","","","","","","","","",""
"","response","","html-keyboard-response","573","637300","0.0-1.0-779.0-0.0","0","0","26927","","540","","","75","86","","","2","86","training","adjacent","CB","3","2","Q.jpg","P.jpg","1","0","0","",""
"","feedback","","html-keyboard-response","574","638308","0.0-1.0-780.0-0.0","0","0","26927","","null","","","null","86","","","","","","","","","","","","","","","",""
"","time_out","","html-keyboard-response","575","640314","0.0-1.0-782.0-0.0","0","0","26927","","null","","","null","86","","","","","","","","","","","","","","","",""
"","ITI","","html-keyboard-response","576","641321","0.0-1.0-783.0","0","0","26927","","null","","","null","86","","","","","","","","","","","","","","","NaN",""
"","S1","","html-keyboard-response","577","641577","0.0-1.0-785.0","0","0","26927","","null","","","null","87","","","","","","","","","","","","","","","",""
"","ISI","","html-keyboard-response","578","643585","0.0-1.0-786.0","0","0","26927","","null","","","null","87","NaN","","","","","","","","","","","","","","",""
"","S2","","html-keyboard-response","579","643845","0.0-1.0-787.0","0","0","26927","","null","","","null","87","","NaN","","","","","","","","","","","","","",""
"","response","","html-keyboard-response","580","644279","0.0-1.0-788.0-0.0","0","0","26927","","428","","","68","87","","","2","87","training","adjacent","FG","6","7","N.jpg","R.jpg","0","1","0","",""
