"success","ttype","start_time","trial_type","trial_index","time_elapsed","internal_node_id","warning","missed_checkup","PID","view_history","rt","responses","repeat_instructions","key_press","index","keypress_isi","keypress_S2","block","trial_num","phase","group_type","pair_type","S1_stim","S2_stim","S1_img","S2_img","S1_chosen","S1_higher","accuracy","keypress_iti","total_bonus_tally"
"true","full_screen","d08012022hr1342","fullscreen","0","25335","0.0-0.0","0","0","84928","","","","","","","","","","","","","","","","","","","","","",""
"","instructions","","instructions","1","137811","0.0-1.0-0.0-0.0","0","0","84928","[{""page_index"":0,""viewing_time"":13154},{""page_index"":1,""viewing_time"":58253},{""page_index"":2,""viewing_time"":14826},{""page_index"":1,""viewing_time"":18774},{""page_index"":2,""viewing_time"":3779},{""page_index"":3,""viewing_time"":3687}]","112474","","","","","","","","","","","","","","","","","","","",""
"","comprehension_check","","survey-multi-choice","2","162623","0.0-1.0-0.0-1.0","0","0","84928","","24807","{""Q0"":""True"",""Q1"":""D"",""Q2"":""When you see the prompt 'MAKE A CHOICE' after the second image was presented"",""Q3"":""Green mark"",""Q4"":""either D or K""}","0","","","","","","","","","","","","","","","","","",""
"","start_exp","","html-keyboard-response","3","165742","0.0-1.0-1.0","0","0","84928","","3116","","","32","","","","","","","","","","","","","","","","",""
"","S1","","html-keyboard-response","4","165995","0.0-1.0-2.0","0","0","84928","","null","","","null","0","","","","","","","","","","","","","","","",""
"","ISI","","html-keyboard-response","5","167998","0.0-1.0-3.0","0","0","84928","","null","","","null","0","NaN","","","","","","","","","","","","","","",""
"","S2","","html-keyboard-response","6","168252","0.0-1.0-4.0","0","0","84928","","null","","","null","0","","NaN","","","","","","","","","","","","","",""
"","response","","html-keyboard-response","7","169878","0.0-1.0-5.0","0","0","84928","","1624","","","75","0","","","1","0","training","adjacent","BC","2","3","O.jpg","M.jpg","0","1","0","",""
"","feedback","","html-keyboard-response","8","170881","0.0-1.0-6.0-0.0","0","0","84928","","null","","","null","0","","","","","","","","","","","","","","","",""
"","time_out","","html-keyboard-response","9","172883","0.0-1.0-8.0-0.0","0","0","84928","","null","","","null","0","","","","","","","","","","","","","","","",""
"","ITI","","html-keyboard-response","10","173885","0.0-1.0-9.0","0","0","84928","","null","","","null","0","","","","","","","","","","","","","","","NaN",""
"","S1","","html-keyboard-response","11","174137","0.0-1.0-11.0","0","0","84928","","null","","","null","1","","","","","","","","","","","","","","","",""
"","ISI","","html-keyboard-response","12","176139","0.0-1.0-12.0","0","0","84928","","1249","","","68","1","d","","","","","","","","","","","","","","",""
"","S2","","html-keyboard-response","13","176392","0.0-1.0-13.0","0","0","84928","","null","","","null","1","","NaN","","","","","","","","","","","","","",""
"","response","","html-keyboard-response","14","177168","0.0-1.0-14.0","0","0","84928","","774","","","68","1","","","1","1","training","adjacent","AB","1","2","R.jpg","O.jpg","1","1","1","",""
"","feedback","","html-keyboard-response","15","178171","0.0-1.0-15.0-0.0","0","0","84928","","null","","","null","1","","","","","","","","","","","","","","","",""
"","ITI","","html-keyboard-response","16","179175","0.0-1.0-18.0","0","0","84928","","null","","","null","1","","","","","","","","","","","","","","","NaN",""
"","S1","","html-keyboard-response","17","179427","0.0-1.0-20.0","0","0","84928","","null","","","null","2","","","","","","","","","","","","","","","",""
"","ISI","","html-keyboard-response","18","181430","0.0-1.0-21.0","0","0","84928","","null","","","null","2","NaN","","","","","","","","","","","","","","",""
"","S2","","html-keyboard-response","19","181682","0.0-1.0-22.0","0","0","84928","","null","","","null","2","","NaN","","","","","","","","","","","","","",""
"","response","","html-keyboard-response","20","182834","0.0-1.0-23.0","0","0","84928","","1151","","","75","2","","","1","2","training","adjacent","DC","4","3","L.jpg","M.jpg","0","0","1","",""
"","feedback","","html-keyboard-response","21","183836","0.0-1.0-24.0-0.0","0","0","84928","","null","","","null","2","","","","","","","","","","","","","","","",""
"","ITI","","html-keyboard-response","22","184839","0.0-1.0-27.0","0","0","84928","","null","","","null","2","","","","","","","","","","","","","","","NaN",""
"","S1","","html-keyboard-response","23","185092","0.0-1.0-29.0","0","0","84928","","null","","","null","3","","","","","","","","","","","","","","","",""
"","ISI","","html-keyboard-response","24","187094","0.0-1.0-30.0","0","0","84928","","null","","","null","3","NaN","","","","","","","","","","","","","","",""
"","S2","","html-keyboard-response","25","187347","0.0-1.0-31.0","0","0","84928","","null","","","null","3","","NaN","","","","","","","","","","","","","",""
"","response","","html-keyboard-response","26","188337","0.0-1.0-32.0","0","0","84928","","989","","","68","3","","","1","3","training","adjacent","AB","1","2","R.jpg","O.jpg","1","1","1","",""
"","feedback","","html-keyboard-response","27","189340","0.0-1.0-33.0-0.0","0","0","84928","","null","","","null","3","","","","","","","","","","","","","","","",""
"","ITI","","html-keyboard-response","28","190342","0.0-1.0-36.0","0","0","84928","","null","","","null","3","","","","","","","","","","","","","","","NaN",""
"","S1","","html-keyboard-response","29","190595","0.0-1.0-38.0","0","0","84928","","null","","","null","4","","","","","","","","","","","","","","","",""
"","ISI","","html-keyboard-response","30","192597","0.0-1.0-39.0","0","0","84928","","null","","","null","4","NaN","","","","","","","","","","","","","","",""
"","S2","","html-keyboard-response","31","192851","0.0-1.0-40.0","0","0","84928","","null","","","null","4","","NaN","","","","","","","","","","","","","",""
"","response","","html-keyboard-response","32","194188","0.0-1.0-41.0","0","0","84928","","1336","","","75","4","","","1","4","training","adjacent","DE","4","5","L.jpg","P.jpg","0","1","0","",""
"","feedback","","html-keyboard-response","33","195190","0.0-1.0-42.0-0.0","0","0","84928","","null","","","null","4","","","","","","","","","","","","","","","",""
"","time_out","","html-keyboard-response","34","197193","0.0-1.0-44.0-0.0","0","0","84928","","null","","","null","4","","","","","","","","","","","","","","","",""
"","ITI","","html-keyboard-response","35","198196","0.0-1.0-45.0","0","0","84928","","null","","","null","4","","","","","","","","","","","","","","","NaN",""
"","S1","","html-keyboard-response","36","198448","0.0-1.0-47.0","0","0","84928","","null","","","null","5","","","","","","","","","","","","","","","",""
"","ISI","","html-keyboard-response","37","200450","0.0-1.0-48.0","0","0","84928","","null","","","null","5","NaN","","","","","","","","","","","","","","",""
"","S2","","html-keyboard-response","38","200703","0.0-1.0-49.0","0","0","84928","","null","","","null","5","","NaN","","","","","","","","","","","","","",""
"","response","","html-keyboard-response","39","201428","0.0-1.0-50.0","0","0","84928","","724","","","68","5","","","1","5","training","adjacent","EF","5","6","P.jpg","Q.jpg","1","1","1","",""
"","feedback","","html-keyboard-response","40","202431","0.0-1.0-51.0-0.0","0","0","84928","","null","","","null","5","","","","","","","","","","","","","","","",""
"","ITI","","html-keyboard-response","41","203433","0.0-1.0-54.0","0","0","84928","","null","","","null","5","","","","","","","","","","","","","","","NaN",""
"","S1","","html-keyboard-response","42","203686","0.0-1.0-56.0","0","0","84928","","null","","","null","6","","","","","","","","","","","","","","","",""
"","ISI","","html-keyboard-response","43","205688","0.0-1.0-57.0","0","0","84928","","null","","","null","6","NaN","","","","","","","","","","","","","","",""
"","S2","","html-keyboard-response","44","205942","0.0-1.0-58.0","0","0","84928","","null","","","null","6","","NaN","","","","","","","","","","","","","",""
"","response","","html-keyboard-response","45","206671","0.0-1.0-59.0","0","0","84928","","728","","","68","6","","","1","6","training","adjacent","BA","2","1","O.jpg","R.jpg","1","0","0","",""
"","feedback","","html-keyboard-response","46","207674","0.0-1.0-60.0-0.0","0","0","84928","","null","","","null","6","","","","","","","","","","","","","","","",""
"","time_out","","html-keyboard-response","47","209690","0.0-1.0-62.0-0.0","0","0","84928","","null","","","null","6","","","","","","","","","","","","","","","",""
"","ITI","","html-keyboard-response","48","210694","0.0-1.0-63.0","0","0","84928","","null","","","null","6","","","","","","","","","","","","","","","NaN",""
"","S1","","html-keyboard-response","49","210946","0.0-1.0-65.0","0","0","84928","","null","","","null","7","","","","","","","","","","","","","","","",""
"","ISI","","html-keyboard-response","50","212948","0.0-1.0-66.0","0","0","84928","","null","","","null","7","NaN","","","","","","","","","","","","","","",""
"","S2","","html-keyboard-response","51","213200","0.0-1.0-67.0","0","0","84928","","null","","","null","7","","NaN","","","","","","","","","","","","","",""
"","response","","html-keyboard-response","52","214594","0.0-1.0-68.0","0","0","84928","","1392","","","75","7","","","1","7","training","adjacent","ED","5","4","P.jpg","L.jpg","0","0","1","",""
"","feedback","","html-keyboard-response","53","215597","0.0-1.0-69.0-0.0","0","0","84928","","null","","","null","7","","","","","","","","","","","","","","","",""
"","ITI","","html-keyboard-response","54","216600","0.0-1.0-72.0","0","0","84928","","null","","","null","7","","","","","","","","","","","","","","","NaN",""
"","S1","","html-keyboard-response","55","216852","0.0-1.0-74.0","0","0","84928","","null","","","null","8","","","","","","","","","","","","","","","",""
"","ISI","","html-keyboard-response","56","218855","0.0-1.0-75.0","0","0","84928","","null","","","null","8","NaN","","","","","","","","","","","","","","",""
"","S2","","html-keyboard-response","57","219107","0.0-1.0-76.0","0","0","84928","","null","","","null","8","","NaN","","","","","","","","","","","","","",""
"","response","","html-keyboard-response","58","219920","0.0-1.0-77.0","0","0","84928","","811","","","68","8","","","1","8","training","adjacent","FG","6","7","Q.jpg","N.jpg","1","1","1","",""
"","feedback","","html-keyboard-response","59","220922","0.0-1.0-78.0-0.0","0","0","84928","","null","","","null","8","","","","","","","","","","","","","","","",""
"","ITI","","html-keyboard-response","60","221926","0.0-1.0-81.0","0","0","84928","","null","","","null","8","","","","","","","","","","","","","","","NaN",""
"","S1","","html-keyboard-response","61","222178","0.0-1.0-83.0","0","0","84928","","null","","","null","9","","","","","","","","","","","","","","","",""
"","ISI","","html-keyboard-response","62","224180","0.0-1.0-84.0","0","0","84928","","null","","","null","9","NaN","","","","","","","","","","","","","","",""
"","S2","","html-keyboard-response","63","224433","0.0-1.0-85.0","0","0","84928","","null","","","null","9","","NaN","","","","","","","","","","","","","",""
"","response","","html-keyboard-response","64","225241","0.0-1.0-86.0","0","0","84928","","807","","","75","9","","","1","9","training","adjacent","GF","7","6","N.jpg","Q.jpg","0","0","1","",""
"","feedback","","html-keyboard-response","65","226243","0.0-1.0-87.0-0.0","0","0","84928","","null","","","null","9","","","","","","","","","","","","","","","",""
"","ITI","","html-keyboard-response","66","227245","0.0-1.0-90.0","0","0","84928","","null","","","null","9","","","","","","","","","","","","","","","NaN",""
"","S1","","html-keyboard-response","67","227498","0.0-1.0-92.0","0","0","84928","","null","","","null","10","","","","","","","","","","","","","","","",""
"","ISI","","html-keyboard-response","68","229500","0.0-1.0-93.0","0","0","84928","","null","","","null","10","NaN","","","","","","","","","","","","","","",""
"","S2","","html-keyboard-response","69","229752","0.0-1.0-94.0","0","0","84928","","null","","","null","10","","NaN","","","","","","","","","","","","","",""
"","response","","html-keyboard-response","70","230510","0.0-1.0-95.0","0","0","84928","","757","","","68","10","","","1","10","training","adjacent","DE","4","5","L.jpg","P.jpg","1","1","1","",""
"","feedback","","html-keyboard-response","71","231513","0.0-1.0-96.0-0.0","0","0","84928","","null","","","null","10","","","","","","","","","","","","","","","",""
"","ITI","","html-keyboard-response","72","232516","0.0-1.0-99.0","0","0","84928","","null","","","null","10","","","","","","","","","","","","","","","NaN",""
"","S1","","html-keyboard-response","73","232769","0.0-1.0-101.0","0","0","84928","","null","","","null","11","","","","","","","","","","","","","","","",""
"","ISI","","html-keyboard-response","74","234771","0.0-1.0-102.0","0","0","84928","","null","","","null","11","NaN","","","","","","","","","","","","","","",""
"","S2","","html-keyboard-response","75","235024","0.0-1.0-103.0","0","0","84928","","null","","","null","11","","NaN","","","","","","","","","","","","","",""
"","response","","html-keyboard-response","76","236021","0.0-1.0-104.0","0","0","84928","","994","","","68","11","","","1","11","training","adjacent","CB","3","2","M.jpg","O.jpg","1","0","0","",""
"","feedback","","html-keyboard-response","77","237023","0.0-1.0-105.0-0.0","0","0","84928","","null","","","null","11","","","","","","","","","","","","","","","",""
"","time_out","","html-keyboard-response","78","239025","0.0-1.0-107.0-0.0","0","0","84928","","null","","","null","11","","","","","","","","","","","","","","","",""
"","ITI","","html-keyboard-response","79","240027","0.0-1.0-108.0","0","0","84928","","null","","","null","11","","","","","","","","","","","","","","","NaN",""
"","S1","","html-keyboard-response","80","240281","0.0-1.0-110.0","0","0","84928","","null","","","null","12","","","","","","","","","","","","","","","",""
"","ISI","","html-keyboard-response","81","242283","0.0-1.0-111.0","0","0","84928","","null","","","null","12","NaN","","","","","","","","","","","","","","",""
"","S2","","html-keyboard-response","82","242537","0.0-1.0-112.0","0","0","84928","","null","","","null","12","","NaN","","","","","","","","","","","","","",""
"","response","","html-keyboard-response","83","243279","0.0-1.0-113.0","0","0","84928","","740","","","68","12","","","1","12","training","adjacent","ED","5","4","P.jpg","L.jpg","1","0","0","",""
"","feedback","","html-keyboard-response","84","244281","0.0-1.0-114.0-0.0","0","0","84928","","null","","","null","12","","","","","","","","","","","","","","","",""
"","time_out","","html-keyboard-response","85","246284","0.0-1.0-116.0-0.0","0","0","84928","","null","","","null","12","","","","","","","","","","","","","","","",""
"","ITI","","html-keyboard-response","86","247287","0.0-1.0-117.0","0","0","84928","","null","","","null","12","","","","","","","","","","","","","","","NaN",""
"","S1","","html-keyboard-response","87","247540","0.0-1.0-119.0","0","0","84928","","null","","","null","13","","","","","","","","","","","","","","","",""
"","ISI","","html-keyboard-response","88","249543","0.0-1.0-120.0","0","0","84928","","null","","","null","13","NaN","","","","","","","","","","","","","","",""
"","S2","","html-keyboard-response","89","249796","0.0-1.0-121.0","0","0","84928","","null","","","null","13","","NaN","","","","","","","","","","","","","",""
"","response","","html-keyboard-response","90","250246","0.0-1.0-122.0","0","0","84928","","449","","","75","13","","","1","13","training","adjacent","DE","4","5","L.jpg","P.jpg","0","1","0","",""
"","feedback","","html-keyboard-response","91","251249","0.0-1.0-123.0-0.0","0","0","84928","","null","","","null","13","","","","","","","","","","","","","","","",""
"","time_out","","html-keyboard-response","92","253251","0.0-1.0-125.0-0.0","0","0","84928","","null","","","null","13","","","","","","","","","","","","","","","",""
"","ITI","","html-keyboard-response","93","254253","0.0-1.0-126.0","0","0","84928","","null","","","null","13","","","","","","","","","","","","","","","NaN",""
"","S1","","html-keyboard-response","94","254506","0.0-1.0-128.0","0","0","84928","","null","","","null","14","","","","","","","","","","","","","","","",""
"","ISI","","html-keyboard-response","95","256508","0.0-1.0-129.0","0","0","84928","","null","","","null","14","NaN","","","","","","","","","","","","","","",""
"","S2","","html-keyboard-response","96","256761","0.0-1.0-130.0","0","0","84928","","null","","","null","14","","NaN","","","","","","","","","","","","","",""
"","response","","html-keyboard-response","97","257961","0.0-1.0-131.0","0","0","84928","","1198","","","68","14","","","1","14","training","adjacent","GF","7","6","N.jpg","Q.jpg","1","0","0","",""
"","feedback","","html-keyboard-response","98","258963","0.0-1.0-132.0-0.0","0","0","84928","","null","","","null","14","","","","","","","","","","","","","","","",""
"","time_out","","html-keyboard-response","99","260968","0.0-1.0-134.0-0.0","0","0","84928","","null","","","null","14","","","","","","","","","","","","","","","",""
"","ITI","","html-keyboard-response","100","261970","0.0-1.0-135.0","0","0","84928","","null","","","null","14","","","","","","","","","","","","","","","NaN",""
"","S1","","html-keyboard-response","101","262222","0.0-1.0-137.0","0","0","84928","","null","","","null","15","","","","","","","","","","","","","","","",""
"","ISI","","html-keyboard-response","102","264224","0.0-1.0-138.0","0","0","84928","","null","","","null","15","NaN","","","","","","","","","","","","","","",""
"","S2","","html-keyboard-response","103","264477","0.0-1.0-139.0","0","0","84928","","null","","","null","15","","NaN","","","","","","","","","","","","","",""
"","response","","html-keyboard-response","104","265385","0.0-1.0-140.0","0","0","84928","","907","","","68","15","","","1","15","training","adjacent","GF","7","6","N.jpg","Q.jpg","1","0","0","",""
"","feedback","","html-keyboard-response","105","266388","0.0-1.0-141.0-0.0","0","0","84928","","null","","","null","15","","","","","","","","","","","","","","","",""
"","time_out","","html-keyboard-response","106","268390","0.0-1.0-143.0-0.0","0","0","84928","","null","","","null","15","","","","","","","","","","","","","","","",""
"","ITI","","html-keyboard-response","107","269392","0.0-1.0-144.0","0","0","84928","","null","","","null","15","","","","","","","","","","","","","","","NaN",""
"","S1","","html-keyboard-response","108","269646","0.0-1.0-146.0","0","0","84928","","null","","","null","16","","","","","","","","","","","","","","","",""
"","ISI","","html-keyboard-response","109","271648","0.0-1.0-147.0","0","0","84928","","null","","","null","16","NaN","","","","","","","","","","","","","","",""
"","S2","","html-keyboard-response","110","271901","0.0-1.0-148.0","0","0","84928","","null","","","null","16","","NaN","","","","","","","","","","","","","",""
"","response","","html-keyboard-response","111","272210","0.0-1.0-149.0","0","0","84928","","308","","","68","16","","","1","16","training","adjacent","EF","5","6","P.jpg","Q.jpg","1","1","1","",""
"","feedback","","html-keyboard-response","112","273213","0.0-1.0-150.0-0.0","0","0","84928","","null","","","null","16","","","","","","","","","","","","","","","",""
"","ITI","","html-keyboard-response","113","274216","0.0-1.0-153.0","0","0","84928","","null","","","null","16","","","","","","","","","","","","","","","NaN",""
"","S1","","html-keyboard-response","114","274468","0.0-1.0-155.0","0","0","84928","","null","","","null","17","","","","","","","","","","","","","","","",""
"","ISI","","html-keyboard-response","115","276471","0.0-1.0-156.0","0","0","84928","","null","","","null","17","NaN","","","","","","","","","","","","","","",""
"","S2","","html-keyboard-response","116","276724","0.0-1.0-157.0","0","0","84928","","null","","","null","17","","NaN","","","","","","","","","","","","","",""
"","response","","html-keyboard-response","117","277872","0.0-1.0-158.0","0","0","84928","","1147","","","75","17","","","1","17","training","adjacent","BA","2","1","O.jpg","R.jpg","0","0","1","",""
"","feedback","","html-keyboard-response","118","278876","0.0-1.0-159.0-0.0","0","0","84928","","null","","","null","17","","","","","","","","","","","","","","","",""
"","ITI","","html-keyboard-response","119","279878","0.0-1.0-162.0","0","0","84928","","null","","","null","17","","","","","","","","","","","","","","","NaN",""
"","S1","","html-keyboard-response","120","280131","0.0-1.0-164.0","0","0","84928","","null","","","null","18","","","","","","","","","","","","","","","",""
"","ISI","","html-keyboard-response","121","282133","0.0-1.0-165.0","0","0","84928","","null","","","null","18","NaN","","","","","","","","","","","","","","",""
"","S2","","html-keyboard-response","122","282385","0.0-1.0-166.0","0","0","84928","","null","","","null","18","","NaN","","","","","","","","","","","","","",""
"","response","","html-keyboard-response","123","283534","0.0-1.0-167.0","0","0","84928","","1147","","","75","18","","","1","18","training","adjacent","DE","4","5","L.jpg","P.jpg","0","1","0","",""
"","feedback","","html-keyboard-response","124","284537","0.0-1.0-168.0-0.0","0","0","84928","","null","","","null","18","","","","","","","","","","","","","","","",""
"","time_out","","html-keyboard-response","125","286539","0.0-1.0-170.0-0.0","0","0","84928","","null","","","null","18","","","","","","","","","","","","","","","",""
"","ITI","","html-keyboard-response","126","287542","0.0-1.0-171.0","0","0","84928","","null","","","null","18","","","","","","","","","","","","","","","NaN",""
"","S1","","html-keyboard-response","127","287795","0.0-1.0-173.0","0","0","84928","","null","","","null","19","","","","","","","","","","","","","","","",""
"","ISI","","html-keyboard-response","128","289798","0.0-1.0-174.0","0","0","84928","","null","","","null","19","NaN","","","","","","","","","","","","","","",""
"","S2","","html-keyboard-response","129","290051","0.0-1.0-175.0","0","0","84928","","null","","","null","19","","NaN","","","","","","","","","","","","","",""
"","response","","html-keyboard-response","130","290593","0.0-1.0-176.0","0","0","84928","","540","","","68","19","","","1","19","training","adjacent","BC","2","3","O.jpg","M.jpg","1","1","1","",""
"","feedback","","html-keyboard-response","131","291596","0.0-1.0-177.0-0.0","0","0","84928","","null","","","null","19","","","","","","","","","","","","","","","",""
"","ITI","","html-keyboard-response","132","292599","0.0-1.0-180.0","0","0","84928","","null","","","null","19","","","","","","","","","","","","","","","NaN",""
"","S1","","html-keyboard-response","133","292852","0.0-1.0-182.0","0","0","84928","","null","","","null","20","","","","","","","","","","","","","","","",""
"","ISI","","html-keyboard-response","134","294854","0.0-1.0-183.0","0","0","84928","","null","","","null","20","NaN","","","","","","","","","","","","","","",""
"","S2","","html-keyboard-response","135","295107","0.0-1.0-184.0","0","0","84928","","null","","","null","20","","NaN","","","","","","","","","","","","","",""
"","response","","html-keyboard-response","136","295774","0.0-1.0-185.0","0","0","84928","","666","","","75","20","","","1","20","training","adjacent","FE","6","5","Q.jpg","P.jpg","0","0","1","",""
"","feedback","","html-keyboard-response","137","296784","0.0-1.0-186.0-0.0","0","0","84928","","null","","","null","20","","","","","","","","","","","","","","","",""
"","ITI","","html-keyboard-response","138","297786","0.0-1.0-189.0","0","0","84928","","null","","","null","20","","","","","","","","","","","","","","","NaN",""
"","S1","","html-keyboard-response","139","298038","0.0-1.0-191.0","0","0","84928","","null","","","null","21","","","","","","","","","","","","","","","",""
"","ISI","","html-keyboard-response","140","300040","0.0-1.0-192.0","0","0","84928","","null","","","null","21","NaN","","","","","","","","","","","","","","",""
"","S2","","html-keyboard-response","141","300293","0.0-1.0-193.0","0","0","84928","","null","","","null","21","","NaN","","","","","","","","","","","","","",""
"","response","","html-keyboard-response","142","300689","0.0-1.0-194.0","0","0","84928","","394","","","68","21","","","1","21","training","adjacent","ED","5","4","P.jpg","L.jpg","1","0","0","",""
"","feedback","","html-keyboard-response","143","301692","0.0-1.0-195.0-0.0","0","0","84928","","null","","","null","21","","","","","","","","","","","","","","","",""
"","time_out","","html-keyboard-response","144","303693","0.0-1.0-197.0-0.0","0","0","84928","","null","","","null","21","","","","","","","","","","","","","","","",""
"","ITI","","html-keyboard-response","145","304697","0.0-1.0-198.0","0","0","84928","","null","","","null","21","","","","","","","","","","","","","","","NaN",""
"","S1","","html-keyboard-response","146","304964","0.0-1.0-200.0","0","0","84928","","null","","","null","22","","","","","","","","","","","","","","","",""
"","ISI","","html-keyboard-response","147","306966","0.0-1.0-201.0","0","0","84928","","null","","","null","22","NaN","","","","","","","","","","","","","","",""
"","S2","","html-keyboard-response","148","307218","0.0-1.0-202.0","0","0","84928","","null","","","null","22","","NaN","","","","","","","","","","","","","",""
"","response","","html-keyboard-response","149","307823","0.0-1.0-203.0","0","0","84928","","604","","","68","22","","","1","22","training","adjacent","DC","4","3","L.jpg","M.jpg","1","0","0","",""
"","feedback","","html-keyboard-response","150","308826","0.0-1.0-204.0-0.0","0","0","84928","","null","","","null","22","","","","","","","","","","","","","","","",""
"","time_out","","html-keyboard-response","151","310830","0.0-1.0-206.0-0.0","0","0","84928","","null","","","null","22","","","","","","","","","","","","","","","",""
"","ITI","","html-keyboard-response","152","311832","0.0-1.0-207.0","0","0","84928","","null","","","null","22","","","","","","","","","","","","","","","NaN",""
"","S1","","html-keyboard-response","153","312084","0.0-1.0-209.0","0","0","84928","","null","","","null","23","","","","","","","","","","","","","","","",""
"","ISI","","html-keyboard-response","154","314088","0.0-1.0-210.0","0","0","84928","","null","","","null","23","NaN","","","","","","","","","","","","","","",""
"","S2","","html-keyboard-response","155","314340","0.0-1.0-211.0","0","0","84928","","null","","","null","23","","NaN","","","","","","","","","","","","","",""
"","response","","html-keyboard-response","156","315062","0.0-1.0-212.0","0","0","84928","","720","","","68","23","","","1","23","training","adjacent","CD","3","4","M.jpg","L.jpg","1","1","1","",""
"","feedback","","html-keyboard-response","157","316065","0.0-1.0-213.0-0.0","0","0","84928","","null","","","null","23","","","","","","","","","","","","","","","",""
"","ITI","","html-keyboard-response","158","317067","0.0-1.0-216.0","0","0","84928","","null","","","null","23","","","","","","","","","","","","","","","NaN",""
"","S1","","html-keyboard-response","159","317319","0.0-1.0-218.0","0","0","84928","","null","","","null","24","","","","","","","","","","","","","","","",""
"","ISI","","html-keyboard-response","160","319322","0.0-1.0-219.0","0","0","84928","","null","","","null","24","NaN","","","","","","","","","","","","","","",""
"","S2","","html-keyboard-response","161","319574","0.0-1.0-220.0","0","0","84928","","null","","","null","24","","NaN","","","","","","","","","","","","","",""
"","response","","html-keyboard-response","162","320359","0.0-1.0-221.0","0","0","84928","","783","","","75","24","","","1","24","training","adjacent","DC","4","3","L.jpg","M.jpg","0","0","1","",""
"","feedback","","html-keyboard-response","163","321362","0.0-1.0-222.0-0.0","0","0","84928","","null","","","null","24","","","","","","","","","","","","","","","",""
"","ITI","","html-keyboard-response","164","322365","0.0-1.0-225.0","0","0","84928","","null","","","null","24","","","","","","","","","","","","","","","NaN",""
"","S1","","html-keyboard-response","165","322618","0.0-1.0-227.0","0","0","84928","","null","","","null","25","","","","","","","","","","","","","","","",""
"","ISI","","html-keyboard-response","166","324621","0.0-1.0-228.0","0","0","84928","","null","","","null","25","NaN","","","","","","","","","","","","","","",""
"","S2","","html-keyboard-response","167","324874","0.0-1.0-229.0","0","0","84928","","null","","","null","25","","NaN","","","","","","","","","","","","","",""
"","response","","html-keyboard-response","168","325746","0.0-1.0-230.0","0","0","84928","","870","","","68","25","","","1","25","training","adjacent","FE","6","5","Q.jpg","P.jpg","1","0","0","",""
"","feedback","","html-keyboard-response","169","326748","0.0-1.0-231.0-0.0","0","0","84928","","null","","","null","25","","","","","","","","","","","","","","","",""
"","time_out","","html-keyboard-response","170","328751","0.0-1.0-233.0-0.0","0","0","84928","","null","","","null","25","","","","","","","","","","","","","","","",""
"","ITI","","html-keyboard-response","171","329753","0.0-1.0-234.0","0","0","84928","","null","","","null","25","","","","","","","","","","","","","","","NaN",""
"","S1","","html-keyboard-response","172","330005","0.0-1.0-236.0","0","0","84928","","null","","","null","26","","","","","","","","","","","","","","","",""
"","ISI","","html-keyboard-response","173","332008","0.0-1.0-237.0","0","0","84928","","null","","","null","26","NaN","","","","","","","","","","","","","","",""
"","S2","","html-keyboard-response","174","332260","0.0-1.0-238.0","0","0","84928","","null","","","null","26","","NaN","","","","","","","","","","","","","",""
"","response","","html-keyboard-response","175","332831","0.0-1.0-239.0","0","0","84928","","569","","","68","26","","","1","26","training","adjacent","CD","3","4","M.jpg","L.jpg","1","1","1","",""
"","feedback","","html-keyboard-response","176","333833","0.0-1.0-240.0-0.0","0","0","84928","","null","","","null","26","","","","","","","","","","","","","","","",""
"","ITI","","html-keyboard-response","177","334835","0.0-1.0-243.0","0","0","84928","","null","","","null","26","","","","","","","","","","","","","","","NaN",""
"","S1","","html-keyboard-response","178","335089","0.0-1.0-245.0","0","0","84928","","null","","","null","27","","","","","","","","","","","","","","","",""
"","ISI","","html-keyboard-response","179","337092","0.0-1.0-246.0","0","0","84928","","null","","","null","27","NaN","","","","","","","","","","","","","","",""
"","S2","","html-keyboard-response","180","337345","0.0-1.0-247.0","0","0","84928","","null","","","null","27","","NaN","","","","","","","","","","","","","",""
"","response","","html-keyboard-response","181","337815","0.0-1.0-248.0","0","0","84928","","469","","","68","27","","","1","27","training","adjacent","ED","5","4","P.jpg","L.jpg","1","0","0","",""
"","feedback","","html-keyboard-response","182","338818","0.0-1.0-249.0-0.0","0","0","84928","","null","","","null","27","","","","","","","","","","","","","","","",""
"","time_out","","html-keyboard-response","183","340820","0.0-1.0-251.0-0.0","0","0","84928","","null","","","null","27","","","","","","","","","","","","","","","",""
"","ITI","","html-keyboard-response","184","341824","0.0-1.0-252.0","0","0","84928","","null","","","null","27","","","","","","","","","","","","","","","NaN",""
"","S1","","html-keyboard-response","185","342077","0.0-1.0-254.0","0","0","84928","","null","","","null","28","","","","","","","","","","","","","","","",""
"","ISI","","html-keyboard-response","186","344079","0.0-1.0-255.0","0","0","84928","","null","","","null","28","NaN","","","","","","","","","","","","","","",""
"","S2","","html-keyboard-response","187","344333","0.0-1.0-256.0","0","0","84928","","null","","","null","28","","NaN","","","","","","","","","","","","","",""
"","response","","html-keyboard-response","188","344956","0.0-1.0-257.0","0","0","84928","","621","","","68","28","","","1","28","training","adjacent","DC","4","3","L.jpg","M.jpg","1","0","0","",""
"","feedback","","html-keyboard-response","189","345958","0.0-1.0-258.0-0.0","0","0","84928","","null","","","null","28","","","","","","","","","","","","","","","",""
"","time_out","","html-keyboard-response","190","347961","0.0-1.0-260.0-0.0","0","0","84928","","null","","","null","28","","","","","","","","","","","","","","","",""
"","ITI","","html-keyboard-response","191","348963","0.0-1.0-261.0","0","0","84928","","null","","","null","28","","","","","","","","","","","","","","","NaN",""
"","S1","","html-keyboard-response","192","349216","0.0-1.0-263.0","0","0","84928","","null","","","null","29","","","","","","","","","","","","","","","",""
"","ISI","","html-keyboard-response","193","351219","0.0-1.0-264.0","0","0","84928","","null","","","null","29","NaN","","","","","","","","","","","","","","",""
"","S2","","html-keyboard-response","194","351471","0.0-1.0-265.0","0","0","84928","","null","","","null","29","","NaN","","","","","","","","","","","","","",""
"","response","","html-keyboard-response","195","351731","0.0-1.0-266.0","0","0","84928","","259","","","68","29","","","1","29","training","adjacent","CB","3","2","M.jpg","O.jpg","1","0","0","",""
"","feedback","","html-keyboard-response","196","352734","0.0-1.0-267.0-0.0","0","0","84928","","null","","","null","29","","","","","","","","","","","","","","","",""
"","time_out","","html-keyboard-response","197","354736","0.0-1.0-269.0-0.0","0","0","84928","","null","","","null","29","","","","","","","","","","","","","","","",""
"","ITI","","html-keyboard-response","198","355738","0.0-1.0-270.0","0","0","84928","","null","","","null","29","","","","","","","","","","","","","","","NaN",""
"","S1","","html-keyboard-response","199","355992","0.0-1.0-272.0","0","0","84928","","null","","","null","30","","","","","","","","","","","","","","","",""
"","ISI","","html-keyboard-response","200","357995","0.0-1.0-273.0","0","0","84928","","null","","","null","30","NaN","","","","","","","","","","","","","","",""
"","S2","","html-keyboard-response","201","358247","0.0-1.0-274.0","0","0","84928","","null","","","null","30","","NaN","","","","","","","","","","","","","",""
"","response","","html-keyboard-response","202","358744","0.0-1.0-275.0","0","0","84928","","496","","","75","30","","","1","30","training","adjacent","CB","3","2","M.jpg","O.jpg","0","0","1","",""
"","feedback","","html-keyboard-response","203","359746","0.0-1.0-276.0-0.0","0","0","84928","","null","","","null","30","","","","","","","","","","","","","","","",""
"","ITI","","html-keyboard-response","204","360748","0.0-1.0-279.0","0","0","84928","","null","","","null","30","","","","","","","","","","","","","","","NaN",""
"","S1","","html-keyboard-response","205","361002","0.0-1.0-281.0","0","0","84928","","null","","","null","31","","","","","","","","","","","","","","","",""
"","ISI","","html-keyboard-response","206","363005","0.0-1.0-282.0","0","0","84928","","null","","","null","31","NaN","","","","","","","","","","","","","","",""
"","S2","","html-keyboard-response","207","363258","0.0-1.0-283.0","0","0","84928","","null","","","null","31","","NaN","","","","","","","","","","","","","",""
"","response","","html-keyboard-response","208","364255","0.0-1.0-284.0","0","0","84928","","996","","","68","31","","","1","31","training","adjacent","FG","6","7","Q.jpg","N.jpg","1","1","1","",""
"","feedback","","html-keyboard-response","209","365258","0.0-1.0-285.0-0.0","0","0","84928","","null","","","null","31","","","","","","","","","","","","","","","",""
"","ITI","","html-keyboard-response","210","366259","0.0-1.0-288.0","0","0","84928","","null","","","null","31","","","","","","","","","","","","","","","NaN",""
"","S1","","html-keyboard-response","211","366512","0.0-1.0-290.0","0","0","84928","","null","","","null","32","","","","","","","","","","","","","","","",""
"","ISI","","html-keyboard-response","212","368514","0.0-1.0-291.0","0","0","84928","","null","","","null","32","NaN","","","","","","","","","","","","","","",""
"","S2","","html-keyboard-response","213","368768","0.0-1.0-292.0","0","0","84928","","null","","","null","32","","NaN","","","","","","","","","","","","","",""
"","response","","html-keyboard-response","214","369382","0.0-1.0-293.0","0","0","84928","","612","","","68","32","","","1","32","training","adjacent","BC","2","3","O.jpg","M.jpg","1","1","1","",""
"","feedback","","html-keyboard-response","215","370384","0.0-1.0-294.0-0.0","0","0","84928","","null","","","null","32","","","","","","","","","","","","","","","",""
"","ITI","","html-keyboard-response","216","371387","0.0-1.0-297.0","0","0","84928","","null","","","null","32","","","","","","","","","","","","","","","NaN",""
"","S1","","html-keyboard-response","217","371639","0.0-1.0-299.0","0","0","84928","","null","","","null","33","","","","","","","","","","","","","","","",""
"","ISI","","html-keyboard-response","218","373641","0.0-1.0-300.0","0","0","84928","","null","","","null","33","NaN","","","","","","","","","","","","","","",""
"","S2","","html-keyboard-response","219","373893","0.0-1.0-301.0","0","0","84928","","null","","","null","33","","NaN","","","","","","","","","","","","","",""
"","response","","html-keyboard-response","220","374752","0.0-1.0-302.0","0","0","84928","","857","","","75","33","","","1","33","training","adjacent","CB","3","2","M.jpg","O.jpg","0","0","1","",""
"","feedback","","html-keyboard-response","221","375756","0.0-1.0-303.0-0.0","0","0","84928","","null","","","null","33","","","","","","","","","","","","","","","",""
"","ITI","","html-keyboard-response","222","376758","0.0-1.0-306.0","0","0","84928","","null","","","null","33","","","","","","","","","","","","","","","NaN",""
"","S1","","html-keyboard-response","223","377011","0.0-1.0-308.0","0","0","84928","","null","","","null","34","","","","","","","","","","","","","","","",""
"","ISI","","html-keyboard-response","224","379013","0.0-1.0-309.0","0","0","84928","","null","","","null","34","NaN","","","","","","","","","","","","","","",""
"","S2","","html-keyboard-response","225","379266","0.0-1.0-310.0","0","0","84928","","null","","","null","34","","NaN","","","","","","","","","","","","","",""
"","response","","html-keyboard-response","226","379903","0.0-1.0-311.0","0","0","84928","","634","","","68","34","","","1","34","training","adjacent","BA","2","1","O.jpg","R.jpg","1","0","0","",""
"","feedback","","html-keyboard-response","227","380905","0.0-1.0-312.0-0.0","0","0","84928","","null","","","null","34","","","","","","","","","","","","","","","",""
"","time_out","","html-keyboard-response","228","382908","0.0-1.0-314.0-0.0","0","0","84928","","null","","","null","34","","","","","","","","","","","","","","","",""
"","ITI","","html-keyboard-response","229","383911","0.0-1.0-315.0","0","0","84928","","null","","","null","34","","","","","","","","","","","","","","","NaN",""
"","S1","","html-keyboard-response","230","384164","0.0-1.0-317.0","0","0","84928","","null","","","null","35","","","","","","","","","","","","","","","",""
"","ISI","","html-keyboard-response","231","386167","0.0-1.0-318.0","0","0","84928","","null","","","null","35","NaN","","","","","","","","","","","","","","",""
"","S2","","html-keyboard-response","232","386420","0.0-1.0-319.0","0","0","84928","","null","","","null","35","","NaN","","","","","","","","","","","","","",""
"","response","","html-keyboard-response","233","387095","0.0-1.0-320.0","0","0","84928","","674","","","68","35","","","1","35","training","adjacent","GF","7","6","N.jpg","Q.jpg","1","0","0","",""
"","feedback","","html-keyboard-response","234","388098","0.0-1.0-321.0-0.0","0","0","84928","","null","","","null","35","","","","","","","","","","","","","","","",""
"","time_out","","html-keyboard-response","235","390101","0.0-1.0-323.0-0.0","0","0","84928","","null","","","null","35","","","","","","","","","","","","","","","",""
"","ITI","","html-keyboard-response","236","391109","0.0-1.0-324.0","0","0","84928","","null","","","null","35","","","","","","","","","","","","","","","NaN",""
"","S1","","html-keyboard-response","237","391361","0.0-1.0-326.0","0","0","84928","","null","","","null","36","","","","","","","","","","","","","","","",""
"","ISI","","html-keyboard-response","238","393363","0.0-1.0-327.0","0","0","84928","","null","","","null","36","NaN","","","","","","","","","","","","","","",""
"","S2","","html-keyboard-response","239","393616","0.0-1.0-328.0","0","0","84928","","null","","","null","36","","NaN","","","","","","","","","","","","","",""
"","response","","html-keyboard-response","240","394975","0.0-1.0-329.0","0","0","84928","","1357","","","68","36","","","1","36","training","adjacent","FE","6","5","Q.jpg","P.jpg","1","0","0","",""
"","feedback","","html-keyboard-response","241","395977","0.0-1.0-330.0-0.0","0","0","84928","","null","","","null","36","","","","","","","","","","","","","","","",""
"","time_out","","html-keyboard-response","242","397979","0.0-1.0-332.0-0.0","0","0","84928","","null","","","null","36","","","","","","","","","","","","","","","",""
"","ITI","","html-keyboard-response","243","398983","0.0-1.0-333.0","0","0","84928","","null","","","null","36","","","","","","","","","","","","","","","NaN",""
"","S1","","html-keyboard-response","244","399235","0.0-1.0-335.0","0","0","84928","","null","","","null","37","","","","","","","","","","","","","","","",""
"","ISI","","html-keyboard-response","245","401238","0.0-1.0-336.0","0","0","84928","","null","","","null","37","NaN","","","","","","","","","","","","","","",""
"","S2","","html-keyboard-response","246","401495","0.0-1.0-337.0","0","0","84928","","null","","","null","37","","NaN","","","","","","","","","","","","","",""
"","response","","html-keyboard-response","247","402231","0.0-1.0-338.0","0","0","84928","","734","","","68","37","","","1","37","training","adjacent","CD","3","4","M.jpg","L.jpg","1","1","1","",""
"","feedback","","html-keyboard-response","248","403234","0.0-1.0-339.0-0.0","0","0","84928","","null","","","null","37","","","","","","","","","","","","","","","",""
"","ITI","","html-keyboard-response","249","404236","0.0-1.0-342.0","0","0","84928","","null","","","null","37","","","","","","","","","","","","","","","NaN",""
"","S1","","html-keyboard-response","250","404488","0.0-1.0-344.0","0","0","84928","","null","","","null","38","","","","","","","","","","","","","","","",""
"","ISI","","html-keyboard-response","251","406491","0.0-1.0-345.0","0","0","84928","","null","","","null","38","NaN","","","","","","","","","","","","","","",""
"","S2","","html-keyboard-response","252","406743","0.0-1.0-346.0","0","0","84928","","null","","","null","38","","NaN","","","","","","","","","","","","","",""
"","response","","html-keyboard-response","253","407370","0.0-1.0-347.0","0","0","84928","","626","","","68","38","","","1","38","training","adjacent","FG","6","7","Q.jpg","N.jpg","1","1","1","",""
"","feedback","","html-keyboard-response","254","408373","0.0-1.0-348.0-0.0","0","0","84928","","null","","","null","38","","","","","","","","","","","","","","","",""
"","ITI","","html-keyboard-response","255","409375","0.0-1.0-351.0","0","0","84928","","null","","","null","38","","","","","","","","","","","","","","","NaN",""
"","S1","","html-keyboard-response","256","409628","0.0-1.0-353.0","0","0","84928","","null","","","null","39","","","","","","","","","","","","","","","",""
"","ISI","","html-keyboard-response","257","411630","0.0-1.0-354.0","0","0","84928","","null","","","null","39","NaN","","","","","","","","","","","","","","",""
"","S2","","html-keyboard-response","258","411882","0.0-1.0-355.0","0","0","84928","","null","","","null","39","","NaN","","","","","","","","","","","","","",""
"","response","","html-keyboard-response","259","412348","0.0-1.0-356.0","0","0","84928","","465","","","68","39","","","1","39","training","adjacent","AB","1","2","R.jpg","O.jpg","1","1","1","",""
"","feedback","","html-keyboard-response","260","413351","0.0-1.0-357.0-0.0","0","0","84928","","null","","","null","39","","","","","","","","","","","","","","","",""
"","ITI","","html-keyboard-response","261","414355","0.0-1.0-360.0","0","0","84928","","null","","","null","39","","","","","","","","","","","","","","","NaN",""
"","S1","","html-keyboard-response","262","414609","0.0-1.0-362.0","0","0","84928","","null","","","null","40","","","","","","","","","","","","","","","",""
"","ISI","","html-keyboard-response","263","416611","0.0-1.0-363.0","0","0","84928","","null","","","null","40","NaN","","","","","","","","","","","","","","",""
"","S2","","html-keyboard-response","264","416863","0.0-1.0-364.0","0","0","84928","","null","","","null","40","","NaN","","","","","","","","","","","","","",""
"","response","","html-keyboard-response","265","417676","0.0-1.0-365.0","0","0","84928","","812","","","75","40","","","1","40","training","adjacent","FE","6","5","Q.jpg","P.jpg","0","0","1","",""
"","feedback","","html-keyboard-response","266","418679","0.0-1.0-366.0-0.0","0","0","84928","","null","","","null","40","","","","","","","","","","","","","","","",""
"","ITI","","html-keyboard-response","267","419681","0.0-1.0-369.0","0","0","84928","","null","","","null","40","","","","","","","","","","","","","","","NaN",""
"","S1","","html-keyboard-response","268","419933","0.0-1.0-371.0","0","0","84928","","null","","","null","41","","","","","","","","","","","","","","","",""
"","ISI","","html-keyboard-response","269","421935","0.0-1.0-372.0","0","0","84928","","null","","","null","41","NaN","","","","","","","","","","","","","","",""
"","S2","","html-keyboard-response","270","422188","0.0-1.0-373.0","0","0","84928","","null","","","null","41","","NaN","","","","","","","","","","","","","",""
"","response","","html-keyboard-response","271","422684","0.0-1.0-374.0","0","0","84928","","495","","","68","41","","","1","41","training","adjacent","EF","5","6","P.jpg","Q.jpg","1","1","1","",""
"","feedback","","html-keyboard-response","272","423686","0.0-1.0-375.0-0.0","0","0","84928","","null","","","null","41","","","","","","","","","","","","","","","",""
"","ITI","","html-keyboard-response","273","424689","0.0-1.0-378.0","0","0","84928","","null","","","null","41","","","","","","","","","","","","","","","NaN",""
"","S1","","html-keyboard-response","274","424943","0.0-1.0-380.0","0","0","84928","","null","","","null","42","","","","","","","","","","","","","","","",""
"","ISI","","html-keyboard-response","275","426945","0.0-1.0-381.0","0","0","84928","","null","","","null","42","NaN","","","","","","","","","","","","","","",""
"","S2","","html-keyboard-response","276","427197","0.0-1.0-382.0","0","0","84928","","null","","","null","42","","NaN","","","","","","","","","","","","","",""
"","response","","html-keyboard-response","277","427489","0.0-1.0-383.0","0","0","84928","","290","","","68","42","","","1","42","training","adjacent","FG","6","7","Q.jpg","N.jpg","1","1","1","",""
"","feedback","","html-keyboard-response","278","428491","0.0-1.0-384.0-0.0","0","0","84928","","null","","","null","42","","","","","","","","","","","","","","","",""
"","ITI","","html-keyboard-response","279","429493","0.0-1.0-387.0","0","0","84928","","null","","","null","42","","","","","","","","","","","","","","","NaN",""
"","S1","","html-keyboard-response","280","429747","0.0-1.0-389.0","0","0","84928","","null","","","null","43","","","","","","","","","","","","","","","",""
"","ISI","","html-keyboard-response","281","431751","0.0-1.0-390.0","0","0","84928","","null","","","null","43","NaN","","","","","","","","","","","","","","",""
"","S2","","html-keyboard-response","282","432003","0.0-1.0-391.0","0","0","84928","","null","","","null","43","","NaN","","","","","","","","","","","","","",""
"","response","","html-keyboard-response","283","432402","0.0-1.0-392.0","0","0","84928","","398","","","75","43","","","1","43","training","adjacent","EF","5","6","P.jpg","Q.jpg","0","1","0","",""
"","feedback","","html-keyboard-response","284","433406","0.0-1.0-393.0-0.0","0","0","84928","","null","","","null","43","","","","","","","","","","","","","","","",""
"","time_out","","html-keyboard-response","285","435409","0.0-1.0-395.0-0.0","0","0","84928","","null","","","null","43","","","","","","","","","","","","","","","",""
"","ITI","","html-keyboard-response","286","436412","0.0-1.0-396.0","0","0","84928","","null","","","null","43","","","","","","","","","","","","","","","NaN",""
"","S1","","html-keyboard-response","287","436665","0.0-1.0-398.0","0","0","84928","","null","","","null","44","","","","","","","","","","","","","","","",""
"","ISI","","html-keyboard-response","288","438667","0.0-1.0-399.0","0","0","84928","","null","","","null","44","NaN","","","","","","","","","","","","","","",""
"","S2","","html-keyboard-response","289","438919","0.0-1.0-400.0","0","0","84928","","null","","","null","44","","NaN","","","","","","","","","","","","","",""
"","response","","html-keyboard-response","290","439800","0.0-1.0-401.0","0","0","84928","","879","","","68","44","","","1","44","training","adjacent","AB","1","2","R.jpg","O.jpg","1","1","1","",""
"","feedback","","html-keyboard-response","291","440802","0.0-1.0-402.0-0.0","0","0","84928","","null","","","null","44","","","","","","","","","","","","","","","",""
"","ITI","","html-keyboard-response","292","441805","0.0-1.0-405.0","0","0","84928","","null","","","null","44","","","","","","","","","","","","","","","NaN",""
"","S1","","html-keyboard-response","293","442057","0.0-1.0-407.0","0","0","84928","","null","","","null","45","","","","","","","","","","","","","","","",""
"","ISI","","html-keyboard-response","294","444060","0.0-1.0-408.0","0","0","84928","","null","","","null","45","NaN","","","","","","","","","","","","","","",""
"","S2","","html-keyboard-response","295","444313","0.0-1.0-409.0","0","0","84928","","null","","","null","45","","NaN","","","","","","","","","","","","","",""
"","response","","html-keyboard-response","296","444933","0.0-1.0-410.0","0","0","84928","","619","","","75","45","","","1","45","training","adjacent","BA","2","1","O.jpg","R.jpg","0","0","1","",""
"","feedback","","html-keyboard-response","297","445935","0.0-1.0-411.0-0.0","0","0","84928","","null","","","null","45","","","","","","","","","","","","","","","",""
"","ITI","","html-keyboard-response","298","446938","0.0-1.0-414.0","0","0","84928","","null","","","null","45","","","","","","","","","","","","","","","NaN",""
"","S1","","html-keyboard-response","299","447191","0.0-1.0-416.0","0","0","84928","","null","","","null","46","","","","","","","","","","","","","","","",""
"","ISI","","html-keyboard-response","300","449195","0.0-1.0-417.0","0","0","84928","","null","","","null","46","NaN","","","","","","","","","","","","","","",""
"","S2","","html-keyboard-response","301","449447","0.0-1.0-418.0","0","0","84928","","null","","","null","46","","NaN","","","","","","","","","","","","","",""
"","response","","html-keyboard-response","302","449757","0.0-1.0-419.0","0","0","84928","","307","","","68","46","","","1","46","training","adjacent","BC","2","3","O.jpg","M.jpg","1","1","1","",""
"","feedback","","html-keyboard-response","303","450760","0.0-1.0-420.0-0.0","0","0","84928","","null","","","null","46","","","","","","","","","","","","","","","",""
"","ITI","","html-keyboard-response","304","451763","0.0-1.0-423.0","0","0","84928","","null","","","null","46","","","","","","","","","","","","","","","NaN",""
"","S1","","html-keyboard-response","305","452015","0.0-1.0-425.0","0","0","84928","","null","","","null","47","","","","","","","","","","","","","","","",""
"","ISI","","html-keyboard-response","306","454017","0.0-1.0-426.0","0","0","84928","","null","","","null","47","NaN","","","","","","","","","","","","","","",""
"","S2","","html-keyboard-response","307","454269","0.0-1.0-427.0","0","0","84928","","null","","","null","47","","NaN","","","","","","","","","","","","","",""
"","response","","html-keyboard-response","308","454598","0.0-1.0-428.0","0","0","84928","","328","","","68","47","","","1","47","training","adjacent","CD","3","4","M.jpg","L.jpg","1","1","1","",""
"","feedback","","html-keyboard-response","309","455601","0.0-1.0-429.0-0.0","0","0","84928","","null","","","null","47","","","","","","","","","","","","","","","",""
"","ITI","","html-keyboard-response","310","456604","0.0-1.0-432.0","0","0","84928","","null","","","null","47","","","","","","","","","","","","","","","NaN",""
"","block_over","","html-keyboard-response","311","463162","0.0-1.0-433.0-0.0","0","0","84928","","6557","","","32","47","","","","","","","","","","","","","","","",""
"","S1","","html-keyboard-response","312","463414","0.0-1.0-434.0","0","0","84928","","null","","","null","48","","","","","","","","","","","","","","","",""
"","ISI","","html-keyboard-response","313","465416","0.0-1.0-435.0","0","0","84928","","null","","","null","48","NaN","","","","","","","","","","","","","","",""
"","S2","","html-keyboard-response","314","465669","0.0-1.0-436.0","0","0","84928","","null","","","null","48","","NaN","","","","","","","","","","","","","",""
"","response","","html-keyboard-response","315","466149","0.0-1.0-437.0","0","0","84928","","477","","","68","48","","","2","48","training","adjacent","EF","5","6","P.jpg","Q.jpg","1","1","1","",""
"","feedback","","html-keyboard-response","316","467151","0.0-1.0-438.0-0.0","0","0","84928","","null","","","null","48","","","","","","","","","","","","","","","",""
"","ITI","","html-keyboard-response","317","468154","0.0-1.0-441.0","0","0","84928","","null","","","null","48","","","","","","","","","","","","","","","NaN",""
"","S1","","html-keyboard-response","318","468407","0.0-1.0-443.0","0","0","84928","","null","","","null","49","","","","","","","","","","","","","","","",""
"","ISI","","html-keyboard-response","319","470410","0.0-1.0-444.0","0","0","84928","","null","","","null","49","NaN","","","","","","","","","","","","","","",""
"","S2","","html-keyboard-response","320","470662","0.0-1.0-445.0","0","0","84928","","null","","","null","49","","NaN","","","","","","","","","","","","","",""
"","response","","html-keyboard-response","321","470821","0.0-1.0-446.0","0","0","84928","","158","","","75","49","","","2","49","training","adjacent","GF","7","6","N.jpg","Q.jpg","0","0","1","",""
"","feedback","","html-keyboard-response","322","471823","0.0-1.0-447.0-0.0","0","0","84928","","null","","","null","49","","","","","","","","","","","","","","","",""
"","ITI","","html-keyboard-response","323","472826","0.0-1.0-450.0","0","0","84928","","null","","","null","49","","","","","","","","","","","","","","","NaN",""
"","S1","","html-keyboard-response","324","473078","0.0-1.0-452.0","0","0","84928","","null","","","null","50","","","","","","","","","","","","","","","",""
"","ISI","","html-keyboard-response","325","475080","0.0-1.0-453.0","0","0","84928","","null","","","null","50","NaN","","","","","","","","","","","","","","",""
"","S2","","html-keyboard-response","326","475332","0.0-1.0-454.0","0","0","84928","","null","","","null","50","","NaN","","","","","","","","","","","","","",""
"","response","","html-keyboard-response","327","475897","0.0-1.0-455.0","0","0","84928","","563","","","68","50","","","2","50","training","adjacent","BC","2","3","O.jpg","M.jpg","1","1","1","",""
"","feedback","","html-keyboard-response","328","476900","0.0-1.0-456.0-0.0","0","0","84928","","null","","","null","50","","","","","","","","","","","","","","","",""
"","ITI","","html-keyboard-response","329","477902","0.0-1.0-459.0","0","0","84928","","null","","","null","50","","","","","","","","","","","","","","","NaN",""
"","S1","","html-keyboard-response","330","478155","0.0-1.0-461.0","0","0","84928","","null","","","null","51","","","","","","","","","","","","","","","",""
"","ISI","","html-keyboard-response","331","480157","0.0-1.0-462.0","0","0","84928","","null","","","null","51","NaN","","","","","","","","","","","","","","",""
"","S2","","html-keyboard-response","332","480422","0.0-1.0-463.0","0","0","84928","","null","","","null","51","","NaN","","","","","","","","","","","","","",""
"","response","","html-keyboard-response","333","480800","0.0-1.0-464.0","0","0","84928","","376","","","68","51","","","2","51","training","adjacent","ED","5","4","P.jpg","L.jpg","1","0","0","",""
"","feedback","","html-keyboard-response","334","481802","0.0-1.0-465.0-0.0","0","0","84928","","null","","","null","51","","","","","","","","","","","","","","","",""
"","time_out","","html-keyboard-response","335","483805","0.0-1.0-467.0-0.0","0","0","84928","","null","","","null","51","","","","","","","","","","","","","","","",""
"","ITI","","html-keyboard-response","336","484807","0.0-1.0-468.0","0","0","84928","","null","","","null","51","","","","","","","","","","","","","","","NaN",""
"","S1","","html-keyboard-response","337","485059","0.0-1.0-470.0","0","0","84928","","null","","","null","52","","","","","","","","","","","","","","","",""
"","ISI","","html-keyboard-response","338","487062","0.0-1.0-471.0","0","0","84928","","null","","","null","52","NaN","","","","","","","","","","","","","","",""
"","S2","","html-keyboard-response","339","487314","0.0-1.0-472.0","0","0","84928","","null","","","null","52","","NaN","","","","","","","","","","","","","",""
"","response","","html-keyboard-response","340","487953","0.0-1.0-473.0","0","0","84928","","638","","","75","52","","","2","52","training","adjacent","CB","3","2","M.jpg","O.jpg","0","0","1","",""
"","feedback","","html-keyboard-response","341","488956","0.0-1.0-474.0-0.0","0","0","84928","","null","","","null","52","","","","","","","","","","","","","","","",""
"","ITI","","html-keyboard-response","342","489959","0.0-1.0-477.0","0","0","84928","","null","","","null","52","","","","","","","","","","","","","","","NaN",""
"","S1","","html-keyboard-response","343","490225","0.0-1.0-479.0","0","0","84928","","null","","","null","53","","","","","","","","","","","","","","","",""
"","ISI","","html-keyboard-response","344","492227","0.0-1.0-480.0","0","0","84928","","null","","","null","53","NaN","","","","","","","","","","","","","","",""
"","S2","","html-keyboard-response","345","492479","0.0-1.0-481.0","0","0","84928","","null","","","null","53","","NaN","","","","","","","","","","","","","",""
"","response","","html-keyboard-response","346","493171","0.0-1.0-482.0","0","0","84928","","691","","","68","53","","","2","53","training","adjacent","FG","6","7","Q.jpg","N.jpg","1","1","1","",""
"","feedback","","html-keyboard-response","347","494175","0.0-1.0-483.0-0.0","0","0","84928","","null","","","null","53","","","","","","","","","","","","","","","",""
"","ITI","","html-keyboard-response","348","495178","0.0-1.0-486.0","0","0","84928","","null","","","null","53","","","","","","","","","","","","","","","NaN",""
"","S1","","html-keyboard-response","349","495431","0.0-1.0-488.0","0","0","84928","","null","","","null","54","","","","","","","","","","","","","","","",""
"","ISI","","html-keyboard-response","350","497433","0.0-1.0-489.0","0","0","84928","","null","","","null","54","NaN","","","","","","","","","","","","","","",""
"","S2","","html-keyboard-response","351","497685","0.0-1.0-490.0","0","0","84928","","null","","","null","54","","NaN","","","","","","","","","","","","","",""
"","response","","html-keyboard-response","352","498099","0.0-1.0-491.0","0","0","84928","","413","","","68","54","","","2","54","training","adjacent","CD","3","4","M.jpg","L.jpg","1","1","1","",""
"","feedback","","html-keyboard-response","353","499102","0.0-1.0-492.0-0.0","0","0","84928","","null","","","null","54","","","","","","","","","","","","","","","",""
"","ITI","","html-keyboard-response","354","500104","0.0-1.0-495.0","0","0","84928","","null","","","null","54","","","","","","","","","","","","","","","NaN",""
"","S1","","html-keyboard-response","355","500356","0.0-1.0-497.0","0","0","84928","","null","","","null","55","","","","","","","","","","","","","","","",""
"","ISI","","html-keyboard-response","356","502358","0.0-1.0-498.0","0","0","84928","","null","","","null","55","NaN","","","","","","","","","","","","","","",""
"","S2","","html-keyboard-response","357","502611","0.0-1.0-499.0","0","0","84928","","null","","","null","55","","NaN","","","","","","","","","","","","","",""
"","response","","html-keyboard-response","358","503059","0.0-1.0-500.0","0","0","84928","","447","","","68","55","","","2","55","training","adjacent","FG","6","7","Q.jpg","N.jpg","1","1","1","",""
"","feedback","","html-keyboard-response","359","504063","0.0-1.0-501.0-0.0","0","0","84928","","null","","","null","55","","","","","","","","","","","","","","","",""
"","ITI","","html-keyboard-response","360","505065","0.0-1.0-504.0","0","0","84928","","null","","","null","55","","","","","","","","","","","","","","","NaN",""
"","S1","","html-keyboard-response","361","505318","0.0-1.0-506.0","0","0","84928","","null","","","null","56","","","","","","","","","","","","","","","",""
"","ISI","","html-keyboard-response","362","507321","0.0-1.0-507.0","0","0","84928","","null","","","null","56","NaN","","","","","","","","","","","","","","",""
"","S2","","html-keyboard-response","363","507573","0.0-1.0-508.0","0","0","84928","","null","","","null","56","","NaN","","","","","","","","","","","","","",""
"","response","","html-keyboard-response","364","508015","0.0-1.0-509.0","0","0","84928","","441","","","68","56","","","2","56","training","adjacent","DC","4","3","L.jpg","M.jpg","1","0","0","",""
"","feedback","","html-keyboard-response","365","509018","0.0-1.0-510.0-0.0","0","0","84928","","null","","","null","56","","","","","","","","","","","","","","","",""
"","time_out","","html-keyboard-response","366","511022","0.0-1.0-512.0-0.0","0","0","84928","","null","","","null","56","","","","","","","","","","","","","","","",""
"","ITI","","html-keyboard-response","367","512024","0.0-1.0-513.0","0","0","84928","","null","","","null","56","","","","","","","","","","","","","","","NaN",""
"","S1","","html-keyboard-response","368","512277","0.0-1.0-515.0","0","0","84928","","null","","","null","57","","","","","","","","","","","","","","","",""
"","ISI","","html-keyboard-response","369","514280","0.0-1.0-516.0","0","0","84928","","null","","","null","57","NaN","","","","","","","","","","","","","","",""
"","S2","","html-keyboard-response","370","514533","0.0-1.0-517.0","0","0","84928","","null","","","null","57","","NaN","","","","","","","","","","","","","",""
"","response","","html-keyboard-response","371","514898","0.0-1.0-518.0","0","0","84928","","363","","","68","57","","","2","57","training","adjacent","CD","3","4","M.jpg","L.jpg","1","1","1","",""
"","feedback","","html-keyboard-response","372","515900","0.0-1.0-519.0-0.0","0","0","84928","","null","","","null","57","","","","","","","","","","","","","","","",""
"","ITI","","html-keyboard-response","373","516902","0.0-1.0-522.0","0","0","84928","","null","","","null","57","","","","","","","","","","","","","","","NaN",""
"","S1","","html-keyboard-response","374","517155","0.0-1.0-524.0","0","0","84928","","null","","","null","58","","","","","","","","","","","","","","","",""
"","ISI","","html-keyboard-response","375","519158","0.0-1.0-525.0","0","0","84928","","null","","","null","58","NaN","","","","","","","","","","","","","","",""
"","S2","","html-keyboard-response","376","519412","0.0-1.0-526.0","0","0","84928","","null","","","null","58","","NaN","","","","","","","","","","","","","",""
"","response","","html-keyboard-response","377","520076","0.0-1.0-527.0","0","0","84928","","662","","","68","58","","","2","58","training","adjacent","GF","7","6","N.jpg","Q.jpg","1","0","0","",""
"","feedback","","html-keyboard-response","378","521080","0.0-1.0-528.0-0.0","0","0","84928","","null","","","null","58","","","","","","","","","","","","","","","",""
"","time_out","","html-keyboard-response","379","523083","0.0-1.0-530.0-0.0","0","0","84928","","null","","","null","58","","","","","","","","","","","","","","","",""
"","ITI","","html-keyboard-response","380","524086","0.0-1.0-531.0","0","0","84928","","null","","","null","58","","","","","","","","","","","","","","","NaN",""
"","S1","","html-keyboard-response","381","524340","0.0-1.0-533.0","0","0","84928","","null","","","null","59","","","","","","","","","","","","","","","",""
"","ISI","","html-keyboard-response","382","526343","0.0-1.0-534.0","0","0","84928","","null","","","null","59","NaN","","","","","","","","","","","","","","",""
"","S2","","html-keyboard-response","383","526595","0.0-1.0-535.0","0","0","84928","","null","","","null","59","","NaN","","","","","","","","","","","","","",""
"","response","","html-keyboard-response","384","527112","0.0-1.0-536.0","0","0","84928","","515","","","75","59","","","2","59","training","adjacent","CD","3","4","M.jpg","L.jpg","0","1","0","",""
"","feedback","","html-keyboard-response","385","528115","0.0-1.0-537.0-0.0","0","0","84928","","null","","","null","59","","","","","","","","","","","","","","","",""
"","time_out","","html-keyboard-response","386","530118","0.0-1.0-539.0-0.0","0","0","84928","","null","","","null","59","","","","","","","","","","","","","","","",""
"","ITI","","html-keyboard-response","387","531120","0.0-1.0-540.0","0","0","84928","","null","","","null","59","","","","","","","","","","","","","","","NaN",""
"","S1","","html-keyboard-response","388","531373","0.0-1.0-542.0","0","0","84928","","null","","","null","60","","","","","","","","","","","","","","","",""
"","ISI","","html-keyboard-response","389","533375","0.0-1.0-543.0","0","0","84928","","null","","","null","60","NaN","","","","","","","","","","","","","","",""
"","S2","","html-keyboard-response","390","533628","0.0-1.0-544.0","0","0","84928","","null","","","null","60","","NaN","","","","","","","","","","","","","",""
"","response","","html-keyboard-response","391","534293","0.0-1.0-545.0","0","0","84928","","664","","","75","60","","","2","60","training","adjacent","CD","3","4","M.jpg","L.jpg","0","1","0","",""
"","feedback","","html-keyboard-response","392","535294","0.0-1.0-546.0-0.0","0","0","84928","","null","","","null","60","","","","","","","","","","","","","","","",""
"","time_out","","html-keyboard-response","393","537298","0.0-1.0-548.0-0.0","0","0","84928","","null","","","null","60","","","","","","","","","","","","","","","",""
"","ITI","","html-keyboard-response","394","538301","0.0-1.0-549.0","0","0","84928","","null","","","null","60","","","","","","","","","","","","","","","NaN",""
"","S1","","html-keyboard-response","395","538553","0.0-1.0-551.0","0","0","84928","","null","","","null","61","","","","","","","","","","","","","","","",""
"","ISI","","html-keyboard-response","396","540555","0.0-1.0-552.0","0","0","84928","","null","","","null","61","NaN","","","","","","","","","","","","","","",""
"","S2","","html-keyboard-response","397","540808","0.0-1.0-553.0","0","0","84928","","null","","","null","61","","NaN","","","","","","","","","","","","","",""
"","response","","html-keyboard-response","398","541317","0.0-1.0-554.0","0","0","84928","","508","","","75","61","","","2","61","training","adjacent","BC","2","3","O.jpg","M.jpg","0","1","0","",""
"","feedback","","html-keyboard-response","399","542320","0.0-1.0-555.0-0.0","0","0","84928","","null","","","null","61","","","","","","","","","","","","","","","",""
"","time_out","","html-keyboard-response","400","544322","0.0-1.0-557.0-0.0","0","0","84928","","null","","","null","61","","","","","","","","","","","","","","","",""
"","ITI","","html-keyboard-response","401","545325","0.0-1.0-558.0","0","0","84928","","null","","","null","61","","","","","","","","","","","","","","","NaN",""
"","S1","","html-keyboard-response","402","545578","0.0-1.0-560.0","0","0","84928","","null","","","null","62","","","","","","","","","","","","","","","",""
"","ISI","","html-keyboard-response","403","547581","0.0-1.0-561.0","0","0","84928","","null","","","null","62","NaN","","","","","","","","","","","","","","",""
"","S2","","html-keyboard-response","404","547833","0.0-1.0-562.0","0","0","84928","","null","","","null","62","","NaN","","","","","","","","","","","","","",""
"","response","","html-keyboard-response","405","548973","0.0-1.0-563.0","0","0","84928","","1138","","","68","62","","","2","62","training","adjacent","BA","2","1","O.jpg","R.jpg","1","0","0","",""
"","feedback","","html-keyboard-response","406","549976","0.0-1.0-564.0-0.0","0","0","84928","","null","","","null","62","","","","","","","","","","","","","","","",""
"","time_out","","html-keyboard-response","407","551978","0.0-1.0-566.0-0.0","0","0","84928","","null","","","null","62","","","","","","","","","","","","","","","",""
"","ITI","","html-keyboard-response","408","552980","0.0-1.0-567.0","0","0","84928","","null","","","null","62","","","","","","","","","","","","","","","NaN",""
"","S1","","html-keyboard-response","409","553233","0.0-1.0-569.0","0","0","84928","","null","","","null","63","","","","","","","","","","","","","","","",""
"","ISI","","html-keyboard-response","410","555235","0.0-1.0-570.0","0","0","84928","","null","","","null","63","NaN","","","","","","","","","","","","","","",""
"","S2","","html-keyboard-response","411","555487","0.0-1.0-571.0","0","0","84928","","null","","","null","63","","NaN","","","","","","","","","","","","","",""
"","response","","html-keyboard-response","412","556104","0.0-1.0-572.0","0","0","84928","","616","","","75","63","","","2","63","training","adjacent","ED","5","4","P.jpg","L.jpg","0","0","1","",""
"","feedback","","html-keyboard-response","413","557107","0.0-1.0-573.0-0.0","0","0","84928","","null","","","null","63","","","","","","","","","","","","","","","",""
"","ITI","","html-keyboard-response","414","558109","0.0-1.0-576.0","0","0","84928","","null","","","null","63","","","","","","","","","","","","","","","NaN",""
"","S1","","html-keyboard-response","415","558361","0.0-1.0-578.0","0","0","84928","","null","","","null","64","","","","","","","","","","","","","","","",""
"","ISI","","html-keyboard-response","416","560364","0.0-1.0-579.0","0","0","84928","","null","","","null","64","NaN","","","","","","","","","","","","","","",""
"","S2","","html-keyboard-response","417","560617","0.0-1.0-580.0","0","0","84928","","null","","","null","64","","NaN","","","","","","","","","","","","","",""
"","response","","html-keyboard-response","418","561292","0.0-1.0-581.0","0","0","84928","","673","","","75","64","","","2","64","training","adjacent","AB","1","2","R.jpg","O.jpg","0","1","0","",""
"","feedback","","html-keyboard-response","419","562294","0.0-1.0-582.0-0.0","0","0","84928","","null","","","null","64","","","","","","","","","","","","","","","",""
"","time_out","","html-keyboard-response","420","564297","0.0-1.0-584.0-0.0","0","0","84928","","null","","","null","64","","","","","","","","","","","","","","","",""
"","ITI","","html-keyboard-response","421","565299","0.0-1.0-585.0","0","0","84928","","null","","","null","64","","","","","","","","","","","","","","","NaN",""
"","S1","","html-keyboard-response","422","565552","0.0-1.0-587.0","0","0","84928","","null","","","null","65","","","","","","","","","","","","","","","",""
"","ISI","","html-keyboard-response","423","567555","0.0-1.0-588.0","0","0","84928","","null","","","null","65","NaN","","","","","","","","","","","","","","",""
"","S2","","html-keyboard-response","424","567808","0.0-1.0-589.0","0","0","84928","","null","","","null","65","","NaN","","","","","","","","","","","","","",""
"","response","","html-keyboard-response","425","568530","0.0-1.0-590.0","0","0","84928","","720","","","75","65","","","2","65","training","adjacent","ED","5","4","P.jpg","L.jpg","0","0","1","",""
"","feedback","","html-keyboard-response","426","569533","0.0-1.0-591.0-0.0","0","0","84928","","null","","","null","65","","","","","","","","","","","","","","","",""
"","ITI","","html-keyboard-response","427","570536","0.0-1.0-594.0","0","0","84928","","null","","","null","65","","","","","","","","","","","","","","","NaN",""
"","S1","","html-keyboard-response","428","570788","0.0-1.0-596.0","0","0","84928","","null","","","null","66","","","","","","","","","","","","","","","",""
"","ISI","","html-keyboard-response","429","572791","0.0-1.0-597.0","0","0","84928","","null","","","null","66","NaN","","","","","","","","","","","","","","",""
"","S2","","html-keyboard-response","430","573044","0.0-1.0-598.0","0","0","84928","","null","","","null","66","","NaN","","","","","","","","","","","","","",""
"","response","","html-keyboard-response","431","573399","0.0-1.0-599.0","0","0","84928","","353","","","68","66","","","2","66","training","adjacent","ED","5","4","P.jpg","L.jpg","1","0","0","",""
"","feedback","","html-keyboard-response","432","574406","0.0-1.0-600.0-0.0","0","0","84928","","null","","","null","66","","","","","","","","","","","","","","","",""
"","time_out","","html-keyboard-response","433","576408","0.0-1.0-602.0-0.0","0","0","84928","","null","","","null","66","","","","","","","","","","","","","","","",""
"","ITI","","html-keyboard-response","434","577411","0.0-1.0-603.0","0","0","84928","","null","","","null","66","","","","","","","","","","","","","","","NaN",""
"","S1","","html-keyboard-response","435","577664","0.0-1.0-605.0","0","0","84928","","null","","","null","67","","","","","","","","","","","","","","","",""
"","ISI","","html-keyboard-response","436","579666","0.0-1.0-606.0","0","0","84928","","null","","","null","67","NaN","","","","","","","","","","","","","","",""
"","S2","","html-keyboard-response","437","579918","0.0-1.0-607.0","0","0","84928","","null","","","null","67","","NaN","","","","","","","","","","","","","",""
"","response","","html-keyboard-response","438","580528","0.0-1.0-608.0","0","0","84928","","608","","","75","67","","","2","67","training","adjacent","DE","4","5","L.jpg","P.jpg","0","1","0","",""
"","feedback","","html-keyboard-response","439","581532","0.0-1.0-609.0-0.0","0","0","84928","","null","","","null","67","","","","","","","","","","","","","","","",""
"","time_out","","html-keyboard-response","440","583534","0.0-1.0-611.0-0.0","0","0","84928","","null","","","null","67","","","","","","","","","","","","","","","",""
"","ITI","","html-keyboard-response","441","584536","0.0-1.0-612.0","0","0","84928","","null","","","null","67","","","","","","","","","","","","","","","NaN",""
"","S1","","html-keyboard-response","442","584788","0.0-1.0-614.0","0","0","84928","","null","","","null","68","","","","","","","","","","","","","","","",""
"","ISI","","html-keyboard-response","443","586790","0.0-1.0-615.0","0","0","84928","","null","","","null","68","NaN","","","","","","","","","","","","","","",""
"","S2","","html-keyboard-response","444","587043","0.0-1.0-616.0","0","0","84928","","null","","","null","68","","NaN","","","","","","","","","","","","","",""
"","response","","html-keyboard-response","445","587539","0.0-1.0-617.0","0","0","84928","","495","","","68","68","","","2","68","training","adjacent","DE","4","5","L.jpg","P.jpg","1","1","1","",""
"","feedback","","html-keyboard-response","446","588542","0.0-1.0-618.0-0.0","0","0","84928","","null","","","null","68","","","","","","","","","","","","","","","",""
"","ITI","","html-keyboard-response","447","589544","0.0-1.0-621.0","0","0","84928","","null","","","null","68","","","","","","","","","","","","","","","NaN",""
"","S1","","html-keyboard-response","448","589798","0.0-1.0-623.0","0","0","84928","","null","","","null","69","","","","","","","","","","","","","","","",""
"","ISI","","html-keyboard-response","449","591801","0.0-1.0-624.0","0","0","84928","","null","","","null","69","NaN","","","","","","","","","","","","","","",""
"","S2","","html-keyboard-response","450","592054","0.0-1.0-625.0","0","0","84928","","null","","","null","69","","NaN","","","","","","","","","","","","","",""
"","response","","html-keyboard-response","451","592372","0.0-1.0-626.0","0","0","84928","","316","","","75","69","","","2","69","training","adjacent","FE","6","5","Q.jpg","P.jpg","0","0","1","",""
"","feedback","","html-keyboard-response","452","593374","0.0-1.0-627.0-0.0","0","0","84928","","null","","","null","69","","","","","","","","","","","","","","","",""
"","ITI","","html-keyboard-response","453","594377","0.0-1.0-630.0","0","0","84928","","null","","","null","69","","","","","","","","","","","","","","","NaN",""
"","S1","","html-keyboard-response","454","594629","0.0-1.0-632.0","0","0","84928","","null","","","null","70","","","","","","","","","","","","","","","",""
"","ISI","","html-keyboard-response","455","596631","0.0-1.0-633.0","0","0","84928","","null","","","null","70","NaN","","","","","","","","","","","","","","",""
"","S2","","html-keyboard-response","456","596884","0.0-1.0-634.0","0","0","84928","","null","","","null","70","","NaN","","","","","","","","","","","","","",""
"","response","","html-keyboard-response","457","597667","0.0-1.0-635.0","0","0","84928","","781","","","68","70","","","2","70","training","adjacent","CB","3","2","M.jpg","O.jpg","1","0","0","",""
"","feedback","","html-keyboard-response","458","598670","0.0-1.0-636.0-0.0","0","0","84928","","null","","","null","70","","","","","","","","","","","","","","","",""
"","time_out","","html-keyboard-response","459","600671","0.0-1.0-638.0-0.0","0","0","84928","","null","","","null","70","","","","","","","","","","","","","","","",""
"","ITI","","html-keyboard-response","460","601673","0.0-1.0-639.0","0","0","84928","","null","","","null","70","","","","","","","","","","","","","","","NaN",""
"","S1","","html-keyboard-response","461","601926","0.0-1.0-641.0","0","0","84928","","null","","","null","71","","","","","","","","","","","","","","","",""
"","ISI","","html-keyboard-response","462","603929","0.0-1.0-642.0","0","0","84928","","null","","","null","71","NaN","","","","","","","","","","","","","","",""
"","S2","","html-keyboard-response","463","604182","0.0-1.0-643.0","0","0","84928","","null","","","null","71","","NaN","","","","","","","","","","","","","",""
"","response","","html-keyboard-response","464","604624","0.0-1.0-644.0","0","0","84928","","441","","","75","71","","","2","71","training","adjacent","CB","3","2","M.jpg","O.jpg","0","0","1","",""
"","feedback","","html-keyboard-response","465","605626","0.0-1.0-645.0-0.0","0","0","84928","","null","","","null","71","","","","","","","","","","","","","","","",""
"","ITI","","html-keyboard-response","466","606629","0.0-1.0-648.0","0","0","84928","","null","","","null","71","","","","","","","","","","","","","","","NaN",""
"","S1","","html-keyboard-response","467","606882","0.0-1.0-650.0","0","0","84928","","null","","","null","72","","","","","","","","","","","","","","","",""
"","ISI","","html-keyboard-response","468","608885","0.0-1.0-651.0","0","0","84928","","null","","","null","72","NaN","","","","","","","","","","","","","","",""
"","S2","","html-keyboard-response","469","609137","0.0-1.0-652.0","0","0","84928","","null","","","null","72","","NaN","","","","","","","","","","","","","",""
"","response","","html-keyboard-response","470","609504","0.0-1.0-653.0","0","0","84928","","366","","","68","72","","","2","72","training","adjacent","BC","2","3","O.jpg","M.jpg","1","1","1","",""
"","feedback","","html-keyboard-response","471","610507","0.0-1.0-654.0-0.0","0","0","84928","","null","","","null","72","","","","","","","","","","","","","","","",""
"","ITI","","html-keyboard-response","472","611509","0.0-1.0-657.0","0","0","84928","","null","","","null","72","","","","","","","","","","","","","","","NaN",""
"","S1","","html-keyboard-response","473","611761","0.0-1.0-659.0","0","0","84928","","null","","","null","73","","","","","","","","","","","","","","","",""
"","ISI","","html-keyboard-response","474","613765","0.0-1.0-660.0","0","0","84928","","null","","","null","73","NaN","","","","","","","","","","","","","","",""
"","S2","","html-keyboard-response","475","614018","0.0-1.0-661.0","0","0","84928","","null","","","null","73","","NaN","","","","","","","","","","","","","",""
"","response","","html-keyboard-response","476","614431","0.0-1.0-662.0","0","0","84928","","412","","","68","73","","","2","73","training","adjacent","EF","5","6","P.jpg","Q.jpg","1","1","1","",""
"","feedback","","html-keyboard-response","477","615434","0.0-1.0-663.0-0.0","0","0","84928","","null","","","null","73","","","","","","","","","","","","","","","",""
"","ITI","","html-keyboard-response","478","616436","0.0-1.0-666.0","0","0","84928","","null","","","null","73","","","","","","","","","","","","","","","NaN",""
"","S1","","html-keyboard-response","479","616689","0.0-1.0-668.0","0","0","84928","","null","","","null","74","","","","","","","","","","","","","","","",""
"","ISI","","html-keyboard-response","480","618692","0.0-1.0-669.0","0","0","84928","","null","","","null","74","NaN","","","","","","","","","","","","","","",""
"","S2","","html-keyboard-response","481","618944","0.0-1.0-670.0","0","0","84928","","null","","","null","74","","NaN","","","","","","","","","","","","","",""
"","response","","html-keyboard-response","482","619624","0.0-1.0-671.0","0","0","84928","","679","","","75","74","","","2","74","training","adjacent","DE","4","5","L.jpg","P.jpg","0","1","0","",""
"","feedback","","html-keyboard-response","483","620627","0.0-1.0-672.0-0.0","0","0","84928","","null","","","null","74","","","","","","","","","","","","","","","",""
"","time_out","","html-keyboard-response","484","622629","0.0-1.0-674.0-0.0","0","0","84928","","null","","","null","74","","","","","","","","","","","","","","","",""
"","ITI","","html-keyboard-response","485","623631","0.0-1.0-675.0","0","0","84928","","null","","","null","74","","","","","","","","","","","","","","","NaN",""
"","S1","","html-keyboard-response","486","623883","0.0-1.0-677.0","0","0","84928","","null","","","null","75","","","","","","","","","","","","","","","",""
"","ISI","","html-keyboard-response","487","625886","0.0-1.0-678.0","0","0","84928","","null","","","null","75","NaN","","","","","","","","","","","","","","",""
"","S2","","html-keyboard-response","488","626139","0.0-1.0-679.0","0","0","84928","","null","","","null","75","","NaN","","","","","","","","","","","","","",""
"","response","","html-keyboard-response","489","627645","0.0-1.0-680.0","0","0","84928","","1505","","","68","75","","","2","75","training","adjacent","GF","7","6","N.jpg","Q.jpg","1","0","0","",""
"","feedback","","html-keyboard-response","490","628649","0.0-1.0-681.0-0.0","0","0","84928","","null","","","null","75","","","","","","","","","","","","","","","",""
"","time_out","","html-keyboard-response","491","630651","0.0-1.0-683.0-0.0","0","0","84928","","null","","","null","75","","","","","","","","","","","","","","","",""
"","ITI","","html-keyboard-response","492","631654","0.0-1.0-684.0","0","0","84928","","null","","","null","75","","","","","","","","","","","","","","","NaN",""
"","S1","","html-keyboard-response","493","631906","0.0-1.0-686.0","0","0","84928","","null","","","null","76","","","","","","","","","","","","","","","",""
"","ISI","","html-keyboard-response","494","633908","0.0-1.0-687.0","0","0","84928","","null","","","null","76","NaN","","","","","","","","","","","","","","",""
"","S2","","html-keyboard-response","495","634161","0.0-1.0-688.0","0","0","84928","","null","","","null","76","","NaN","","","","","","","","","","","","","",""
"","response","","html-keyboard-response","496","634842","0.0-1.0-689.0","0","0","84928","","679","","","68","76","","","2","76","training","adjacent","BA","2","1","O.jpg","R.jpg","1","0","0","",""
"","feedback","","html-keyboard-response","497","635845","0.0-1.0-690.0-0.0","0","0","84928","","null","","","null","76","","","","","","","","","","","","","","","",""
"","time_out","","html-keyboard-response","498","637847","0.0-1.0-692.0-0.0","0","0","84928","","null","","","null","76","","","","","","","","","","","","","","","",""
"","ITI","","html-keyboard-response","499","638849","0.0-1.0-693.0","0","0","84928","","null","","","null","76","","","","","","","","","","","","","","","NaN",""
"","S1","","html-keyboard-response","500","639102","0.0-1.0-695.0","0","0","84928","","null","","","null","77","","","","","","","","","","","","","","","",""
"","ISI","","html-keyboard-response","501","641104","0.0-1.0-696.0","0","0","84928","","806","","","68","77","d","","","","","","","","","","","","","","",""
"","S2","","html-keyboard-response","502","641356","0.0-1.0-697.0","0","0","84928","","null","","","null","77","","NaN","","","","","","","","","","","","","",""
"","response","","html-keyboard-response","503","642093","0.0-1.0-698.0","0","0","84928","","735","","","75","77","","","2","77","training","adjacent","DC","4","3","L.jpg","M.jpg","0","0","1","",""
"","feedback","","html-keyboard-response","504","643096","0.0-1.0-699.0-0.0","0","0","84928","","null","","","null","77","","","","","","","","","","","","","","","",""
"","ITI","","html-keyboard-response","505","644098","0.0-1.0-702.0","0","0","84928","","null","","","null","77","","","","","","","","","","","","","","","NaN",""
"","S1","","html-keyboard-response","506","644350","0.0-1.0-704.0","0","0","84928","","null","","","null","78","","","","","","","","","","","","","","","",""
"","ISI","","html-keyboard-response","507","646353","0.0-1.0-705.0","0","0","84928","","null","","","null","78","NaN","","","","","","","","","","","","","","",""
"","S2","","html-keyboard-response","508","646606","0.0-1.0-706.0","0","0","84928","","null","","","null","78","","NaN","","","","","","","","","","","","","",""
"","response","","html-keyboard-response","509","647413","0.0-1.0-707.0","0","0","84928","","806","","","68","78","","","2","78","training","adjacent","EF","5","6","P.jpg","Q.jpg","1","1","1","",""
"","feedback","","html-keyboard-response","510","648415","0.0-1.0-708.0-0.0","0","0","84928","","null","","","null","78","","","","","","","","","","","","","","","",""
"","ITI","","html-keyboard-response","511","649418","0.0-1.0-711.0","0","0","84928","","null","","","null","78","","","","","","","","","","","","","","","NaN",""
"","S1","","html-keyboard-response","512","649679","0.0-1.0-713.0","0","0","84928","","null","","","null","79","","","","","","","","","","","","","","","",""
"","ISI","","html-keyboard-response","513","651682","0.0-1.0-714.0","0","0","84928","","null","","","null","79","NaN","","","","","","","","","","","","","","",""
"","S2","","html-keyboard-response","514","651935","0.0-1.0-715.0","0","0","84928","","null","","","null","79","","NaN","","","","","","","","","","","","","",""
"","response","","html-keyboard-response","515","652297","0.0-1.0-716.0","0","0","84928","","361","","","68","79","","","2","79","training","adjacent","FE","6","5","Q.jpg","P.jpg","1","0","0","",""
"","feedback","","html-keyboard-response","516","653300","0.0-1.0-717.0-0.0","0","0","84928","","null","","","null","79","","","","","","","","","","","","","","","",""
"","time_out","","html-keyboard-response","517","655302","0.0-1.0-719.0-0.0","0","0","84928","","null","","","null","79","","","","","","","","","","","","","","","",""
"","ITI","","html-keyboard-response","518","656304","0.0-1.0-720.0","0","0","84928","","null","","","null","79","","","","","","","","","","","","","","","NaN",""
"","S1","","html-keyboard-response","519","656556","0.0-1.0-722.0","0","0","84928","","null","","","null","80","","","","","","","","","","","","","","","",""
"","ISI","","html-keyboard-response","520","658559","0.0-1.0-723.0","0","0","84928","","null","","","null","80","NaN","","","","","","","","","","","","","","",""
"","S2","","html-keyboard-response","521","658812","0.0-1.0-724.0","0","0","84928","","null","","","null","80","","NaN","","","","","","","","","","","","","",""
"","response","","html-keyboard-response","522","659826","0.0-1.0-725.0","0","0","84928","","1013","","","68","80","","","2","80","training","adjacent","DC","4","3","L.jpg","M.jpg","1","0","0","",""
"","feedback","","html-keyboard-response","523","660830","0.0-1.0-726.0-0.0","0","0","84928","","null","","","null","80","","","","","","","","","","","","","","","",""
"","time_out","","html-keyboard-response","524","662832","0.0-1.0-728.0-0.0","0","0","84928","","null","","","null","80","","","","","","","","","","","","","","","",""
"","ITI","","html-keyboard-response","525","663835","0.0-1.0-729.0","0","0","84928","","null","","","null","80","","","","","","","","","","","","","","","NaN",""
"","S1","","html-keyboard-response","526","664087","0.0-1.0-731.0","0","0","84928","","null","","","null","81","","","","","","","","","","","","","","","",""
"","ISI","","html-keyboard-response","527","666090","0.0-1.0-732.0","0","0","84928","","null","","","null","81","NaN","","","","","","","","","","","","","","",""
"","S2","","html-keyboard-response","528","666342","0.0-1.0-733.0","0","0","84928","","null","","","null","81","","NaN","","","","","","","","","","","","","",""
"","response","","html-keyboard-response","529","667067","0.0-1.0-734.0","0","0","84928","","724","","","68","81","","","2","81","training","adjacent","FE","6","5","Q.jpg","P.jpg","1","0","0","",""
"","feedback","","html-keyboard-response","530","668069","0.0-1.0-735.0-0.0","0","0","84928","","null","","","null","81","","","","","","","","","","","","","","","",""
"","time_out","","html-keyboard-response","531","670072","0.0-1.0-737.0-0.0","0","0","84928","","null","","","null","81","","","","","","","","","","","","","","","",""
"","ITI","","html-keyboard-response","532","671075","0.0-1.0-738.0","0","0","84928","","null","","","null","81","","","","","","","","","","","","","","","NaN",""
"","S1","","html-keyboard-response","533","671329","0.0-1.0-740.0","0","0","84928","","null","","","null","82","","","","","","","","","","","","","","","",""
"","ISI","","html-keyboard-response","534","673331","0.0-1.0-741.0","0","0","84928","","null","","","null","82","NaN","","","","","","","","","","","","","","",""
"","S2","","html-keyboard-response","535","673584","0.0-1.0-742.0","0","0","84928","","null","","","null","82","","NaN","","","","","","","","","","","","","",""
"","response","","html-keyboard-response","536","673955","0.0-1.0-743.0","0","0","84928","","369","","","68","82","","","2","82","training","adjacent","FG","6","7","Q.jpg","N.jpg","1","1","1","",""
"","feedback","","html-keyboard-response","537","674959","0.0-1.0-744.0-0.0","0","0","84928","","null","","","null","82","","","","","","","","","","","","","","","",""
"","ITI","","html-keyboard-response","538","675963","0.0-1.0-747.0","0","0","84928","","null","","","null","82","","","","","","","","","","","","","","","NaN",""
"","S1","","html-keyboard-response","539","676216","0.0-1.0-749.0","0","0","84928","","null","","","null","83","","","","","","","","","","","","","","","",""
"","ISI","","html-keyboard-response","540","678219","0.0-1.0-750.0","0","0","84928","","null","","","null","83","NaN","","","","","","","","","","","","","","",""
"","S2","","html-keyboard-response","541","678472","0.0-1.0-751.0","0","0","84928","","null","","","null","83","","NaN","","","","","","","","","","","","","",""
"","response","","html-keyboard-response","542","679263","0.0-1.0-752.0","0","0","84928","","790","","","68","83","","","2","83","training","adjacent","AB","1","2","R.jpg","O.jpg","1","1","1","",""
"","feedback","","html-keyboard-response","543","680266","0.0-1.0-753.0-0.0","0","0","84928","","null","","","null","83","","","","","","","","","","","","","","","",""
"","ITI","","html-keyboard-response","544","681269","0.0-1.0-756.0","0","0","84928","","null","","","null","83","","","","","","","","","","","","","","","NaN",""
"","S1","","html-keyboard-response","545","681522","0.0-1.0-758.0","0","0","84928","","null","","","null","84","","","","","","","","","","","","","","","",""
"","ISI","","html-keyboard-response","546","683524","0.0-1.0-759.0","0","0","84928","","null","","","null","84","NaN","","","","","","","","","","","","","","",""
"","S2","","html-keyboard-response","547","683778","0.0-1.0-760.0","0","0","84928","","null","","","null","84","","NaN","","","","","","","","","","","","","",""
"","response","","html-keyboard-response","548","684227","0.0-1.0-761.0","0","0","84928","","448","","","68","84","","","2","84","training","adjacent","AB","1","2","R.jpg","O.jpg","1","1","1","",""
"","feedback","","html-keyboard-response","549","685230","0.0-1.0-762.0-0.0","0","0","84928","","null","","","null","84","","","","","","","","","","","","","","","",""
"","ITI","","html-keyboard-response","550","686232","0.0-1.0-765.0","0","0","84928","","null","","","null","84","","","","","","","","","","","","","","","NaN",""
"","S1","","html-keyboard-response","551","686486","0.0-1.0-767.0","0","0","84928","","null","","","null","85","","","","","","","","","","","","","","","",""
"","ISI","","html-keyboard-response","552","688489","0.0-1.0-768.0","0","0","84928","","null","","","null","85","NaN","","","","","","","","","","","","","","",""
"","S2","","html-keyboard-response","553","688742","0.0-1.0-769.0","0","0","84928","","null","","","null","85","","NaN","","","","","","","","","","","","","",""
"","response","","html-keyboard-response","554","689451","0.0-1.0-770.0","0","0","84928","","706","","","68","85","","","2","85","training","adjacent","DC","4","3","L.jpg","M.jpg","1","0","0","",""
"","feedback","","html-keyboard-response","555","690454","0.0-1.0-771.0-0.0","0","0","84928","","null","","","null","85","","","","","","","","","","","","","","","",""
"","time_out","","html-keyboard-response","556","692457","0.0-1.0-773.0-0.0","0","0","84928","","null","","","null","85","","","","","","","","","","","","","","","",""
"","ITI","","html-keyboard-response","557","693459","0.0-1.0-774.0","0","0","84928","","null","","","null","85","","","","","","","","","","","","","","","NaN",""
"","S1","","html-keyboard-response","558","693712","0.0-1.0-776.0","0","0","84928","","null","","","null","86","","","","","","","","","","","","","","","",""
"","ISI","","html-keyboard-response","559","695714","0.0-1.0-777.0","0","0","84928","","null","","","null","86","NaN","","","","","","","","","","","","","","",""
"","S2","","html-keyboard-response","560","695966","0.0-1.0-778.0","0","0","84928","","null","","","null","86","","NaN","","","","","","","","","","","","","",""
"","response","","html-keyboard-response","561","696254","0.0-1.0-779.0","0","0","84928","","285","","","68","86","","","2","86","training","adjacent","EF","5","6","P.jpg","Q.jpg","1","1","1","",""
"","feedback","","html-keyboard-response","562","697256","0.0-1.0-780.0-0.0","0","0","84928","","null","","","null","86","","","","","","","","","","","","","","","",""
"","ITI","","html-keyboard-response","563","698259","0.0-1.0-783.0","0","0","84928","","null","","","null","86","","","","","","","","","","","","","","","NaN",""
"","S1","","html-keyboard-response","564","698512","0.0-1.0-785.0","0","0","84928","","null","","","null","87","","","","","","","","","","","","","","","",""
"","ISI","","html-keyboard-response","565","700515","0.0-1.0-786.0","0","0","84928","","null","","","null","87","NaN","","","","","","","","","","","","","","",""
"","S2","","html-keyboard-response","566","700768","0.0-1.0-787.0","0","0","84928","","null","","","null","87","","NaN","","","","","","","","","","","","","",""
"","response","","html-keyboard-response","567","701551","0.0-1.0-788.0","0","0","84928","","782","","","68","87","","","2","87","training","adjacent","AB","1","2","R.jpg","O.jpg","1","1","1","",""
"","feedback","","html-keyboard-response","568","702554","0.0-1.0-789.0-0.0","0","0","84928","","null","","","null","87","","","","","","","","","","","","","","","",""
"","ITI","","html-keyboard-response","569","703556","0.0-1.0-792.0","0","0","84928","","null","","","null","87","","","","","","","","","","","","","","","NaN",""
"","S1","","html-keyboard-response","570","703809","0.0-1.0-794.0","0","0","84928","","null","","","null","88","","","","","","","","","","","","","","","",""
"","ISI","","html-keyboard-response","571","705811","0.0-1.0-795.0","0","0","84928","","null","","","null","88","NaN","","","","","","","","","","","","","","",""
"","S2","","html-keyboard-response","572","706063","0.0-1.0-796.0","0","0","84928","","null","","","null","88","","NaN","","","","","","","","","","","","","",""
"","response","","html-keyboard-response","573","706671","0.0-1.0-797.0","0","0","84928","","605","","","75","88","","","2","88","training","adjacent","CB","3","2","M.jpg","O.jpg","0","0","1","",""
"","feedback","","html-keyboard-response","574","707675","0.0-1.0-798.0-0.0","0","0","84928","","null","","","null","88","","","","","","","","","","","","","","","",""
"","ITI","","html-keyboard-response","575","708677","0.0-1.0-801.0","0","0","84928","","null","","","null","88","","","","","","","","","","","","","","","NaN",""
"","S1","","html-keyboard-response","576","708932","0.0-1.0-803.0","0","0","84928","","null","","","null","89","","","","","","","","","","","","","","","",""
"","ISI","","html-keyboard-response","577","710934","0.0-1.0-804.0","0","0","84928","","null","","","null","89","NaN","","","","","","","","","","","","","","",""
"","S2","","html-keyboard-response","578","711186","0.0-1.0-805.0","0","0","84928","","null","","","null","89","","NaN","","","","","","","","","","","","","",""
"","response","","html-keyboard-response","579","711938","0.0-1.0-806.0","0","0","84928","","750","","","75","89","","","2","89","training","adjacent","DE","4","5","L.jpg","P.jpg","0","1","0","",""
"","feedback","","html-keyboard-response","580","712939","0.0-1.0-807.0-0.0","0","0","84928","","null","","","null","89","","","","","","","","","","","","","","","",""
"","time_out","","html-keyboard-response","581","714948","0.0-1.0-809.0-0.0","0","0","84928","","null","","","null","89","","","","","","","","","","","","","","","",""
"","ITI","","html-keyboard-response","582","715951","0.0-1.0-810.0","0","0","84928","","null","","","null","89","","","","","","","","","","","","","","","NaN",""
"","S1","","html-keyboard-response","583","716204","0.0-1.0-812.0","0","0","84928","","null","","","null","90","","","","","","","","","","","","","","","",""
"","ISI","","html-keyboard-response","584","718206","0.0-1.0-813.0","0","0","84928","","null","","","null","90","NaN","","","","","","","","","","","","","","",""
