"success","ttype","start_time","trial_type","trial_index","time_elapsed","internal_node_id","warning","missed_checkup","PID","view_history","rt","responses","repeat_instructions","key_press","index","keypress_isi","keypress_S2","block","trial_num","phase","group_type","pair_type","S1_stim","S2_stim","S1_img","S2_img","S1_chosen","S1_higher","accuracy","keypress_iti","total_bonus_tally"
"true","full_screen","d08012022hr1631","fullscreen","0","23669","0.0-0.0","0","0","11423","","","","","","","","","","","","","","","","","","","","","",""
"","instructions","","instructions","1","99643","0.0-1.0-0.0-0.0","0","0","11423","[{""page_index"":0,""viewing_time"":9130},{""page_index"":1,""viewing_time"":51763},{""page_index"":2,""viewing_time"":10165},{""page_index"":3,""viewing_time"":4913}]","75971","","","","","","","","","","","","","","","","","","","",""
"","comprehension_check","","survey-multi-choice","2","125663","0.0-1.0-0.0-1.0","0","0","11423","","26016","{""Q0"":""True"",""Q1"":""D"",""Q2"":""While the images are shown"",""Q3"":""Green mark"",""Q4"":""either D or K""}","1","","","","","","","","","","","","","","","","","",""
"","missed_instruction_checkup","","html-keyboard-response","3","128810","0.0-1.0-0.0-2.0-0.0","0","1","11423","","3139","","","32","","","","","","","","","","","","","","","","",""
"","instructions","","instructions","4","149738","0.0-1.0-0.1-0.1","0","0","11423","[{""page_index"":0,""viewing_time"":3576},{""page_index"":1,""viewing_time"":12509},{""page_index"":2,""viewing_time"":4039},{""page_index"":3,""viewing_time"":802}]","20926","","","","","","","","","","","","","","","","","","","",""
"","comprehension_check","","survey-multi-choice","5","164363","0.0-1.0-0.1-1.1","0","0","11423","","14621","{""Q0"":""True"",""Q1"":""D"",""Q2"":""When you see the prompt 'MAKE A CHOICE' after the second image was presented"",""Q3"":""Green mark"",""Q4"":""either D or K""}","1","","","","","","","","","","","","","","","","","",""
"","missed_instruction_checkup","","html-keyboard-response","6","168209","0.0-1.0-0.1-2.1-0.1","0","1","11423","","3839","","","32","","","","","","","","","","","","","","","","",""
"","instructions","","instructions","7","170811","0.0-1.0-0.2-0.2","0","0","11423","[{""page_index"":0,""viewing_time"":1032},{""page_index"":1,""viewing_time"":411},{""page_index"":2,""viewing_time"":494},{""page_index"":3,""viewing_time"":663}]","2601","","","","","","","","","","","","","","","","","","","",""
"","comprehension_check","","survey-multi-choice","8","186448","0.0-1.0-0.2-1.2","0","0","11423","","15632","{""Q0"":""False"",""Q1"":""D"",""Q2"":""When you see the prompt 'MAKE A CHOICE' after the second image was presented"",""Q3"":""Green mark"",""Q4"":""either D or K""}","1","","","","","","","","","","","","","","","","","",""
"","missed_instruction_checkup","","html-keyboard-response","9","189049","0.0-1.0-0.2-2.2-0.2","0","1","11423","","2594","","","32","","","","","","","","","","","","","","","","",""
"","instructions","","instructions","10","200880","0.0-1.0-0.3-0.3","0","0","11423","[{""page_index"":0,""viewing_time"":4115},{""page_index"":1,""viewing_time"":2847},{""page_index"":2,""viewing_time"":3987},{""page_index"":3,""viewing_time"":881}]","11830","","","","","","","","","","","","","","","","","","","",""
"","comprehension_check","","survey-multi-choice","11","215598","0.0-1.0-0.3-1.3","0","0","11423","","14715","{""Q0"":""False"",""Q1"":""D"",""Q2"":""When you see the prompt 'MAKE A CHOICE' after the second image was presented"",""Q3"":""Green mark"",""Q4"":""either D or K""}","1","","","","","","","","","","","","","","","","","",""
"","missed_instruction_checkup","","html-keyboard-response","12","217784","0.0-1.0-0.3-2.3-0.3","0","1","11423","","2180","","","32","","","","","","","","","","","","","","","","",""
"","instructions","","instructions","13","250697","0.0-1.0-0.4-0.4","0","0","11423","[{""page_index"":0,""viewing_time"":4184},{""page_index"":1,""viewing_time"":18313},{""page_index"":2,""viewing_time"":9429},{""page_index"":3,""viewing_time"":985}]","32912","","","","","","","","","","","","","","","","","","","",""
"","comprehension_check","","survey-multi-choice","14","269691","0.0-1.0-0.4-1.4","0","0","11423","","18989","{""Q0"":""True"",""Q1"":""D"",""Q2"":""When you see the prompt 'MAKE A CHOICE' after the second image was presented"",""Q3"":""Green mark"",""Q4"":""either D or K""}","1","","","","","","","","","","","","","","","","","",""
"","missed_instruction_checkup","","html-keyboard-response","15","271872","0.0-1.0-0.4-2.4-0.4","0","1","11423","","2174","","","32","","","","","","","","","","","","","","","","",""
"","instructions","","instructions","16","282668","0.0-1.0-0.5-0.5","0","0","11423","[{""page_index"":0,""viewing_time"":1770},{""page_index"":1,""viewing_time"":7178},{""page_index"":2,""viewing_time"":614},{""page_index"":3,""viewing_time"":1233}]","10796","","","","","","","","","","","","","","","","","","","",""
"","comprehension_check","","survey-multi-choice","17","292570","0.0-1.0-0.5-1.5","0","0","11423","","9898","{""Q0"":""True"",""Q1"":""K"",""Q2"":""When you see the prompt 'MAKE A CHOICE' after the second image was presented"",""Q3"":""Green mark"",""Q4"":""either D or K""}","0","","","","","","","","","","","","","","","","","",""
"","start_exp","","html-keyboard-response","18","294504","0.0-1.0-1.0","0","0","11423","","1928","","","32","","","","","","","","","","","","","","","","",""
"","S1","","html-keyboard-response","19","294758","0.0-1.0-2.0","0","0","11423","","null","","","null","0","","","","","","","","","","","","","","","",""
"","ISI","","html-keyboard-response","20","296761","0.0-1.0-3.0","0","0","11423","","null","","","null","0","NaN","","","","","","","","","","","","","","",""
"","S2","","html-keyboard-response","21","297028","0.0-1.0-4.0","0","0","11423","","null","","","null","0","","NaN","","","","","","","","","","","","","",""
"","response","","html-keyboard-response","22","297848","0.0-1.0-5.0","0","0","11423","","816","","","75","0","","","1","0","training","adjacent","BA","2","1","N.jpg","Q.jpg","1","0","0","",""
"","feedback","","html-keyboard-response","23","298851","0.0-1.0-6.0-0.0","0","0","11423","","null","","","null","0","","","","","","","","","","","","","","","",""
"","time_out","","html-keyboard-response","24","300854","0.0-1.0-8.0-0.0","0","0","11423","","null","","","null","0","","","","","","","","","","","","","","","",""
"","ITI","","html-keyboard-response","25","301857","0.0-1.0-9.0","0","0","11423","","null","","","null","0","","","","","","","","","","","","","","","NaN",""
"","S1","","html-keyboard-response","26","302110","0.0-1.0-11.0","0","0","11423","","null","","","null","1","","","","","","","","","","","","","","","",""
"","ISI","","html-keyboard-response","27","304113","0.0-1.0-12.0","0","0","11423","","null","","","null","1","NaN","","","","","","","","","","","","","","",""
"","S2","","html-keyboard-response","28","304366","0.0-1.0-13.0","0","0","11423","","null","","","null","1","","NaN","","","","","","","","","","","","","",""
"","response","","html-keyboard-response","29","304976","0.0-1.0-14.0","0","0","11423","","607","","","68","1","","","1","1","training","adjacent","CB","3","2","R.jpg","N.jpg","0","0","1","",""
"","feedback","","html-keyboard-response","30","305979","0.0-1.0-15.0-0.0","0","0","11423","","null","","","null","1","","","","","","","","","","","","","","","",""
"","ITI","","html-keyboard-response","31","306982","0.0-1.0-18.0","0","0","11423","","null","","","null","1","","","","","","","","","","","","","","","NaN",""
"","S1","","html-keyboard-response","32","307236","0.0-1.0-20.0","0","0","11423","","null","","","null","2","","","","","","","","","","","","","","","",""
"","ISI","","html-keyboard-response","33","309239","0.0-1.0-21.0","0","0","11423","","null","","","null","2","NaN","","","","","","","","","","","","","","",""
"","S2","","html-keyboard-response","34","309493","0.0-1.0-22.0","0","0","11423","","null","","","null","2","","NaN","","","","","","","","","","","","","",""
"","response","","html-keyboard-response","35","310447","0.0-1.0-23.0","0","0","11423","","952","","","68","2","","","1","2","training","adjacent","AB","1","2","Q.jpg","N.jpg","0","1","0","",""
"","feedback","","html-keyboard-response","36","311450","0.0-1.0-24.0-0.0","0","0","11423","","null","","","null","2","","","","","","","","","","","","","","","",""
"","time_out","","html-keyboard-response","37","313452","0.0-1.0-26.0-0.0","0","0","11423","","null","","","null","2","","","","","","","","","","","","","","","",""
"","ITI","","html-keyboard-response","38","314454","0.0-1.0-27.0","0","0","11423","","null","","","null","2","","","","","","","","","","","","","","","NaN",""
"","S1","","html-keyboard-response","39","314706","0.0-1.0-29.0","0","0","11423","","null","","","null","3","","","","","","","","","","","","","","","",""
"","ISI","","html-keyboard-response","40","316712","0.0-1.0-30.0","0","0","11423","","null","","","null","3","NaN","","","","","","","","","","","","","","",""
"","S2","","html-keyboard-response","41","316964","0.0-1.0-31.0","0","0","11423","","null","","","null","3","","NaN","","","","","","","","","","","","","",""
"","response","","html-keyboard-response","42","317855","0.0-1.0-32.0","0","0","11423","","889","","","75","3","","","1","3","training","adjacent","DC","4","3","M.jpg","R.jpg","1","0","0","",""
"","feedback","","html-keyboard-response","43","318859","0.0-1.0-33.0-0.0","0","0","11423","","null","","","null","3","","","","","","","","","","","","","","","",""
"","time_out","","html-keyboard-response","44","320862","0.0-1.0-35.0-0.0","0","0","11423","","null","","","null","3","","","","","","","","","","","","","","","",""
"","ITI","","html-keyboard-response","45","321865","0.0-1.0-36.0","0","0","11423","","null","","","null","3","","","","","","","","","","","","","","","NaN",""
"","S1","","html-keyboard-response","46","322117","0.0-1.0-38.0","0","0","11423","","null","","","null","4","","","","","","","","","","","","","","","",""
"","ISI","","html-keyboard-response","47","324120","0.0-1.0-39.0","0","0","11423","","null","","","null","4","NaN","","","","","","","","","","","","","","",""
"","S2","","html-keyboard-response","48","324374","0.0-1.0-40.0","0","0","11423","","null","","","null","4","","NaN","","","","","","","","","","","","","",""
"","response","","html-keyboard-response","49","324815","0.0-1.0-41.0","0","0","11423","","439","","","68","4","","","1","4","training","adjacent","ED","5","4","P.jpg","M.jpg","0","0","1","",""
"","feedback","","html-keyboard-response","50","325820","0.0-1.0-42.0-0.0","0","0","11423","","null","","","null","4","","","","","","","","","","","","","","","",""
"","ITI","","html-keyboard-response","51","326824","0.0-1.0-45.0","0","0","11423","","null","","","null","4","","","","","","","","","","","","","","","NaN",""
"","S1","","html-keyboard-response","52","327076","0.0-1.0-47.0","0","0","11423","","null","","","null","5","","","","","","","","","","","","","","","",""
"","ISI","","html-keyboard-response","53","329079","0.0-1.0-48.0","0","0","11423","","null","","","null","5","NaN","","","","","","","","","","","","","","",""
"","S2","","html-keyboard-response","54","329331","0.0-1.0-49.0","0","0","11423","","null","","","null","5","","NaN","","","","","","","","","","","","","",""
"","response","","html-keyboard-response","55","329759","0.0-1.0-50.0","0","0","11423","","426","","","68","5","","","1","5","training","adjacent","GF","7","6","O.jpg","L.jpg","0","0","1","",""
"","feedback","","html-keyboard-response","56","330761","0.0-1.0-51.0-0.0","0","0","11423","","null","","","null","5","","","","","","","","","","","","","","","",""
"","ITI","","html-keyboard-response","57","331765","0.0-1.0-54.0","0","0","11423","","null","","","null","5","","","","","","","","","","","","","","","NaN",""
"","S1","","html-keyboard-response","58","332019","0.0-1.0-56.0","0","0","11423","","null","","","null","6","","","","","","","","","","","","","","","",""
"","ISI","","html-keyboard-response","59","334021","0.0-1.0-57.0","0","0","11423","","null","","","null","6","NaN","","","","","","","","","","","","","","",""
"","S2","","html-keyboard-response","60","334279","0.0-1.0-58.0","0","0","11423","","null","","","null","6","","NaN","","","","","","","","","","","","","",""
"","response","","html-keyboard-response","61","335143","0.0-1.0-59.0","0","0","11423","","861","","","68","6","","","1","6","training","adjacent","AB","1","2","Q.jpg","N.jpg","0","1","0","",""
"","feedback","","html-keyboard-response","62","336145","0.0-1.0-60.0-0.0","0","0","11423","","null","","","null","6","","","","","","","","","","","","","","","",""
"","time_out","","html-keyboard-response","63","338148","0.0-1.0-62.0-0.0","0","0","11423","","null","","","null","6","","","","","","","","","","","","","","","",""
"","ITI","","html-keyboard-response","64","339150","0.0-1.0-63.0","0","0","11423","","null","","","null","6","","","","","","","","","","","","","","","NaN",""
"","S1","","html-keyboard-response","65","339402","0.0-1.0-65.0","0","0","11423","","null","","","null","7","","","","","","","","","","","","","","","",""
"","ISI","","html-keyboard-response","66","341405","0.0-1.0-66.0","0","0","11423","","null","","","null","7","NaN","","","","","","","","","","","","","","",""
"","S2","","html-keyboard-response","67","341659","0.0-1.0-67.0","0","0","11423","","null","","","null","7","","NaN","","","","","","","","","","","","","",""
"","response","","html-keyboard-response","68","342535","0.0-1.0-68.0","0","0","11423","","874","","","75","7","","","1","7","training","adjacent","CD","3","4","R.jpg","M.jpg","1","1","1","",""
"","feedback","","html-keyboard-response","69","343539","0.0-1.0-69.0-0.0","0","0","11423","","null","","","null","7","","","","","","","","","","","","","","","",""
"","ITI","","html-keyboard-response","70","344542","0.0-1.0-72.0","0","0","11423","","null","","","null","7","","","","","","","","","","","","","","","NaN",""
"","S1","","html-keyboard-response","71","344795","0.0-1.0-74.0","0","0","11423","","null","","","null","8","","","","","","","","","","","","","","","",""
"","ISI","","html-keyboard-response","72","346798","0.0-1.0-75.0","0","0","11423","","null","","","null","8","NaN","","","","","","","","","","","","","","",""
"","S2","","html-keyboard-response","73","347051","0.0-1.0-76.0","0","0","11423","","null","","","null","8","","NaN","","","","","","","","","","","","","",""
"","response","","html-keyboard-response","74","347840","0.0-1.0-77.0","0","0","11423","","786","","","68","8","","","1","8","training","adjacent","CD","3","4","R.jpg","M.jpg","0","1","0","",""
"","feedback","","html-keyboard-response","75","348843","0.0-1.0-78.0-0.0","0","0","11423","","null","","","null","8","","","","","","","","","","","","","","","",""
"","time_out","","html-keyboard-response","76","350845","0.0-1.0-80.0-0.0","0","0","11423","","null","","","null","8","","","","","","","","","","","","","","","",""
"","ITI","","html-keyboard-response","77","351849","0.0-1.0-81.0","0","0","11423","","null","","","null","8","","","","","","","","","","","","","","","NaN",""
"","S1","","html-keyboard-response","78","352102","0.0-1.0-83.0","0","0","11423","","null","","","null","9","","","","","","","","","","","","","","","",""
"","ISI","","html-keyboard-response","79","354104","0.0-1.0-84.0","0","0","11423","","null","","","null","9","NaN","","","","","","","","","","","","","","",""
"","S2","","html-keyboard-response","80","354358","0.0-1.0-85.0","0","0","11423","","null","","","null","9","","NaN","","","","","","","","","","","","","",""
"","response","","html-keyboard-response","81","354847","0.0-1.0-86.0","0","0","11423","","486","","","75","9","","","1","9","training","adjacent","FE","6","5","L.jpg","P.jpg","1","0","0","",""
"","feedback","","html-keyboard-response","82","355850","0.0-1.0-87.0-0.0","0","0","11423","","null","","","null","9","","","","","","","","","","","","","","","",""
"","time_out","","html-keyboard-response","83","357853","0.0-1.0-89.0-0.0","0","0","11423","","null","","","null","9","","","","","","","","","","","","","","","",""
"","ITI","","html-keyboard-response","84","358855","0.0-1.0-90.0","0","0","11423","","null","","","null","9","","","","","","","","","","","","","","","NaN",""
"","S1","","html-keyboard-response","85","359108","0.0-1.0-92.0","0","0","11423","","null","","","null","10","","","","","","","","","","","","","","","",""
"","ISI","","html-keyboard-response","86","361111","0.0-1.0-93.0","0","0","11423","","null","","","null","10","NaN","","","","","","","","","","","","","","",""
"","S2","","html-keyboard-response","87","361365","0.0-1.0-94.0","0","0","11423","","null","","","null","10","","NaN","","","","","","","","","","","","","",""
"","response","","html-keyboard-response","88","363071","0.0-1.0-95.0","0","0","11423","","1704","","","68","10","","","1","10","training","adjacent","FG","6","7","L.jpg","O.jpg","0","1","0","",""
"","feedback","","html-keyboard-response","89","364074","0.0-1.0-96.0-0.0","0","0","11423","","null","","","null","10","","","","","","","","","","","","","","","",""
"","time_out","","html-keyboard-response","90","366076","0.0-1.0-98.0-0.0","0","0","11423","","null","","","null","10","","","","","","","","","","","","","","","",""
"","ITI","","html-keyboard-response","91","367079","0.0-1.0-99.0","0","0","11423","","null","","","null","10","","","","","","","","","","","","","","","NaN",""
"","S1","","html-keyboard-response","92","367331","0.0-1.0-101.0","0","0","11423","","null","","","null","11","","","","","","","","","","","","","","","",""
"","ISI","","html-keyboard-response","93","369334","0.0-1.0-102.0","0","0","11423","","null","","","null","11","NaN","","","","","","","","","","","","","","",""
"","S2","","html-keyboard-response","94","369588","0.0-1.0-103.0","0","0","11423","","null","","","null","11","","NaN","","","","","","","","","","","","","",""
"","response","","html-keyboard-response","95","369727","0.0-1.0-104.0","0","0","11423","","136","","","75","11","","","1","11","training","adjacent","CB","3","2","R.jpg","N.jpg","1","0","0","",""
"","feedback","","html-keyboard-response","96","370730","0.0-1.0-105.0-0.0","0","0","11423","","null","","","null","11","","","","","","","","","","","","","","","",""
"","time_out","","html-keyboard-response","97","372732","0.0-1.0-107.0-0.0","0","0","11423","","null","","","null","11","","","","","","","","","","","","","","","",""
"","ITI","","html-keyboard-response","98","373735","0.0-1.0-108.0","0","0","11423","","null","","","null","11","","","","","","","","","","","","","","","NaN",""
"","S1","","html-keyboard-response","99","373988","0.0-1.0-110.0","0","0","11423","","null","","","null","12","","","","","","","","","","","","","","","",""
"","ISI","","html-keyboard-response","100","375991","0.0-1.0-111.0","0","0","11423","","null","","","null","12","NaN","","","","","","","","","","","","","","",""
"","S2","","html-keyboard-response","101","376245","0.0-1.0-112.0","0","0","11423","","null","","","null","12","","NaN","","","","","","","","","","","","","",""
"","response","","html-keyboard-response","102","376607","0.0-1.0-113.0","0","0","11423","","360","","","75","12","","","1","12","training","adjacent","CD","3","4","R.jpg","M.jpg","1","1","1","",""
"","feedback","","html-keyboard-response","103","377612","0.0-1.0-114.0-0.0","0","0","11423","","null","","","null","12","","","","","","","","","","","","","","","",""
"","ITI","","html-keyboard-response","104","378615","0.0-1.0-117.0","0","0","11423","","null","","","null","12","","","","","","","","","","","","","","","NaN",""
"","S1","","html-keyboard-response","105","378868","0.0-1.0-119.0","0","0","11423","","null","","","null","13","","","","","","","","","","","","","","","",""
"","ISI","","html-keyboard-response","106","380870","0.0-1.0-120.0","0","0","11423","","null","","","null","13","NaN","","","","","","","","","","","","","","",""
"","S2","","html-keyboard-response","107","381123","0.0-1.0-121.0","0","0","11423","","null","","","null","13","","NaN","","","","","","","","","","","","","",""
"","response","","html-keyboard-response","108","381800","0.0-1.0-122.0","0","0","11423","","674","","","75","13","","","1","13","training","adjacent","EF","5","6","P.jpg","L.jpg","1","1","1","",""
"","feedback","","html-keyboard-response","109","382802","0.0-1.0-123.0-0.0","0","0","11423","","null","","","null","13","","","","","","","","","","","","","","","",""
"","ITI","","html-keyboard-response","110","383805","0.0-1.0-126.0","0","0","11423","","null","","","null","13","","","","","","","","","","","","","","","NaN",""
"","S1","","html-keyboard-response","111","384059","0.0-1.0-128.0","0","0","11423","","null","","","null","14","","","","","","","","","","","","","","","",""
"","ISI","","html-keyboard-response","112","386061","0.0-1.0-129.0","0","0","11423","","null","","","null","14","NaN","","","","","","","","","","","","","","",""
"","S2","","html-keyboard-response","113","386315","0.0-1.0-130.0","0","0","11423","","null","","","null","14","","NaN","","","","","","","","","","","","","",""
"","response","","html-keyboard-response","114","386863","0.0-1.0-131.0","0","0","11423","","546","","","75","14","","","1","14","training","adjacent","DE","4","5","M.jpg","P.jpg","1","1","1","",""
"","feedback","","html-keyboard-response","115","387866","0.0-1.0-132.0-0.0","0","0","11423","","null","","","null","14","","","","","","","","","","","","","","","",""
"","ITI","","html-keyboard-response","116","388868","0.0-1.0-135.0","0","0","11423","","null","","","null","14","","","","","","","","","","","","","","","NaN",""
"","S1","","html-keyboard-response","117","389121","0.0-1.0-137.0","0","0","11423","","null","","","null","15","","","","","","","","","","","","","","","",""
"","ISI","","html-keyboard-response","118","391123","0.0-1.0-138.0","0","0","11423","","null","","","null","15","NaN","","","","","","","","","","","","","","",""
"","S2","","html-keyboard-response","119","391376","0.0-1.0-139.0","0","0","11423","","null","","","null","15","","NaN","","","","","","","","","","","","","",""
"","response","","html-keyboard-response","120","393379","0.0-1.0-140.0","0","0","11423","","null","","","null","15","","","1","15","training","adjacent","FE","6","5","L.jpg","P.jpg","NaN","0","0","",""
"","too_slow_prompt","","html-keyboard-response","121","394382","0.0-1.0-142.0-0.0","1","0","11423","","null","","","null","","","","","","","","","","","","","","","","",""
"","time_out","","html-keyboard-response","122","396384","0.0-1.0-143.0-0.0","0","0","11423","","null","","","null","15","","","","","","","","","","","","","","","",""
"","ITI","","html-keyboard-response","123","397387","0.0-1.0-144.0","0","0","11423","","null","","","null","15","","","","","","","","","","","","","","","NaN",""
"","S1","","html-keyboard-response","124","397640","0.0-1.0-146.0","0","0","11423","","null","","","null","16","","","","","","","","","","","","","","","",""
"","ISI","","html-keyboard-response","125","399642","0.0-1.0-147.0","0","0","11423","","null","","","null","16","NaN","","","","","","","","","","","","","","",""
"","S2","","html-keyboard-response","126","399895","0.0-1.0-148.0","0","0","11423","","null","","","null","16","","NaN","","","","","","","","","","","","","",""
"","response","","html-keyboard-response","127","400991","0.0-1.0-149.0","0","0","11423","","1094","","","75","16","","","1","16","training","adjacent","ED","5","4","P.jpg","M.jpg","1","0","0","",""
"","feedback","","html-keyboard-response","128","401994","0.0-1.0-150.0-0.0","0","0","11423","","null","","","null","16","","","","","","","","","","","","","","","",""
"","time_out","","html-keyboard-response","129","403996","0.0-1.0-152.0-0.0","0","0","11423","","null","","","null","16","","","","","","","","","","","","","","","",""
"","ITI","","html-keyboard-response","130","404998","0.0-1.0-153.0","0","0","11423","","null","","","null","16","","","","","","","","","","","","","","","NaN",""
"","S1","","html-keyboard-response","131","405252","0.0-1.0-155.0","0","0","11423","","null","","","null","17","","","","","","","","","","","","","","","",""
"","ISI","","html-keyboard-response","132","407254","0.0-1.0-156.0","0","0","11423","","null","","","null","17","NaN","","","","","","","","","","","","","","",""
"","S2","","html-keyboard-response","133","407508","0.0-1.0-157.0","0","0","11423","","null","","","null","17","","NaN","","","","","","","","","","","","","",""
"","response","","html-keyboard-response","134","407967","0.0-1.0-158.0","0","0","11423","","457","","","75","17","","","1","17","training","adjacent","EF","5","6","P.jpg","L.jpg","1","1","1","",""
"","feedback","","html-keyboard-response","135","408971","0.0-1.0-159.0-0.0","0","0","11423","","null","","","null","17","","","","","","","","","","","","","","","",""
"","ITI","","html-keyboard-response","136","409974","0.0-1.0-162.0","0","0","11423","","null","","","null","17","","","","","","","","","","","","","","","NaN",""
"","S1","","html-keyboard-response","137","410227","0.0-1.0-164.0","0","0","11423","","null","","","null","18","","","","","","","","","","","","","","","",""
"","ISI","","html-keyboard-response","138","412245","0.0-1.0-165.0","0","0","11423","","null","","","null","18","NaN","","","","","","","","","","","","","","",""
"","S2","","html-keyboard-response","139","412497","0.0-1.0-166.0","0","0","11423","","null","","","null","18","","NaN","","","","","","","","","","","","","",""
"","response","","html-keyboard-response","140","413007","0.0-1.0-167.0","0","0","11423","","507","","","68","18","","","1","18","training","adjacent","AB","1","2","Q.jpg","N.jpg","0","1","0","",""
"","feedback","","html-keyboard-response","141","414010","0.0-1.0-168.0-0.0","0","0","11423","","null","","","null","18","","","","","","","","","","","","","","","",""
"","time_out","","html-keyboard-response","142","416012","0.0-1.0-170.0-0.0","0","0","11423","","null","","","null","18","","","","","","","","","","","","","","","",""
"","ITI","","html-keyboard-response","143","417014","0.0-1.0-171.0","0","0","11423","","null","","","null","18","","","","","","","","","","","","","","","NaN",""
"","S1","","html-keyboard-response","144","417269","0.0-1.0-173.0","0","0","11423","","null","","","null","19","","","","","","","","","","","","","","","",""
"","ISI","","html-keyboard-response","145","419271","0.0-1.0-174.0","0","0","11423","","null","","","null","19","NaN","","","","","","","","","","","","","","",""
"","S2","","html-keyboard-response","146","419524","0.0-1.0-175.0","0","0","11423","","null","","","null","19","","NaN","","","","","","","","","","","","","",""
"","response","","html-keyboard-response","147","419846","0.0-1.0-176.0","0","0","11423","","319","","","68","19","","","1","19","training","adjacent","FG","6","7","L.jpg","O.jpg","0","1","0","",""
"","feedback","","html-keyboard-response","148","420848","0.0-1.0-177.0-0.0","0","0","11423","","null","","","null","19","","","","","","","","","","","","","","","",""
"","time_out","","html-keyboard-response","149","422851","0.0-1.0-179.0-0.0","0","0","11423","","null","","","null","19","","","","","","","","","","","","","","","",""
"","ITI","","html-keyboard-response","150","423854","0.0-1.0-180.0","0","0","11423","","null","","","null","19","","","","","","","","","","","","","","","NaN",""
"","S1","","html-keyboard-response","151","424107","0.0-1.0-182.0","0","0","11423","","null","","","null","20","","","","","","","","","","","","","","","",""
"","ISI","","html-keyboard-response","152","426110","0.0-1.0-183.0","0","0","11423","","null","","","null","20","NaN","","","","","","","","","","","","","","",""
"","S2","","html-keyboard-response","153","426363","0.0-1.0-184.0","0","0","11423","","null","","","null","20","","NaN","","","","","","","","","","","","","",""
"","response","","html-keyboard-response","154","426751","0.0-1.0-185.0","0","0","11423","","385","","","75","20","","","1","20","training","adjacent","DE","4","5","M.jpg","P.jpg","1","1","1","",""
"","feedback","","html-keyboard-response","155","427754","0.0-1.0-186.0-0.0","0","0","11423","","null","","","null","20","","","","","","","","","","","","","","","",""
"","ITI","","html-keyboard-response","156","428756","0.0-1.0-189.0","0","0","11423","","null","","","null","20","","","","","","","","","","","","","","","NaN",""
"","S1","","html-keyboard-response","157","429010","0.0-1.0-191.0","0","0","11423","","null","","","null","21","","","","","","","","","","","","","","","",""
"","ISI","","html-keyboard-response","158","431013","0.0-1.0-192.0","0","0","11423","","null","","","null","21","NaN","","","","","","","","","","","","","","",""
"","S2","","html-keyboard-response","159","431265","0.0-1.0-193.0","0","0","11423","","null","","","null","21","","NaN","","","","","","","","","","","","","",""
"","response","","html-keyboard-response","160","432671","0.0-1.0-194.0","0","0","11423","","1403","","","75","21","","","1","21","training","adjacent","GF","7","6","O.jpg","L.jpg","1","0","0","",""
"","feedback","","html-keyboard-response","161","433674","0.0-1.0-195.0-0.0","0","0","11423","","null","","","null","21","","","","","","","","","","","","","","","",""
"","time_out","","html-keyboard-response","162","435676","0.0-1.0-197.0-0.0","0","0","11423","","null","","","null","21","","","","","","","","","","","","","","","",""
"","ITI","","html-keyboard-response","163","436679","0.0-1.0-198.0","0","0","11423","","null","","","null","21","","","","","","","","","","","","","","","NaN",""
"","S1","","html-keyboard-response","164","436932","0.0-1.0-200.0","0","0","11423","","null","","","null","22","","","","","","","","","","","","","","","",""
"","ISI","","html-keyboard-response","165","438935","0.0-1.0-201.0","0","0","11423","","null","","","null","22","NaN","","","","","","","","","","","","","","",""
"","S2","","html-keyboard-response","166","439188","0.0-1.0-202.0","0","0","11423","","null","","","null","22","","NaN","","","","","","","","","","","","","",""
"","response","","html-keyboard-response","167","439847","0.0-1.0-203.0","0","0","11423","","657","","","68","22","","","1","22","training","adjacent","DC","4","3","M.jpg","R.jpg","0","0","1","",""
"","feedback","","html-keyboard-response","168","440850","0.0-1.0-204.0-0.0","0","0","11423","","null","","","null","22","","","","","","","","","","","","","","","",""
"","ITI","","html-keyboard-response","169","441852","0.0-1.0-207.0","0","0","11423","","null","","","null","22","","","","","","","","","","","","","","","NaN",""
"","S1","","html-keyboard-response","170","442105","0.0-1.0-209.0","0","0","11423","","null","","","null","23","","","","","","","","","","","","","","","",""
"","ISI","","html-keyboard-response","171","444107","0.0-1.0-210.0","0","0","11423","","null","","","null","23","NaN","","","","","","","","","","","","","","",""
"","S2","","html-keyboard-response","172","444360","0.0-1.0-211.0","0","0","11423","","null","","","null","23","","NaN","","","","","","","","","","","","","",""
"","response","","html-keyboard-response","173","445775","0.0-1.0-212.0","0","0","11423","","1414","","","68","23","","","1","23","training","adjacent","DE","4","5","M.jpg","P.jpg","0","1","0","",""
"","feedback","","html-keyboard-response","174","446777","0.0-1.0-213.0-0.0","0","0","11423","","null","","","null","23","","","","","","","","","","","","","","","",""
"","time_out","","html-keyboard-response","175","448780","0.0-1.0-215.0-0.0","0","0","11423","","null","","","null","23","","","","","","","","","","","","","","","",""
"","ITI","","html-keyboard-response","176","449783","0.0-1.0-216.0","0","0","11423","","null","","","null","23","","","","","","","","","","","","","","","NaN",""
"","S1","","html-keyboard-response","177","450037","0.0-1.0-218.0","0","0","11423","","null","","","null","24","","","","","","","","","","","","","","","",""
"","ISI","","html-keyboard-response","178","452040","0.0-1.0-219.0","0","0","11423","","null","","","null","24","NaN","","","","","","","","","","","","","","",""
"","S2","","html-keyboard-response","179","452305","0.0-1.0-220.0","0","0","11423","","null","","","null","24","","NaN","","","","","","","","","","","","","",""
"","response","","html-keyboard-response","180","453295","0.0-1.0-221.0","0","0","11423","","988","","","75","24","","","1","24","training","adjacent","BA","2","1","N.jpg","Q.jpg","1","0","0","",""
"","feedback","","html-keyboard-response","181","454298","0.0-1.0-222.0-0.0","0","0","11423","","null","","","null","24","","","","","","","","","","","","","","","",""
"","time_out","","html-keyboard-response","182","456301","0.0-1.0-224.0-0.0","0","0","11423","","null","","","null","24","","","","","","","","","","","","","","","",""
"","ITI","","html-keyboard-response","183","457304","0.0-1.0-225.0","0","0","11423","","null","","","null","24","","","","","","","","","","","","","","","NaN",""
"","S1","","html-keyboard-response","184","457559","0.0-1.0-227.0","0","0","11423","","null","","","null","25","","","","","","","","","","","","","","","",""
"","ISI","","html-keyboard-response","185","459562","0.0-1.0-228.0","0","0","11423","","null","","","null","25","NaN","","","","","","","","","","","","","","",""
"","S2","","html-keyboard-response","186","459815","0.0-1.0-229.0","0","0","11423","","null","","","null","25","","NaN","","","","","","","","","","","","","",""
"","response","","html-keyboard-response","187","460703","0.0-1.0-230.0","0","0","11423","","886","","","75","25","","","1","25","training","adjacent","CB","3","2","R.jpg","N.jpg","1","0","0","",""
"","feedback","","html-keyboard-response","188","461706","0.0-1.0-231.0-0.0","0","0","11423","","null","","","null","25","","","","","","","","","","","","","","","",""
"","time_out","","html-keyboard-response","189","463712","0.0-1.0-233.0-0.0","0","0","11423","","null","","","null","25","","","","","","","","","","","","","","","",""
"","ITI","","html-keyboard-response","190","464714","0.0-1.0-234.0","0","0","11423","","null","","","null","25","","","","","","","","","","","","","","","NaN",""
"","S1","","html-keyboard-response","191","464966","0.0-1.0-236.0","0","0","11423","","null","","","null","26","","","","","","","","","","","","","","","",""
"","ISI","","html-keyboard-response","192","466968","0.0-1.0-237.0","0","0","11423","","null","","","null","26","NaN","","","","","","","","","","","","","","",""
"","S2","","html-keyboard-response","193","467221","0.0-1.0-238.0","0","0","11423","","null","","","null","26","","NaN","","","","","","","","","","","","","",""
"","response","","html-keyboard-response","194","468079","0.0-1.0-239.0","0","0","11423","","855","","","68","26","","","1","26","training","adjacent","BC","2","3","N.jpg","R.jpg","0","1","0","",""
"","feedback","","html-keyboard-response","195","469082","0.0-1.0-240.0-0.0","0","0","11423","","null","","","null","26","","","","","","","","","","","","","","","",""
"","time_out","","html-keyboard-response","196","471085","0.0-1.0-242.0-0.0","0","0","11423","","null","","","null","26","","","","","","","","","","","","","","","",""
"","ITI","","html-keyboard-response","197","472087","0.0-1.0-243.0","0","0","11423","","null","","","null","26","","","","","","","","","","","","","","","NaN",""
"","S1","","html-keyboard-response","198","472341","0.0-1.0-245.0","0","0","11423","","null","","","null","27","","","","","","","","","","","","","","","",""
"","ISI","","html-keyboard-response","199","474344","0.0-1.0-246.0","0","0","11423","","null","","","null","27","NaN","","","","","","","","","","","","","","",""
"","S2","","html-keyboard-response","200","474597","0.0-1.0-247.0","0","0","11423","","null","","","null","27","","NaN","","","","","","","","","","","","","",""
"","response","","html-keyboard-response","201","474959","0.0-1.0-248.0","0","0","11423","","358","","","75","27","","","1","27","training","adjacent","AB","1","2","Q.jpg","N.jpg","1","1","1","",""
"","feedback","","html-keyboard-response","202","475962","0.0-1.0-249.0-0.0","0","0","11423","","null","","","null","27","","","","","","","","","","","","","","","",""
"","ITI","","html-keyboard-response","203","476965","0.0-1.0-252.0","0","0","11423","","null","","","null","27","","","","","","","","","","","","","","","NaN",""
"","S1","","html-keyboard-response","204","477219","0.0-1.0-254.0","0","0","11423","","null","","","null","28","","","","","","","","","","","","","","","",""
"","ISI","","html-keyboard-response","205","479221","0.0-1.0-255.0","0","0","11423","","null","","","null","28","NaN","","","","","","","","","","","","","","",""
"","S2","","html-keyboard-response","206","479474","0.0-1.0-256.0","0","0","11423","","null","","","null","28","","NaN","","","","","","","","","","","","","",""
"","response","","html-keyboard-response","207","480551","0.0-1.0-257.0","0","0","11423","","1075","","","75","28","","","1","28","training","adjacent","ED","5","4","P.jpg","M.jpg","1","0","0","",""
"","feedback","","html-keyboard-response","208","481553","0.0-1.0-258.0-0.0","0","0","11423","","null","","","null","28","","","","","","","","","","","","","","","",""
"","time_out","","html-keyboard-response","209","483556","0.0-1.0-260.0-0.0","0","0","11423","","null","","","null","28","","","","","","","","","","","","","","","",""
"","ITI","","html-keyboard-response","210","484557","0.0-1.0-261.0","0","0","11423","","null","","","null","28","","","","","","","","","","","","","","","NaN",""
"","S1","","html-keyboard-response","211","484811","0.0-1.0-263.0","0","0","11423","","null","","","null","29","","","","","","","","","","","","","","","",""
"","ISI","","html-keyboard-response","212","486814","0.0-1.0-264.0","0","0","11423","","null","","","null","29","NaN","","","","","","","","","","","","","","",""
"","S2","","html-keyboard-response","213","487067","0.0-1.0-265.0","0","0","11423","","null","","","null","29","","NaN","","","","","","","","","","","","","",""
"","response","","html-keyboard-response","214","488071","0.0-1.0-266.0","0","0","11423","","1001","","","68","29","","","1","29","training","adjacent","BA","2","1","N.jpg","Q.jpg","0","0","1","",""
"","feedback","","html-keyboard-response","215","489073","0.0-1.0-267.0-0.0","0","0","11423","","null","","","null","29","","","","","","","","","","","","","","","",""
"","ITI","","html-keyboard-response","216","490077","0.0-1.0-270.0","0","0","11423","","null","","","null","29","","","","","","","","","","","","","","","NaN",""
"","S1","","html-keyboard-response","217","490330","0.0-1.0-272.0","0","0","11423","","null","","","null","30","","","","","","","","","","","","","","","",""
"","ISI","","html-keyboard-response","218","492332","0.0-1.0-273.0","0","0","11423","","null","","","null","30","NaN","","","","","","","","","","","","","","",""
"","S2","","html-keyboard-response","219","492586","0.0-1.0-274.0","0","0","11423","","null","","","null","30","","NaN","","","","","","","","","","","","","",""
"","response","","html-keyboard-response","220","493286","0.0-1.0-275.0","0","0","11423","","699","","","68","30","","","1","30","training","adjacent","CD","3","4","R.jpg","M.jpg","0","1","0","",""
"","feedback","","html-keyboard-response","221","494290","0.0-1.0-276.0-0.0","0","0","11423","","null","","","null","30","","","","","","","","","","","","","","","",""
"","time_out","","html-keyboard-response","222","496293","0.0-1.0-278.0-0.0","0","0","11423","","null","","","null","30","","","","","","","","","","","","","","","",""
"","ITI","","html-keyboard-response","223","497295","0.0-1.0-279.0","0","0","11423","","null","","","null","30","","","","","","","","","","","","","","","NaN",""
"","S1","","html-keyboard-response","224","497549","0.0-1.0-281.0","0","0","11423","","null","","","null","31","","","","","","","","","","","","","","","",""
"","ISI","","html-keyboard-response","225","499551","0.0-1.0-282.0","0","0","11423","","null","","","null","31","NaN","","","","","","","","","","","","","","",""
"","S2","","html-keyboard-response","226","499804","0.0-1.0-283.0","0","0","11423","","null","","","null","31","","NaN","","","","","","","","","","","","","",""
"","response","","html-keyboard-response","227","501294","0.0-1.0-284.0","0","0","11423","","1488","","","68","31","","","1","31","training","adjacent","FG","6","7","L.jpg","O.jpg","0","1","0","",""
"","feedback","","html-keyboard-response","228","502298","0.0-1.0-285.0-0.0","0","0","11423","","null","","","null","31","","","","","","","","","","","","","","","",""
"","time_out","","html-keyboard-response","229","504301","0.0-1.0-287.0-0.0","0","0","11423","","null","","","null","31","","","","","","","","","","","","","","","",""
"","ITI","","html-keyboard-response","230","505305","0.0-1.0-288.0","0","0","11423","","null","","","null","31","","","","","","","","","","","","","","","NaN",""
"","S1","","html-keyboard-response","231","505558","0.0-1.0-290.0","0","0","11423","","null","","","null","32","","","","","","","","","","","","","","","",""
"","ISI","","html-keyboard-response","232","507561","0.0-1.0-291.0","0","0","11423","","null","","","null","32","NaN","","","","","","","","","","","","","","",""
"","S2","","html-keyboard-response","233","507814","0.0-1.0-292.0","0","0","11423","","null","","","null","32","","NaN","","","","","","","","","","","","","",""
"","response","","html-keyboard-response","234","508294","0.0-1.0-293.0","0","0","11423","","477","","","75","32","","","1","32","training","adjacent","DC","4","3","M.jpg","R.jpg","1","0","0","",""
"","feedback","","html-keyboard-response","235","509296","0.0-1.0-294.0-0.0","0","0","11423","","null","","","null","32","","","","","","","","","","","","","","","",""
"","time_out","","html-keyboard-response","236","511299","0.0-1.0-296.0-0.0","0","0","11423","","null","","","null","32","","","","","","","","","","","","","","","",""
"","ITI","","html-keyboard-response","237","512302","0.0-1.0-297.0","0","0","11423","","null","","","null","32","","","","","","","","","","","","","","","NaN",""
"","S1","","html-keyboard-response","238","512555","0.0-1.0-299.0","0","0","11423","","null","","","null","33","","","","","","","","","","","","","","","",""
"","ISI","","html-keyboard-response","239","514557","0.0-1.0-300.0","0","0","11423","","null","","","null","33","NaN","","","","","","","","","","","","","","",""
"","S2","","html-keyboard-response","240","514811","0.0-1.0-301.0","0","0","11423","","null","","","null","33","","NaN","","","","","","","","","","","","","",""
"","response","","html-keyboard-response","241","515926","0.0-1.0-302.0","0","0","11423","","1112","","","75","33","","","1","33","training","adjacent","BC","2","3","N.jpg","R.jpg","1","1","1","",""
"","feedback","","html-keyboard-response","242","516929","0.0-1.0-303.0-0.0","0","0","11423","","null","","","null","33","","","","","","","","","","","","","","","",""
"","ITI","","html-keyboard-response","243","517932","0.0-1.0-306.0","0","0","11423","","null","","","null","33","","","","","","","","","","","","","","","NaN",""
"","S1","","html-keyboard-response","244","518185","0.0-1.0-308.0","0","0","11423","","null","","","null","34","","","","","","","","","","","","","","","",""
"","ISI","","html-keyboard-response","245","520187","0.0-1.0-309.0","0","0","11423","","null","","","null","34","NaN","","","","","","","","","","","","","","",""
"","S2","","html-keyboard-response","246","520441","0.0-1.0-310.0","0","0","11423","","null","","","null","34","","NaN","","","","","","","","","","","","","",""
"","response","","html-keyboard-response","247","521350","0.0-1.0-311.0","0","0","11423","","906","","","75","34","","","1","34","training","adjacent","DC","4","3","M.jpg","R.jpg","1","0","0","",""
"","feedback","","html-keyboard-response","248","522353","0.0-1.0-312.0-0.0","0","0","11423","","null","","","null","34","","","","","","","","","","","","","","","",""
"","time_out","","html-keyboard-response","249","524355","0.0-1.0-314.0-0.0","0","0","11423","","null","","","null","34","","","","","","","","","","","","","","","",""
"","ITI","","html-keyboard-response","250","525358","0.0-1.0-315.0","0","0","11423","","null","","","null","34","","","","","","","","","","","","","","","NaN",""
"","S1","","html-keyboard-response","251","525611","0.0-1.0-317.0","0","0","11423","","null","","","null","35","","","","","","","","","","","","","","","",""
"","ISI","","html-keyboard-response","252","527614","0.0-1.0-318.0","0","0","11423","","null","","","null","35","NaN","","","","","","","","","","","","","","",""
"","S2","","html-keyboard-response","253","527868","0.0-1.0-319.0","0","0","11423","","null","","","null","35","","NaN","","","","","","","","","","","","","",""
"","response","","html-keyboard-response","254","529206","0.0-1.0-320.0","0","0","11423","","1336","","","68","35","","","1","35","training","adjacent","GF","7","6","O.jpg","L.jpg","0","0","1","",""
"","feedback","","html-keyboard-response","255","530210","0.0-1.0-321.0-0.0","0","0","11423","","null","","","null","35","","","","","","","","","","","","","","","",""
"","ITI","","html-keyboard-response","256","531214","0.0-1.0-324.0","0","0","11423","","null","","","null","35","","","","","","","","","","","","","","","NaN",""
"","S1","","html-keyboard-response","257","531467","0.0-1.0-326.0","0","0","11423","","null","","","null","36","","","","","","","","","","","","","","","",""
"","ISI","","html-keyboard-response","258","533469","0.0-1.0-327.0","0","0","11423","","null","","","null","36","NaN","","","","","","","","","","","","","","",""
"","S2","","html-keyboard-response","259","533721","0.0-1.0-328.0","0","0","11423","","null","","","null","36","","NaN","","","","","","","","","","","","","",""
"","response","","html-keyboard-response","260","535222","0.0-1.0-329.0","0","0","11423","","1498","","","68","36","","","1","36","training","adjacent","DE","4","5","M.jpg","P.jpg","0","1","0","",""
"","feedback","","html-keyboard-response","261","536224","0.0-1.0-330.0-0.0","0","0","11423","","null","","","null","36","","","","","","","","","","","","","","","",""
"","time_out","","html-keyboard-response","262","538227","0.0-1.0-332.0-0.0","0","0","11423","","null","","","null","36","","","","","","","","","","","","","","","",""
"","ITI","","html-keyboard-response","263","539230","0.0-1.0-333.0","0","0","11423","","null","","","null","36","","","","","","","","","","","","","","","NaN",""
"","S1","","html-keyboard-response","264","539483","0.0-1.0-335.0","0","0","11423","","null","","","null","37","","","","","","","","","","","","","","","",""
"","ISI","","html-keyboard-response","265","541485","0.0-1.0-336.0","0","0","11423","","null","","","null","37","NaN","","","","","","","","","","","","","","",""
"","S2","","html-keyboard-response","266","541738","0.0-1.0-337.0","0","0","11423","","null","","","null","37","","NaN","","","","","","","","","","","","","",""
"","response","","html-keyboard-response","267","542366","0.0-1.0-338.0","0","0","11423","","625","","","75","37","","","1","37","training","adjacent","BC","2","3","N.jpg","R.jpg","1","1","1","",""
"","feedback","","html-keyboard-response","268","543369","0.0-1.0-339.0-0.0","0","0","11423","","null","","","null","37","","","","","","","","","","","","","","","",""
"","ITI","","html-keyboard-response","269","544372","0.0-1.0-342.0","0","0","11423","","null","","","null","37","","","","","","","","","","","","","","","NaN",""
"","S1","","html-keyboard-response","270","544625","0.0-1.0-344.0","0","0","11423","","null","","","null","38","","","","","","","","","","","","","","","",""
"","ISI","","html-keyboard-response","271","546628","0.0-1.0-345.0","0","0","11423","","null","","","null","38","NaN","","","","","","","","","","","","","","",""
"","S2","","html-keyboard-response","272","546881","0.0-1.0-346.0","0","0","11423","","null","","","null","38","","NaN","","","","","","","","","","","","","",""
"","response","","html-keyboard-response","273","547734","0.0-1.0-347.0","0","0","11423","","850","","","75","38","","","1","38","training","adjacent","GF","7","6","O.jpg","L.jpg","1","0","0","",""
"","feedback","","html-keyboard-response","274","548736","0.0-1.0-348.0-0.0","0","0","11423","","null","","","null","38","","","","","","","","","","","","","","","",""
"","time_out","","html-keyboard-response","275","550739","0.0-1.0-350.0-0.0","0","0","11423","","null","","","null","38","","","","","","","","","","","","","","","",""
"","ITI","","html-keyboard-response","276","551742","0.0-1.0-351.0","0","0","11423","","null","","","null","38","","","","","","","","","","","","","","","NaN",""
"","S1","","html-keyboard-response","277","552002","0.0-1.0-353.0","0","0","11423","","null","","","null","39","","","","","","","","","","","","","","","",""
"","ISI","","html-keyboard-response","278","554004","0.0-1.0-354.0","0","0","11423","","null","","","null","39","NaN","","","","","","","","","","","","","","",""
"","S2","","html-keyboard-response","279","554257","0.0-1.0-355.0","0","0","11423","","null","","","null","39","","NaN","","","","","","","","","","","","","",""
"","response","","html-keyboard-response","280","555838","0.0-1.0-356.0","0","0","11423","","1578","","","68","39","","","1","39","training","adjacent","CB","3","2","R.jpg","N.jpg","0","0","1","",""
"","feedback","","html-keyboard-response","281","556841","0.0-1.0-357.0-0.0","0","0","11423","","null","","","null","39","","","","","","","","","","","","","","","",""
"","ITI","","html-keyboard-response","282","557844","0.0-1.0-360.0","0","0","11423","","null","","","null","39","","","","","","","","","","","","","","","NaN",""
"","S1","","html-keyboard-response","283","558097","0.0-1.0-362.0","0","0","11423","","null","","","null","40","","","","","","","","","","","","","","","",""
"","ISI","","html-keyboard-response","284","560100","0.0-1.0-363.0","0","0","11423","","null","","","null","40","NaN","","","","","","","","","","","","","","",""
"","S2","","html-keyboard-response","285","560353","0.0-1.0-364.0","0","0","11423","","null","","","null","40","","NaN","","","","","","","","","","","","","",""
"","response","","html-keyboard-response","286","560822","0.0-1.0-365.0","0","0","11423","","466","","","75","40","","","1","40","training","adjacent","EF","5","6","P.jpg","L.jpg","1","1","1","",""
"","feedback","","html-keyboard-response","287","561824","0.0-1.0-366.0-0.0","0","0","11423","","null","","","null","40","","","","","","","","","","","","","","","",""
"","ITI","","html-keyboard-response","288","562826","0.0-1.0-369.0","0","0","11423","","null","","","null","40","","","","","","","","","","","","","","","NaN",""
"","S1","","html-keyboard-response","289","563079","0.0-1.0-371.0","0","0","11423","","null","","","null","41","","","","","","","","","","","","","","","",""
"","ISI","","html-keyboard-response","290","565082","0.0-1.0-372.0","0","0","11423","","null","","","null","41","NaN","","","","","","","","","","","","","","",""
"","S2","","html-keyboard-response","291","565336","0.0-1.0-373.0","0","0","11423","","null","","","null","41","","NaN","","","","","","","","","","","","","",""
"","response","","html-keyboard-response","292","566549","0.0-1.0-374.0","0","0","11423","","1211","","","75","41","","","1","41","training","adjacent","ED","5","4","P.jpg","M.jpg","1","0","0","",""
"","feedback","","html-keyboard-response","293","567552","0.0-1.0-375.0-0.0","0","0","11423","","null","","","null","41","","","","","","","","","","","","","","","",""
"","time_out","","html-keyboard-response","294","569554","0.0-1.0-377.0-0.0","0","0","11423","","null","","","null","41","","","","","","","","","","","","","","","",""
"","ITI","","html-keyboard-response","295","570557","0.0-1.0-378.0","0","0","11423","","null","","","null","41","","","","","","","","","","","","","","","NaN",""
"","S1","","html-keyboard-response","296","570811","0.0-1.0-380.0","0","0","11423","","null","","","null","42","","","","","","","","","","","","","","","",""
"","ISI","","html-keyboard-response","297","572814","0.0-1.0-381.0","0","0","11423","","null","","","null","42","NaN","","","","","","","","","","","","","","",""
"","S2","","html-keyboard-response","298","573067","0.0-1.0-382.0","0","0","11423","","null","","","null","42","","NaN","","","","","","","","","","","","","",""
"","response","","html-keyboard-response","299","573917","0.0-1.0-383.0","0","0","11423","","848","","","68","42","","","1","42","training","adjacent","BA","2","1","N.jpg","Q.jpg","0","0","1","",""
"","feedback","","html-keyboard-response","300","574920","0.0-1.0-384.0-0.0","0","0","11423","","null","","","null","42","","","","","","","","","","","","","","","",""
"","ITI","","html-keyboard-response","301","575925","0.0-1.0-387.0","0","0","11423","","null","","","null","42","","","","","","","","","","","","","","","NaN",""
"","S1","","html-keyboard-response","302","576178","0.0-1.0-389.0","0","0","11423","","null","","","null","43","","","","","","","","","","","","","","","",""
"","ISI","","html-keyboard-response","303","578181","0.0-1.0-390.0","0","0","11423","","null","","","null","43","NaN","","","","","","","","","","","","","","",""
"","S2","","html-keyboard-response","304","578434","0.0-1.0-391.0","0","0","11423","","null","","","null","43","","NaN","","","","","","","","","","","","","",""
"","response","","html-keyboard-response","305","579382","0.0-1.0-392.0","0","0","11423","","946","","","75","43","","","1","43","training","adjacent","BC","2","3","N.jpg","R.jpg","1","1","1","",""
"","feedback","","html-keyboard-response","306","580385","0.0-1.0-393.0-0.0","0","0","11423","","null","","","null","43","","","","","","","","","","","","","","","",""
"","ITI","","html-keyboard-response","307","581388","0.0-1.0-396.0","0","0","11423","","null","","","null","43","","","","","","","","","","","","","","","NaN",""
"","S1","","html-keyboard-response","308","581642","0.0-1.0-398.0","0","0","11423","","null","","","null","44","","","","","","","","","","","","","","","",""
"","ISI","","html-keyboard-response","309","583645","0.0-1.0-399.0","0","0","11423","","null","","","null","44","NaN","","","","","","","","","","","","","","",""
"","S2","","html-keyboard-response","310","583898","0.0-1.0-400.0","0","0","11423","","null","","","null","44","","NaN","","","","","","","","","","","","","",""
"","response","","html-keyboard-response","311","585190","0.0-1.0-401.0","0","0","11423","","1289","","","68","44","","","1","44","training","adjacent","FG","6","7","L.jpg","O.jpg","0","1","0","",""
"","feedback","","html-keyboard-response","312","586193","0.0-1.0-402.0-0.0","0","0","11423","","null","","","null","44","","","","","","","","","","","","","","","",""
"","time_out","","html-keyboard-response","313","588196","0.0-1.0-404.0-0.0","0","0","11423","","null","","","null","44","","","","","","","","","","","","","","","",""
"","ITI","","html-keyboard-response","314","589199","0.0-1.0-405.0","0","0","11423","","null","","","null","44","","","","","","","","","","","","","","","NaN",""
"","S1","","html-keyboard-response","315","589452","0.0-1.0-407.0","0","0","11423","","null","","","null","45","","","","","","","","","","","","","","","",""
"","ISI","","html-keyboard-response","316","591455","0.0-1.0-408.0","0","0","11423","","null","","","null","45","NaN","","","","","","","","","","","","","","",""
"","S2","","html-keyboard-response","317","591708","0.0-1.0-409.0","0","0","11423","","null","","","null","45","","NaN","","","","","","","","","","","","","",""
"","response","","html-keyboard-response","318","592190","0.0-1.0-410.0","0","0","11423","","477","","","75","45","","","1","45","training","adjacent","EF","5","6","P.jpg","L.jpg","1","1","1","",""
"","feedback","","html-keyboard-response","319","593192","0.0-1.0-411.0-0.0","0","0","11423","","null","","","null","45","","","","","","","","","","","","","","","",""
"","ITI","","html-keyboard-response","320","594196","0.0-1.0-414.0","0","0","11423","","null","","","null","45","","","","","","","","","","","","","","","NaN",""
"","S1","","html-keyboard-response","321","594450","0.0-1.0-416.0","0","0","11423","","null","","","null","46","","","","","","","","","","","","","","","",""
"","ISI","","html-keyboard-response","322","596452","0.0-1.0-417.0","0","0","11423","","null","","","null","46","NaN","","","","","","","","","","","","","","",""
"","S2","","html-keyboard-response","323","596705","0.0-1.0-418.0","0","0","11423","","null","","","null","46","","NaN","","","","","","","","","","","","","",""
"","response","","html-keyboard-response","324","598398","0.0-1.0-419.0","0","0","11423","","1691","","","68","46","","","1","46","training","adjacent","FE","6","5","L.jpg","P.jpg","0","0","1","",""
"","feedback","","html-keyboard-response","325","599402","0.0-1.0-420.0-0.0","0","0","11423","","null","","","null","46","","","","","","","","","","","","","","","",""
"","ITI","","html-keyboard-response","326","600405","0.0-1.0-423.0","0","0","11423","","null","","","null","46","","","","","","","","","","","","","","","NaN",""
"","S1","","html-keyboard-response","327","600658","0.0-1.0-425.0","0","0","11423","","null","","","null","47","","","","","","","","","","","","","","","",""
"","ISI","","html-keyboard-response","328","602661","0.0-1.0-426.0","0","0","11423","","null","","","null","47","NaN","","","","","","","","","","","","","","",""
"","S2","","html-keyboard-response","329","602913","0.0-1.0-427.0","0","0","11423","","null","","","null","47","","NaN","","","","","","","","","","","","","",""
"","response","","html-keyboard-response","330","604134","0.0-1.0-428.0","0","0","11423","","1218","","","75","47","","","1","47","training","adjacent","FE","6","5","L.jpg","P.jpg","1","0","0","",""
"","feedback","","html-keyboard-response","331","605138","0.0-1.0-429.0-0.0","0","0","11423","","null","","","null","47","","","","","","","","","","","","","","","",""
"","time_out","","html-keyboard-response","332","607141","0.0-1.0-431.0-0.0","0","0","11423","","null","","","null","47","","","","","","","","","","","","","","","",""
"","ITI","","html-keyboard-response","333","608145","0.0-1.0-432.0","0","0","11423","","null","","","null","47","","","","","","","","","","","","","","","NaN",""
"","block_over","","html-keyboard-response","334","617061","0.0-1.0-433.0-0.0","0","0","11423","","8913","","","32","47","","","","","","","","","","","","","","","",""
"","S1","","html-keyboard-response","335","617316","0.0-1.0-434.0","0","0","11423","","null","","","null","48","","","","","","","","","","","","","","","",""
"","ISI","","html-keyboard-response","336","619319","0.0-1.0-435.0","0","0","11423","","null","","","null","48","NaN","","","","","","","","","","","","","","",""
"","S2","","html-keyboard-response","337","619572","0.0-1.0-436.0","0","0","11423","","null","","","null","48","","NaN","","","","","","","","","","","","","",""
"","response","","html-keyboard-response","338","620509","0.0-1.0-437.0","0","0","11423","","935","","","75","48","","","2","48","training","adjacent","EF","5","6","P.jpg","L.jpg","1","1","1","",""
"","feedback","","html-keyboard-response","339","621515","0.0-1.0-438.0-0.0","0","0","11423","","null","","","null","48","","","","","","","","","","","","","","","",""
"","ITI","","html-keyboard-response","340","622517","0.0-1.0-441.0","0","0","11423","","null","","","null","48","","","","","","","","","","","","","","","NaN",""
"","S1","","html-keyboard-response","341","622770","0.0-1.0-443.0","0","0","11423","","null","","","null","49","","","","","","","","","","","","","","","",""
"","ISI","","html-keyboard-response","342","624773","0.0-1.0-444.0","0","0","11423","","null","","","null","49","NaN","","","","","","","","","","","","","","",""
"","S2","","html-keyboard-response","343","625026","0.0-1.0-445.0","0","0","11423","","null","","","null","49","","NaN","","","","","","","","","","","","","",""
"","response","","html-keyboard-response","344","626061","0.0-1.0-446.0","0","0","11423","","1033","","","68","49","","","2","49","training","adjacent","BA","2","1","N.jpg","Q.jpg","0","0","1","",""
"","feedback","","html-keyboard-response","345","627064","0.0-1.0-447.0-0.0","0","0","11423","","null","","","null","49","","","","","","","","","","","","","","","",""
"","ITI","","html-keyboard-response","346","628067","0.0-1.0-450.0","0","0","11423","","null","","","null","49","","","","","","","","","","","","","","","NaN",""
"","S1","","html-keyboard-response","347","628320","0.0-1.0-452.0","0","0","11423","","null","","","null","50","","","","","","","","","","","","","","","",""
"","ISI","","html-keyboard-response","348","630323","0.0-1.0-453.0","0","0","11423","","null","","","null","50","NaN","","","","","","","","","","","","","","",""
"","S2","","html-keyboard-response","349","630576","0.0-1.0-454.0","0","0","11423","","null","","","null","50","","NaN","","","","","","","","","","","","","",""
"","response","","html-keyboard-response","350","630981","0.0-1.0-455.0","0","0","11423","","403","","","75","50","","","2","50","training","adjacent","AB","1","2","Q.jpg","N.jpg","1","1","1","",""
"","feedback","","html-keyboard-response","351","631984","0.0-1.0-456.0-0.0","0","0","11423","","null","","","null","50","","","","","","","","","","","","","","","",""
"","ITI","","html-keyboard-response","352","632987","0.0-1.0-459.0","0","0","11423","","null","","","null","50","","","","","","","","","","","","","","","NaN",""
"","S1","","html-keyboard-response","353","633241","0.0-1.0-461.0","0","0","11423","","null","","","null","51","","","","","","","","","","","","","","","",""
"","ISI","","html-keyboard-response","354","635243","0.0-1.0-462.0","0","0","11423","","null","","","null","51","NaN","","","","","","","","","","","","","","",""
"","S2","","html-keyboard-response","355","635497","0.0-1.0-463.0","0","0","11423","","null","","","null","51","","NaN","","","","","","","","","","","","","",""
"","response","","html-keyboard-response","356","636637","0.0-1.0-464.0","0","0","11423","","1137","","","68","51","","","2","51","training","adjacent","GF","7","6","O.jpg","L.jpg","0","0","1","",""
"","feedback","","html-keyboard-response","357","637640","0.0-1.0-465.0-0.0","0","0","11423","","null","","","null","51","","","","","","","","","","","","","","","",""
"","ITI","","html-keyboard-response","358","638644","0.0-1.0-468.0","0","0","11423","","null","","","null","51","","","","","","","","","","","","","","","NaN",""
"","S1","","html-keyboard-response","359","638897","0.0-1.0-470.0","0","0","11423","","null","","","null","52","","","","","","","","","","","","","","","",""
"","ISI","","html-keyboard-response","360","640900","0.0-1.0-471.0","0","0","11423","","null","","","null","52","NaN","","","","","","","","","","","","","","",""
"","S2","","html-keyboard-response","361","641153","0.0-1.0-472.0","0","0","11423","","null","","","null","52","","NaN","","","","","","","","","","","","","",""
"","response","","html-keyboard-response","362","642405","0.0-1.0-473.0","0","0","11423","","1249","","","68","52","","","2","52","training","adjacent","EF","5","6","P.jpg","L.jpg","0","1","0","",""
"","feedback","","html-keyboard-response","363","643408","0.0-1.0-474.0-0.0","0","0","11423","","null","","","null","52","","","","","","","","","","","","","","","",""
"","time_out","","html-keyboard-response","364","645411","0.0-1.0-476.0-0.0","0","0","11423","","null","","","null","52","","","","","","","","","","","","","","","",""
"","ITI","","html-keyboard-response","365","646414","0.0-1.0-477.0","0","0","11423","","null","","","null","52","","","","","","","","","","","","","","","NaN",""
"","S1","","html-keyboard-response","366","646668","0.0-1.0-479.0","0","0","11423","","null","","","null","53","","","","","","","","","","","","","","","",""
"","ISI","","html-keyboard-response","367","648671","0.0-1.0-480.0","0","0","11423","","null","","","null","53","NaN","","","","","","","","","","","","","","",""
"","S2","","html-keyboard-response","368","648924","0.0-1.0-481.0","0","0","11423","","null","","","null","53","","NaN","","","","","","","","","","","","","",""
"","response","","html-keyboard-response","369","649877","0.0-1.0-482.0","0","0","11423","","951","","","75","53","","","2","53","training","adjacent","CD","3","4","R.jpg","M.jpg","1","1","1","",""
"","feedback","","html-keyboard-response","370","650880","0.0-1.0-483.0-0.0","0","0","11423","","null","","","null","53","","","","","","","","","","","","","","","",""
"","ITI","","html-keyboard-response","371","651883","0.0-1.0-486.0","0","0","11423","","null","","","null","53","","","","","","","","","","","","","","","NaN",""
"","S1","","html-keyboard-response","372","652136","0.0-1.0-488.0","0","0","11423","","null","","","null","54","","","","","","","","","","","","","","","",""
"","ISI","","html-keyboard-response","373","654140","0.0-1.0-489.0","0","0","11423","","null","","","null","54","NaN","","","","","","","","","","","","","","",""
"","S2","","html-keyboard-response","374","654403","0.0-1.0-490.0","0","0","11423","","null","","","null","54","","NaN","","","","","","","","","","","","","",""
"","response","","html-keyboard-response","375","655749","0.0-1.0-491.0","0","0","11423","","1344","","","75","54","","","2","54","training","adjacent","DE","4","5","M.jpg","P.jpg","1","1","1","",""
"","feedback","","html-keyboard-response","376","656753","0.0-1.0-492.0-0.0","0","0","11423","","null","","","null","54","","","","","","","","","","","","","","","",""
"","ITI","","html-keyboard-response","377","657756","0.0-1.0-495.0","0","0","11423","","null","","","null","54","","","","","","","","","","","","","","","NaN",""
"","S1","","html-keyboard-response","378","658010","0.0-1.0-497.0","0","0","11423","","null","","","null","55","","","","","","","","","","","","","","","",""
"","ISI","","html-keyboard-response","379","660013","0.0-1.0-498.0","0","0","11423","","null","","","null","55","NaN","","","","","","","","","","","","","","",""
"","S2","","html-keyboard-response","380","660266","0.0-1.0-499.0","0","0","11423","","null","","","null","55","","NaN","","","","","","","","","","","","","",""
"","response","","html-keyboard-response","381","661325","0.0-1.0-500.0","0","0","11423","","1055","","","75","55","","","2","55","training","adjacent","CD","3","4","R.jpg","M.jpg","1","1","1","",""
"","feedback","","html-keyboard-response","382","662329","0.0-1.0-501.0-0.0","0","0","11423","","null","","","null","55","","","","","","","","","","","","","","","",""
"","ITI","","html-keyboard-response","383","663332","0.0-1.0-504.0","0","0","11423","","null","","","null","55","","","","","","","","","","","","","","","NaN",""
"","S1","","html-keyboard-response","384","663585","0.0-1.0-506.0","0","0","11423","","null","","","null","56","","","","","","","","","","","","","","","",""
"","ISI","","html-keyboard-response","385","665588","0.0-1.0-507.0","0","0","11423","","null","","","null","56","NaN","","","","","","","","","","","","","","",""
"","S2","","html-keyboard-response","386","665841","0.0-1.0-508.0","0","0","11423","","null","","","null","56","","NaN","","","","","","","","","","","","","",""
"","response","","html-keyboard-response","387","666933","0.0-1.0-509.0","0","0","11423","","1089","","","68","56","","","2","56","training","adjacent","DC","4","3","M.jpg","R.jpg","0","0","1","",""
"","feedback","","html-keyboard-response","388","667937","0.0-1.0-510.0-0.0","0","0","11423","","null","","","null","56","","","","","","","","","","","","","","","",""
"","ITI","","html-keyboard-response","389","668940","0.0-1.0-513.0","0","0","11423","","null","","","null","56","","","","","","","","","","","","","","","NaN",""
"","S1","","html-keyboard-response","390","669193","0.0-1.0-515.0","0","0","11423","","null","","","null","57","","","","","","","","","","","","","","","",""
"","ISI","","html-keyboard-response","391","671195","0.0-1.0-516.0","0","0","11423","","null","","","null","57","NaN","","","","","","","","","","","","","","",""
"","S2","","html-keyboard-response","392","671448","0.0-1.0-517.0","0","0","11423","","null","","","null","57","","NaN","","","","","","","","","","","","","",""
"","response","","html-keyboard-response","393","671957","0.0-1.0-518.0","0","0","11423","","506","","","75","57","","","2","57","training","adjacent","AB","1","2","Q.jpg","N.jpg","1","1","1","",""
"","feedback","","html-keyboard-response","394","672960","0.0-1.0-519.0-0.0","0","0","11423","","null","","","null","57","","","","","","","","","","","","","","","",""
"","ITI","","html-keyboard-response","395","673963","0.0-1.0-522.0","0","0","11423","","null","","","null","57","","","","","","","","","","","","","","","NaN",""
"","S1","","html-keyboard-response","396","674216","0.0-1.0-524.0","0","0","11423","","null","","","null","58","","","","","","","","","","","","","","","",""
"","ISI","","html-keyboard-response","397","676220","0.0-1.0-525.0","0","0","11423","","null","","","null","58","NaN","","","","","","","","","","","","","","",""
"","S2","","html-keyboard-response","398","676474","0.0-1.0-526.0","0","0","11423","","null","","","null","58","","NaN","","","","","","","","","","","","","",""
"","response","","html-keyboard-response","399","677789","0.0-1.0-527.0","0","0","11423","","1313","","","75","58","","","2","58","training","adjacent","DE","4","5","M.jpg","P.jpg","1","1","1","",""
"","feedback","","html-keyboard-response","400","678792","0.0-1.0-528.0-0.0","0","0","11423","","null","","","null","58","","","","","","","","","","","","","","","",""
"","ITI","","html-keyboard-response","401","679794","0.0-1.0-531.0","0","0","11423","","null","","","null","58","","","","","","","","","","","","","","","NaN",""
"","S1","","html-keyboard-response","402","680048","0.0-1.0-533.0","0","0","11423","","null","","","null","59","","","","","","","","","","","","","","","",""
"","ISI","","html-keyboard-response","403","682051","0.0-1.0-534.0","0","0","11423","","null","","","null","59","NaN","","","","","","","","","","","","","","",""
"","S2","","html-keyboard-response","404","682303","0.0-1.0-535.0","0","0","11423","","null","","","null","59","","NaN","","","","","","","","","","","","","",""
"","response","","html-keyboard-response","405","683333","0.0-1.0-536.0","0","0","11423","","1027","","","75","59","","","2","59","training","adjacent","CD","3","4","R.jpg","M.jpg","1","1","1","",""
"","feedback","","html-keyboard-response","406","684336","0.0-1.0-537.0-0.0","0","0","11423","","null","","","null","59","","","","","","","","","","","","","","","",""
"","ITI","","html-keyboard-response","407","685338","0.0-1.0-540.0","0","0","11423","","null","","","null","59","","","","","","","","","","","","","","","NaN",""
"","S1","","html-keyboard-response","408","685591","0.0-1.0-542.0","0","0","11423","","null","","","null","60","","","","","","","","","","","","","","","",""
"","ISI","","html-keyboard-response","409","687594","0.0-1.0-543.0","0","0","11423","","null","","","null","60","NaN","","","","","","","","","","","","","","",""
"","S2","","html-keyboard-response","410","687847","0.0-1.0-544.0","0","0","11423","","null","","","null","60","","NaN","","","","","","","","","","","","","",""
"","response","","html-keyboard-response","411","688981","0.0-1.0-545.0","0","0","11423","","1129","","","68","60","","","2","60","training","adjacent","BC","2","3","N.jpg","R.jpg","0","1","0","",""
"","feedback","","html-keyboard-response","412","689985","0.0-1.0-546.0-0.0","0","0","11423","","null","","","null","60","","","","","","","","","","","","","","","",""
"","time_out","","html-keyboard-response","413","691988","0.0-1.0-548.0-0.0","0","0","11423","","null","","","null","60","","","","","","","","","","","","","","","",""
"","ITI","","html-keyboard-response","414","692992","0.0-1.0-549.0","0","0","11423","","null","","","null","60","","","","","","","","","","","","","","","NaN",""
"","S1","","html-keyboard-response","415","693246","0.0-1.0-551.0","0","0","11423","","null","","","null","61","","","","","","","","","","","","","","","",""
"","ISI","","html-keyboard-response","416","695250","0.0-1.0-552.0","0","0","11423","","null","","","null","61","NaN","","","","","","","","","","","","","","",""
"","S2","","html-keyboard-response","417","695502","0.0-1.0-553.0","0","0","11423","","null","","","null","61","","NaN","","","","","","","","","","","","","",""
"","response","","html-keyboard-response","418","696116","0.0-1.0-554.0","0","0","11423","","611","","","75","61","","","2","61","training","adjacent","ED","5","4","P.jpg","M.jpg","1","0","0","",""
"","feedback","","html-keyboard-response","419","697120","0.0-1.0-555.0-0.0","0","0","11423","","null","","","null","61","","","","","","","","","","","","","","","",""
"","time_out","","html-keyboard-response","420","699123","0.0-1.0-557.0-0.0","0","0","11423","","null","","","null","61","","","","","","","","","","","","","","","",""
"","ITI","","html-keyboard-response","421","700125","0.0-1.0-558.0","0","0","11423","","null","","","null","61","","","","","","","","","","","","","","","NaN",""
"","S1","","html-keyboard-response","422","700378","0.0-1.0-560.0","0","0","11423","","null","","","null","62","","","","","","","","","","","","","","","",""
"","ISI","","html-keyboard-response","423","702381","0.0-1.0-561.0","0","0","11423","","null","","","null","62","NaN","","","","","","","","","","","","","","",""
"","S2","","html-keyboard-response","424","702634","0.0-1.0-562.0","0","0","11423","","null","","","null","62","","NaN","","","","","","","","","","","","","",""
"","response","","html-keyboard-response","425","702949","0.0-1.0-563.0","0","0","11423","","312","","","75","62","","","2","62","training","adjacent","GF","7","6","O.jpg","L.jpg","1","0","0","",""
"","feedback","","html-keyboard-response","426","703952","0.0-1.0-564.0-0.0","0","0","11423","","null","","","null","62","","","","","","","","","","","","","","","",""
"","time_out","","html-keyboard-response","427","705954","0.0-1.0-566.0-0.0","0","0","11423","","null","","","null","62","","","","","","","","","","","","","","","",""
"","ITI","","html-keyboard-response","428","706957","0.0-1.0-567.0","0","0","11423","","null","","","null","62","","","","","","","","","","","","","","","NaN",""
"","S1","","html-keyboard-response","429","707210","0.0-1.0-569.0","0","0","11423","","null","","","null","63","","","","","","","","","","","","","","","",""
"","ISI","","html-keyboard-response","430","709212","0.0-1.0-570.0","0","0","11423","","null","","","null","63","NaN","","","","","","","","","","","","","","",""
"","S2","","html-keyboard-response","431","709465","0.0-1.0-571.0","0","0","11423","","null","","","null","63","","NaN","","","","","","","","","","","","","",""
"","response","","html-keyboard-response","432","710348","0.0-1.0-572.0","0","0","11423","","882","","","68","63","","","2","63","training","adjacent","GF","7","6","O.jpg","L.jpg","0","0","1","",""
"","feedback","","html-keyboard-response","433","711352","0.0-1.0-573.0-0.0","0","0","11423","","null","","","null","63","","","","","","","","","","","","","","","",""
"","ITI","","html-keyboard-response","434","712355","0.0-1.0-576.0","0","0","11423","","null","","","null","63","","","","","","","","","","","","","","","NaN",""
"","S1","","html-keyboard-response","435","712608","0.0-1.0-578.0","0","0","11423","","null","","","null","64","","","","","","","","","","","","","","","",""
"","ISI","","html-keyboard-response","436","714610","0.0-1.0-579.0","0","0","11423","","null","","","null","64","NaN","","","","","","","","","","","","","","",""
"","S2","","html-keyboard-response","437","714864","0.0-1.0-580.0","0","0","11423","","null","","","null","64","","NaN","","","","","","","","","","","","","",""
"","response","","html-keyboard-response","438","715293","0.0-1.0-581.0","0","0","11423","","426","","","75","64","","","2","64","training","adjacent","FG","6","7","L.jpg","O.jpg","1","1","1","",""
"","feedback","","html-keyboard-response","439","716296","0.0-1.0-582.0-0.0","0","0","11423","","null","","","null","64","","","","","","","","","","","","","","","",""
"","ITI","","html-keyboard-response","440","717299","0.0-1.0-585.0","0","0","11423","","null","","","null","64","","","","","","","","","","","","","","","NaN",""
"","S1","","html-keyboard-response","441","717552","0.0-1.0-587.0","0","0","11423","","null","","","null","65","","","","","","","","","","","","","","","",""
"","ISI","","html-keyboard-response","442","719555","0.0-1.0-588.0","0","0","11423","","null","","","null","65","NaN","","","","","","","","","","","","","","",""
"","S2","","html-keyboard-response","443","719808","0.0-1.0-589.0","0","0","11423","","null","","","null","65","","NaN","","","","","","","","","","","","","",""
"","response","","html-keyboard-response","444","720036","0.0-1.0-590.0","0","0","11423","","226","","","68","65","","","2","65","training","adjacent","AB","1","2","Q.jpg","N.jpg","0","1","0","",""
"","feedback","","html-keyboard-response","445","721040","0.0-1.0-591.0-0.0","0","0","11423","","null","","","null","65","","","","","","","","","","","","","","","",""
"","time_out","","html-keyboard-response","446","723042","0.0-1.0-593.0-0.0","0","0","11423","","null","","","null","65","","","","","","","","","","","","","","","",""
"","ITI","","html-keyboard-response","447","724044","0.0-1.0-594.0","0","0","11423","","null","","","null","65","","","","","","","","","","","","","","","NaN",""
"","S1","","html-keyboard-response","448","724297","0.0-1.0-596.0","0","0","11423","","null","","","null","66","","","","","","","","","","","","","","","",""
"","ISI","","html-keyboard-response","449","726299","0.0-1.0-597.0","0","0","11423","","null","","","null","66","NaN","","","","","","","","","","","","","","",""
"","S2","","html-keyboard-response","450","726553","0.0-1.0-598.0","0","0","11423","","null","","","null","66","","NaN","","","","","","","","","","","","","",""
"","response","","html-keyboard-response","451","728108","0.0-1.0-599.0","0","0","11423","","1553","","","68","66","","","2","66","training","adjacent","ED","5","4","P.jpg","M.jpg","0","0","1","",""
"","feedback","","html-keyboard-response","452","729112","0.0-1.0-600.0-0.0","0","0","11423","","null","","","null","66","","","","","","","","","","","","","","","",""
"","ITI","","html-keyboard-response","453","730114","0.0-1.0-603.0","0","0","11423","","null","","","null","66","","","","","","","","","","","","","","","NaN",""
"","S1","","html-keyboard-response","454","730368","0.0-1.0-605.0","0","0","11423","","null","","","null","67","","","","","","","","","","","","","","","",""
"","ISI","","html-keyboard-response","455","732371","0.0-1.0-606.0","0","0","11423","","null","","","null","67","NaN","","","","","","","","","","","","","","",""
"","S2","","html-keyboard-response","456","732625","0.0-1.0-607.0","0","0","11423","","null","","","null","67","","NaN","","","","","","","","","","","","","",""
"","response","","html-keyboard-response","457","733204","0.0-1.0-608.0","0","0","11423","","577","","","75","67","","","2","67","training","adjacent","FG","6","7","L.jpg","O.jpg","1","1","1","",""
"","feedback","","html-keyboard-response","458","734209","0.0-1.0-609.0-0.0","0","0","11423","","null","","","null","67","","","","","","","","","","","","","","","",""
"","ITI","","html-keyboard-response","459","735212","0.0-1.0-612.0","0","0","11423","","null","","","null","67","","","","","","","","","","","","","","","NaN",""
"","S1","","html-keyboard-response","460","735464","0.0-1.0-614.0","0","0","11423","","null","","","null","68","","","","","","","","","","","","","","","",""
"","ISI","","html-keyboard-response","461","737466","0.0-1.0-615.0","0","0","11423","","null","","","null","68","NaN","","","","","","","","","","","","","","",""
"","S2","","html-keyboard-response","462","737720","0.0-1.0-616.0","0","0","11423","","null","","","null","68","","NaN","","","","","","","","","","","","","",""
"","response","","html-keyboard-response","463","739221","0.0-1.0-617.0","0","0","11423","","1498","","","68","68","","","2","68","training","adjacent","EF","5","6","P.jpg","L.jpg","0","1","0","",""
"","feedback","","html-keyboard-response","464","740224","0.0-1.0-618.0-0.0","0","0","11423","","null","","","null","68","","","","","","","","","","","","","","","",""
"","time_out","","html-keyboard-response","465","742226","0.0-1.0-620.0-0.0","0","0","11423","","null","","","null","68","","","","","","","","","","","","","","","",""
"","ITI","","html-keyboard-response","466","743229","0.0-1.0-621.0","0","0","11423","","null","","","null","68","","","","","","","","","","","","","","","NaN",""
"","S1","","html-keyboard-response","467","743483","0.0-1.0-623.0","0","0","11423","","null","","","null","69","","","","","","","","","","","","","","","",""
"","ISI","","html-keyboard-response","468","745485","0.0-1.0-624.0","0","0","11423","","null","","","null","69","NaN","","","","","","","","","","","","","","",""
"","S2","","html-keyboard-response","469","745738","0.0-1.0-625.0","0","0","11423","","null","","","null","69","","NaN","","","","","","","","","","","","","",""
"","response","","html-keyboard-response","470","746340","0.0-1.0-626.0","0","0","11423","","600","","","75","69","","","2","69","training","adjacent","BC","2","3","N.jpg","R.jpg","1","1","1","",""
"","feedback","","html-keyboard-response","471","747345","0.0-1.0-627.0-0.0","0","0","11423","","null","","","null","69","","","","","","","","","","","","","","","",""
"","ITI","","html-keyboard-response","472","748348","0.0-1.0-630.0","0","0","11423","","null","","","null","69","","","","","","","","","","","","","","","NaN",""
"","S1","","html-keyboard-response","473","748600","0.0-1.0-632.0","0","0","11423","","null","","","null","70","","","","","","","","","","","","","","","",""
"","ISI","","html-keyboard-response","474","750602","0.0-1.0-633.0","0","0","11423","","null","","","null","70","NaN","","","","","","","","","","","","","","",""
"","S2","","html-keyboard-response","475","750855","0.0-1.0-634.0","0","0","11423","","null","","","null","70","","NaN","","","","","","","","","","","","","",""
"","response","","html-keyboard-response","476","752588","0.0-1.0-635.0","0","0","11423","","1731","","","68","70","","","2","70","training","adjacent","BA","2","1","N.jpg","Q.jpg","0","0","1","",""
"","feedback","","html-keyboard-response","477","753592","0.0-1.0-636.0-0.0","0","0","11423","","null","","","null","70","","","","","","","","","","","","","","","",""
"","ITI","","html-keyboard-response","478","754595","0.0-1.0-639.0","0","0","11423","","null","","","null","70","","","","","","","","","","","","","","","NaN",""
"","S1","","html-keyboard-response","479","754847","0.0-1.0-641.0","0","0","11423","","null","","","null","71","","","","","","","","","","","","","","","",""
"","ISI","","html-keyboard-response","480","756857","0.0-1.0-642.0","0","0","11423","","null","","","null","71","NaN","","","","","","","","","","","","","","",""
"","S2","","html-keyboard-response","481","757110","0.0-1.0-643.0","0","0","11423","","null","","","null","71","","NaN","","","","","","","","","","","","","",""
"","response","","html-keyboard-response","482","758676","0.0-1.0-644.0","0","0","11423","","1563","","","75","71","","","2","71","training","adjacent","CB","3","2","R.jpg","N.jpg","1","0","0","",""
"","feedback","","html-keyboard-response","483","759680","0.0-1.0-645.0-0.0","0","0","11423","","null","","","null","71","","","","","","","","","","","","","","","",""
"","time_out","","html-keyboard-response","484","761685","0.0-1.0-647.0-0.0","0","0","11423","","null","","","null","71","","","","","","","","","","","","","","","",""
"","ITI","","html-keyboard-response","485","762687","0.0-1.0-648.0","0","0","11423","","null","","","null","71","","","","","","","","","","","","","","","NaN",""
"","S1","","html-keyboard-response","486","762940","0.0-1.0-650.0","0","0","11423","","null","","","null","72","","","","","","","","","","","","","","","",""
"","ISI","","html-keyboard-response","487","764942","0.0-1.0-651.0","0","0","11423","","null","","","null","72","NaN","","","","","","","","","","","","","","",""
"","S2","","html-keyboard-response","488","765202","0.0-1.0-652.0","0","0","11423","","null","","","null","72","","NaN","","","","","","","","","","","","","",""
"","response","","html-keyboard-response","489","767205","0.0-1.0-653.0","0","0","11423","","null","","","null","72","","","2","72","training","adjacent","FG","6","7","L.jpg","O.jpg","NaN","1","0","",""
"","too_slow_prompt","","html-keyboard-response","490","768208","0.0-1.0-655.0-0.0","1","0","11423","","null","","","null","","","","","","","","","","","","","","","","",""
"","time_out","","html-keyboard-response","491","770211","0.0-1.0-656.0-0.0","0","0","11423","","null","","","null","72","","","","","","","","","","","","","","","",""
"","ITI","","html-keyboard-response","492","771213","0.0-1.0-657.0","0","0","11423","","null","","","null","72","","","","","","","","","","","","","","","NaN",""
"","S1","","html-keyboard-response","493","771469","0.0-1.0-659.0","0","0","11423","","null","","","null","73","","","","","","","","","","","","","","","",""
"","ISI","","html-keyboard-response","494","773471","0.0-1.0-660.0","0","0","11423","","null","","","null","73","NaN","","","","","","","","","","","","","","",""
"","S2","","html-keyboard-response","495","773725","0.0-1.0-661.0","0","0","11423","","null","","","null","73","","NaN","","","","","","","","","","","","","",""
"","response","","html-keyboard-response","496","774276","0.0-1.0-662.0","0","0","11423","","549","","","75","73","","","2","73","training","adjacent","FE","6","5","L.jpg","P.jpg","1","0","0","",""
"","feedback","","html-keyboard-response","497","775280","0.0-1.0-663.0-0.0","0","0","11423","","null","","","null","73","","","","","","","","","","","","","","","",""
"","time_out","","html-keyboard-response","498","777283","0.0-1.0-665.0-0.0","0","0","11423","","null","","","null","73","","","","","","","","","","","","","","","",""
"","ITI","","html-keyboard-response","499","778286","0.0-1.0-666.0","0","0","11423","","null","","","null","73","","","","","","","","","","","","","","","NaN",""
"","S1","","html-keyboard-response","500","778540","0.0-1.0-668.0","0","0","11423","","null","","","null","74","","","","","","","","","","","","","","","",""
"","ISI","","html-keyboard-response","501","780542","0.0-1.0-669.0","0","0","11423","","null","","","null","74","NaN","","","","","","","","","","","","","","",""
"","S2","","html-keyboard-response","502","780794","0.0-1.0-670.0","0","0","11423","","null","","","null","74","","NaN","","","","","","","","","","","","","",""
"","response","","html-keyboard-response","503","781140","0.0-1.0-671.0","0","0","11423","","343","","","68","74","","","2","74","training","adjacent","AB","1","2","Q.jpg","N.jpg","0","1","0","",""
"","feedback","","html-keyboard-response","504","782143","0.0-1.0-672.0-0.0","0","0","11423","","null","","","null","74","","","","","","","","","","","","","","","",""
"","time_out","","html-keyboard-response","505","784146","0.0-1.0-674.0-0.0","0","0","11423","","null","","","null","74","","","","","","","","","","","","","","","",""
"","ITI","","html-keyboard-response","506","785149","0.0-1.0-675.0","0","0","11423","","null","","","null","74","","","","","","","","","","","","","","","NaN",""
"","S1","","html-keyboard-response","507","785402","0.0-1.0-677.0","0","0","11423","","null","","","null","75","","","","","","","","","","","","","","","",""
"","ISI","","html-keyboard-response","508","787405","0.0-1.0-678.0","0","0","11423","","null","","","null","75","NaN","","","","","","","","","","","","","","",""
"","S2","","html-keyboard-response","509","787659","0.0-1.0-679.0","0","0","11423","","null","","","null","75","","NaN","","","","","","","","","","","","","",""
"","response","","html-keyboard-response","510","788451","0.0-1.0-680.0","0","0","11423","","790","","","75","75","","","2","75","training","adjacent","DC","4","3","M.jpg","R.jpg","1","0","0","",""
"","feedback","","html-keyboard-response","511","789453","0.0-1.0-681.0-0.0","0","0","11423","","null","","","null","75","","","","","","","","","","","","","","","",""
"","time_out","","html-keyboard-response","512","791455","0.0-1.0-683.0-0.0","0","0","11423","","null","","","null","75","","","","","","","","","","","","","","","",""
"","ITI","","html-keyboard-response","513","792458","0.0-1.0-684.0","0","0","11423","","null","","","null","75","","","","","","","","","","","","","","","NaN",""
"","S1","","html-keyboard-response","514","792710","0.0-1.0-686.0","0","0","11423","","null","","","null","76","","","","","","","","","","","","","","","",""
"","ISI","","html-keyboard-response","515","794713","0.0-1.0-687.0","0","0","11423","","null","","","null","76","NaN","","","","","","","","","","","","","","",""
"","S2","","html-keyboard-response","516","794966","0.0-1.0-688.0","0","0","11423","","null","","","null","76","","NaN","","","","","","","","","","","","","",""
"","response","","html-keyboard-response","517","795836","0.0-1.0-689.0","0","0","11423","","867","","","75","76","","","2","76","training","adjacent","DC","4","3","M.jpg","R.jpg","1","0","0","",""
"","feedback","","html-keyboard-response","518","796840","0.0-1.0-690.0-0.0","0","0","11423","","null","","","null","76","","","","","","","","","","","","","","","",""
"","time_out","","html-keyboard-response","519","798843","0.0-1.0-692.0-0.0","0","0","11423","","null","","","null","76","","","","","","","","","","","","","","","",""
"","ITI","","html-keyboard-response","520","799844","0.0-1.0-693.0","0","0","11423","","null","","","null","76","","","","","","","","","","","","","","","NaN",""
"","S1","","html-keyboard-response","521","800098","0.0-1.0-695.0","0","0","11423","","null","","","null","77","","","","","","","","","","","","","","","",""
"","ISI","","html-keyboard-response","522","802101","0.0-1.0-696.0","0","0","11423","","null","","","null","77","NaN","","","","","","","","","","","","","","",""
"","S2","","html-keyboard-response","523","802354","0.0-1.0-697.0","0","0","11423","","null","","","null","77","","NaN","","","","","","","","","","","","","",""
"","response","","html-keyboard-response","524","803660","0.0-1.0-698.0","0","0","11423","","1305","","","68","77","","","2","77","training","adjacent","CB","3","2","R.jpg","N.jpg","0","0","1","",""
"","feedback","","html-keyboard-response","525","804663","0.0-1.0-699.0-0.0","0","0","11423","","null","","","null","77","","","","","","","","","","","","","","","",""
"","ITI","","html-keyboard-response","526","805666","0.0-1.0-702.0","0","0","11423","","null","","","null","77","","","","","","","","","","","","","","","NaN",""
"","S1","","html-keyboard-response","527","805919","0.0-1.0-704.0","0","0","11423","","null","","","null","78","","","","","","","","","","","","","","","",""
"","ISI","","html-keyboard-response","528","807921","0.0-1.0-705.0","0","0","11423","","null","","","null","78","NaN","","","","","","","","","","","","","","",""
"","S2","","html-keyboard-response","529","808175","0.0-1.0-706.0","0","0","11423","","null","","","null","78","","NaN","","","","","","","","","","","","","",""
"","response","","html-keyboard-response","530","809085","0.0-1.0-707.0","0","0","11423","","907","","","75","78","","","2","78","training","adjacent","ED","5","4","P.jpg","M.jpg","1","0","0","",""
"","feedback","","html-keyboard-response","531","810089","0.0-1.0-708.0-0.0","0","0","11423","","null","","","null","78","","","","","","","","","","","","","","","",""
"","time_out","","html-keyboard-response","532","812092","0.0-1.0-710.0-0.0","0","0","11423","","null","","","null","78","","","","","","","","","","","","","","","",""
"","ITI","","html-keyboard-response","533","813095","0.0-1.0-711.0","0","0","11423","","null","","","null","78","","","","","","","","","","","","","","","NaN",""
"","S1","","html-keyboard-response","534","813349","0.0-1.0-713.0","0","0","11423","","null","","","null","79","","","","","","","","","","","","","","","",""
"","ISI","","html-keyboard-response","535","815352","0.0-1.0-714.0","0","0","11423","","null","","","null","79","NaN","","","","","","","","","","","","","","",""
"","S2","","html-keyboard-response","536","815615","0.0-1.0-715.0","0","0","11423","","null","","","null","79","","NaN","","","","","","","","","","","","","",""
"","response","","html-keyboard-response","537","816476","0.0-1.0-716.0","0","0","11423","","859","","","75","79","","","2","79","training","adjacent","CB","3","2","R.jpg","N.jpg","1","0","0","",""
"","feedback","","html-keyboard-response","538","817480","0.0-1.0-717.0-0.0","0","0","11423","","null","","","null","79","","","","","","","","","","","","","","","",""
"","time_out","","html-keyboard-response","539","819482","0.0-1.0-719.0-0.0","0","0","11423","","null","","","null","79","","","","","","","","","","","","","","","",""
"","ITI","","html-keyboard-response","540","820484","0.0-1.0-720.0","0","0","11423","","null","","","null","79","","","","","","","","","","","","","","","NaN",""
"","S1","","html-keyboard-response","541","820737","0.0-1.0-722.0","0","0","11423","","null","","","null","80","","","","","","","","","","","","","","","",""
"","ISI","","html-keyboard-response","542","822740","0.0-1.0-723.0","0","0","11423","","null","","","null","80","NaN","","","","","","","","","","","","","","",""
"","S2","","html-keyboard-response","543","822993","0.0-1.0-724.0","0","0","11423","","null","","","null","80","","NaN","","","","","","","","","","","","","",""
"","response","","html-keyboard-response","544","824125","0.0-1.0-725.0","0","0","11423","","1129","","","68","80","","","2","80","training","adjacent","BC","2","3","N.jpg","R.jpg","0","1","0","",""
"","feedback","","html-keyboard-response","545","825128","0.0-1.0-726.0-0.0","0","0","11423","","null","","","null","80","","","","","","","","","","","","","","","",""
"","time_out","","html-keyboard-response","546","827132","0.0-1.0-728.0-0.0","0","0","11423","","null","","","null","80","","","","","","","","","","","","","","","",""
"","ITI","","html-keyboard-response","547","828134","0.0-1.0-729.0","0","0","11423","","null","","","null","80","","","","","","","","","","","","","","","NaN",""
"","S1","","html-keyboard-response","548","828388","0.0-1.0-731.0","0","0","11423","","null","","","null","81","","","","","","","","","","","","","","","",""
"","ISI","","html-keyboard-response","549","830390","0.0-1.0-732.0","0","0","11423","","null","","","null","81","NaN","","","","","","","","","","","","","","",""
"","S2","","html-keyboard-response","550","830642","0.0-1.0-733.0","0","0","11423","","null","","","null","81","","NaN","","","","","","","","","","","","","",""
"","response","","html-keyboard-response","551","831100","0.0-1.0-734.0","0","0","11423","","456","","","75","81","","","2","81","training","adjacent","FE","6","5","L.jpg","P.jpg","1","0","0","",""
"","feedback","","html-keyboard-response","552","832103","0.0-1.0-735.0-0.0","0","0","11423","","null","","","null","81","","","","","","","","","","","","","","","",""
"","time_out","","html-keyboard-response","553","834106","0.0-1.0-737.0-0.0","0","0","11423","","null","","","null","81","","","","","","","","","","","","","","","",""
"","ITI","","html-keyboard-response","554","835109","0.0-1.0-738.0","0","0","11423","","null","","","null","81","","","","","","","","","","","","","","","NaN",""
"","S1","","html-keyboard-response","555","835361","0.0-1.0-740.0","0","0","11423","","null","","","null","82","","","","","","","","","","","","","","","",""
"","ISI","","html-keyboard-response","556","837365","0.0-1.0-741.0","0","0","11423","","null","","","null","82","NaN","","","","","","","","","","","","","","",""
"","S2","","html-keyboard-response","557","837619","0.0-1.0-742.0","0","0","11423","","null","","","null","82","","NaN","","","","","","","","","","","","","",""
"","response","","html-keyboard-response","558","839252","0.0-1.0-743.0","0","0","11423","","1631","","","68","82","","","2","82","training","adjacent","BA","2","1","N.jpg","Q.jpg","0","0","1","",""
"","feedback","","html-keyboard-response","559","840256","0.0-1.0-744.0-0.0","0","0","11423","","null","","","null","82","","","","","","","","","","","","","","","",""
"","ITI","","html-keyboard-response","560","841261","0.0-1.0-747.0","0","0","11423","","null","","","null","82","","","","","","","","","","","","","","","NaN",""
"","S1","","html-keyboard-response","561","841513","0.0-1.0-749.0","0","0","11423","","null","","","null","83","","","","","","","","","","","","","","","",""
"","ISI","","html-keyboard-response","562","843517","0.0-1.0-750.0","0","0","11423","","null","","","null","83","NaN","","","","","","","","","","","","","","",""
"","S2","","html-keyboard-response","563","843770","0.0-1.0-751.0","0","0","11423","","null","","","null","83","","NaN","","","","","","","","","","","","","",""
"","response","","html-keyboard-response","564","844964","0.0-1.0-752.0","0","0","11423","","1192","","","75","83","","","2","83","training","adjacent","DC","4","3","M.jpg","R.jpg","1","0","0","",""
"","feedback","","html-keyboard-response","565","845968","0.0-1.0-753.0-0.0","0","0","11423","","null","","","null","83","","","","","","","","","","","","","","","",""
"","time_out","","html-keyboard-response","566","847971","0.0-1.0-755.0-0.0","0","0","11423","","null","","","null","83","","","","","","","","","","","","","","","",""
"","ITI","","html-keyboard-response","567","848973","0.0-1.0-756.0","0","0","11423","","null","","","null","83","","","","","","","","","","","","","","","NaN",""
"","S1","","html-keyboard-response","568","849227","0.0-1.0-758.0","0","0","11423","","null","","","null","84","","","","","","","","","","","","","","","",""
"","ISI","","html-keyboard-response","569","851230","0.0-1.0-759.0","0","0","11423","","null","","","null","84","NaN","","","","","","","","","","","","","","",""
"","S2","","html-keyboard-response","570","851483","0.0-1.0-760.0","0","0","11423","","null","","","null","84","","NaN","","","","","","","","","","","","","",""
"","response","","html-keyboard-response","571","852796","0.0-1.0-761.0","0","0","11423","","1311","","","68","84","","","2","84","training","adjacent","DE","4","5","M.jpg","P.jpg","0","1","0","",""
"","feedback","","html-keyboard-response","572","853799","0.0-1.0-762.0-0.0","0","0","11423","","null","","","null","84","","","","","","","","","","","","","","","",""
"","time_out","","html-keyboard-response","573","855802","0.0-1.0-764.0-0.0","0","0","11423","","null","","","null","84","","","","","","","","","","","","","","","",""
"","ITI","","html-keyboard-response","574","856805","0.0-1.0-765.0","0","0","11423","","null","","","null","84","","","","","","","","","","","","","","","NaN",""
