"success","ttype","start_time","trial_type","trial_index","time_elapsed","internal_node_id","warning","missed_checkup","PID","view_history","rt","responses","repeat_instructions","key_press","index","keypress_isi","keypress_S2","block","trial_num","phase","group_type","pair_type","S1_stim","S2_stim","S1_img","S2_img","S1_chosen","S1_higher","accuracy","keypress_iti","total_bonus_tally"
"true","full_screen","d08032022hr2059","fullscreen","0","12546","0.0-0.0","0","0","50916","","","","","","","","","","","","","","","","","","","","","",""
"","instructions","","instructions","1","57946","0.0-1.0-0.0-0.0","0","0","50916","[{""page_index"":0,""viewing_time"":11982},{""page_index"":1,""viewing_time"":15773},{""page_index"":2,""viewing_time"":14751},{""page_index"":3,""viewing_time"":2892}]","45398","","","","","","","","","","","","","","","","","","","",""
"","comprehension_check","","survey-multi-choice","2","88665","0.0-1.0-0.0-1.0","0","0","50916","","30712","{""Q0"":""True"",""Q1"":""D"",""Q2"":""Once the second image appears and while the screen 'MAKE A CHOICE' is shown"",""Q3"":""Green mark"",""Q4"":""either D or K""}","0","","","","","","","","","","","","","","","","","",""
"","start_exp","","html-keyboard-response","3","91295","0.0-1.0-1.0","0","0","50916","","2629","","","32","","","","","","","","","","","","","","","","",""
"","S1","","html-keyboard-response","4","91548","0.0-1.0-2.0","0","0","50916","","null","","","null","0","","","","","","","","","","","","","","","",""
"","ISI","","html-keyboard-response","5","93550","0.0-1.0-3.0","0","0","50916","","null","","","null","0","NaN","","","","","","","","","","","","","","",""
"","S2","","html-keyboard-response","6","93802","0.0-1.0-4.0","0","0","50916","","null","","","null","0","","NaN","","","","","","","","","","","","","",""
"","response","","html-keyboard-response","7","95183","0.0-1.0-5.0-0.0","0","0","50916","","1380","","","75","0","","","1","0","training","adjacent","AB","1","2","P.jpg","Q.jpg","0","1","0","",""
"","feedback","","html-keyboard-response","8","96190","0.0-1.0-6.0-0.0","0","0","50916","","null","","","null","0","","","","","","","","","","","","","","","",""
"","time_out","","html-keyboard-response","9","98192","0.0-1.0-8.0-0.0","0","0","50916","","null","","","null","0","","","","","","","","","","","","","","","",""
"","ITI","","html-keyboard-response","10","99193","0.0-1.0-9.0","0","0","50916","","null","","","null","0","","","","","","","","","","","","","","","NaN",""
"","S1","","html-keyboard-response","11","99445","0.0-1.0-11.0","0","0","50916","","null","","","null","1","","","","","","","","","","","","","","","",""
"","ISI","","html-keyboard-response","12","101447","0.0-1.0-12.0","0","0","50916","","null","","","null","1","NaN","","","","","","","","","","","","","","",""
"","S2","","html-keyboard-response","13","101699","0.0-1.0-13.0","0","0","50916","","null","","","null","1","","NaN","","","","","","","","","","","","","",""
"","response","","html-keyboard-response","14","102535","0.0-1.0-14.0-0.0","0","0","50916","","835","","","68","1","","","1","1","training","adjacent","DC","4","3","M.jpg","L.jpg","1","0","0","",""
"","feedback","","html-keyboard-response","15","103538","0.0-1.0-15.0-0.0","0","0","50916","","null","","","null","1","","","","","","","","","","","","","","","",""
"","time_out","","html-keyboard-response","16","105539","0.0-1.0-17.0-0.0","0","0","50916","","null","","","null","1","","","","","","","","","","","","","","","",""
"","ITI","","html-keyboard-response","17","106541","0.0-1.0-18.0","0","0","50916","","null","","","null","1","","","","","","","","","","","","","","","NaN",""
"","S1","","html-keyboard-response","18","106793","0.0-1.0-20.0","0","0","50916","","null","","","null","2","","","","","","","","","","","","","","","",""
"","ISI","","html-keyboard-response","19","108796","0.0-1.0-21.0","0","0","50916","","null","","","null","2","NaN","","","","","","","","","","","","","","",""
"","S2","","html-keyboard-response","20","109048","0.0-1.0-22.0","0","0","50916","","null","","","null","2","","NaN","","","","","","","","","","","","","",""
"","response","","html-keyboard-response","21","109535","0.0-1.0-23.0-0.0","0","0","50916","","487","","","75","2","","","1","2","training","adjacent","BA","2","1","Q.jpg","P.jpg","0","0","1","",""
"","feedback","","html-keyboard-response","22","110537","0.0-1.0-24.0-0.0","0","0","50916","","null","","","null","2","","","","","","","","","","","","","","","",""
"","ITI","","html-keyboard-response","23","111539","0.0-1.0-27.0","0","0","50916","","null","","","null","2","","","","","","","","","","","","","","","NaN",""
"","S1","","html-keyboard-response","24","111791","0.0-1.0-29.0","0","0","50916","","null","","","null","3","","","","","","","","","","","","","","","",""
"","ISI","","html-keyboard-response","25","113792","0.0-1.0-30.0","0","0","50916","","null","","","null","3","NaN","","","","","","","","","","","","","","",""
"","S2","","html-keyboard-response","26","114044","0.0-1.0-31.0","0","0","50916","","null","","","null","3","","NaN","","","","","","","","","","","","","",""
"","response","","html-keyboard-response","27","114527","0.0-1.0-32.0-0.0","0","0","50916","","482","","","68","3","","","1","3","training","adjacent","CB","3","2","L.jpg","Q.jpg","1","0","0","",""
"","feedback","","html-keyboard-response","28","115529","0.0-1.0-33.0-0.0","0","0","50916","","null","","","null","3","","","","","","","","","","","","","","","",""
"","time_out","","html-keyboard-response","29","117531","0.0-1.0-35.0-0.0","0","0","50916","","null","","","null","3","","","","","","","","","","","","","","","",""
"","ITI","","html-keyboard-response","30","118532","0.0-1.0-36.0","0","0","50916","","null","","","null","3","","","","","","","","","","","","","","","NaN",""
"","S1","","html-keyboard-response","31","118784","0.0-1.0-38.0","0","0","50916","","null","","","null","4","","","","","","","","","","","","","","","",""
"","ISI","","html-keyboard-response","32","120785","0.0-1.0-39.0","0","0","50916","","null","","","null","4","NaN","","","","","","","","","","","","","","",""
"","S2","","html-keyboard-response","33","121037","0.0-1.0-40.0","0","0","50916","","null","","","null","4","","NaN","","","","","","","","","","","","","",""
"","response","","html-keyboard-response","34","121511","0.0-1.0-41.0-0.0","0","0","50916","","473","","","75","4","","","1","4","training","adjacent","DC","4","3","M.jpg","L.jpg","0","0","1","",""
"","feedback","","html-keyboard-response","35","122513","0.0-1.0-42.0-0.0","0","0","50916","","null","","","null","4","","","","","","","","","","","","","","","",""
"","ITI","","html-keyboard-response","36","123515","0.0-1.0-45.0","0","0","50916","","null","","","null","4","","","","","","","","","","","","","","","NaN",""
"","S1","","html-keyboard-response","37","123767","0.0-1.0-47.0","0","0","50916","","null","","","null","5","","","","","","","","","","","","","","","",""
"","ISI","","html-keyboard-response","38","125768","0.0-1.0-48.0","0","0","50916","","null","","","null","5","NaN","","","","","","","","","","","","","","",""
"","S2","","html-keyboard-response","39","126021","0.0-1.0-49.0","0","0","50916","","null","","","null","5","","NaN","","","","","","","","","","","","","",""
"","response","","html-keyboard-response","40","126175","0.0-1.0-50.0-0.0","0","0","50916","","153","","","75","5","","","1","5","training","adjacent","CD","3","4","L.jpg","M.jpg","0","1","0","",""
"","feedback","","html-keyboard-response","41","127187","0.0-1.0-51.0-0.0","0","0","50916","","null","","","null","5","","","","","","","","","","","","","","","",""
"","time_out","","html-keyboard-response","42","129189","0.0-1.0-53.0-0.0","0","0","50916","","null","","","null","5","","","","","","","","","","","","","","","",""
"","ITI","","html-keyboard-response","43","130191","0.0-1.0-54.0","0","0","50916","","null","","","null","5","","","","","","","","","","","","","","","NaN",""
"","S1","","html-keyboard-response","44","130443","0.0-1.0-56.0","0","0","50916","","null","","","null","6","","","","","","","","","","","","","","","",""
"","ISI","","html-keyboard-response","45","132446","0.0-1.0-57.0","0","0","50916","","null","","","null","6","NaN","","","","","","","","","","","","","","",""
"","S2","","html-keyboard-response","46","132699","0.0-1.0-58.0","0","0","50916","","null","","","null","6","","NaN","","","","","","","","","","","","","",""
"","response","","html-keyboard-response","47","133287","0.0-1.0-59.0-0.0","0","0","50916","","588","","","75","6","","","1","6","training","adjacent","EF","5","6","R.jpg","O.jpg","0","1","0","",""
"","feedback","","html-keyboard-response","48","134289","0.0-1.0-60.0-0.0","0","0","50916","","null","","","null","6","","","","","","","","","","","","","","","",""
"","time_out","","html-keyboard-response","49","136291","0.0-1.0-62.0-0.0","0","0","50916","","null","","","null","6","","","","","","","","","","","","","","","",""
"","ITI","","html-keyboard-response","50","137292","0.0-1.0-63.0","0","0","50916","","null","","","null","6","","","","","","","","","","","","","","","NaN",""
"","S1","","html-keyboard-response","51","137544","0.0-1.0-65.0","0","0","50916","","null","","","null","7","","","","","","","","","","","","","","","",""
"","ISI","","html-keyboard-response","52","139546","0.0-1.0-66.0","0","0","50916","","null","","","null","7","NaN","","","","","","","","","","","","","","",""
"","S2","","html-keyboard-response","53","139798","0.0-1.0-67.0","0","0","50916","","null","","","null","7","","NaN","","","","","","","","","","","","","",""
"","response","","html-keyboard-response","54","140319","0.0-1.0-68.0-0.0","0","0","50916","","521","","","68","7","","","1","7","training","adjacent","FE","6","5","O.jpg","R.jpg","1","0","0","",""
"","feedback","","html-keyboard-response","55","141321","0.0-1.0-69.0-0.0","0","0","50916","","null","","","null","7","","","","","","","","","","","","","","","",""
"","time_out","","html-keyboard-response","56","143323","0.0-1.0-71.0-0.0","0","0","50916","","null","","","null","7","","","","","","","","","","","","","","","",""
"","ITI","","html-keyboard-response","57","144324","0.0-1.0-72.0","0","0","50916","","null","","","null","7","","","","","","","","","","","","","","","NaN",""
"","S1","","html-keyboard-response","58","144576","0.0-1.0-74.0","0","0","50916","","null","","","null","8","","","","","","","","","","","","","","","",""
"","ISI","","html-keyboard-response","59","146578","0.0-1.0-75.0","0","0","50916","","null","","","null","8","NaN","","","","","","","","","","","","","","",""
"","S2","","html-keyboard-response","60","146830","0.0-1.0-76.0","0","0","50916","","null","","","null","8","","NaN","","","","","","","","","","","","","",""
"","response","","html-keyboard-response","61","147375","0.0-1.0-77.0-0.0","0","0","50916","","544","","","75","8","","","1","8","training","adjacent","ED","5","4","R.jpg","M.jpg","0","0","1","",""
"","feedback","","html-keyboard-response","62","148377","0.0-1.0-78.0-0.0","0","0","50916","","null","","","null","8","","","","","","","","","","","","","","","",""
"","ITI","","html-keyboard-response","63","149379","0.0-1.0-81.0","0","0","50916","","null","","","null","8","","","","","","","","","","","","","","","NaN",""
"","S1","","html-keyboard-response","64","149631","0.0-1.0-83.0","0","0","50916","","null","","","null","9","","","","","","","","","","","","","","","",""
"","ISI","","html-keyboard-response","65","151633","0.0-1.0-84.0","0","0","50916","","null","","","null","9","NaN","","","","","","","","","","","","","","",""
"","S2","","html-keyboard-response","66","151885","0.0-1.0-85.0","0","0","50916","","null","","","null","9","","NaN","","","","","","","","","","","","","",""
"","response","","html-keyboard-response","67","152279","0.0-1.0-86.0-0.0","0","0","50916","","393","","","75","9","","","1","9","training","adjacent","ED","5","4","R.jpg","M.jpg","0","0","1","",""
"","feedback","","html-keyboard-response","68","153281","0.0-1.0-87.0-0.0","0","0","50916","","null","","","null","9","","","","","","","","","","","","","","","",""
"","ITI","","html-keyboard-response","69","154283","0.0-1.0-90.0","0","0","50916","","null","","","null","9","","","","","","","","","","","","","","","NaN",""
"","S1","","html-keyboard-response","70","154534","0.0-1.0-92.0","0","0","50916","","null","","","null","10","","","","","","","","","","","","","","","",""
"","ISI","","html-keyboard-response","71","156536","0.0-1.0-93.0","0","0","50916","","null","","","null","10","NaN","","","","","","","","","","","","","","",""
"","S2","","html-keyboard-response","72","156789","0.0-1.0-94.0","0","0","50916","","null","","","null","10","","NaN","","","","","","","","","","","","","",""
"","response","","html-keyboard-response","73","157192","0.0-1.0-95.0-0.0","0","0","50916","","401","","","68","10","","","1","10","training","adjacent","DE","4","5","M.jpg","R.jpg","1","1","1","",""
"","feedback","","html-keyboard-response","74","158193","0.0-1.0-96.0-0.0","0","0","50916","","null","","","null","10","","","","","","","","","","","","","","","",""
"","ITI","","html-keyboard-response","75","159195","0.0-1.0-99.0","0","0","50916","","null","","","null","10","","","","","","","","","","","","","","","NaN",""
"","S1","","html-keyboard-response","76","159446","0.0-1.0-101.0","0","0","50916","","null","","","null","11","","","","","","","","","","","","","","","",""
"","ISI","","html-keyboard-response","77","161448","0.0-1.0-102.0","0","0","50916","","null","","","null","11","NaN","","","","","","","","","","","","","","",""
"","S2","","html-keyboard-response","78","161700","0.0-1.0-103.0","0","0","50916","","null","","","null","11","","NaN","","","","","","","","","","","","","",""
"","response","","html-keyboard-response","79","162159","0.0-1.0-104.0-0.0","0","0","50916","","459","","","75","11","","","1","11","training","adjacent","BC","2","3","Q.jpg","L.jpg","0","1","0","",""
"","feedback","","html-keyboard-response","80","163161","0.0-1.0-105.0-0.0","0","0","50916","","null","","","null","11","","","","","","","","","","","","","","","",""
"","time_out","","html-keyboard-response","81","165163","0.0-1.0-107.0-0.0","0","0","50916","","null","","","null","11","","","","","","","","","","","","","","","",""
"","ITI","","html-keyboard-response","82","166164","0.0-1.0-108.0","0","0","50916","","null","","","null","11","","","","","","","","","","","","","","","NaN",""
"","S1","","html-keyboard-response","83","166416","0.0-1.0-110.0","0","0","50916","","null","","","null","12","","","","","","","","","","","","","","","",""
"","ISI","","html-keyboard-response","84","168418","0.0-1.0-111.0","0","0","50916","","null","","","null","12","NaN","","","","","","","","","","","","","","",""
"","S2","","html-keyboard-response","85","168670","0.0-1.0-112.0","0","0","50916","","null","","","null","12","","NaN","","","","","","","","","","","","","",""
"","response","","html-keyboard-response","86","168991","0.0-1.0-113.0-0.0","0","0","50916","","321","","","68","12","","","1","12","training","adjacent","BC","2","3","Q.jpg","L.jpg","1","1","1","",""
"","feedback","","html-keyboard-response","87","169992","0.0-1.0-114.0-0.0","0","0","50916","","null","","","null","12","","","","","","","","","","","","","","","",""
"","ITI","","html-keyboard-response","88","170994","0.0-1.0-117.0","0","0","50916","","null","","","null","12","","","","","","","","","","","","","","","NaN",""
"","S1","","html-keyboard-response","89","171246","0.0-1.0-119.0","0","0","50916","","null","","","null","13","","","","","","","","","","","","","","","",""
"","ISI","","html-keyboard-response","90","173248","0.0-1.0-120.0","0","0","50916","","null","","","null","13","NaN","","","","","","","","","","","","","","",""
"","S2","","html-keyboard-response","91","173499","0.0-1.0-121.0","0","0","50916","","null","","","null","13","","NaN","","","","","","","","","","","","","",""
"","response","","html-keyboard-response","92","174119","0.0-1.0-122.0-0.0","0","0","50916","","619","","","75","13","","","1","13","training","adjacent","GF","7","6","N.jpg","O.jpg","0","0","1","",""
"","feedback","","html-keyboard-response","93","175123","0.0-1.0-123.0-0.0","0","0","50916","","null","","","null","13","","","","","","","","","","","","","","","",""
"","ITI","","html-keyboard-response","94","176125","0.0-1.0-126.0","0","0","50916","","null","","","null","13","","","","","","","","","","","","","","","NaN",""
"","S1","","html-keyboard-response","95","176377","0.0-1.0-128.0","0","0","50916","","null","","","null","14","","","","","","","","","","","","","","","",""
"","ISI","","html-keyboard-response","96","178379","0.0-1.0-129.0","0","0","50916","","null","","","null","14","NaN","","","","","","","","","","","","","","",""
"","S2","","html-keyboard-response","97","178631","0.0-1.0-130.0","0","0","50916","","null","","","null","14","","NaN","","","","","","","","","","","","","",""
"","response","","html-keyboard-response","98","179018","0.0-1.0-131.0-0.0","0","0","50916","","386","","","68","14","","","1","14","training","adjacent","DC","4","3","M.jpg","L.jpg","1","0","0","",""
"","feedback","","html-keyboard-response","99","180021","0.0-1.0-132.0-0.0","0","0","50916","","null","","","null","14","","","","","","","","","","","","","","","",""
"","time_out","","html-keyboard-response","100","182022","0.0-1.0-134.0-0.0","0","0","50916","","null","","","null","14","","","","","","","","","","","","","","","",""
"","ITI","","html-keyboard-response","101","183024","0.0-1.0-135.0","0","0","50916","","null","","","null","14","","","","","","","","","","","","","","","NaN",""
"","S1","","html-keyboard-response","102","183276","0.0-1.0-137.0","0","0","50916","","null","","","null","15","","","","","","","","","","","","","","","",""
"","ISI","","html-keyboard-response","103","185277","0.0-1.0-138.0","0","0","50916","","null","","","null","15","NaN","","","","","","","","","","","","","","",""
"","S2","","html-keyboard-response","104","185529","0.0-1.0-139.0","0","0","50916","","null","","","null","15","","NaN","","","","","","","","","","","","","",""
"","response","","html-keyboard-response","105","186215","0.0-1.0-140.0-0.0","0","0","50916","","686","","","75","15","","","1","15","training","adjacent","GF","7","6","N.jpg","O.jpg","0","0","1","",""
"","feedback","","html-keyboard-response","106","187217","0.0-1.0-141.0-0.0","0","0","50916","","null","","","null","15","","","","","","","","","","","","","","","",""
"","ITI","","html-keyboard-response","107","188219","0.0-1.0-144.0","0","0","50916","","null","","","null","15","","","","","","","","","","","","","","","NaN",""
"","S1","","html-keyboard-response","108","188472","0.0-1.0-146.0","0","0","50916","","null","","","null","16","","","","","","","","","","","","","","","",""
"","ISI","","html-keyboard-response","109","190474","0.0-1.0-147.0","0","0","50916","","null","","","null","16","NaN","","","","","","","","","","","","","","",""
"","S2","","html-keyboard-response","110","190725","0.0-1.0-148.0","0","0","50916","","null","","","null","16","","NaN","","","","","","","","","","","","","",""
"","response","","html-keyboard-response","111","191599","0.0-1.0-149.0-0.0","0","0","50916","","873","","","68","16","","","1","16","training","adjacent","FG","6","7","O.jpg","N.jpg","1","1","1","",""
"","feedback","","html-keyboard-response","112","192602","0.0-1.0-150.0-0.0","0","0","50916","","null","","","null","16","","","","","","","","","","","","","","","",""
"","ITI","","html-keyboard-response","113","193603","0.0-1.0-153.0","0","0","50916","","null","","","null","16","","","","","","","","","","","","","","","NaN",""
"","S1","","html-keyboard-response","114","193856","0.0-1.0-155.0","0","0","50916","","null","","","null","17","","","","","","","","","","","","","","","",""
"","ISI","","html-keyboard-response","115","195857","0.0-1.0-156.0","0","0","50916","","null","","","null","17","NaN","","","","","","","","","","","","","","",""
"","S2","","html-keyboard-response","116","196109","0.0-1.0-157.0","0","0","50916","","null","","","null","17","","NaN","","","","","","","","","","","","","",""
"","response","","html-keyboard-response","117","196655","0.0-1.0-158.0-0.0","0","0","50916","","546","","","68","17","","","1","17","training","adjacent","FG","6","7","O.jpg","N.jpg","1","1","1","",""
"","feedback","","html-keyboard-response","118","197657","0.0-1.0-159.0-0.0","0","0","50916","","null","","","null","17","","","","","","","","","","","","","","","",""
"","ITI","","html-keyboard-response","119","198660","0.0-1.0-162.0","0","0","50916","","null","","","null","17","","","","","","","","","","","","","","","NaN",""
"","S1","","html-keyboard-response","120","198912","0.0-1.0-164.0","0","0","50916","","null","","","null","18","","","","","","","","","","","","","","","",""
"","ISI","","html-keyboard-response","121","200914","0.0-1.0-165.0","0","0","50916","","null","","","null","18","NaN","","","","","","","","","","","","","","",""
"","S2","","html-keyboard-response","122","201166","0.0-1.0-166.0","0","0","50916","","null","","","null","18","","NaN","","","","","","","","","","","","","",""
"","response","","html-keyboard-response","123","201535","0.0-1.0-167.0-0.0","0","0","50916","","369","","","68","18","","","1","18","training","adjacent","EF","5","6","R.jpg","O.jpg","1","1","1","",""
"","feedback","","html-keyboard-response","124","202538","0.0-1.0-168.0-0.0","0","0","50916","","null","","","null","18","","","","","","","","","","","","","","","",""
"","ITI","","html-keyboard-response","125","203539","0.0-1.0-171.0","0","0","50916","","null","","","null","18","","","","","","","","","","","","","","","NaN",""
"","S1","","html-keyboard-response","126","203790","0.0-1.0-173.0","0","0","50916","","null","","","null","19","","","","","","","","","","","","","","","",""
"","ISI","","html-keyboard-response","127","205792","0.0-1.0-174.0","0","0","50916","","null","","","null","19","NaN","","","","","","","","","","","","","","",""
"","S2","","html-keyboard-response","128","206044","0.0-1.0-175.0","0","0","50916","","null","","","null","19","","NaN","","","","","","","","","","","","","",""
"","response","","html-keyboard-response","129","206399","0.0-1.0-176.0-0.0","0","0","50916","","354","","","75","19","","","1","19","training","adjacent","BC","2","3","Q.jpg","L.jpg","0","1","0","",""
"","feedback","","html-keyboard-response","130","207407","0.0-1.0-177.0-0.0","0","0","50916","","null","","","null","19","","","","","","","","","","","","","","","",""
"","time_out","","html-keyboard-response","131","209409","0.0-1.0-179.0-0.0","0","0","50916","","null","","","null","19","","","","","","","","","","","","","","","",""
"","ITI","","html-keyboard-response","132","210411","0.0-1.0-180.0","0","0","50916","","null","","","null","19","","","","","","","","","","","","","","","NaN",""
"","S1","","html-keyboard-response","133","210663","0.0-1.0-182.0","0","0","50916","","null","","","null","20","","","","","","","","","","","","","","","",""
"","ISI","","html-keyboard-response","134","212665","0.0-1.0-183.0","0","0","50916","","null","","","null","20","NaN","","","","","","","","","","","","","","",""
"","S2","","html-keyboard-response","135","212920","0.0-1.0-184.0","0","0","50916","","null","","","null","20","","NaN","","","","","","","","","","","","","",""
"","response","","html-keyboard-response","136","213391","0.0-1.0-185.0-0.0","0","0","50916","","471","","","75","20","","","1","20","training","adjacent","AB","1","2","P.jpg","Q.jpg","0","1","0","",""
"","feedback","","html-keyboard-response","137","214393","0.0-1.0-186.0-0.0","0","0","50916","","null","","","null","20","","","","","","","","","","","","","","","",""
"","time_out","","html-keyboard-response","138","216395","0.0-1.0-188.0-0.0","0","0","50916","","null","","","null","20","","","","","","","","","","","","","","","",""
"","ITI","","html-keyboard-response","139","217396","0.0-1.0-189.0","0","0","50916","","null","","","null","20","","","","","","","","","","","","","","","NaN",""
"","S1","","html-keyboard-response","140","217648","0.0-1.0-191.0","0","0","50916","","null","","","null","21","","","","","","","","","","","","","","","",""
"","ISI","","html-keyboard-response","141","219650","0.0-1.0-192.0","0","0","50916","","null","","","null","21","NaN","","","","","","","","","","","","","","",""
"","S2","","html-keyboard-response","142","219902","0.0-1.0-193.0","0","0","50916","","null","","","null","21","","NaN","","","","","","","","","","","","","",""
"","response","","html-keyboard-response","143","220319","0.0-1.0-194.0-0.0","0","0","50916","","417","","","68","21","","","1","21","training","adjacent","DE","4","5","M.jpg","R.jpg","1","1","1","",""
"","feedback","","html-keyboard-response","144","221321","0.0-1.0-195.0-0.0","0","0","50916","","null","","","null","21","","","","","","","","","","","","","","","",""
"","ITI","","html-keyboard-response","145","222324","0.0-1.0-198.0","0","0","50916","","null","","","null","21","","","","","","","","","","","","","","","NaN",""
"","S1","","html-keyboard-response","146","222577","0.0-1.0-200.0","0","0","50916","","null","","","null","22","","","","","","","","","","","","","","","",""
"","ISI","","html-keyboard-response","147","224579","0.0-1.0-201.0","0","0","50916","","null","","","null","22","NaN","","","","","","","","","","","","","","",""
"","S2","","html-keyboard-response","148","224831","0.0-1.0-202.0","0","0","50916","","null","","","null","22","","NaN","","","","","","","","","","","","","",""
"","response","","html-keyboard-response","149","225311","0.0-1.0-203.0-0.0","0","0","50916","","479","","","75","22","","","1","22","training","adjacent","CD","3","4","L.jpg","M.jpg","0","1","0","",""
"","feedback","","html-keyboard-response","150","226313","0.0-1.0-204.0-0.0","0","0","50916","","null","","","null","22","","","","","","","","","","","","","","","",""
"","time_out","","html-keyboard-response","151","228314","0.0-1.0-206.0-0.0","0","0","50916","","null","","","null","22","","","","","","","","","","","","","","","",""
"","ITI","","html-keyboard-response","152","229316","0.0-1.0-207.0","0","0","50916","","null","","","null","22","","","","","","","","","","","","","","","NaN",""
"","S1","","html-keyboard-response","153","229567","0.0-1.0-209.0","0","0","50916","","null","","","null","23","","","","","","","","","","","","","","","",""
"","ISI","","html-keyboard-response","154","231569","0.0-1.0-210.0","0","0","50916","","null","","","null","23","NaN","","","","","","","","","","","","","","",""
"","S2","","html-keyboard-response","155","231822","0.0-1.0-211.0","0","0","50916","","null","","","null","23","","NaN","","","","","","","","","","","","","",""
"","response","","html-keyboard-response","156","232447","0.0-1.0-212.0-0.0","0","0","50916","","625","","","68","23","","","1","23","training","adjacent","BA","2","1","Q.jpg","P.jpg","1","0","0","",""
"","feedback","","html-keyboard-response","157","233449","0.0-1.0-213.0-0.0","0","0","50916","","null","","","null","23","","","","","","","","","","","","","","","",""
"","time_out","","html-keyboard-response","158","235451","0.0-1.0-215.0-0.0","0","0","50916","","null","","","null","23","","","","","","","","","","","","","","","",""
"","ITI","","html-keyboard-response","159","236453","0.0-1.0-216.0","0","0","50916","","null","","","null","23","","","","","","","","","","","","","","","NaN",""
"","S1","","html-keyboard-response","160","236705","0.0-1.0-218.0","0","0","50916","","null","","","null","24","","","","","","","","","","","","","","","",""
"","ISI","","html-keyboard-response","161","238706","0.0-1.0-219.0","0","0","50916","","null","","","null","24","NaN","","","","","","","","","","","","","","",""
"","S2","","html-keyboard-response","162","238958","0.0-1.0-220.0","0","0","50916","","null","","","null","24","","NaN","","","","","","","","","","","","","",""
"","response","","html-keyboard-response","163","239383","0.0-1.0-221.0-0.0","0","0","50916","","424","","","68","24","","","1","24","training","adjacent","AB","1","2","P.jpg","Q.jpg","1","1","1","",""
"","feedback","","html-keyboard-response","164","240385","0.0-1.0-222.0-0.0","0","0","50916","","null","","","null","24","","","","","","","","","","","","","","","",""
"","ITI","","html-keyboard-response","165","241386","0.0-1.0-225.0","0","0","50916","","null","","","null","24","","","","","","","","","","","","","","","NaN",""
"","S1","","html-keyboard-response","166","241638","0.0-1.0-227.0","0","0","50916","","null","","","null","25","","","","","","","","","","","","","","","",""
"","ISI","","html-keyboard-response","167","243640","0.0-1.0-228.0","0","0","50916","","null","","","null","25","NaN","","","","","","","","","","","","","","",""
"","S2","","html-keyboard-response","168","243892","0.0-1.0-229.0","0","0","50916","","null","","","null","25","","NaN","","","","","","","","","","","","","",""
"","response","","html-keyboard-response","169","244383","0.0-1.0-230.0-0.0","0","0","50916","","490","","","68","25","","","1","25","training","adjacent","CB","3","2","L.jpg","Q.jpg","1","0","0","",""
"","feedback","","html-keyboard-response","170","245385","0.0-1.0-231.0-0.0","0","0","50916","","null","","","null","25","","","","","","","","","","","","","","","",""
"","time_out","","html-keyboard-response","171","247387","0.0-1.0-233.0-0.0","0","0","50916","","null","","","null","25","","","","","","","","","","","","","","","",""
"","ITI","","html-keyboard-response","172","248389","0.0-1.0-234.0","0","0","50916","","null","","","null","25","","","","","","","","","","","","","","","NaN",""
"","S1","","html-keyboard-response","173","248640","0.0-1.0-236.0","0","0","50916","","null","","","null","26","","","","","","","","","","","","","","","",""
"","ISI","","html-keyboard-response","174","250641","0.0-1.0-237.0","0","0","50916","","null","","","null","26","NaN","","","","","","","","","","","","","","",""
"","S2","","html-keyboard-response","175","250892","0.0-1.0-238.0","0","0","50916","","null","","","null","26","","NaN","","","","","","","","","","","","","",""
"","response","","html-keyboard-response","176","251399","0.0-1.0-239.0-0.0","0","0","50916","","506","","","75","26","","","1","26","training","adjacent","ED","5","4","R.jpg","M.jpg","0","0","1","",""
"","feedback","","html-keyboard-response","177","252401","0.0-1.0-240.0-0.0","0","0","50916","","null","","","null","26","","","","","","","","","","","","","","","",""
"","ITI","","html-keyboard-response","178","253402","0.0-1.0-243.0","0","0","50916","","null","","","null","26","","","","","","","","","","","","","","","NaN",""
"","S1","","html-keyboard-response","179","253654","0.0-1.0-245.0","0","0","50916","","null","","","null","27","","","","","","","","","","","","","","","",""
"","ISI","","html-keyboard-response","180","255655","0.0-1.0-246.0","0","0","50916","","null","","","null","27","NaN","","","","","","","","","","","","","","",""
"","S2","","html-keyboard-response","181","255908","0.0-1.0-247.0","0","0","50916","","null","","","null","27","","NaN","","","","","","","","","","","","","",""
"","response","","html-keyboard-response","182","256359","0.0-1.0-248.0-0.0","0","0","50916","","451","","","68","27","","","1","27","training","adjacent","CB","3","2","L.jpg","Q.jpg","1","0","0","",""
"","feedback","","html-keyboard-response","183","257361","0.0-1.0-249.0-0.0","0","0","50916","","null","","","null","27","","","","","","","","","","","","","","","",""
"","time_out","","html-keyboard-response","184","259363","0.0-1.0-251.0-0.0","0","0","50916","","null","","","null","27","","","","","","","","","","","","","","","",""
"","ITI","","html-keyboard-response","185","260365","0.0-1.0-252.0","0","0","50916","","null","","","null","27","","","","","","","","","","","","","","","NaN",""
"","S1","","html-keyboard-response","186","260617","0.0-1.0-254.0","0","0","50916","","null","","","null","28","","","","","","","","","","","","","","","",""
"","ISI","","html-keyboard-response","187","262618","0.0-1.0-255.0","0","0","50916","","null","","","null","28","NaN","","","","","","","","","","","","","","",""
"","S2","","html-keyboard-response","188","262870","0.0-1.0-256.0","0","0","50916","","null","","","null","28","","NaN","","","","","","","","","","","","","",""
"","response","","html-keyboard-response","189","263175","0.0-1.0-257.0-0.0","0","0","50916","","304","","","75","28","","","1","28","training","adjacent","FE","6","5","O.jpg","R.jpg","0","0","1","",""
"","feedback","","html-keyboard-response","190","264178","0.0-1.0-258.0-0.0","0","0","50916","","null","","","null","28","","","","","","","","","","","","","","","",""
"","ITI","","html-keyboard-response","191","265180","0.0-1.0-261.0","0","0","50916","","null","","","null","28","","","","","","","","","","","","","","","NaN",""
"","S1","","html-keyboard-response","192","265432","0.0-1.0-263.0","0","0","50916","","null","","","null","29","","","","","","","","","","","","","","","",""
"","ISI","","html-keyboard-response","193","267434","0.0-1.0-264.0","0","0","50916","","null","","","null","29","NaN","","","","","","","","","","","","","","",""
"","S2","","html-keyboard-response","194","267686","0.0-1.0-265.0","0","0","50916","","null","","","null","29","","NaN","","","","","","","","","","","","","",""
"","response","","html-keyboard-response","195","268127","0.0-1.0-266.0-0.0","0","0","50916","","440","","","75","29","","","1","29","training","adjacent","EF","5","6","R.jpg","O.jpg","0","1","0","",""
"","feedback","","html-keyboard-response","196","269129","0.0-1.0-267.0-0.0","0","0","50916","","null","","","null","29","","","","","","","","","","","","","","","",""
"","time_out","","html-keyboard-response","197","271131","0.0-1.0-269.0-0.0","0","0","50916","","null","","","null","29","","","","","","","","","","","","","","","",""
"","ITI","","html-keyboard-response","198","272132","0.0-1.0-270.0","0","0","50916","","null","","","null","29","","","","","","","","","","","","","","","NaN",""
"","S1","","html-keyboard-response","199","272384","0.0-1.0-272.0","0","0","50916","","null","","","null","30","","","","","","","","","","","","","","","",""
"","ISI","","html-keyboard-response","200","274386","0.0-1.0-273.0","0","0","50916","","null","","","null","30","NaN","","","","","","","","","","","","","","",""
"","S2","","html-keyboard-response","201","274637","0.0-1.0-274.0","0","0","50916","","null","","","null","30","","NaN","","","","","","","","","","","","","",""
"","response","","html-keyboard-response","202","275311","0.0-1.0-275.0-0.0","0","0","50916","","674","","","75","30","","","1","30","training","adjacent","FE","6","5","O.jpg","R.jpg","0","0","1","",""
"","feedback","","html-keyboard-response","203","276313","0.0-1.0-276.0-0.0","0","0","50916","","null","","","null","30","","","","","","","","","","","","","","","",""
"","ITI","","html-keyboard-response","204","277318","0.0-1.0-279.0","0","0","50916","","null","","","null","30","","","","","","","","","","","","","","","NaN",""
"","S1","","html-keyboard-response","205","277583","0.0-1.0-281.0","0","0","50916","","null","","","null","31","","","","","","","","","","","","","","","",""
"","ISI","","html-keyboard-response","206","279584","0.0-1.0-282.0","0","0","50916","","null","","","null","31","NaN","","","","","","","","","","","","","","",""
"","S2","","html-keyboard-response","207","279836","0.0-1.0-283.0","0","0","50916","","null","","","null","31","","NaN","","","","","","","","","","","","","",""
"","response","","html-keyboard-response","208","280575","0.0-1.0-284.0-0.0","0","0","50916","","738","","","75","31","","","1","31","training","adjacent","GF","7","6","N.jpg","O.jpg","0","0","1","",""
"","feedback","","html-keyboard-response","209","281577","0.0-1.0-285.0-0.0","0","0","50916","","null","","","null","31","","","","","","","","","","","","","","","",""
"","ITI","","html-keyboard-response","210","282579","0.0-1.0-288.0","0","0","50916","","null","","","null","31","","","","","","","","","","","","","","","NaN",""
"","S1","","html-keyboard-response","211","282830","0.0-1.0-290.0","0","0","50916","","null","","","null","32","","","","","","","","","","","","","","","",""
"","ISI","","html-keyboard-response","212","284832","0.0-1.0-291.0","0","0","50916","","null","","","null","32","NaN","","","","","","","","","","","","","","",""
"","S2","","html-keyboard-response","213","285084","0.0-1.0-292.0","0","0","50916","","null","","","null","32","","NaN","","","","","","","","","","","","","",""
"","response","","html-keyboard-response","214","285791","0.0-1.0-293.0-0.0","0","0","50916","","707","","","68","32","","","1","32","training","adjacent","BC","2","3","Q.jpg","L.jpg","1","1","1","",""
"","feedback","","html-keyboard-response","215","286793","0.0-1.0-294.0-0.0","0","0","50916","","null","","","null","32","","","","","","","","","","","","","","","",""
"","ITI","","html-keyboard-response","216","287796","0.0-1.0-297.0","0","0","50916","","null","","","null","32","","","","","","","","","","","","","","","NaN",""
"","S1","","html-keyboard-response","217","288048","0.0-1.0-299.0","0","0","50916","","null","","","null","33","","","","","","","","","","","","","","","",""
"","ISI","","html-keyboard-response","218","290049","0.0-1.0-300.0","0","0","50916","","null","","","null","33","NaN","","","","","","","","","","","","","","",""
"","S2","","html-keyboard-response","219","290300","0.0-1.0-301.0","0","0","50916","","null","","","null","33","","NaN","","","","","","","","","","","","","",""
"","response","","html-keyboard-response","220","290983","0.0-1.0-302.0-0.0","0","0","50916","","682","","","68","33","","","1","33","training","adjacent","BA","2","1","Q.jpg","P.jpg","1","0","0","",""
"","feedback","","html-keyboard-response","221","291985","0.0-1.0-303.0-0.0","0","0","50916","","null","","","null","33","","","","","","","","","","","","","","","",""
"","time_out","","html-keyboard-response","222","293986","0.0-1.0-305.0-0.0","0","0","50916","","null","","","null","33","","","","","","","","","","","","","","","",""
"","ITI","","html-keyboard-response","223","294988","0.0-1.0-306.0","0","0","50916","","null","","","null","33","","","","","","","","","","","","","","","NaN",""
"","S1","","html-keyboard-response","224","295240","0.0-1.0-308.0","0","0","50916","","null","","","null","34","","","","","","","","","","","","","","","",""
"","ISI","","html-keyboard-response","225","297241","0.0-1.0-309.0","0","0","50916","","null","","","null","34","NaN","","","","","","","","","","","","","","",""
"","S2","","html-keyboard-response","226","297493","0.0-1.0-310.0","0","0","50916","","null","","","null","34","","NaN","","","","","","","","","","","","","",""
"","response","","html-keyboard-response","227","297935","0.0-1.0-311.0-0.0","0","0","50916","","441","","","68","34","","","1","34","training","adjacent","DE","4","5","M.jpg","R.jpg","1","1","1","",""
"","feedback","","html-keyboard-response","228","298938","0.0-1.0-312.0-0.0","0","0","50916","","null","","","null","34","","","","","","","","","","","","","","","",""
"","ITI","","html-keyboard-response","229","299940","0.0-1.0-315.0","0","0","50916","","null","","","null","34","","","","","","","","","","","","","","","NaN",""
"","S1","","html-keyboard-response","230","300191","0.0-1.0-317.0","0","0","50916","","null","","","null","35","","","","","","","","","","","","","","","",""
"","ISI","","html-keyboard-response","231","302193","0.0-1.0-318.0","0","0","50916","","null","","","null","35","NaN","","","","","","","","","","","","","","",""
"","S2","","html-keyboard-response","232","302444","0.0-1.0-319.0","0","0","50916","","null","","","null","35","","NaN","","","","","","","","","","","","","",""
"","response","","html-keyboard-response","233","303015","0.0-1.0-320.0-0.0","0","0","50916","","570","","","68","35","","","1","35","training","adjacent","FG","6","7","O.jpg","N.jpg","1","1","1","",""
"","feedback","","html-keyboard-response","234","304018","0.0-1.0-321.0-0.0","0","0","50916","","null","","","null","35","","","","","","","","","","","","","","","",""
"","ITI","","html-keyboard-response","235","305026","0.0-1.0-324.0","0","0","50916","","null","","","null","35","","","","","","","","","","","","","","","NaN",""
"","S1","","html-keyboard-response","236","305277","0.0-1.0-326.0","0","0","50916","","null","","","null","36","","","","","","","","","","","","","","","",""
"","ISI","","html-keyboard-response","237","307278","0.0-1.0-327.0","0","0","50916","","null","","","null","36","NaN","","","","","","","","","","","","","","",""
"","S2","","html-keyboard-response","238","307530","0.0-1.0-328.0","0","0","50916","","null","","","null","36","","NaN","","","","","","","","","","","","","",""
"","response","","html-keyboard-response","239","308311","0.0-1.0-329.0-0.0","0","0","50916","","780","","","68","36","","","1","36","training","adjacent","GF","7","6","N.jpg","O.jpg","1","0","0","",""
"","feedback","","html-keyboard-response","240","309313","0.0-1.0-330.0-0.0","0","0","50916","","null","","","null","36","","","","","","","","","","","","","","","",""
"","time_out","","html-keyboard-response","241","311315","0.0-1.0-332.0-0.0","0","0","50916","","null","","","null","36","","","","","","","","","","","","","","","",""
"","ITI","","html-keyboard-response","242","312317","0.0-1.0-333.0","0","0","50916","","null","","","null","36","","","","","","","","","","","","","","","NaN",""
"","S1","","html-keyboard-response","243","312570","0.0-1.0-335.0","0","0","50916","","null","","","null","37","","","","","","","","","","","","","","","",""
"","ISI","","html-keyboard-response","244","314572","0.0-1.0-336.0","0","0","50916","","null","","","null","37","NaN","","","","","","","","","","","","","","",""
"","S2","","html-keyboard-response","245","314823","0.0-1.0-337.0","0","0","50916","","null","","","null","37","","NaN","","","","","","","","","","","","","",""
"","response","","html-keyboard-response","246","315151","0.0-1.0-338.0-0.0","0","0","50916","","328","","","68","37","","","1","37","training","adjacent","DE","4","5","M.jpg","R.jpg","1","1","1","",""
"","feedback","","html-keyboard-response","247","316154","0.0-1.0-339.0-0.0","0","0","50916","","null","","","null","37","","","","","","","","","","","","","","","",""
"","ITI","","html-keyboard-response","248","317155","0.0-1.0-342.0","0","0","50916","","null","","","null","37","","","","","","","","","","","","","","","NaN",""
"","S1","","html-keyboard-response","249","317407","0.0-1.0-344.0","0","0","50916","","null","","","null","38","","","","","","","","","","","","","","","",""
"","ISI","","html-keyboard-response","250","319408","0.0-1.0-345.0","0","0","50916","","null","","","null","38","NaN","","","","","","","","","","","","","","",""
"","S2","","html-keyboard-response","251","319659","0.0-1.0-346.0","0","0","50916","","null","","","null","38","","NaN","","","","","","","","","","","","","",""
"","response","","html-keyboard-response","252","320823","0.0-1.0-347.0-0.0","0","0","50916","","1163","","","75","38","","","1","38","training","adjacent","FG","6","7","O.jpg","N.jpg","0","1","0","",""
"","feedback","","html-keyboard-response","253","321825","0.0-1.0-348.0-0.0","0","0","50916","","null","","","null","38","","","","","","","","","","","","","","","",""
"","time_out","","html-keyboard-response","254","323826","0.0-1.0-350.0-0.0","0","0","50916","","null","","","null","38","","","","","","","","","","","","","","","",""
"","ITI","","html-keyboard-response","255","324828","0.0-1.0-351.0","0","0","50916","","null","","","null","38","","","","","","","","","","","","","","","NaN",""
"","S1","","html-keyboard-response","256","325079","0.0-1.0-353.0","0","0","50916","","null","","","null","39","","","","","","","","","","","","","","","",""
"","ISI","","html-keyboard-response","257","327081","0.0-1.0-354.0","0","0","50916","","null","","","null","39","NaN","","","","","","","","","","","","","","",""
"","S2","","html-keyboard-response","258","327333","0.0-1.0-355.0","0","0","50916","","null","","","null","39","","NaN","","","","","","","","","","","","","",""
"","response","","html-keyboard-response","259","327599","0.0-1.0-356.0-0.0","0","0","50916","","265","","","68","39","","","1","39","training","adjacent","CB","3","2","L.jpg","Q.jpg","1","0","0","",""
"","feedback","","html-keyboard-response","260","328601","0.0-1.0-357.0-0.0","0","0","50916","","null","","","null","39","","","","","","","","","","","","","","","",""
"","time_out","","html-keyboard-response","261","330603","0.0-1.0-359.0-0.0","0","0","50916","","null","","","null","39","","","","","","","","","","","","","","","",""
"","ITI","","html-keyboard-response","262","331605","0.0-1.0-360.0","0","0","50916","","null","","","null","39","","","","","","","","","","","","","","","NaN",""
"","S1","","html-keyboard-response","263","331857","0.0-1.0-362.0","0","0","50916","","null","","","null","40","","","","","","","","","","","","","","","",""
"","ISI","","html-keyboard-response","264","333859","0.0-1.0-363.0","0","0","50916","","null","","","null","40","NaN","","","","","","","","","","","","","","",""
"","S2","","html-keyboard-response","265","334111","0.0-1.0-364.0","0","0","50916","","null","","","null","40","","NaN","","","","","","","","","","","","","",""
"","response","","html-keyboard-response","266","334495","0.0-1.0-365.0-0.0","0","0","50916","","384","","","68","40","","","1","40","training","adjacent","EF","5","6","R.jpg","O.jpg","1","1","1","",""
"","feedback","","html-keyboard-response","267","335497","0.0-1.0-366.0-0.0","0","0","50916","","null","","","null","40","","","","","","","","","","","","","","","",""
"","ITI","","html-keyboard-response","268","336499","0.0-1.0-369.0","0","0","50916","","null","","","null","40","","","","","","","","","","","","","","","NaN",""
"","S1","","html-keyboard-response","269","336751","0.0-1.0-371.0","0","0","50916","","null","","","null","41","","","","","","","","","","","","","","","",""
"","ISI","","html-keyboard-response","270","338753","0.0-1.0-372.0","0","0","50916","","null","","","null","41","NaN","","","","","","","","","","","","","","",""
"","S2","","html-keyboard-response","271","339005","0.0-1.0-373.0","0","0","50916","","null","","","null","41","","NaN","","","","","","","","","","","","","",""
"","response","","html-keyboard-response","272","339511","0.0-1.0-374.0-0.0","0","0","50916","","506","","","75","41","","","1","41","training","adjacent","CD","3","4","L.jpg","M.jpg","0","1","0","",""
"","feedback","","html-keyboard-response","273","340513","0.0-1.0-375.0-0.0","0","0","50916","","null","","","null","41","","","","","","","","","","","","","","","",""
"","time_out","","html-keyboard-response","274","342516","0.0-1.0-377.0-0.0","0","0","50916","","null","","","null","41","","","","","","","","","","","","","","","",""
"","ITI","","html-keyboard-response","275","343518","0.0-1.0-378.0","0","0","50916","","null","","","null","41","","","","","","","","","","","","","","","NaN",""
"","S1","","html-keyboard-response","276","343770","0.0-1.0-380.0","0","0","50916","","null","","","null","42","","","","","","","","","","","","","","","",""
"","ISI","","html-keyboard-response","277","345771","0.0-1.0-381.0","0","0","50916","","null","","","null","42","NaN","","","","","","","","","","","","","","",""
"","S2","","html-keyboard-response","278","346023","0.0-1.0-382.0","0","0","50916","","null","","","null","42","","NaN","","","","","","","","","","","","","",""
"","response","","html-keyboard-response","279","346592","0.0-1.0-383.0-0.0","0","0","50916","","568","","","68","42","","","1","42","training","adjacent","CD","3","4","L.jpg","M.jpg","1","1","1","",""
"","feedback","","html-keyboard-response","280","347593","0.0-1.0-384.0-0.0","0","0","50916","","null","","","null","42","","","","","","","","","","","","","","","",""
"","ITI","","html-keyboard-response","281","348595","0.0-1.0-387.0","0","0","50916","","null","","","null","42","","","","","","","","","","","","","","","NaN",""
"","S1","","html-keyboard-response","282","348847","0.0-1.0-389.0","0","0","50916","","null","","","null","43","","","","","","","","","","","","","","","",""
"","ISI","","html-keyboard-response","283","350849","0.0-1.0-390.0","0","0","50916","","null","","","null","43","NaN","","","","","","","","","","","","","","",""
"","S2","","html-keyboard-response","284","351101","0.0-1.0-391.0","0","0","50916","","null","","","null","43","","NaN","","","","","","","","","","","","","",""
"","response","","html-keyboard-response","285","351648","0.0-1.0-392.0-0.0","0","0","50916","","546","","","68","43","","","1","43","training","adjacent","BA","2","1","Q.jpg","P.jpg","1","0","0","",""
"","feedback","","html-keyboard-response","286","352650","0.0-1.0-393.0-0.0","0","0","50916","","null","","","null","43","","","","","","","","","","","","","","","",""
"","time_out","","html-keyboard-response","287","354653","0.0-1.0-395.0-0.0","0","0","50916","","null","","","null","43","","","","","","","","","","","","","","","",""
"","ITI","","html-keyboard-response","288","355654","0.0-1.0-396.0","0","0","50916","","null","","","null","43","","","","","","","","","","","","","","","NaN",""
"","S1","","html-keyboard-response","289","355906","0.0-1.0-398.0","0","0","50916","","null","","","null","44","","","","","","","","","","","","","","","",""
"","ISI","","html-keyboard-response","290","357907","0.0-1.0-399.0","0","0","50916","","null","","","null","44","NaN","","","","","","","","","","","","","","",""
"","S2","","html-keyboard-response","291","358159","0.0-1.0-400.0","0","0","50916","","null","","","null","44","","NaN","","","","","","","","","","","","","",""
"","response","","html-keyboard-response","292","358560","0.0-1.0-401.0-0.0","0","0","50916","","399","","","75","44","","","1","44","training","adjacent","ED","5","4","R.jpg","M.jpg","0","0","1","",""
"","feedback","","html-keyboard-response","293","359561","0.0-1.0-402.0-0.0","0","0","50916","","null","","","null","44","","","","","","","","","","","","","","","",""
"","ITI","","html-keyboard-response","294","360563","0.0-1.0-405.0","0","0","50916","","null","","","null","44","","","","","","","","","","","","","","","NaN",""
"","S1","","html-keyboard-response","295","360814","0.0-1.0-407.0","0","0","50916","","null","","","null","45","","","","","","","","","","","","","","","",""
"","ISI","","html-keyboard-response","296","362816","0.0-1.0-408.0","0","0","50916","","null","","","null","45","NaN","","","","","","","","","","","","","","",""
"","S2","","html-keyboard-response","297","363069","0.0-1.0-409.0","0","0","50916","","null","","","null","45","","NaN","","","","","","","","","","","","","",""
"","response","","html-keyboard-response","298","363407","0.0-1.0-410.0-0.0","0","0","50916","","338","","","68","45","","","1","45","training","adjacent","DC","4","3","M.jpg","L.jpg","1","0","0","",""
"","feedback","","html-keyboard-response","299","364410","0.0-1.0-411.0-0.0","0","0","50916","","null","","","null","45","","","","","","","","","","","","","","","",""
"","time_out","","html-keyboard-response","300","366412","0.0-1.0-413.0-0.0","0","0","50916","","null","","","null","45","","","","","","","","","","","","","","","",""
"","ITI","","html-keyboard-response","301","367415","0.0-1.0-414.0","0","0","50916","","null","","","null","45","","","","","","","","","","","","","","","NaN",""
"","S1","","html-keyboard-response","302","367667","0.0-1.0-416.0","0","0","50916","","null","","","null","46","","","","","","","","","","","","","","","",""
"","ISI","","html-keyboard-response","303","369668","0.0-1.0-417.0","0","0","50916","","null","","","null","46","NaN","","","","","","","","","","","","","","",""
"","S2","","html-keyboard-response","304","369919","0.0-1.0-418.0","0","0","50916","","null","","","null","46","","NaN","","","","","","","","","","","","","",""
"","response","","html-keyboard-response","305","370488","0.0-1.0-419.0-0.0","0","0","50916","","567","","","75","46","","","1","46","training","adjacent","FE","6","5","O.jpg","R.jpg","0","0","1","",""
"","feedback","","html-keyboard-response","306","371490","0.0-1.0-420.0-0.0","0","0","50916","","null","","","null","46","","","","","","","","","","","","","","","",""
"","ITI","","html-keyboard-response","307","372492","0.0-1.0-423.0","0","0","50916","","null","","","null","46","","","","","","","","","","","","","","","NaN",""
"","S1","","html-keyboard-response","308","372744","0.0-1.0-425.0","0","0","50916","","null","","","null","47","","","","","","","","","","","","","","","",""
"","ISI","","html-keyboard-response","309","374745","0.0-1.0-426.0","0","0","50916","","null","","","null","47","NaN","","","","","","","","","","","","","","",""
"","S2","","html-keyboard-response","310","374997","0.0-1.0-427.0","0","0","50916","","null","","","null","47","","NaN","","","","","","","","","","","","","",""
"","response","","html-keyboard-response","311","375496","0.0-1.0-428.0-0.0","0","0","50916","","498","","","68","47","","","1","47","training","adjacent","AB","1","2","P.jpg","Q.jpg","1","1","1","",""
"","feedback","","html-keyboard-response","312","376497","0.0-1.0-429.0-0.0","0","0","50916","","null","","","null","47","","","","","","","","","","","","","","","",""
"","ITI","","html-keyboard-response","313","377500","0.0-1.0-432.0","0","0","50916","","null","","","null","47","","","","","","","","","","","","","","","NaN",""
"","block_over","","html-keyboard-response","314","385687","0.0-1.0-433.0-0.0","0","0","50916","","8186","","","32","47","","","","","","","","","","","","","","","",""
"","S1","","html-keyboard-response","315","385939","0.0-1.0-434.0","0","0","50916","","null","","","null","48","","","","","","","","","","","","","","","",""
"","ISI","","html-keyboard-response","316","387941","0.0-1.0-435.0","0","0","50916","","null","","","null","48","NaN","","","","","","","","","","","","","","",""
"","S2","","html-keyboard-response","317","388194","0.0-1.0-436.0","0","0","50916","","null","","","null","48","","NaN","","","","","","","","","","","","","",""
"","response","","html-keyboard-response","318","388576","0.0-1.0-437.0-0.0","0","0","50916","","381","","","75","48","","","2","48","training","adjacent","CD","3","4","L.jpg","M.jpg","0","1","0","",""
"","feedback","","html-keyboard-response","319","389577","0.0-1.0-438.0-0.0","0","0","50916","","null","","","null","48","","","","","","","","","","","","","","","",""
"","time_out","","html-keyboard-response","320","391579","0.0-1.0-440.0-0.0","0","0","50916","","null","","","null","48","","","","","","","","","","","","","","","",""
"","ITI","","html-keyboard-response","321","392580","0.0-1.0-441.0","0","0","50916","","null","","","null","48","","","","","","","","","","","","","","","NaN",""
"","S1","","html-keyboard-response","322","392831","0.0-1.0-443.0","0","0","50916","","null","","","null","49","","","","","","","","","","","","","","","",""
"","ISI","","html-keyboard-response","323","394832","0.0-1.0-444.0","0","0","50916","","null","","","null","49","NaN","","","","","","","","","","","","","","",""
"","S2","","html-keyboard-response","324","395085","0.0-1.0-445.0","0","0","50916","","null","","","null","49","","NaN","","","","","","","","","","","","","",""
"","response","","html-keyboard-response","325","395472","0.0-1.0-446.0-0.0","0","0","50916","","386","","","75","49","","","2","49","training","adjacent","AB","1","2","P.jpg","Q.jpg","0","1","0","",""
"","feedback","","html-keyboard-response","326","396474","0.0-1.0-447.0-0.0","0","0","50916","","null","","","null","49","","","","","","","","","","","","","","","",""
"","time_out","","html-keyboard-response","327","398475","0.0-1.0-449.0-0.0","0","0","50916","","null","","","null","49","","","","","","","","","","","","","","","",""
"","ITI","","html-keyboard-response","328","399477","0.0-1.0-450.0","0","0","50916","","null","","","null","49","","","","","","","","","","","","","","","NaN",""
"","S1","","html-keyboard-response","329","399728","0.0-1.0-452.0","0","0","50916","","null","","","null","50","","","","","","","","","","","","","","","",""
"","ISI","","html-keyboard-response","330","401730","0.0-1.0-453.0","0","0","50916","","null","","","null","50","NaN","","","","","","","","","","","","","","",""
"","S2","","html-keyboard-response","331","401982","0.0-1.0-454.0","0","0","50916","","null","","","null","50","","NaN","","","","","","","","","","","","","",""
"","response","","html-keyboard-response","332","402071","0.0-1.0-455.0-0.0","0","0","50916","","89","","","75","50","","","2","50","training","adjacent","FE","6","5","O.jpg","R.jpg","0","0","1","",""
"","feedback","","html-keyboard-response","333","403073","0.0-1.0-456.0-0.0","0","0","50916","","null","","","null","50","","","","","","","","","","","","","","","",""
"","ITI","","html-keyboard-response","334","404075","0.0-1.0-459.0","0","0","50916","","null","","","null","50","","","","","","","","","","","","","","","NaN",""
"","S1","","html-keyboard-response","335","404327","0.0-1.0-461.0","0","0","50916","","null","","","null","51","","","","","","","","","","","","","","","",""
"","ISI","","html-keyboard-response","336","406329","0.0-1.0-462.0","0","0","50916","","null","","","null","51","NaN","","","","","","","","","","","","","","",""
"","S2","","html-keyboard-response","337","406581","0.0-1.0-463.0","0","0","50916","","null","","","null","51","","NaN","","","","","","","","","","","","","",""
"","response","","html-keyboard-response","338","407031","0.0-1.0-464.0-0.0","0","0","50916","","450","","","68","51","","","2","51","training","adjacent","DC","4","3","M.jpg","L.jpg","1","0","0","",""
"","feedback","","html-keyboard-response","339","408034","0.0-1.0-465.0-0.0","0","0","50916","","null","","","null","51","","","","","","","","","","","","","","","",""
"","time_out","","html-keyboard-response","340","410035","0.0-1.0-467.0-0.0","0","0","50916","","null","","","null","51","","","","","","","","","","","","","","","",""
"","ITI","","html-keyboard-response","341","411037","0.0-1.0-468.0","0","0","50916","","null","","","null","51","","","","","","","","","","","","","","","NaN",""
"","S1","","html-keyboard-response","342","411289","0.0-1.0-470.0","0","0","50916","","null","","","null","52","","","","","","","","","","","","","","","",""
"","ISI","","html-keyboard-response","343","413290","0.0-1.0-471.0","0","0","50916","","238","","","68","52","d","","","","","","","","","","","","","","",""
"","S2","","html-keyboard-response","344","413542","0.0-1.0-472.0","0","0","50916","","null","","","null","52","","NaN","","","","","","","","","","","","","",""
"","response","","html-keyboard-response","345","414080","0.0-1.0-473.0-0.0","0","0","50916","","536","","","68","52","","","2","52","training","adjacent","DE","4","5","M.jpg","R.jpg","1","1","1","",""
"","feedback","","html-keyboard-response","346","415082","0.0-1.0-474.0-0.0","0","0","50916","","null","","","null","52","","","","","","","","","","","","","","","",""
"","ITI","","html-keyboard-response","347","416084","0.0-1.0-477.0","0","0","50916","","null","","","null","52","","","","","","","","","","","","","","","NaN",""
"","S1","","html-keyboard-response","348","416336","0.0-1.0-479.0","0","0","50916","","null","","","null","53","","","","","","","","","","","","","","","",""
"","ISI","","html-keyboard-response","349","418338","0.0-1.0-480.0","0","0","50916","","null","","","null","53","NaN","","","","","","","","","","","","","","",""
"","S2","","html-keyboard-response","350","418589","0.0-1.0-481.0","0","0","50916","","null","","","null","53","","NaN","","","","","","","","","","","","","",""
"","response","","html-keyboard-response","351","418927","0.0-1.0-482.0-0.0","0","0","50916","","337","","","68","53","","","2","53","training","adjacent","DE","4","5","M.jpg","R.jpg","1","1","1","",""
"","feedback","","html-keyboard-response","352","419930","0.0-1.0-483.0-0.0","0","0","50916","","null","","","null","53","","","","","","","","","","","","","","","",""
"","ITI","","html-keyboard-response","353","420931","0.0-1.0-486.0","0","0","50916","","null","","","null","53","","","","","","","","","","","","","","","NaN",""
"","S1","","html-keyboard-response","354","421183","0.0-1.0-488.0","0","0","50916","","null","","","null","54","","","","","","","","","","","","","","","",""
"","ISI","","html-keyboard-response","355","423185","0.0-1.0-489.0","0","0","50916","","null","","","null","54","NaN","","","","","","","","","","","","","","",""
"","S2","","html-keyboard-response","356","423437","0.0-1.0-490.0","0","0","50916","","null","","","null","54","","NaN","","","","","","","","","","","","","",""
"","response","","html-keyboard-response","357","423535","0.0-1.0-491.0-0.0","0","0","50916","","98","","","75","54","","","2","54","training","adjacent","AB","1","2","P.jpg","Q.jpg","0","1","0","",""
"","feedback","","html-keyboard-response","358","424537","0.0-1.0-492.0-0.0","0","0","50916","","null","","","null","54","","","","","","","","","","","","","","","",""
"","time_out","","html-keyboard-response","359","426540","0.0-1.0-494.0-0.0","0","0","50916","","null","","","null","54","","","","","","","","","","","","","","","",""
"","ITI","","html-keyboard-response","360","427542","0.0-1.0-495.0","0","0","50916","","null","","","null","54","","","","","","","","","","","","","","","NaN",""
"","S1","","html-keyboard-response","361","427794","0.0-1.0-497.0","0","0","50916","","null","","","null","55","","","","","","","","","","","","","","","",""
"","ISI","","html-keyboard-response","362","429796","0.0-1.0-498.0","0","0","50916","","null","","","null","55","NaN","","","","","","","","","","","","","","",""
"","S2","","html-keyboard-response","363","430048","0.0-1.0-499.0","0","0","50916","","null","","","null","55","","NaN","","","","","","","","","","","","","",""
"","response","","html-keyboard-response","364","430768","0.0-1.0-500.0-0.0","0","0","50916","","719","","","75","55","","","2","55","training","adjacent","CB","3","2","L.jpg","Q.jpg","0","0","1","",""
"","feedback","","html-keyboard-response","365","431770","0.0-1.0-501.0-0.0","0","0","50916","","null","","","null","55","","","","","","","","","","","","","","","",""
"","ITI","","html-keyboard-response","366","432772","0.0-1.0-504.0","0","0","50916","","null","","","null","55","","","","","","","","","","","","","","","NaN",""
"","S1","","html-keyboard-response","367","433031","0.0-1.0-506.0","0","0","50916","","null","","","null","56","","","","","","","","","","","","","","","",""
"","ISI","","html-keyboard-response","368","435034","0.0-1.0-507.0","0","0","50916","","null","","","null","56","NaN","","","","","","","","","","","","","","",""
"","S2","","html-keyboard-response","369","435285","0.0-1.0-508.0","0","0","50916","","null","","","null","56","","NaN","","","","","","","","","","","","","",""
"","response","","html-keyboard-response","370","435695","0.0-1.0-509.0-0.0","0","0","50916","","409","","","68","56","","","2","56","training","adjacent","FG","6","7","O.jpg","N.jpg","1","1","1","",""
"","feedback","","html-keyboard-response","371","436697","0.0-1.0-510.0-0.0","0","0","50916","","null","","","null","56","","","","","","","","","","","","","","","",""
"","ITI","","html-keyboard-response","372","437699","0.0-1.0-513.0","0","0","50916","","null","","","null","56","","","","","","","","","","","","","","","NaN",""
"","S1","","html-keyboard-response","373","437950","0.0-1.0-515.0","0","0","50916","","null","","","null","57","","","","","","","","","","","","","","","",""
"","ISI","","html-keyboard-response","374","439952","0.0-1.0-516.0","0","0","50916","","null","","","null","57","NaN","","","","","","","","","","","","","","",""
"","S2","","html-keyboard-response","375","440203","0.0-1.0-517.0","0","0","50916","","null","","","null","57","","NaN","","","","","","","","","","","","","",""
"","response","","html-keyboard-response","376","440840","0.0-1.0-518.0-0.0","0","0","50916","","635","","","75","57","","","2","57","training","adjacent","AB","1","2","P.jpg","Q.jpg","0","1","0","",""
"","feedback","","html-keyboard-response","377","441841","0.0-1.0-519.0-0.0","0","0","50916","","null","","","null","57","","","","","","","","","","","","","","","",""
"","time_out","","html-keyboard-response","378","443843","0.0-1.0-521.0-0.0","0","0","50916","","null","","","null","57","","","","","","","","","","","","","","","",""
"","ITI","","html-keyboard-response","379","444845","0.0-1.0-522.0","0","0","50916","","null","","","null","57","","","","","","","","","","","","","","","NaN",""
"","S1","","html-keyboard-response","380","445097","0.0-1.0-524.0","0","0","50916","","null","","","null","58","","","","","","","","","","","","","","","",""
"","ISI","","html-keyboard-response","381","447099","0.0-1.0-525.0","0","0","50916","","null","","","null","58","NaN","","","","","","","","","","","","","","",""
"","S2","","html-keyboard-response","382","447352","0.0-1.0-526.0","0","0","50916","","null","","","null","58","","NaN","","","","","","","","","","","","","",""
"","response","","html-keyboard-response","383","447615","0.0-1.0-527.0-0.0","0","0","50916","","263","","","68","58","","","2","58","training","adjacent","DC","4","3","M.jpg","L.jpg","1","0","0","",""
"","feedback","","html-keyboard-response","384","448618","0.0-1.0-528.0-0.0","0","0","50916","","null","","","null","58","","","","","","","","","","","","","","","",""
"","time_out","","html-keyboard-response","385","450620","0.0-1.0-530.0-0.0","0","0","50916","","null","","","null","58","","","","","","","","","","","","","","","",""
"","ITI","","html-keyboard-response","386","451622","0.0-1.0-531.0","0","0","50916","","null","","","null","58","","","","","","","","","","","","","","","NaN",""
"","S1","","html-keyboard-response","387","451874","0.0-1.0-533.0","0","0","50916","","null","","","null","59","","","","","","","","","","","","","","","",""
"","ISI","","html-keyboard-response","388","453876","0.0-1.0-534.0","0","0","50916","","null","","","null","59","NaN","","","","","","","","","","","","","","",""
"","S2","","html-keyboard-response","389","454128","0.0-1.0-535.0","0","0","50916","","null","","","null","59","","NaN","","","","","","","","","","","","","",""
"","response","","html-keyboard-response","390","454631","0.0-1.0-536.0-0.0","0","0","50916","","502","","","68","59","","","2","59","training","adjacent","BC","2","3","Q.jpg","L.jpg","1","1","1","",""
"","feedback","","html-keyboard-response","391","455633","0.0-1.0-537.0-0.0","0","0","50916","","null","","","null","59","","","","","","","","","","","","","","","",""
"","ITI","","html-keyboard-response","392","456634","0.0-1.0-540.0","0","0","50916","","null","","","null","59","","","","","","","","","","","","","","","NaN",""
"","S1","","html-keyboard-response","393","456887","0.0-1.0-542.0","0","0","50916","","null","","","null","60","","","","","","","","","","","","","","","",""
"","ISI","","html-keyboard-response","394","458889","0.0-1.0-543.0","0","0","50916","","null","","","null","60","NaN","","","","","","","","","","","","","","",""
"","S2","","html-keyboard-response","395","459140","0.0-1.0-544.0","0","0","50916","","null","","","null","60","","NaN","","","","","","","","","","","","","",""
"","response","","html-keyboard-response","396","459768","0.0-1.0-545.0-0.0","0","0","50916","","626","","","68","60","","","2","60","training","adjacent","GF","7","6","N.jpg","O.jpg","1","0","0","",""
"","feedback","","html-keyboard-response","397","460770","0.0-1.0-546.0-0.0","0","0","50916","","null","","","null","60","","","","","","","","","","","","","","","",""
"","time_out","","html-keyboard-response","398","462771","0.0-1.0-548.0-0.0","0","0","50916","","null","","","null","60","","","","","","","","","","","","","","","",""
"","ITI","","html-keyboard-response","399","463773","0.0-1.0-549.0","0","0","50916","","null","","","null","60","","","","","","","","","","","","","","","NaN",""
"","S1","","html-keyboard-response","400","464025","0.0-1.0-551.0","0","0","50916","","null","","","null","61","","","","","","","","","","","","","","","",""
"","ISI","","html-keyboard-response","401","466027","0.0-1.0-552.0","0","0","50916","","null","","","null","61","NaN","","","","","","","","","","","","","","",""
"","S2","","html-keyboard-response","402","466279","0.0-1.0-553.0","0","0","50916","","null","","","null","61","","NaN","","","","","","","","","","","","","",""
"","response","","html-keyboard-response","403","467120","0.0-1.0-554.0-0.0","0","0","50916","","839","","","68","61","","","2","61","training","adjacent","FG","6","7","O.jpg","N.jpg","1","1","1","",""
"","feedback","","html-keyboard-response","404","468122","0.0-1.0-555.0-0.0","0","0","50916","","null","","","null","61","","","","","","","","","","","","","","","",""
"","ITI","","html-keyboard-response","405","469124","0.0-1.0-558.0","0","0","50916","","null","","","null","61","","","","","","","","","","","","","","","NaN",""
"","S1","","html-keyboard-response","406","469376","0.0-1.0-560.0","0","0","50916","","null","","","null","62","","","","","","","","","","","","","","","",""
"","ISI","","html-keyboard-response","407","471377","0.0-1.0-561.0","0","0","50916","","null","","","null","62","NaN","","","","","","","","","","","","","","",""
"","S2","","html-keyboard-response","408","471629","0.0-1.0-562.0","0","0","50916","","null","","","null","62","","NaN","","","","","","","","","","","","","",""
"","response","","html-keyboard-response","409","472280","0.0-1.0-563.0-0.0","0","0","50916","","649","","","75","62","","","2","62","training","adjacent","CB","3","2","L.jpg","Q.jpg","0","0","1","",""
"","feedback","","html-keyboard-response","410","473282","0.0-1.0-564.0-0.0","0","0","50916","","null","","","null","62","","","","","","","","","","","","","","","",""
"","ITI","","html-keyboard-response","411","474284","0.0-1.0-567.0","0","0","50916","","null","","","null","62","","","","","","","","","","","","","","","NaN",""
"","S1","","html-keyboard-response","412","474536","0.0-1.0-569.0","0","0","50916","","null","","","null","63","","","","","","","","","","","","","","","",""
"","ISI","","html-keyboard-response","413","476538","0.0-1.0-570.0","0","0","50916","","null","","","null","63","NaN","","","","","","","","","","","","","","",""
"","S2","","html-keyboard-response","414","476790","0.0-1.0-571.0","0","0","50916","","null","","","null","63","","NaN","","","","","","","","","","","","","",""
"","response","","html-keyboard-response","415","477200","0.0-1.0-572.0-0.0","0","0","50916","","409","","","75","63","","","2","63","training","adjacent","CD","3","4","L.jpg","M.jpg","0","1","0","",""
"","feedback","","html-keyboard-response","416","478201","0.0-1.0-573.0-0.0","0","0","50916","","null","","","null","63","","","","","","","","","","","","","","","",""
"","time_out","","html-keyboard-response","417","480203","0.0-1.0-575.0-0.0","0","0","50916","","null","","","null","63","","","","","","","","","","","","","","","",""
"","ITI","","html-keyboard-response","418","481205","0.0-1.0-576.0","0","0","50916","","null","","","null","63","","","","","","","","","","","","","","","NaN",""
"","S1","","html-keyboard-response","419","481456","0.0-1.0-578.0","0","0","50916","","null","","","null","64","","","","","","","","","","","","","","","",""
"","ISI","","html-keyboard-response","420","483458","0.0-1.0-579.0","0","0","50916","","null","","","null","64","NaN","","","","","","","","","","","","","","",""
"","S2","","html-keyboard-response","421","483710","0.0-1.0-580.0","0","0","50916","","null","","","null","64","","NaN","","","","","","","","","","","","","",""
"","response","","html-keyboard-response","422","484104","0.0-1.0-581.0-0.0","0","0","50916","","392","","","75","64","","","2","64","training","adjacent","FE","6","5","O.jpg","R.jpg","0","0","1","",""
"","feedback","","html-keyboard-response","423","485107","0.0-1.0-582.0-0.0","0","0","50916","","null","","","null","64","","","","","","","","","","","","","","","",""
"","ITI","","html-keyboard-response","424","486110","0.0-1.0-585.0","0","0","50916","","null","","","null","64","","","","","","","","","","","","","","","NaN",""
"","S1","","html-keyboard-response","425","486361","0.0-1.0-587.0","0","0","50916","","null","","","null","65","","","","","","","","","","","","","","","",""
"","ISI","","html-keyboard-response","426","488363","0.0-1.0-588.0","0","0","50916","","null","","","null","65","NaN","","","","","","","","","","","","","","",""
"","S2","","html-keyboard-response","427","488615","0.0-1.0-589.0","0","0","50916","","null","","","null","65","","NaN","","","","","","","","","","","","","",""
"","response","","html-keyboard-response","428","488944","0.0-1.0-590.0-0.0","0","0","50916","","328","","","75","65","","","2","65","training","adjacent","ED","5","4","R.jpg","M.jpg","0","0","1","",""
"","feedback","","html-keyboard-response","429","489946","0.0-1.0-591.0-0.0","0","0","50916","","null","","","null","65","","","","","","","","","","","","","","","",""
"","ITI","","html-keyboard-response","430","490948","0.0-1.0-594.0","0","0","50916","","null","","","null","65","","","","","","","","","","","","","","","NaN",""
"","S1","","html-keyboard-response","431","491200","0.0-1.0-596.0","0","0","50916","","null","","","null","66","","","","","","","","","","","","","","","",""
"","ISI","","html-keyboard-response","432","493201","0.0-1.0-597.0","0","0","50916","","null","","","null","66","NaN","","","","","","","","","","","","","","",""
"","S2","","html-keyboard-response","433","493453","0.0-1.0-598.0","0","0","50916","","null","","","null","66","","NaN","","","","","","","","","","","","","",""
"","response","","html-keyboard-response","434","494114","0.0-1.0-599.0-0.0","0","0","50916","","660","","","75","66","","","2","66","training","adjacent","DC","4","3","M.jpg","L.jpg","0","0","1","",""
"","feedback","","html-keyboard-response","435","495116","0.0-1.0-600.0-0.0","0","0","50916","","null","","","null","66","","","","","","","","","","","","","","","",""
"","ITI","","html-keyboard-response","436","496119","0.0-1.0-603.0","0","0","50916","","null","","","null","66","","","","","","","","","","","","","","","NaN",""
"","S1","","html-keyboard-response","437","496371","0.0-1.0-605.0","0","0","50916","","null","","","null","67","","","","","","","","","","","","","","","",""
"","ISI","","html-keyboard-response","438","498372","0.0-1.0-606.0","0","0","50916","","null","","","null","67","NaN","","","","","","","","","","","","","","",""
"","S2","","html-keyboard-response","439","498624","0.0-1.0-607.0","0","0","50916","","null","","","null","67","","NaN","","","","","","","","","","","","","",""
"","response","","html-keyboard-response","440","499016","0.0-1.0-608.0-0.0","0","0","50916","","390","","","68","67","","","2","67","training","adjacent","BA","2","1","Q.jpg","P.jpg","1","0","0","",""
"","feedback","","html-keyboard-response","441","500018","0.0-1.0-609.0-0.0","0","0","50916","","null","","","null","67","","","","","","","","","","","","","","","",""
"","time_out","","html-keyboard-response","442","502020","0.0-1.0-611.0-0.0","0","0","50916","","null","","","null","67","","","","","","","","","","","","","","","",""
"","ITI","","html-keyboard-response","443","503022","0.0-1.0-612.0","0","0","50916","","null","","","null","67","","","","","","","","","","","","","","","NaN",""
"","S1","","html-keyboard-response","444","503275","0.0-1.0-614.0","0","0","50916","","null","","","null","68","","","","","","","","","","","","","","","",""
"","ISI","","html-keyboard-response","445","505276","0.0-1.0-615.0","0","0","50916","","null","","","null","68","NaN","","","","","","","","","","","","","","",""
"","S2","","html-keyboard-response","446","505528","0.0-1.0-616.0","0","0","50916","","null","","","null","68","","NaN","","","","","","","","","","","","","",""
"","response","","html-keyboard-response","447","505904","0.0-1.0-617.0-0.0","0","0","50916","","375","","","68","68","","","2","68","training","adjacent","EF","5","6","R.jpg","O.jpg","1","1","1","",""
"","feedback","","html-keyboard-response","448","506906","0.0-1.0-618.0-0.0","0","0","50916","","null","","","null","68","","","","","","","","","","","","","","","",""
"","ITI","","html-keyboard-response","449","507907","0.0-1.0-621.0","0","0","50916","","null","","","null","68","","","","","","","","","","","","","","","NaN",""
"","S1","","html-keyboard-response","450","508168","0.0-1.0-623.0","0","0","50916","","null","","","null","69","","","","","","","","","","","","","","","",""
"","ISI","","html-keyboard-response","451","510170","0.0-1.0-624.0","0","0","50916","","null","","","null","69","NaN","","","","","","","","","","","","","","",""
"","S2","","html-keyboard-response","452","510422","0.0-1.0-625.0","0","0","50916","","null","","","null","69","","NaN","","","","","","","","","","","","","",""
"","response","","html-keyboard-response","453","510896","0.0-1.0-626.0-0.0","0","0","50916","","472","","","75","69","","","2","69","training","adjacent","FG","6","7","O.jpg","N.jpg","0","1","0","",""
"","feedback","","html-keyboard-response","454","511898","0.0-1.0-627.0-0.0","0","0","50916","","null","","","null","69","","","","","","","","","","","","","","","",""
"","time_out","","html-keyboard-response","455","513899","0.0-1.0-629.0-0.0","0","0","50916","","null","","","null","69","","","","","","","","","","","","","","","",""
"","ITI","","html-keyboard-response","456","514901","0.0-1.0-630.0","0","0","50916","","null","","","null","69","","","","","","","","","","","","","","","NaN",""
"","S1","","html-keyboard-response","457","515153","0.0-1.0-632.0","0","0","50916","","null","","","null","70","","","","","","","","","","","","","","","",""
"","ISI","","html-keyboard-response","458","517156","0.0-1.0-633.0","0","0","50916","","null","","","null","70","NaN","","","","","","","","","","","","","","",""
"","S2","","html-keyboard-response","459","517408","0.0-1.0-634.0","0","0","50916","","null","","","null","70","","NaN","","","","","","","","","","","","","",""
"","response","","html-keyboard-response","460","517792","0.0-1.0-635.0-0.0","0","0","50916","","383","","","75","70","","","2","70","training","adjacent","BC","2","3","Q.jpg","L.jpg","0","1","0","",""
"","feedback","","html-keyboard-response","461","518794","0.0-1.0-636.0-0.0","0","0","50916","","null","","","null","70","","","","","","","","","","","","","","","",""
"","time_out","","html-keyboard-response","462","520795","0.0-1.0-638.0-0.0","0","0","50916","","null","","","null","70","","","","","","","","","","","","","","","",""
"","ITI","","html-keyboard-response","463","521796","0.0-1.0-639.0","0","0","50916","","null","","","null","70","","","","","","","","","","","","","","","NaN",""
"","S1","","html-keyboard-response","464","522048","0.0-1.0-641.0","0","0","50916","","null","","","null","71","","","","","","","","","","","","","","","",""
"","ISI","","html-keyboard-response","465","524050","0.0-1.0-642.0","0","0","50916","","null","","","null","71","NaN","","","","","","","","","","","","","","",""
"","S2","","html-keyboard-response","466","524302","0.0-1.0-643.0","0","0","50916","","null","","","null","71","","NaN","","","","","","","","","","","","","",""
"","response","","html-keyboard-response","467","524768","0.0-1.0-644.0-0.0","0","0","50916","","465","","","68","71","","","2","71","training","adjacent","EF","5","6","R.jpg","O.jpg","1","1","1","",""
"","feedback","","html-keyboard-response","468","525769","0.0-1.0-645.0-0.0","0","0","50916","","null","","","null","71","","","","","","","","","","","","","","","",""
"","ITI","","html-keyboard-response","469","526771","0.0-1.0-648.0","0","0","50916","","null","","","null","71","","","","","","","","","","","","","","","NaN",""
"","S1","","html-keyboard-response","470","527023","0.0-1.0-650.0","0","0","50916","","null","","","null","72","","","","","","","","","","","","","","","",""
"","ISI","","html-keyboard-response","471","529025","0.0-1.0-651.0","0","0","50916","","null","","","null","72","NaN","","","","","","","","","","","","","","",""
"","S2","","html-keyboard-response","472","529276","0.0-1.0-652.0","0","0","50916","","null","","","null","72","","NaN","","","","","","","","","","","","","",""
"","response","","html-keyboard-response","473","529808","0.0-1.0-653.0-0.0","0","0","50916","","530","","","75","72","","","2","72","training","adjacent","CB","3","2","L.jpg","Q.jpg","0","0","1","",""
"","feedback","","html-keyboard-response","474","530810","0.0-1.0-654.0-0.0","0","0","50916","","null","","","null","72","","","","","","","","","","","","","","","",""
"","ITI","","html-keyboard-response","475","531812","0.0-1.0-657.0","0","0","50916","","null","","","null","72","","","","","","","","","","","","","","","NaN",""
"","S1","","html-keyboard-response","476","532064","0.0-1.0-659.0","0","0","50916","","null","","","null","73","","","","","","","","","","","","","","","",""
"","ISI","","html-keyboard-response","477","534066","0.0-1.0-660.0","0","0","50916","","null","","","null","73","NaN","","","","","","","","","","","","","","",""
"","S2","","html-keyboard-response","478","534318","0.0-1.0-661.0","0","0","50916","","null","","","null","73","","NaN","","","","","","","","","","","","","",""
"","response","","html-keyboard-response","479","534816","0.0-1.0-662.0-0.0","0","0","50916","","497","","","68","73","","","2","73","training","adjacent","BC","2","3","Q.jpg","L.jpg","1","1","1","",""
"","feedback","","html-keyboard-response","480","535819","0.0-1.0-663.0-0.0","0","0","50916","","null","","","null","73","","","","","","","","","","","","","","","",""
"","ITI","","html-keyboard-response","481","536821","0.0-1.0-666.0","0","0","50916","","null","","","null","73","","","","","","","","","","","","","","","NaN",""
"","S1","","html-keyboard-response","482","537076","0.0-1.0-668.0","0","0","50916","","null","","","null","74","","","","","","","","","","","","","","","",""
"","ISI","","html-keyboard-response","483","539077","0.0-1.0-669.0","0","0","50916","","null","","","null","74","NaN","","","","","","","","","","","","","","",""
"","S2","","html-keyboard-response","484","539329","0.0-1.0-670.0","0","0","50916","","null","","","null","74","","NaN","","","","","","","","","","","","","",""
"","response","","html-keyboard-response","485","539744","0.0-1.0-671.0-0.0","0","0","50916","","413","","","68","74","","","2","74","training","adjacent","BA","2","1","Q.jpg","P.jpg","1","0","0","",""
"","feedback","","html-keyboard-response","486","540746","0.0-1.0-672.0-0.0","0","0","50916","","null","","","null","74","","","","","","","","","","","","","","","",""
"","time_out","","html-keyboard-response","487","542747","0.0-1.0-674.0-0.0","0","0","50916","","null","","","null","74","","","","","","","","","","","","","","","",""
"","ITI","","html-keyboard-response","488","543750","0.0-1.0-675.0","0","0","50916","","null","","","null","74","","","","","","","","","","","","","","","NaN",""
"","S1","","html-keyboard-response","489","544002","0.0-1.0-677.0","0","0","50916","","null","","","null","75","","","","","","","","","","","","","","","",""
"","ISI","","html-keyboard-response","490","546003","0.0-1.0-678.0","0","0","50916","","null","","","null","75","NaN","","","","","","","","","","","","","","",""
"","S2","","html-keyboard-response","491","546255","0.0-1.0-679.0","0","0","50916","","null","","","null","75","","NaN","","","","","","","","","","","","","",""
"","response","","html-keyboard-response","492","546744","0.0-1.0-680.0-0.0","0","0","50916","","488","","","68","75","","","2","75","training","adjacent","DE","4","5","M.jpg","R.jpg","1","1","1","",""
"","feedback","","html-keyboard-response","493","547746","0.0-1.0-681.0-0.0","0","0","50916","","null","","","null","75","","","","","","","","","","","","","","","",""
"","ITI","","html-keyboard-response","494","548747","0.0-1.0-684.0","0","0","50916","","null","","","null","75","","","","","","","","","","","","","","","NaN",""
"","S1","","html-keyboard-response","495","548999","0.0-1.0-686.0","0","0","50916","","null","","","null","76","","","","","","","","","","","","","","","",""
"","ISI","","html-keyboard-response","496","551000","0.0-1.0-687.0","0","0","50916","","null","","","null","76","NaN","","","","","","","","","","","","","","",""
"","S2","","html-keyboard-response","497","551253","0.0-1.0-688.0","0","0","50916","","null","","","null","76","","NaN","","","","","","","","","","","","","",""
"","response","","html-keyboard-response","498","551624","0.0-1.0-689.0-0.0","0","0","50916","","370","","","68","76","","","2","76","training","adjacent","GF","7","6","N.jpg","O.jpg","1","0","0","",""
"","feedback","","html-keyboard-response","499","552625","0.0-1.0-690.0-0.0","0","0","50916","","null","","","null","76","","","","","","","","","","","","","","","",""
"","time_out","","html-keyboard-response","500","554627","0.0-1.0-692.0-0.0","0","0","50916","","null","","","null","76","","","","","","","","","","","","","","","",""
"","ITI","","html-keyboard-response","501","555629","0.0-1.0-693.0","0","0","50916","","null","","","null","76","","","","","","","","","","","","","","","NaN",""
"","S1","","html-keyboard-response","502","555881","0.0-1.0-695.0","0","0","50916","","null","","","null","77","","","","","","","","","","","","","","","",""
"","ISI","","html-keyboard-response","503","557882","0.0-1.0-696.0","0","0","50916","","null","","","null","77","NaN","","","","","","","","","","","","","","",""
"","S2","","html-keyboard-response","504","558134","0.0-1.0-697.0","0","0","50916","","null","","","null","77","","NaN","","","","","","","","","","","","","",""
"","response","","html-keyboard-response","505","558920","0.0-1.0-698.0-0.0","0","0","50916","","785","","","68","77","","","2","77","training","adjacent","BA","2","1","Q.jpg","P.jpg","1","0","0","",""
"","feedback","","html-keyboard-response","506","559922","0.0-1.0-699.0-0.0","0","0","50916","","null","","","null","77","","","","","","","","","","","","","","","",""
"","time_out","","html-keyboard-response","507","561924","0.0-1.0-701.0-0.0","0","0","50916","","null","","","null","77","","","","","","","","","","","","","","","",""
"","ITI","","html-keyboard-response","508","562926","0.0-1.0-702.0","0","0","50916","","null","","","null","77","","","","","","","","","","","","","","","NaN",""
"","S1","","html-keyboard-response","509","563177","0.0-1.0-704.0","0","0","50916","","null","","","null","78","","","","","","","","","","","","","","","",""
"","ISI","","html-keyboard-response","510","565180","0.0-1.0-705.0","0","0","50916","","null","","","null","78","NaN","","","","","","","","","","","","","","",""
"","S2","","html-keyboard-response","511","565432","0.0-1.0-706.0","0","0","50916","","null","","","null","78","","NaN","","","","","","","","","","","","","",""
"","response","","html-keyboard-response","512","565992","0.0-1.0-707.0-0.0","0","0","50916","","559","","","75","78","","","2","78","training","adjacent","BA","2","1","Q.jpg","P.jpg","0","0","1","",""
"","feedback","","html-keyboard-response","513","566993","0.0-1.0-708.0-0.0","0","0","50916","","null","","","null","78","","","","","","","","","","","","","","","",""
"","ITI","","html-keyboard-response","514","567994","0.0-1.0-711.0","0","0","50916","","null","","","null","78","","","","","","","","","","","","","","","NaN",""
"","S1","","html-keyboard-response","515","568247","0.0-1.0-713.0","0","0","50916","","null","","","null","79","","","","","","","","","","","","","","","",""
"","ISI","","html-keyboard-response","516","570248","0.0-1.0-714.0","0","0","50916","","null","","","null","79","NaN","","","","","","","","","","","","","","",""
"","S2","","html-keyboard-response","517","570500","0.0-1.0-715.0","0","0","50916","","null","","","null","79","","NaN","","","","","","","","","","","","","",""
"","response","","html-keyboard-response","518","570856","0.0-1.0-716.0-0.0","0","0","50916","","354","","","68","79","","","2","79","training","adjacent","EF","5","6","R.jpg","O.jpg","1","1","1","",""
"","feedback","","html-keyboard-response","519","571857","0.0-1.0-717.0-0.0","0","0","50916","","null","","","null","79","","","","","","","","","","","","","","","",""
"","ITI","","html-keyboard-response","520","572859","0.0-1.0-720.0","0","0","50916","","null","","","null","79","","","","","","","","","","","","","","","NaN",""
"","S1","","html-keyboard-response","521","573111","0.0-1.0-722.0","0","0","50916","","null","","","null","80","","","","","","","","","","","","","","","",""
"","ISI","","html-keyboard-response","522","575113","0.0-1.0-723.0","0","0","50916","","null","","","null","80","NaN","","","","","","","","","","","","","","",""
"","S2","","html-keyboard-response","523","575364","0.0-1.0-724.0","0","0","50916","","null","","","null","80","","NaN","","","","","","","","","","","","","",""
"","response","","html-keyboard-response","524","575816","0.0-1.0-725.0-0.0","0","0","50916","","450","","","75","80","","","2","80","training","adjacent","CB","3","2","L.jpg","Q.jpg","0","0","1","",""
"","feedback","","html-keyboard-response","525","576818","0.0-1.0-726.0-0.0","0","0","50916","","null","","","null","80","","","","","","","","","","","","","","","",""
"","ITI","","html-keyboard-response","526","577823","0.0-1.0-729.0","0","0","50916","","null","","","null","80","","","","","","","","","","","","","","","NaN",""
"","S1","","html-keyboard-response","527","578075","0.0-1.0-731.0","0","0","50916","","null","","","null","81","","","","","","","","","","","","","","","",""
"","ISI","","html-keyboard-response","528","580083","0.0-1.0-732.0","0","0","50916","","null","","","null","81","NaN","","","","","","","","","","","","","","",""
"","S2","","html-keyboard-response","529","580335","0.0-1.0-733.0","0","0","50916","","null","","","null","81","","NaN","","","","","","","","","","","","","",""
"","response","","html-keyboard-response","530","581352","0.0-1.0-734.0-0.0","0","0","50916","","1016","","","68","81","","","2","81","training","adjacent","GF","7","6","N.jpg","O.jpg","1","0","0","",""
"","feedback","","html-keyboard-response","531","582354","0.0-1.0-735.0-0.0","0","0","50916","","null","","","null","81","","","","","","","","","","","","","","","",""
"","time_out","","html-keyboard-response","532","584355","0.0-1.0-737.0-0.0","0","0","50916","","null","","","null","81","","","","","","","","","","","","","","","",""
"","ITI","","html-keyboard-response","533","585357","0.0-1.0-738.0","0","0","50916","","null","","","null","81","","","","","","","","","","","","","","","NaN",""
"","S1","","html-keyboard-response","534","585609","0.0-1.0-740.0","0","0","50916","","null","","","null","82","","","","","","","","","","","","","","","",""
"","ISI","","html-keyboard-response","535","587611","0.0-1.0-741.0","0","0","50916","","null","","","null","82","NaN","","","","","","","","","","","","","","",""
"","S2","","html-keyboard-response","536","587864","0.0-1.0-742.0","0","0","50916","","null","","","null","82","","NaN","","","","","","","","","","","","","",""
"","response","","html-keyboard-response","537","588344","0.0-1.0-743.0-0.0","0","0","50916","","479","","","75","82","","","2","82","training","adjacent","GF","7","6","N.jpg","O.jpg","0","0","1","",""
"","feedback","","html-keyboard-response","538","589346","0.0-1.0-744.0-0.0","0","0","50916","","null","","","null","82","","","","","","","","","","","","","","","",""
"","ITI","","html-keyboard-response","539","590348","0.0-1.0-747.0","0","0","50916","","null","","","null","82","","","","","","","","","","","","","","","NaN",""
"","S1","","html-keyboard-response","540","590601","0.0-1.0-749.0","0","0","50916","","null","","","null","83","","","","","","","","","","","","","","","",""
"","ISI","","html-keyboard-response","541","592602","0.0-1.0-750.0","0","0","50916","","null","","","null","83","NaN","","","","","","","","","","","","","","",""
"","S2","","html-keyboard-response","542","592854","0.0-1.0-751.0","0","0","50916","","null","","","null","83","","NaN","","","","","","","","","","","","","",""
"","response","","html-keyboard-response","543","593264","0.0-1.0-752.0-0.0","0","0","50916","","408","","","75","83","","","2","83","training","adjacent","ED","5","4","R.jpg","M.jpg","0","0","1","",""
"","feedback","","html-keyboard-response","544","594265","0.0-1.0-753.0-0.0","0","0","50916","","null","","","null","83","","","","","","","","","","","","","","","",""
"","ITI","","html-keyboard-response","545","595269","0.0-1.0-756.0","0","0","50916","","null","","","null","83","","","","","","","","","","","","","","","NaN",""
"","S1","","html-keyboard-response","546","595521","0.0-1.0-758.0","0","0","50916","","null","","","null","84","","","","","","","","","","","","","","","",""
"","ISI","","html-keyboard-response","547","597523","0.0-1.0-759.0","0","0","50916","","null","","","null","84","NaN","","","","","","","","","","","","","","",""
"","S2","","html-keyboard-response","548","597775","0.0-1.0-760.0","0","0","50916","","null","","","null","84","","NaN","","","","","","","","","","","","","",""
"","response","","html-keyboard-response","549","598168","0.0-1.0-761.0-0.0","0","0","50916","","392","","","75","84","","","2","84","training","adjacent","AB","1","2","P.jpg","Q.jpg","0","1","0","",""
"","feedback","","html-keyboard-response","550","599170","0.0-1.0-762.0-0.0","0","0","50916","","null","","","null","84","","","","","","","","","","","","","","","",""
"","time_out","","html-keyboard-response","551","601172","0.0-1.0-764.0-0.0","0","0","50916","","null","","","null","84","","","","","","","","","","","","","","","",""
"","ITI","","html-keyboard-response","552","602175","0.0-1.0-765.0","0","0","50916","","null","","","null","84","","","","","","","","","","","","","","","NaN",""
"","S1","","html-keyboard-response","553","602427","0.0-1.0-767.0","0","0","50916","","null","","","null","85","","","","","","","","","","","","","","","",""
"","ISI","","html-keyboard-response","554","604429","0.0-1.0-768.0","0","0","50916","","null","","","null","85","NaN","","","","","","","","","","","","","","",""
"","S2","","html-keyboard-response","555","604681","0.0-1.0-769.0","0","0","50916","","null","","","null","85","","NaN","","","","","","","","","","","","","",""
"","response","","html-keyboard-response","556","604960","0.0-1.0-770.0-0.0","0","0","50916","","278","","","75","85","","","2","85","training","adjacent","CD","3","4","L.jpg","M.jpg","0","1","0","",""
"","feedback","","html-keyboard-response","557","605962","0.0-1.0-771.0-0.0","0","0","50916","","null","","","null","85","","","","","","","","","","","","","","","",""
"","time_out","","html-keyboard-response","558","607963","0.0-1.0-773.0-0.0","0","0","50916","","null","","","null","85","","","","","","","","","","","","","","","",""
"","ITI","","html-keyboard-response","559","608965","0.0-1.0-774.0","0","0","50916","","null","","","null","85","","","","","","","","","","","","","","","NaN",""
"","S1","","html-keyboard-response","560","609216","0.0-1.0-776.0","0","0","50916","","null","","","null","86","","","","","","","","","","","","","","","",""
"","ISI","","html-keyboard-response","561","611218","0.0-1.0-777.0","0","0","50916","","null","","","null","86","NaN","","","","","","","","","","","","","","",""
"","S2","","html-keyboard-response","562","611471","0.0-1.0-778.0","0","0","50916","","null","","","null","86","","NaN","","","","","","","","","","","","","",""
"","response","","html-keyboard-response","563","611960","0.0-1.0-779.0-0.0","0","0","50916","","487","","","75","86","","","2","86","training","adjacent","BC","2","3","Q.jpg","L.jpg","0","1","0","",""
"","feedback","","html-keyboard-response","564","612962","0.0-1.0-780.0-0.0","0","0","50916","","null","","","null","86","","","","","","","","","","","","","","","",""
"","time_out","","html-keyboard-response","565","614964","0.0-1.0-782.0-0.0","0","0","50916","","null","","","null","86","","","","","","","","","","","","","","","",""
"","ITI","","html-keyboard-response","566","615966","0.0-1.0-783.0","0","0","50916","","null","","","null","86","","","","","","","","","","","","","","","NaN",""
"","S1","","html-keyboard-response","567","616218","0.0-1.0-785.0","0","0","50916","","null","","","null","87","","","","","","","","","","","","","","","",""
"","ISI","","html-keyboard-response","568","618220","0.0-1.0-786.0","0","0","50916","","null","","","null","87","NaN","","","","","","","","","","","","","","",""
"","S2","","html-keyboard-response","569","618471","0.0-1.0-787.0","0","0","50916","","null","","","null","87","","NaN","","","","","","","","","","","","","",""
"","response","","html-keyboard-response","570","618848","0.0-1.0-788.0-0.0","0","0","50916","","375","","","68","87","","","2","87","training","adjacent","DC","4","3","M.jpg","L.jpg","1","0","0","",""
"","feedback","","html-keyboard-response","571","619849","0.0-1.0-789.0-0.0","0","0","50916","","null","","","null","87","","","","","","","","","","","","","","","",""
"","time_out","","html-keyboard-response","572","621851","0.0-1.0-791.0-0.0","0","0","50916","","null","","","null","87","","","","","","","","","","","","","","","",""
"","ITI","","html-keyboard-response","573","622854","0.0-1.0-792.0","0","0","50916","","null","","","null","87","","","","","","","","","","","","","","","NaN",""
"","S1","","html-keyboard-response","574","623105","0.0-1.0-794.0","0","0","50916","","null","","","null","88","","","","","","","","","","","","","","","",""
"","ISI","","html-keyboard-response","575","625106","0.0-1.0-795.0","0","0","50916","","null","","","null","88","NaN","","","","","","","","","","","","","","",""
"","S2","","html-keyboard-response","576","625358","0.0-1.0-796.0","0","0","50916","","null","","","null","88","","NaN","","","","","","","","","","","","","",""
"","response","","html-keyboard-response","577","625720","0.0-1.0-797.0-0.0","0","0","50916","","361","","","75","88","","","2","88","training","adjacent","ED","5","4","R.jpg","M.jpg","0","0","1","",""
"","feedback","","html-keyboard-response","578","626722","0.0-1.0-798.0-0.0","0","0","50916","","null","","","null","88","","","","","","","","","","","","","","","",""
"","ITI","","html-keyboard-response","579","627723","0.0-1.0-801.0","0","0","50916","","null","","","null","88","","","","","","","","","","","","","","","NaN",""
"","S1","","html-keyboard-response","580","627975","0.0-1.0-803.0","0","0","50916","","null","","","null","89","","","","","","","","","","","","","","","",""
"","ISI","","html-keyboard-response","581","629977","0.0-1.0-804.0","0","0","50916","","null","","","null","89","NaN","","","","","","","","","","","","","","",""
"","S2","","html-keyboard-response","582","630229","0.0-1.0-805.0","0","0","50916","","null","","","null","89","","NaN","","","","","","","","","","","","","",""
