"success","ttype","start_time","trial_type","trial_index","time_elapsed","internal_node_id","warning","missed_checkup","PID","view_history","rt","responses","repeat_instructions","key_press","index","keypress_isi","keypress_S2","block","trial_num","phase","group_type","pair_type","S1_stim","S2_stim","S1_img","S2_img","S1_chosen","S1_higher","accuracy","keypress_iti","total_bonus_tally"
"true","full_screen","d03072023hr1800","fullscreen","0","14850","0.0-0.0","0","0","49696","","","","","","","","","","","","","","","","","","","","","",""
"","instructions","","instructions","1","169571","0.0-1.0-0.0-0.0","0","0","49696","[{""page_index"":0,""viewing_time"":9889},{""page_index"":1,""viewing_time"":120216},{""page_index"":2,""viewing_time"":20707},{""page_index"":3,""viewing_time"":3906}]","154719","","","","","","","","","","","","","","","","","","","",""
"","comprehension_check","","survey-multi-choice","2","225391","0.0-1.0-0.0-1.0","0","0","49696","","55814","{""Q0"":""True"",""Q1"":""D"",""Q2"":""Once the second image appears and while the screen 'MAKE A CHOICE' is shown"",""Q3"":""Green mark"",""Q4"":""either D or K""}","0","","","","","","","","","","","","","","","","","",""
"","start_exp","","html-keyboard-response","3","229854","0.0-1.0-1.0","0","0","49696","","4459","","","32","","","","","","","","","","","","","","","","",""
"","S1","","html-keyboard-response","4","230116","0.0-1.0-2.0","0","0","49696","","null","","","null","0","","","","","","","","","","","","","","","",""
"","ISI","","html-keyboard-response","5","231121","0.0-1.0-3.0","0","0","49696","","885","","","68","0","d","","","","","","","","","","","","","","",""
"","S2","","html-keyboard-response","6","231376","0.0-1.0-4.0","0","0","49696","","null","","","null","0","","NaN","","","","","","","","","","","","","",""
"","response","","html-keyboard-response","7","232120","0.0-1.0-5.0-0.0","0","0","49696","","742","","","68","0","","","1","0","training","adjacent","BC","2","3","N.jpg","M.jpg","1","1","1","",""
"","feedback","","html-keyboard-response","8","233129","0.0-1.0-6.0-0.0","0","0","49696","","null","","","null","0","","","","","","","","","","","","","","","",""
"","ITI","","html-keyboard-response","9","234139","0.0-1.0-9.0","0","0","49696","","null","","","null","0","","","","","","","","","","","","","","","NaN",""
"","S1","","html-keyboard-response","10","234395","0.0-1.0-11.0","0","0","49696","","null","","","null","1","","","","","","","","","","","","","","","",""
"","ISI","","html-keyboard-response","11","235404","0.0-1.0-12.0","0","0","49696","","854","","","68","1","d","","","","","","","","","","","","","","",""
"","S2","","html-keyboard-response","12","235666","0.0-1.0-13.0","0","0","49696","","null","","","null","1","","NaN","","","","","","","","","","","","","",""
"","response","","html-keyboard-response","13","236479","0.0-1.0-14.0-0.0","0","0","49696","","812","","","75","1","","","1","1","training","adjacent","CB","3","2","M.jpg","N.jpg","0","0","1","",""
"","feedback","","html-keyboard-response","14","237488","0.0-1.0-15.0-0.0","0","0","49696","","null","","","null","1","","","","","","","","","","","","","","","",""
"","ITI","","html-keyboard-response","15","238491","0.0-1.0-18.0","0","0","49696","","null","","","null","1","","","","","","","","","","","","","","","NaN",""
"","S1","","html-keyboard-response","16","238754","0.0-1.0-20.0","0","0","49696","","null","","","null","2","","","","","","","","","","","","","","","",""
"","ISI","","html-keyboard-response","17","239764","0.0-1.0-21.0","0","0","49696","","715","","","68","2","d","","","","","","","","","","","","","","",""
"","S2","","html-keyboard-response","18","240025","0.0-1.0-22.0","0","0","49696","","null","","","null","2","","NaN","","","","","","","","","","","","","",""
"","response","","html-keyboard-response","19","240448","0.0-1.0-23.0-0.0","0","0","49696","","421","","","68","2","","","1","2","training","adjacent","CD","3","4","M.jpg","R.jpg","1","1","1","",""
"","feedback","","html-keyboard-response","20","241452","0.0-1.0-24.0-0.0","0","0","49696","","null","","","null","2","","","","","","","","","","","","","","","",""
"","ITI","","html-keyboard-response","21","242457","0.0-1.0-27.0","0","0","49696","","null","","","null","2","","","","","","","","","","","","","","","NaN",""
"","S1","","html-keyboard-response","22","242713","0.0-1.0-29.0","0","0","49696","","null","","","null","3","","","","","","","","","","","","","","","",""
"","ISI","","html-keyboard-response","23","243723","0.0-1.0-30.0","0","0","49696","","null","","","null","3","NaN","","","","","","","","","","","","","","",""
"","S2","","html-keyboard-response","24","243756","0.0-1.0-31.0","0","0","49696","","31","","","68","3","","d","1","3","training","adjacent","ED","5","4","L.jpg","R.jpg","1","0","0","",""
"","feedback","","html-keyboard-response","25","244762","0.0-1.0-33.0-0.0","0","0","49696","","null","","","null","3","","","","","","","","","","","","","","","",""
"","time_out","","html-keyboard-response","26","246770","0.0-1.0-35.0-0.0","0","0","49696","","null","","","null","3","","","","","","","","","","","","","","","",""
"","ITI","","html-keyboard-response","27","247779","0.0-1.0-36.0","0","0","49696","","null","","","null","3","","","","","","","","","","","","","","","NaN",""
"","S1","","html-keyboard-response","28","248036","0.0-1.0-38.0","0","0","49696","","null","","","null","4","","","","","","","","","","","","","","","",""
"","ISI","","html-keyboard-response","29","249040","0.0-1.0-39.0","0","0","49696","","699","","","68","4","d","","","","","","","","","","","","","","",""
"","S2","","html-keyboard-response","30","249295","0.0-1.0-40.0","0","0","49696","","null","","","null","4","","NaN","","","","","","","","","","","","","",""
"","response","","html-keyboard-response","31","250340","0.0-1.0-41.0-0.0","0","0","49696","","1043","","","68","4","","","1","4","training","adjacent","FG","6","7","Q.jpg","O.jpg","1","1","1","",""
"","feedback","","html-keyboard-response","32","251345","0.0-1.0-42.0-0.0","0","0","49696","","null","","","null","4","","","","","","","","","","","","","","","",""
"","ITI","","html-keyboard-response","33","252354","0.0-1.0-45.0","0","0","49696","","null","","","null","4","","","","","","","","","","","","","","","NaN",""
"","S1","","html-keyboard-response","34","252610","0.0-1.0-47.0","0","0","49696","","null","","","null","5","","","","","","","","","","","","","","","",""
"","ISI","","html-keyboard-response","35","253618","0.0-1.0-48.0","0","0","49696","","527","","","68","5","d","","","","","","","","","","","","","","",""
"","S2","","html-keyboard-response","36","253876","0.0-1.0-49.0","0","0","49696","","null","","","null","5","","NaN","","","","","","","","","","","","","",""
"","response","","html-keyboard-response","37","254040","0.0-1.0-50.0-0.0","0","0","49696","","163","","","68","5","","","1","5","training","adjacent","FG","6","7","Q.jpg","O.jpg","1","1","1","",""
"","feedback","","html-keyboard-response","38","255048","0.0-1.0-51.0-0.0","0","0","49696","","null","","","null","5","","","","","","","","","","","","","","","",""
"","ITI","","html-keyboard-response","39","256058","0.0-1.0-54.0","0","0","49696","","null","","","null","5","","","","","","","","","","","","","","","NaN",""
"","S1","","html-keyboard-response","40","256313","0.0-1.0-56.0","0","0","49696","","null","","","null","6","","","","","","","","","","","","","","","",""
"","ISI","","html-keyboard-response","41","257324","0.0-1.0-57.0","0","0","49696","","649","","","68","6","d","","","","","","","","","","","","","","",""
"","S2","","html-keyboard-response","42","257584","0.0-1.0-58.0","0","0","49696","","null","","","null","6","","NaN","","","","","","","","","","","","","",""
"","response","","html-keyboard-response","43","257742","0.0-1.0-59.0-0.0","0","0","49696","","155","","","75","6","","","1","6","training","adjacent","DE","4","5","R.jpg","L.jpg","0","1","0","",""
"","feedback","","html-keyboard-response","44","258752","0.0-1.0-60.0-0.0","0","0","49696","","null","","","null","6","","","","","","","","","","","","","","","",""
"","time_out","","html-keyboard-response","45","260760","0.0-1.0-62.0-0.0","0","0","49696","","null","","","null","6","","","","","","","","","","","","","","","",""
"","ITI","","html-keyboard-response","46","261770","0.0-1.0-63.0","0","0","49696","","null","","","null","6","","","","","","","","","","","","","","","NaN",""
"","S1","","html-keyboard-response","47","262025","0.0-1.0-65.0","0","0","49696","","null","","","null","7","","","","","","","","","","","","","","","",""
"","ISI","","html-keyboard-response","48","263035","0.0-1.0-66.0","0","0","49696","","879","","","68","7","d","","","","","","","","","","","","","","",""
"","S2","","html-keyboard-response","49","263297","0.0-1.0-67.0","0","0","49696","","null","","","null","7","","NaN","","","","","","","","","","","","","",""
"","response","","html-keyboard-response","50","264043","0.0-1.0-68.0-0.0","0","0","49696","","745","","","68","7","","","1","7","training","adjacent","FG","6","7","Q.jpg","O.jpg","1","1","1","",""
"","feedback","","html-keyboard-response","51","265050","0.0-1.0-69.0-0.0","0","0","49696","","null","","","null","7","","","","","","","","","","","","","","","",""
"","ITI","","html-keyboard-response","52","266058","0.0-1.0-72.0","0","0","49696","","null","","","null","7","","","","","","","","","","","","","","","NaN",""
"","S1","","html-keyboard-response","53","266315","0.0-1.0-74.0","0","0","49696","","null","","","null","8","","","","","","","","","","","","","","","",""
"","ISI","","html-keyboard-response","54","267319","0.0-1.0-75.0","0","0","49696","","null","","","null","8","NaN","","","","","","","","","","","","","","",""
"","S2","","html-keyboard-response","55","267575","0.0-1.0-76.0","0","0","49696","","null","","","null","8","","NaN","","","","","","","","","","","","","",""
"","response","","html-keyboard-response","56","267784","0.0-1.0-77.0-0.0","0","0","49696","","208","","","68","8","","","1","8","training","adjacent","GF","7","6","O.jpg","Q.jpg","1","0","0","",""
"","feedback","","html-keyboard-response","57","268794","0.0-1.0-78.0-0.0","0","0","49696","","null","","","null","8","","","","","","","","","","","","","","","",""
"","time_out","","html-keyboard-response","58","270802","0.0-1.0-80.0-0.0","0","0","49696","","null","","","null","8","","","","","","","","","","","","","","","",""
"","ITI","","html-keyboard-response","59","271811","0.0-1.0-81.0","0","0","49696","","null","","","null","8","","","","","","","","","","","","","","","NaN",""
"","S1","","html-keyboard-response","60","272073","0.0-1.0-83.0","0","0","49696","","null","","","null","9","","","","","","","","","","","","","","","",""
"","ISI","","html-keyboard-response","61","273082","0.0-1.0-84.0","0","0","49696","","null","","","null","9","NaN","","","","","","","","","","","","","","",""
"","S2","","html-keyboard-response","62","273166","0.0-1.0-85.0","0","0","49696","","81","","","75","9","","k","1","9","training","adjacent","BA","2","1","N.jpg","P.jpg","0","0","1","",""
"","feedback","","html-keyboard-response","63","274175","0.0-1.0-87.0-0.0","0","0","49696","","null","","","null","9","","","","","","","","","","","","","","","",""
"","ITI","","html-keyboard-response","64","275185","0.0-1.0-90.0","0","0","49696","","null","","","null","9","","","","","","","","","","","","","","","NaN",""
"","S1","","html-keyboard-response","65","275440","0.0-1.0-92.0","0","0","49696","","null","","","null","10","","","","","","","","","","","","","","","",""
"","ISI","","html-keyboard-response","66","276450","0.0-1.0-93.0","0","0","49696","","null","","","null","10","NaN","","","","","","","","","","","","","","",""
"","S2","","html-keyboard-response","67","276617","0.0-1.0-94.0","0","0","49696","","165","","","68","10","","d","1","10","training","adjacent","CD","3","4","M.jpg","R.jpg","1","1","1","",""
"","feedback","","html-keyboard-response","68","277623","0.0-1.0-96.0-0.0","0","0","49696","","null","","","null","10","","","","","","","","","","","","","","","",""
"","ITI","","html-keyboard-response","69","278633","0.0-1.0-99.0","0","0","49696","","null","","","null","10","","","","","","","","","","","","","","","NaN",""
"","S1","","html-keyboard-response","70","278888","0.0-1.0-101.0","0","0","49696","","null","","","null","11","","","","","","","","","","","","","","","",""
"","ISI","","html-keyboard-response","71","279898","0.0-1.0-102.0","0","0","49696","","927","","","75","11","k","","","","","","","","","","","","","","",""
"","S2","","html-keyboard-response","72","280160","0.0-1.0-103.0","0","0","49696","","null","","","null","11","","NaN","","","","","","","","","","","","","",""
"","response","","html-keyboard-response","73","280943","0.0-1.0-104.0-0.0","0","0","49696","","781","","","75","11","","","1","11","training","adjacent","EF","5","6","L.jpg","Q.jpg","0","1","0","",""
"","feedback","","html-keyboard-response","74","281953","0.0-1.0-105.0-0.0","0","0","49696","","null","","","null","11","","","","","","","","","","","","","","","",""
"","time_out","","html-keyboard-response","75","283962","0.0-1.0-107.0-0.0","0","0","49696","","null","","","null","11","","","","","","","","","","","","","","","",""
"","ITI","","html-keyboard-response","76","284971","0.0-1.0-108.0","0","0","49696","","null","","","null","11","","","","","","","","","","","","","","","NaN",""
"","S1","","html-keyboard-response","77","285233","0.0-1.0-110.0","0","0","49696","","null","","","null","12","","","","","","","","","","","","","","","",""
"","ISI","","html-keyboard-response","78","286242","0.0-1.0-111.0","0","0","49696","","644","","","68","12","d","","","","","","","","","","","","","","",""
"","S2","","html-keyboard-response","79","286504","0.0-1.0-112.0","0","0","49696","","null","","","null","12","","NaN","","","","","","","","","","","","","",""
"","response","","html-keyboard-response","80","286756","0.0-1.0-113.0-0.0","0","0","49696","","251","","","68","12","","","1","12","training","adjacent","CB","3","2","M.jpg","N.jpg","1","0","0","",""
"","feedback","","html-keyboard-response","81","287770","0.0-1.0-114.0-0.0","0","0","49696","","null","","","null","12","","","","","","","","","","","","","","","",""
"","time_out","","html-keyboard-response","82","289778","0.0-1.0-116.0-0.0","0","0","49696","","null","","","null","12","","","","","","","","","","","","","","","",""
"","ITI","","html-keyboard-response","83","290782","0.0-1.0-117.0","0","0","49696","","null","","","null","12","","","","","","","","","","","","","","","NaN",""
"","S1","","html-keyboard-response","84","291042","0.0-1.0-119.0","0","0","49696","","null","","","null","13","","","","","","","","","","","","","","","",""
"","ISI","","html-keyboard-response","85","292048","0.0-1.0-120.0","0","0","49696","","612","","","68","13","d","","","","","","","","","","","","","","",""
"","S2","","html-keyboard-response","86","292303","0.0-1.0-121.0","0","0","49696","","null","","","null","13","","NaN","","","","","","","","","","","","","",""
"","response","","html-keyboard-response","87","292736","0.0-1.0-122.0-0.0","0","0","49696","","432","","","68","13","","","1","13","training","adjacent","AB","1","2","P.jpg","N.jpg","1","1","1","",""
"","feedback","","html-keyboard-response","88","293742","0.0-1.0-123.0-0.0","0","0","49696","","null","","","null","13","","","","","","","","","","","","","","","",""
"","ITI","","html-keyboard-response","89","294753","0.0-1.0-126.0","0","0","49696","","null","","","null","13","","","","","","","","","","","","","","","NaN",""
"","S1","","html-keyboard-response","90","295008","0.0-1.0-128.0","0","0","49696","","null","","","null","14","","","","","","","","","","","","","","","",""
"","ISI","","html-keyboard-response","91","296018","0.0-1.0-129.0","0","0","49696","","null","","","null","14","NaN","","","","","","","","","","","","","","",""
"","S2","","html-keyboard-response","92","296279","0.0-1.0-130.0","0","0","49696","","null","","","null","14","","NaN","","","","","","","","","","","","","",""
"","response","","html-keyboard-response","93","296876","0.0-1.0-131.0-0.0","0","0","49696","","595","","","75","14","","","1","14","training","adjacent","GF","7","6","O.jpg","Q.jpg","0","0","1","",""
"","feedback","","html-keyboard-response","94","297887","0.0-1.0-132.0-0.0","0","0","49696","","null","","","null","14","","","","","","","","","","","","","","","",""
"","ITI","","html-keyboard-response","95","298897","0.0-1.0-135.0","0","0","49696","","null","","","null","14","","","","","","","","","","","","","","","NaN",""
"","S1","","html-keyboard-response","96","299153","0.0-1.0-137.0","0","0","49696","","null","","","null","15","","","","","","","","","","","","","","","",""
"","ISI","","html-keyboard-response","97","300162","0.0-1.0-138.0","0","0","49696","","null","","","null","15","NaN","","","","","","","","","","","","","","",""
"","S2","","html-keyboard-response","98","300424","0.0-1.0-139.0","0","0","49696","","null","","","null","15","","NaN","","","","","","","","","","","","","",""
"","response","","html-keyboard-response","99","301148","0.0-1.0-140.0-0.0","0","0","49696","","722","","","68","15","","","1","15","training","adjacent","ED","5","4","L.jpg","R.jpg","1","0","0","",""
"","feedback","","html-keyboard-response","100","302160","0.0-1.0-141.0-0.0","0","0","49696","","null","","","null","15","","","","","","","","","","","","","","","",""
"","time_out","","html-keyboard-response","101","304168","0.0-1.0-143.0-0.0","0","0","49696","","null","","","null","15","","","","","","","","","","","","","","","",""
"","ITI","","html-keyboard-response","102","305176","0.0-1.0-144.0","0","0","49696","","null","","","null","15","","","","","","","","","","","","","","","NaN",""
"","S1","","html-keyboard-response","103","305434","0.0-1.0-146.0","0","0","49696","","null","","","null","16","","","","","","","","","","","","","","","",""
"","ISI","","html-keyboard-response","104","306438","0.0-1.0-147.0","0","0","49696","","null","","","null","16","NaN","","","","","","","","","","","","","","",""
"","S2","","html-keyboard-response","105","306698","0.0-1.0-148.0","0","0","49696","","null","","","null","16","","NaN","","","","","","","","","","","","","",""
"","response","","html-keyboard-response","106","307303","0.0-1.0-149.0-0.0","0","0","49696","","602","","","68","16","","","1","16","training","adjacent","DE","4","5","R.jpg","L.jpg","1","1","1","",""
"","feedback","","html-keyboard-response","107","308313","0.0-1.0-150.0-0.0","0","0","49696","","null","","","null","16","","","","","","","","","","","","","","","",""
"","ITI","","html-keyboard-response","108","309322","0.0-1.0-153.0","0","0","49696","","null","","","null","16","","","","","","","","","","","","","","","NaN",""
"","S1","","html-keyboard-response","109","309584","0.0-1.0-155.0","0","0","49696","","null","","","null","17","","","","","","","","","","","","","","","",""
"","ISI","","html-keyboard-response","110","310593","0.0-1.0-156.0","0","0","49696","","null","","","null","17","NaN","","","","","","","","","","","","","","",""
"","S2","","html-keyboard-response","111","310849","0.0-1.0-157.0","0","0","49696","","null","","","null","17","","NaN","","","","","","","","","","","","","",""
"","response","","html-keyboard-response","112","311848","0.0-1.0-158.0-0.0","0","0","49696","","997","","","75","17","","","1","17","training","adjacent","BA","2","1","N.jpg","P.jpg","0","0","1","",""
"","feedback","","html-keyboard-response","113","312856","0.0-1.0-159.0-0.0","0","0","49696","","null","","","null","17","","","","","","","","","","","","","","","",""
"","ITI","","html-keyboard-response","114","313862","0.0-1.0-162.0","0","0","49696","","null","","","null","17","","","","","","","","","","","","","","","NaN",""
"","S1","","html-keyboard-response","115","314118","0.0-1.0-164.0","0","0","49696","","null","","","null","18","","","","","","","","","","","","","","","",""
"","ISI","","html-keyboard-response","116","315127","0.0-1.0-165.0","0","0","49696","","null","","","null","18","NaN","","","","","","","","","","","","","","",""
"","S2","","html-keyboard-response","117","315383","0.0-1.0-166.0","0","0","49696","","null","","","null","18","","NaN","","","","","","","","","","","","","",""
"","response","","html-keyboard-response","118","316223","0.0-1.0-167.0-0.0","0","0","49696","","839","","","68","18","","","1","18","training","adjacent","BC","2","3","N.jpg","M.jpg","1","1","1","",""
"","feedback","","html-keyboard-response","119","317234","0.0-1.0-168.0-0.0","0","0","49696","","null","","","null","18","","","","","","","","","","","","","","","",""
"","ITI","","html-keyboard-response","120","318239","0.0-1.0-171.0","0","0","49696","","null","","","null","18","","","","","","","","","","","","","","","NaN",""
"","S1","","html-keyboard-response","121","318494","0.0-1.0-173.0","0","0","49696","","null","","","null","19","","","","","","","","","","","","","","","",""
"","ISI","","html-keyboard-response","122","319504","0.0-1.0-174.0","0","0","49696","","null","","","null","19","NaN","","","","","","","","","","","","","","",""
"","S2","","html-keyboard-response","123","319758","0.0-1.0-175.0","0","0","49696","","null","","","null","19","","NaN","","","","","","","","","","","","","",""
"","response","","html-keyboard-response","124","320365","0.0-1.0-176.0-0.0","0","0","49696","","606","","","75","19","","","1","19","training","adjacent","DC","4","3","R.jpg","M.jpg","0","0","1","",""
"","feedback","","html-keyboard-response","125","321374","0.0-1.0-177.0-0.0","0","0","49696","","null","","","null","19","","","","","","","","","","","","","","","",""
"","ITI","","html-keyboard-response","126","322383","0.0-1.0-180.0","0","0","49696","","null","","","null","19","","","","","","","","","","","","","","","NaN",""
"","S1","","html-keyboard-response","127","322639","0.0-1.0-182.0","0","0","49696","","null","","","null","20","","","","","","","","","","","","","","","",""
"","ISI","","html-keyboard-response","128","323649","0.0-1.0-183.0","0","0","49696","","null","","","null","20","NaN","","","","","","","","","","","","","","",""
"","S2","","html-keyboard-response","129","323910","0.0-1.0-184.0","0","0","49696","","null","","","null","20","","NaN","","","","","","","","","","","","","",""
"","response","","html-keyboard-response","130","324787","0.0-1.0-185.0-0.0","0","0","49696","","875","","","68","20","","","1","20","training","adjacent","GF","7","6","O.jpg","Q.jpg","1","0","0","",""
"","feedback","","html-keyboard-response","131","325797","0.0-1.0-186.0-0.0","0","0","49696","","null","","","null","20","","","","","","","","","","","","","","","",""
"","time_out","","html-keyboard-response","132","327805","0.0-1.0-188.0-0.0","0","0","49696","","null","","","null","20","","","","","","","","","","","","","","","",""
"","ITI","","html-keyboard-response","133","328814","0.0-1.0-189.0","0","0","49696","","null","","","null","20","","","","","","","","","","","","","","","NaN",""
"","S1","","html-keyboard-response","134","329071","0.0-1.0-191.0","0","0","49696","","null","","","null","21","","","","","","","","","","","","","","","",""
"","ISI","","html-keyboard-response","135","330081","0.0-1.0-192.0","0","0","49696","","null","","","null","21","NaN","","","","","","","","","","","","","","",""
"","S2","","html-keyboard-response","136","330342","0.0-1.0-193.0","0","0","49696","","null","","","null","21","","NaN","","","","","","","","","","","","","",""
"","response","","html-keyboard-response","137","330983","0.0-1.0-194.0-0.0","0","0","49696","","639","","","68","21","","","1","21","training","adjacent","FE","6","5","Q.jpg","L.jpg","1","0","0","",""
"","feedback","","html-keyboard-response","138","331990","0.0-1.0-195.0-0.0","0","0","49696","","null","","","null","21","","","","","","","","","","","","","","","",""
"","time_out","","html-keyboard-response","139","333999","0.0-1.0-197.0-0.0","0","0","49696","","null","","","null","21","","","","","","","","","","","","","","","",""
"","ITI","","html-keyboard-response","140","335008","0.0-1.0-198.0","0","0","49696","","null","","","null","21","","","","","","","","","","","","","","","NaN",""
"","S1","","html-keyboard-response","141","335270","0.0-1.0-200.0","0","0","49696","","null","","","null","22","","","","","","","","","","","","","","","",""
"","ISI","","html-keyboard-response","142","336280","0.0-1.0-201.0","0","0","49696","","null","","","null","22","NaN","","","","","","","","","","","","","","",""
"","S2","","html-keyboard-response","143","336541","0.0-1.0-202.0","0","0","49696","","null","","","null","22","","NaN","","","","","","","","","","","","","",""
"","response","","html-keyboard-response","144","337229","0.0-1.0-203.0-0.0","0","0","49696","","687","","","68","22","","","1","22","training","adjacent","DC","4","3","R.jpg","M.jpg","1","0","0","",""
"","feedback","","html-keyboard-response","145","338236","0.0-1.0-204.0-0.0","0","0","49696","","null","","","null","22","","","","","","","","","","","","","","","",""
"","time_out","","html-keyboard-response","146","340245","0.0-1.0-206.0-0.0","0","0","49696","","null","","","null","22","","","","","","","","","","","","","","","",""
"","ITI","","html-keyboard-response","147","341255","0.0-1.0-207.0","0","0","49696","","null","","","null","22","","","","","","","","","","","","","","","NaN",""
"","S1","","html-keyboard-response","148","341510","0.0-1.0-209.0","0","0","49696","","null","","","null","23","","","","","","","","","","","","","","","",""
"","ISI","","html-keyboard-response","149","342520","0.0-1.0-210.0","0","0","49696","","null","","","null","23","NaN","","","","","","","","","","","","","","",""
"","S2","","html-keyboard-response","150","342781","0.0-1.0-211.0","0","0","49696","","null","","","null","23","","NaN","","","","","","","","","","","","","",""
"","response","","html-keyboard-response","151","343177","0.0-1.0-212.0-0.0","0","0","49696","","393","","","68","23","","","1","23","training","adjacent","DE","4","5","R.jpg","L.jpg","1","1","1","",""
"","feedback","","html-keyboard-response","152","344181","0.0-1.0-213.0-0.0","0","0","49696","","null","","","null","23","","","","","","","","","","","","","","","",""
"","ITI","","html-keyboard-response","153","345190","0.0-1.0-216.0","0","0","49696","","null","","","null","23","","","","","","","","","","","","","","","NaN",""
"","S1","","html-keyboard-response","154","345446","0.0-1.0-218.0","0","0","49696","","null","","","null","24","","","","","","","","","","","","","","","",""
"","ISI","","html-keyboard-response","155","346456","0.0-1.0-219.0","0","0","49696","","null","","","null","24","NaN","","","","","","","","","","","","","","",""
"","S2","","html-keyboard-response","156","346717","0.0-1.0-220.0","0","0","49696","","null","","","null","24","","NaN","","","","","","","","","","","","","",""
"","response","","html-keyboard-response","157","347368","0.0-1.0-221.0-0.0","0","0","49696","","649","","","68","24","","","1","24","training","adjacent","AB","1","2","P.jpg","N.jpg","1","1","1","",""
"","feedback","","html-keyboard-response","158","348376","0.0-1.0-222.0-0.0","0","0","49696","","null","","","null","24","","","","","","","","","","","","","","","",""
"","ITI","","html-keyboard-response","159","349382","0.0-1.0-225.0","0","0","49696","","null","","","null","24","","","","","","","","","","","","","","","NaN",""
"","S1","","html-keyboard-response","160","349637","0.0-1.0-227.0","0","0","49696","","null","","","null","25","","","","","","","","","","","","","","","",""
"","ISI","","html-keyboard-response","161","350647","0.0-1.0-228.0","0","0","49696","","null","","","null","25","NaN","","","","","","","","","","","","","","",""
"","S2","","html-keyboard-response","162","350903","0.0-1.0-229.0","0","0","49696","","null","","","null","25","","NaN","","","","","","","","","","","","","",""
"","response","","html-keyboard-response","163","352661","0.0-1.0-230.0-0.0","0","0","49696","","null","","","null","25","","","1","25","training","adjacent","GF","7","6","O.jpg","Q.jpg","NaN","0","0","",""
"","too_slow_prompt","","html-keyboard-response","164","353671","0.0-1.0-232.0-0.0","1","0","49696","","null","","","null","","","","","","","","","","","","","","","","",""
"","time_out","","html-keyboard-response","165","355680","0.0-1.0-233.0-0.0","0","0","49696","","null","","","null","25","","","","","","","","","","","","","","","",""
"","ITI","","html-keyboard-response","166","356684","0.0-1.0-234.0","0","0","49696","","null","","","null","25","","","","","","","","","","","","","","","NaN",""
"","S1","","html-keyboard-response","167","356944","0.0-1.0-236.0","0","0","49696","","null","","","null","26","","","","","","","","","","","","","","","",""
"","ISI","","html-keyboard-response","168","357949","0.0-1.0-237.0","0","0","49696","","629","","","68","26","d","","","","","","","","","","","","","","",""
"","S2","","html-keyboard-response","169","358204","0.0-1.0-238.0","0","0","49696","","null","","","null","26","","NaN","","","","","","","","","","","","","",""
"","response","","html-keyboard-response","170","358679","0.0-1.0-239.0-0.0","0","0","49696","","473","","","68","26","","","1","26","training","adjacent","FE","6","5","Q.jpg","L.jpg","1","0","0","",""
"","feedback","","html-keyboard-response","171","359685","0.0-1.0-240.0-0.0","0","0","49696","","null","","","null","26","","","","","","","","","","","","","","","",""
"","time_out","","html-keyboard-response","172","361694","0.0-1.0-242.0-0.0","0","0","49696","","null","","","null","26","","","","","","","","","","","","","","","",""
"","ITI","","html-keyboard-response","173","362704","0.0-1.0-243.0","0","0","49696","","null","","","null","26","","","","","","","","","","","","","","","NaN",""
"","S1","","html-keyboard-response","174","362965","0.0-1.0-245.0","0","0","49696","","null","","","null","27","","","","","","","","","","","","","","","",""
"","ISI","","html-keyboard-response","175","363975","0.0-1.0-246.0","0","0","49696","","449","","","68","27","d","","","","","","","","","","","","","","",""
"","S2","","html-keyboard-response","176","364230","0.0-1.0-247.0","0","0","49696","","null","","","null","27","","NaN","","","","","","","","","","","","","",""
"","response","","html-keyboard-response","177","364272","0.0-1.0-248.0-0.0","0","0","49696","","39","","","68","27","","","1","27","training","adjacent","ED","5","4","L.jpg","R.jpg","1","0","0","",""
"","feedback","","html-keyboard-response","178","365279","0.0-1.0-249.0-0.0","0","0","49696","","null","","","null","27","","","","","","","","","","","","","","","",""
"","time_out","","html-keyboard-response","179","367283","0.0-1.0-251.0-0.0","0","0","49696","","null","","","null","27","","","","","","","","","","","","","","","",""
"","ITI","","html-keyboard-response","180","368294","0.0-1.0-252.0","0","0","49696","","null","","","null","27","","","","","","","","","","","","","","","NaN",""
"","S1","","html-keyboard-response","181","368549","0.0-1.0-254.0","0","0","49696","","null","","","null","28","","","","","","","","","","","","","","","",""
"","ISI","","html-keyboard-response","182","369559","0.0-1.0-255.0","0","0","49696","","null","","","null","28","NaN","","","","","","","","","","","","","","",""
"","S2","","html-keyboard-response","183","369820","0.0-1.0-256.0","0","0","49696","","null","","","null","28","","NaN","","","","","","","","","","","","","",""
"","response","","html-keyboard-response","184","370120","0.0-1.0-257.0-0.0","0","0","49696","","298","","","68","28","","","1","28","training","adjacent","BA","2","1","N.jpg","P.jpg","1","0","0","",""
"","feedback","","html-keyboard-response","185","371127","0.0-1.0-258.0-0.0","0","0","49696","","null","","","null","28","","","","","","","","","","","","","","","",""
"","time_out","","html-keyboard-response","186","373135","0.0-1.0-260.0-0.0","0","0","49696","","null","","","null","28","","","","","","","","","","","","","","","",""
"","ITI","","html-keyboard-response","187","374144","0.0-1.0-261.0","0","0","49696","","null","","","null","28","","","","","","","","","","","","","","","NaN",""
"","S1","","html-keyboard-response","188","374406","0.0-1.0-263.0","0","0","49696","","null","","","null","29","","","","","","","","","","","","","","","",""
"","ISI","","html-keyboard-response","189","375415","0.0-1.0-264.0","0","0","49696","","null","","","null","29","NaN","","","","","","","","","","","","","","",""
"","S2","","html-keyboard-response","190","375519","0.0-1.0-265.0","0","0","49696","","102","","","68","29","","d","1","29","training","adjacent","DC","4","3","R.jpg","M.jpg","1","0","0","",""
"","feedback","","html-keyboard-response","191","376524","0.0-1.0-267.0-0.0","0","0","49696","","null","","","null","29","","","","","","","","","","","","","","","",""
"","time_out","","html-keyboard-response","192","378533","0.0-1.0-269.0-0.0","0","0","49696","","null","","","null","29","","","","","","","","","","","","","","","",""
"","ITI","","html-keyboard-response","193","379544","0.0-1.0-270.0","0","0","49696","","null","","","null","29","","","","","","","","","","","","","","","NaN",""
"","S1","","html-keyboard-response","194","379804","0.0-1.0-272.0","0","0","49696","","null","","","null","30","","","","","","","","","","","","","","","",""
"","ISI","","html-keyboard-response","195","380814","0.0-1.0-273.0","0","0","49696","","515","","","68","30","d","","","","","","","","","","","","","","",""
"","S2","","html-keyboard-response","196","381070","0.0-1.0-274.0","0","0","49696","","null","","","null","30","","NaN","","","","","","","","","","","","","",""
"","response","","html-keyboard-response","197","381167","0.0-1.0-275.0-0.0","0","0","49696","","96","","","68","30","","","1","30","training","adjacent","CD","3","4","M.jpg","R.jpg","1","1","1","",""
"","feedback","","html-keyboard-response","198","382173","0.0-1.0-276.0-0.0","0","0","49696","","null","","","null","30","","","","","","","","","","","","","","","",""
"","ITI","","html-keyboard-response","199","383183","0.0-1.0-279.0","0","0","49696","","null","","","null","30","","","","","","","","","","","","","","","NaN",""
"","S1","","html-keyboard-response","200","383444","0.0-1.0-281.0","0","0","49696","","null","","","null","31","","","","","","","","","","","","","","","",""
"","ISI","","html-keyboard-response","201","384454","0.0-1.0-282.0","0","0","49696","","null","","","null","31","NaN","","","","","","","","","","","","","","",""
"","S2","","html-keyboard-response","202","384710","0.0-1.0-283.0","0","0","49696","","null","","","null","31","","NaN","","","","","","","","","","","","","",""
"","response","","html-keyboard-response","203","385841","0.0-1.0-284.0-0.0","0","0","49696","","1130","","","68","31","","","1","31","training","adjacent","DE","4","5","R.jpg","L.jpg","1","1","1","",""
"","feedback","","html-keyboard-response","204","386851","0.0-1.0-285.0-0.0","0","0","49696","","null","","","null","31","","","","","","","","","","","","","","","",""
"","ITI","","html-keyboard-response","205","387861","0.0-1.0-288.0","0","0","49696","","null","","","null","31","","","","","","","","","","","","","","","NaN",""
"","S1","","html-keyboard-response","206","388117","0.0-1.0-290.0","0","0","49696","","null","","","null","32","","","","","","","","","","","","","","","",""
"","ISI","","html-keyboard-response","207","389127","0.0-1.0-291.0","0","0","49696","","null","","","null","32","NaN","","","","","","","","","","","","","","",""
"","S2","","html-keyboard-response","208","389388","0.0-1.0-292.0","0","0","49696","","null","","","null","32","","NaN","","","","","","","","","","","","","",""
"","response","","html-keyboard-response","209","391147","0.0-1.0-293.0-0.0","0","0","49696","","null","","","null","32","","","1","32","training","adjacent","AB","1","2","P.jpg","N.jpg","NaN","1","0","",""
"","too_slow_prompt","","html-keyboard-response","210","392153","0.0-1.0-295.0-0.0","1","0","49696","","null","","","null","","","","","","","","","","","","","","","","",""
"","time_out","","html-keyboard-response","211","394166","0.0-1.0-296.0-0.0","0","0","49696","","null","","","null","32","","","","","","","","","","","","","","","",""
"","ITI","","html-keyboard-response","212","395174","0.0-1.0-297.0","0","0","49696","","null","","","null","32","","","","","","","","","","","","","","","NaN",""
"","S1","","html-keyboard-response","213","395437","0.0-1.0-299.0","0","0","49696","","null","","","null","33","","","","","","","","","","","","","","","",""
"","ISI","","html-keyboard-response","214","396447","0.0-1.0-300.0","0","0","49696","","345","","","75","33","k","","","","","","","","","","","","","","",""
"","S2","","html-keyboard-response","215","396708","0.0-1.0-301.0","0","0","49696","","null","","","null","33","","NaN","","","","","","","","","","","","","",""
"","response","","html-keyboard-response","216","396714","0.0-1.0-302.0-0.0","0","0","49696","","4","","","68","33","","","1","33","training","adjacent","CD","3","4","M.jpg","R.jpg","1","1","1","",""
"","feedback","","html-keyboard-response","217","397724","0.0-1.0-303.0-0.0","0","0","49696","","null","","","null","33","","","","","","","","","","","","","","","",""
"","ITI","","html-keyboard-response","218","398734","0.0-1.0-306.0","0","0","49696","","null","","","null","33","","","","","","","","","","","","","","","NaN",""
"","S1","","html-keyboard-response","219","398989","0.0-1.0-308.0","0","0","49696","","null","","","null","34","","","","","","","","","","","","","","","",""
"","ISI","","html-keyboard-response","220","399998","0.0-1.0-309.0","0","0","49696","","null","","","null","34","NaN","","","","","","","","","","","","","","",""
"","S2","","html-keyboard-response","221","400260","0.0-1.0-310.0","0","0","49696","","null","","","null","34","","NaN","","","","","","","","","","","","","",""
"","response","","html-keyboard-response","222","401573","0.0-1.0-311.0-0.0","0","0","49696","","1311","","","68","34","","","1","34","training","adjacent","EF","5","6","L.jpg","Q.jpg","1","1","1","",""
"","feedback","","html-keyboard-response","223","402583","0.0-1.0-312.0-0.0","0","0","49696","","null","","","null","34","","","","","","","","","","","","","","","",""
"","ITI","","html-keyboard-response","224","403587","0.0-1.0-315.0","0","0","49696","","null","","","null","34","","","","","","","","","","","","","","","NaN",""
"","S1","","html-keyboard-response","225","403842","0.0-1.0-317.0","0","0","49696","","null","","","null","35","","","","","","","","","","","","","","","",""
"","ISI","","html-keyboard-response","226","404852","0.0-1.0-318.0","0","0","49696","","null","","","null","35","NaN","","","","","","","","","","","","","","",""
"","S2","","html-keyboard-response","227","405108","0.0-1.0-319.0","0","0","49696","","null","","","null","35","","NaN","","","","","","","","","","","","","",""
"","response","","html-keyboard-response","228","405574","0.0-1.0-320.0-0.0","0","0","49696","","465","","","68","35","","","1","35","training","adjacent","CB","3","2","M.jpg","N.jpg","1","0","0","",""
"","feedback","","html-keyboard-response","229","406582","0.0-1.0-321.0-0.0","0","0","49696","","null","","","null","35","","","","","","","","","","","","","","","",""
"","time_out","","html-keyboard-response","230","408590","0.0-1.0-323.0-0.0","0","0","49696","","null","","","null","35","","","","","","","","","","","","","","","",""
"","ITI","","html-keyboard-response","231","409595","0.0-1.0-324.0","0","0","49696","","null","","","null","35","","","","","","","","","","","","","","","NaN",""
"","S1","","html-keyboard-response","232","409850","0.0-1.0-326.0","0","0","49696","","null","","","null","36","","","","","","","","","","","","","","","",""
"","ISI","","html-keyboard-response","233","410860","0.0-1.0-327.0","0","0","49696","","510","","","68","36","d","","","","","","","","","","","","","","",""
"","S2","","html-keyboard-response","234","411115","0.0-1.0-328.0","0","0","49696","","253","","","68","36","","d","1","36","training","adjacent","DC","4","3","R.jpg","M.jpg","1","0","0","",""
"","feedback","","html-keyboard-response","235","412124","0.0-1.0-330.0-0.0","0","0","49696","","null","","","null","36","","","","","","","","","","","","","","","",""
"","time_out","","html-keyboard-response","236","414133","0.0-1.0-332.0-0.0","0","0","49696","","null","","","null","36","","","","","","","","","","","","","","","",""
"","ITI","","html-keyboard-response","237","415138","0.0-1.0-333.0","0","0","49696","","null","","","null","36","","","","","","","","","","","","","","","NaN",""
"","S1","","html-keyboard-response","238","415399","0.0-1.0-335.0","0","0","49696","","null","","","null","37","","","","","","","","","","","","","","","",""
"","ISI","","html-keyboard-response","239","416404","0.0-1.0-336.0","0","0","49696","","null","","","null","37","NaN","","","","","","","","","","","","","","",""
"","S2","","html-keyboard-response","240","416659","0.0-1.0-337.0","0","0","49696","","null","","","null","37","","NaN","","","","","","","","","","","","","",""
"","response","","html-keyboard-response","241","417597","0.0-1.0-338.0-0.0","0","0","49696","","936","","","68","37","","","1","37","training","adjacent","EF","5","6","L.jpg","Q.jpg","1","1","1","",""
"","feedback","","html-keyboard-response","242","418603","0.0-1.0-339.0-0.0","0","0","49696","","null","","","null","37","","","","","","","","","","","","","","","",""
"","ITI","","html-keyboard-response","243","419614","0.0-1.0-342.0","0","0","49696","","null","","","null","37","","","","","","","","","","","","","","","NaN",""
"","S1","","html-keyboard-response","244","419875","0.0-1.0-344.0","0","0","49696","","null","","","null","38","","","","","","","","","","","","","","","",""
"","ISI","","html-keyboard-response","245","420885","0.0-1.0-345.0","0","0","49696","","null","","","null","38","NaN","","","","","","","","","","","","","","",""
"","S2","","html-keyboard-response","246","421146","0.0-1.0-346.0","0","0","49696","","null","","","null","38","","NaN","","","","","","","","","","","","","",""
"","response","","html-keyboard-response","247","421763","0.0-1.0-347.0-0.0","0","0","49696","","615","","","68","38","","","1","38","training","adjacent","FG","6","7","Q.jpg","O.jpg","1","1","1","",""
"","feedback","","html-keyboard-response","248","422772","0.0-1.0-348.0-0.0","0","0","49696","","null","","","null","38","","","","","","","","","","","","","","","",""
"","ITI","","html-keyboard-response","249","423782","0.0-1.0-351.0","0","0","49696","","null","","","null","38","","","","","","","","","","","","","","","NaN",""
"","S1","","html-keyboard-response","250","424043","0.0-1.0-353.0","0","0","49696","","null","","","null","39","","","","","","","","","","","","","","","",""
"","ISI","","html-keyboard-response","251","425053","0.0-1.0-354.0","0","0","49696","","null","","","null","39","NaN","","","","","","","","","","","","","","",""
"","S2","","html-keyboard-response","252","425314","0.0-1.0-355.0","0","0","49696","","null","","","null","39","","NaN","","","","","","","","","","","","","",""
"","response","","html-keyboard-response","253","426110","0.0-1.0-356.0-0.0","0","0","49696","","794","","","75","39","","","1","39","training","adjacent","FE","6","5","Q.jpg","L.jpg","0","0","1","",""
"","feedback","","html-keyboard-response","254","427114","0.0-1.0-357.0-0.0","0","0","49696","","null","","","null","39","","","","","","","","","","","","","","","",""
"","ITI","","html-keyboard-response","255","428123","0.0-1.0-360.0","0","0","49696","","null","","","null","39","","","","","","","","","","","","","","","NaN",""
"","S1","","html-keyboard-response","256","428379","0.0-1.0-362.0","0","0","49696","","null","","","null","40","","","","","","","","","","","","","","","",""
"","ISI","","html-keyboard-response","257","429389","0.0-1.0-363.0","0","0","49696","","null","","","null","40","NaN","","","","","","","","","","","","","","",""
"","S2","","html-keyboard-response","258","429650","0.0-1.0-364.0","0","0","49696","","null","","","null","40","","NaN","","","","","","","","","","","","","",""
"","response","","html-keyboard-response","259","430410","0.0-1.0-365.0-0.0","0","0","49696","","758","","","68","40","","","1","40","training","adjacent","ED","5","4","L.jpg","R.jpg","1","0","0","",""
"","feedback","","html-keyboard-response","260","431421","0.0-1.0-366.0-0.0","0","0","49696","","null","","","null","40","","","","","","","","","","","","","","","",""
"","time_out","","html-keyboard-response","261","433426","0.0-1.0-368.0-0.0","0","0","49696","","null","","","null","40","","","","","","","","","","","","","","","",""
"","ITI","","html-keyboard-response","262","434433","0.0-1.0-369.0","0","0","49696","","null","","","null","40","","","","","","","","","","","","","","","NaN",""
"","S1","","html-keyboard-response","263","434690","0.0-1.0-371.0","0","0","49696","","null","","","null","41","","","","","","","","","","","","","","","",""
"","ISI","","html-keyboard-response","264","435699","0.0-1.0-372.0","0","0","49696","","null","","","null","41","NaN","","","","","","","","","","","","","","",""
"","S2","","html-keyboard-response","265","435954","0.0-1.0-373.0","0","0","49696","","null","","","null","41","","NaN","","","","","","","","","","","","","",""
"","response","","html-keyboard-response","266","436068","0.0-1.0-374.0-0.0","0","0","49696","","113","","","75","41","","","1","41","training","adjacent","BC","2","3","N.jpg","M.jpg","0","1","0","",""
"","feedback","","html-keyboard-response","267","437075","0.0-1.0-375.0-0.0","0","0","49696","","null","","","null","41","","","","","","","","","","","","","","","",""
"","time_out","","html-keyboard-response","268","439083","0.0-1.0-377.0-0.0","0","0","49696","","null","","","null","41","","","","","","","","","","","","","","","",""
"","ITI","","html-keyboard-response","269","440093","0.0-1.0-378.0","0","0","49696","","284","","","68","41","","","","","","","","","","","","","","","d",""
"","S1","","html-keyboard-response","270","440354","0.0-1.0-380.0","0","0","49696","","null","","","null","42","","","","","","","","","","","","","","","",""
"","ISI","","html-keyboard-response","271","441364","0.0-1.0-381.0","0","0","49696","","null","","","null","42","NaN","","","","","","","","","","","","","","",""
"","S2","","html-keyboard-response","272","441620","0.0-1.0-382.0","0","0","49696","","null","","","null","42","","NaN","","","","","","","","","","","","","",""
"","response","","html-keyboard-response","273","442080","0.0-1.0-383.0-0.0","0","0","49696","","459","","","68","42","","","1","42","training","adjacent","CB","3","2","M.jpg","N.jpg","1","0","0","",""
"","feedback","","html-keyboard-response","274","443093","0.0-1.0-384.0-0.0","0","0","49696","","null","","","null","42","","","","","","","","","","","","","","","",""
"","time_out","","html-keyboard-response","275","445097","0.0-1.0-386.0-0.0","0","0","49696","","null","","","null","42","","","","","","","","","","","","","","","",""
"","ITI","","html-keyboard-response","276","446107","0.0-1.0-387.0","0","0","49696","","null","","","null","42","","","","","","","","","","","","","","","NaN",""
"","S1","","html-keyboard-response","277","446362","0.0-1.0-389.0","0","0","49696","","null","","","null","43","","","","","","","","","","","","","","","",""
"","ISI","","html-keyboard-response","278","447372","0.0-1.0-390.0","0","0","49696","","null","","","null","43","NaN","","","","","","","","","","","","","","",""
"","S2","","html-keyboard-response","279","447634","0.0-1.0-391.0","0","0","49696","","null","","","null","43","","NaN","","","","","","","","","","","","","",""
"","response","","html-keyboard-response","280","448067","0.0-1.0-392.0-0.0","0","0","49696","","432","","","68","43","","","1","43","training","adjacent","EF","5","6","L.jpg","Q.jpg","1","1","1","",""
"","feedback","","html-keyboard-response","281","449073","0.0-1.0-393.0-0.0","0","0","49696","","null","","","null","43","","","","","","","","","","","","","","","",""
"","ITI","","html-keyboard-response","282","450083","0.0-1.0-396.0","0","0","49696","","null","","","null","43","","","","","","","","","","","","","","","NaN",""
"","S1","","html-keyboard-response","283","450339","0.0-1.0-398.0","0","0","49696","","null","","","null","44","","","","","","","","","","","","","","","",""
"","ISI","","html-keyboard-response","284","451349","0.0-1.0-399.0","0","0","49696","","null","","","null","44","NaN","","","","","","","","","","","","","","",""
"","S2","","html-keyboard-response","285","451609","0.0-1.0-400.0","0","0","49696","","null","","","null","44","","NaN","","","","","","","","","","","","","",""
"","response","","html-keyboard-response","286","452681","0.0-1.0-401.0-0.0","0","0","49696","","1070","","","75","44","","","1","44","training","adjacent","AB","1","2","P.jpg","N.jpg","0","1","0","",""
"","feedback","","html-keyboard-response","287","453689","0.0-1.0-402.0-0.0","0","0","49696","","null","","","null","44","","","","","","","","","","","","","","","",""
"","time_out","","html-keyboard-response","288","455696","0.0-1.0-404.0-0.0","0","0","49696","","null","","","null","44","","","","","","","","","","","","","","","",""
"","ITI","","html-keyboard-response","289","456699","0.0-1.0-405.0","0","0","49696","","null","","","null","44","","","","","","","","","","","","","","","NaN",""
"","S1","","html-keyboard-response","290","456956","0.0-1.0-407.0","0","0","49696","","null","","","null","45","","","","","","","","","","","","","","","",""
"","ISI","","html-keyboard-response","291","457961","0.0-1.0-408.0","0","0","49696","","null","","","null","45","NaN","","","","","","","","","","","","","","",""
"","S2","","html-keyboard-response","292","458220","0.0-1.0-409.0","0","0","49696","","null","","","null","45","","NaN","","","","","","","","","","","","","",""
"","response","","html-keyboard-response","293","458938","0.0-1.0-410.0-0.0","0","0","49696","","716","","","68","45","","","1","45","training","adjacent","FE","6","5","Q.jpg","L.jpg","1","0","0","",""
"","feedback","","html-keyboard-response","294","459945","0.0-1.0-411.0-0.0","0","0","49696","","null","","","null","45","","","","","","","","","","","","","","","",""
"","time_out","","html-keyboard-response","295","461954","0.0-1.0-413.0-0.0","0","0","49696","","null","","","null","45","","","","","","","","","","","","","","","",""
"","ITI","","html-keyboard-response","296","462964","0.0-1.0-414.0","0","0","49696","","null","","","null","45","","","","","","","","","","","","","","","NaN",""
"","S1","","html-keyboard-response","297","463225","0.0-1.0-416.0","0","0","49696","","null","","","null","46","","","","","","","","","","","","","","","",""
"","ISI","","html-keyboard-response","298","464235","0.0-1.0-417.0","0","0","49696","","59","","","68","46","d","","","","","","","","","","","","","","",""
"","S2","","html-keyboard-response","299","464475","0.0-1.0-418.0","0","0","49696","","239","","","68","46","","d","1","46","training","adjacent","BA","2","1","N.jpg","P.jpg","1","0","0","",""
"","feedback","","html-keyboard-response","300","465483","0.0-1.0-420.0-0.0","0","0","49696","","null","","","null","46","","","","","","","","","","","","","","","",""
"","time_out","","html-keyboard-response","301","467492","0.0-1.0-422.0-0.0","0","0","49696","","null","","","null","46","","","","","","","","","","","","","","","",""
"","ITI","","html-keyboard-response","302","468496","0.0-1.0-423.0","0","0","49696","","null","","","null","46","","","","","","","","","","","","","","","NaN",""
"","S1","","html-keyboard-response","303","468756","0.0-1.0-425.0","0","0","49696","","null","","","null","47","","","","","","","","","","","","","","","",""
"","ISI","","html-keyboard-response","304","469761","0.0-1.0-426.0","0","0","49696","","203","","","68","47","d","","","","","","","","","","","","","","",""
"","S2","","html-keyboard-response","305","470016","0.0-1.0-427.0","0","0","49696","","null","","","null","47","","NaN","","","","","","","","","","","","","",""
"","response","","html-keyboard-response","306","471639","0.0-1.0-428.0-0.0","0","0","49696","","1620","","","68","47","","","1","47","training","adjacent","BC","2","3","N.jpg","M.jpg","1","1","1","",""
"","feedback","","html-keyboard-response","307","472652","0.0-1.0-429.0-0.0","0","0","49696","","null","","","null","47","","","","","","","","","","","","","","","",""
"","ITI","","html-keyboard-response","308","473656","0.0-1.0-432.0","0","0","49696","","null","","","null","47","","","","","","","","","","","","","","","NaN",""
"","block_over","","html-keyboard-response","309","572258","0.0-1.0-433.0-0.0","0","0","49696","","98600","","","32","47","","","","","","","","","","","","","","","",""
"","S1","","html-keyboard-response","310","572512","0.0-1.0-434.0","0","0","49696","","null","","","null","48","","","","","","","","","","","","","","","",""
"","ISI","","html-keyboard-response","311","573521","0.0-1.0-435.0","0","0","49696","","null","","","null","48","NaN","","","","","","","","","","","","","","",""
"","S2","","html-keyboard-response","312","573783","0.0-1.0-436.0","0","0","49696","","null","","","null","48","","NaN","","","","","","","","","","","","","",""
"","response","","html-keyboard-response","313","575542","0.0-1.0-437.0-0.0","0","0","49696","","null","","","null","48","","","2","48","training","adjacent","ED","5","4","L.jpg","R.jpg","NaN","0","0","",""
"","too_slow_prompt","","html-keyboard-response","314","576552","0.0-1.0-439.0-0.0","1","0","49696","","null","","","null","","","","","","","","","","","","","","","","",""
"","time_out","","html-keyboard-response","315","578560","0.0-1.0-440.0-0.0","0","0","49696","","null","","","null","48","","","","","","","","","","","","","","","",""
"","ITI","","html-keyboard-response","316","579565","0.0-1.0-441.0","0","0","49696","","null","","","null","48","","","","","","","","","","","","","","","NaN",""
"","S1","","html-keyboard-response","317","579820","0.0-1.0-443.0","0","0","49696","","null","","","null","49","","","","","","","","","","","","","","","",""
"","ISI","","html-keyboard-response","318","580830","0.0-1.0-444.0","0","0","49696","","104","","","68","49","d","","","","","","","","","","","","","","",""
"","S2","","html-keyboard-response","319","581086","0.0-1.0-445.0","0","0","49696","","null","","","null","49","","NaN","","","","","","","","","","","","","",""
"","response","","html-keyboard-response","320","581740","0.0-1.0-446.0-0.0","0","0","49696","","653","","","68","49","","","2","49","training","adjacent","CB","3","2","M.jpg","N.jpg","1","0","0","",""
"","feedback","","html-keyboard-response","321","582752","0.0-1.0-447.0-0.0","0","0","49696","","null","","","null","49","","","","","","","","","","","","","","","",""
"","time_out","","html-keyboard-response","322","584760","0.0-1.0-449.0-0.0","0","0","49696","","null","","","null","49","","","","","","","","","","","","","","","",""
"","ITI","","html-keyboard-response","323","585764","0.0-1.0-450.0","0","0","49696","","null","","","null","49","","","","","","","","","","","","","","","NaN",""
"","S1","","html-keyboard-response","324","586020","0.0-1.0-452.0","0","0","49696","","null","","","null","50","","","","","","","","","","","","","","","",""
"","ISI","","html-keyboard-response","325","587030","0.0-1.0-453.0","0","0","49696","","410","","","68","50","d","","","","","","","","","","","","","","",""
"","S2","","html-keyboard-response","326","587285","0.0-1.0-454.0","0","0","49696","","null","","","null","50","","NaN","","","","","","","","","","","","","",""
"","response","","html-keyboard-response","327","588238","0.0-1.0-455.0-0.0","0","0","49696","","951","","","68","50","","","2","50","training","adjacent","BA","2","1","N.jpg","P.jpg","1","0","0","",""
"","feedback","","html-keyboard-response","328","589247","0.0-1.0-456.0-0.0","0","0","49696","","null","","","null","50","","","","","","","","","","","","","","","",""
"","time_out","","html-keyboard-response","329","591256","0.0-1.0-458.0-0.0","0","0","49696","","null","","","null","50","","","","","","","","","","","","","","","",""
"","ITI","","html-keyboard-response","330","592260","0.0-1.0-459.0","0","0","49696","","null","","","null","50","","","","","","","","","","","","","","","NaN",""
"","S1","","html-keyboard-response","331","592520","0.0-1.0-461.0","0","0","49696","","null","","","null","51","","","","","","","","","","","","","","","",""
"","ISI","","html-keyboard-response","332","593525","0.0-1.0-462.0","0","0","49696","","null","","","null","51","NaN","","","","","","","","","","","","","","",""
"","S2","","html-keyboard-response","333","593781","0.0-1.0-463.0","0","0","49696","","null","","","null","51","","NaN","","","","","","","","","","","","","",""
"","response","","html-keyboard-response","334","594087","0.0-1.0-464.0-0.0","0","0","49696","","305","","","68","51","","","2","51","training","adjacent","AB","1","2","P.jpg","N.jpg","1","1","1","",""
"","feedback","","html-keyboard-response","335","595092","0.0-1.0-465.0-0.0","0","0","49696","","null","","","null","51","","","","","","","","","","","","","","","",""
"","ITI","","html-keyboard-response","336","596101","0.0-1.0-468.0","0","0","49696","","null","","","null","51","","","","","","","","","","","","","","","NaN",""
"","S1","","html-keyboard-response","337","596358","0.0-1.0-470.0","0","0","49696","","null","","","null","52","","","","","","","","","","","","","","","",""
"","ISI","","html-keyboard-response","338","597368","0.0-1.0-471.0","0","0","49696","","null","","","null","52","NaN","","","","","","","","","","","","","","",""
"","S2","","html-keyboard-response","339","597629","0.0-1.0-472.0","0","0","49696","","null","","","null","52","","NaN","","","","","","","","","","","","","",""
"","response","","html-keyboard-response","340","597960","0.0-1.0-473.0-0.0","0","0","49696","","329","","","75","52","","","2","52","training","adjacent","DC","4","3","R.jpg","M.jpg","0","0","1","",""
"","feedback","","html-keyboard-response","341","598964","0.0-1.0-474.0-0.0","0","0","49696","","null","","","null","52","","","","","","","","","","","","","","","",""
"","ITI","","html-keyboard-response","342","599974","0.0-1.0-477.0","0","0","49696","","null","","","null","52","","","","","","","","","","","","","","","NaN",""
"","S1","","html-keyboard-response","343","600230","0.0-1.0-479.0","0","0","49696","","null","","","null","53","","","","","","","","","","","","","","","",""
"","ISI","","html-keyboard-response","344","601240","0.0-1.0-480.0","0","0","49696","","941","","","68","53","d","","","","","","","","","","","","","","",""
"","S2","","html-keyboard-response","345","601501","0.0-1.0-481.0","0","0","49696","","null","","","null","53","","NaN","","","","","","","","","","","","","",""
"","response","","html-keyboard-response","346","602138","0.0-1.0-482.0-0.0","0","0","49696","","635","","","68","53","","","2","53","training","adjacent","BA","2","1","N.jpg","P.jpg","1","0","0","",""
"","feedback","","html-keyboard-response","347","603144","0.0-1.0-483.0-0.0","0","0","49696","","null","","","null","53","","","","","","","","","","","","","","","",""
"","time_out","","html-keyboard-response","348","605151","0.0-1.0-485.0-0.0","0","0","49696","","null","","","null","53","","","","","","","","","","","","","","","",""
"","ITI","","html-keyboard-response","349","606157","0.0-1.0-486.0","0","0","49696","","99","","","68","53","","","","","","","","","","","","","","","d",""
"","S1","","html-keyboard-response","350","606412","0.0-1.0-488.0","0","0","49696","","null","","","null","54","","","","","","","","","","","","","","","",""
"","ISI","","html-keyboard-response","351","607422","0.0-1.0-489.0","0","0","49696","","577","","","68","54","d","","","","","","","","","","","","","","",""
"","S2","","html-keyboard-response","352","607518","0.0-1.0-490.0","0","0","49696","","95","","","68","54","","d","2","54","training","adjacent","GF","7","6","O.jpg","Q.jpg","1","0","0","",""
"","feedback","","html-keyboard-response","353","608525","0.0-1.0-492.0-0.0","0","0","49696","","null","","","null","54","","","","","","","","","","","","","","","",""
"","time_out","","html-keyboard-response","354","610533","0.0-1.0-494.0-0.0","0","0","49696","","null","","","null","54","","","","","","","","","","","","","","","",""
"","ITI","","html-keyboard-response","355","611543","0.0-1.0-495.0","0","0","49696","","null","","","null","54","","","","","","","","","","","","","","","NaN",""
"","S1","","html-keyboard-response","356","611804","0.0-1.0-497.0","0","0","49696","","null","","","null","55","","","","","","","","","","","","","","","",""
"","ISI","","html-keyboard-response","357","612814","0.0-1.0-498.0","0","0","49696","","431","","","75","55","k","","","","","","","","","","","","","","",""
"","S2","","html-keyboard-response","358","613070","0.0-1.0-499.0","0","0","49696","","null","","","null","55","","NaN","","","","","","","","","","","","","",""
"","response","","html-keyboard-response","359","613151","0.0-1.0-500.0-0.0","0","0","49696","","79","","","75","55","","","2","55","training","adjacent","BC","2","3","N.jpg","M.jpg","0","1","0","",""
"","feedback","","html-keyboard-response","360","614155","0.0-1.0-501.0-0.0","0","0","49696","","null","","","null","55","","","","","","","","","","","","","","","",""
"","time_out","","html-keyboard-response","361","616164","0.0-1.0-503.0-0.0","0","0","49696","","null","","","null","55","","","","","","","","","","","","","","","",""
"","ITI","","html-keyboard-response","362","617174","0.0-1.0-504.0","0","0","49696","","773","","","68","55","","","","","","","","","","","","","","","d",""
"","S1","","html-keyboard-response","363","617429","0.0-1.0-506.0","0","0","49696","","null","","","null","56","","","","","","","","","","","","","","","",""
"","ISI","","html-keyboard-response","364","618436","0.0-1.0-507.0","0","0","49696","","280","","","68","56","d","","","","","","","","","","","","","","",""
"","S2","","html-keyboard-response","365","618622","0.0-1.0-508.0","0","0","49696","","185","","","68","56","","d","2","56","training","adjacent","CB","3","2","M.jpg","N.jpg","1","0","0","",""
"","feedback","","html-keyboard-response","366","619629","0.0-1.0-510.0-0.0","0","0","49696","","null","","","null","56","","","","","","","","","","","","","","","",""
"","time_out","","html-keyboard-response","367","621638","0.0-1.0-512.0-0.0","0","0","49696","","null","","","null","56","","","","","","","","","","","","","","","",""
"","ITI","","html-keyboard-response","368","622647","0.0-1.0-513.0","0","0","49696","","730","","","68","56","","","","","","","","","","","","","","","d",""
"","S1","","html-keyboard-response","369","622909","0.0-1.0-515.0","0","0","49696","","null","","","null","57","","","","","","","","","","","","","","","",""
"","ISI","","html-keyboard-response","370","623918","0.0-1.0-516.0","0","0","49696","","549","","","68","57","d","","","","","","","","","","","","","","",""
"","S2","","html-keyboard-response","371","624175","0.0-1.0-517.0","0","0","49696","","null","","","null","57","","NaN","","","","","","","","","","","","","",""
"","response","","html-keyboard-response","372","624624","0.0-1.0-518.0-0.0","0","0","49696","","448","","","68","57","","","2","57","training","adjacent","CB","3","2","M.jpg","N.jpg","1","0","0","",""
"","feedback","","html-keyboard-response","373","625638","0.0-1.0-519.0-0.0","0","0","49696","","null","","","null","57","","","","","","","","","","","","","","","",""
"","time_out","","html-keyboard-response","374","627646","0.0-1.0-521.0-0.0","0","0","49696","","null","","","null","57","","","","","","","","","","","","","","","",""
"","ITI","","html-keyboard-response","375","628655","0.0-1.0-522.0","0","0","49696","","971","","","75","57","","","","","","","","","","","","","","","k",""
"","S1","","html-keyboard-response","376","628917","0.0-1.0-524.0","0","0","49696","","null","","","null","58","","","","","","","","","","","","","","","",""
"","ISI","","html-keyboard-response","377","629925","0.0-1.0-525.0","0","0","49696","","217","","","75","58","k","","","","","","","","","","","","","","",""
"","S2","","html-keyboard-response","378","630037","0.0-1.0-526.0","0","0","49696","","110","","","75","58","","k","2","58","training","adjacent","DE","4","5","R.jpg","L.jpg","0","1","0","",""
"","feedback","","html-keyboard-response","379","631046","0.0-1.0-528.0-0.0","0","0","49696","","null","","","null","58","","","","","","","","","","","","","","","",""
"","time_out","","html-keyboard-response","380","633055","0.0-1.0-530.0-0.0","0","0","49696","","null","","","null","58","","","","","","","","","","","","","","","",""
"","ITI","","html-keyboard-response","381","634060","0.0-1.0-531.0","0","0","49696","","943","","","68","58","","","","","","","","","","","","","","","d",""
"","S1","","html-keyboard-response","382","634314","0.0-1.0-533.0","0","0","49696","","null","","","null","59","","","","","","","","","","","","","","","",""
"","ISI","","html-keyboard-response","383","635324","0.0-1.0-534.0","0","0","49696","","463","","","68","59","d","","","","","","","","","","","","","","",""
"","S2","","html-keyboard-response","384","635448","0.0-1.0-535.0","0","0","49696","","122","","","68","59","","d","2","59","training","adjacent","EF","5","6","L.jpg","Q.jpg","1","1","1","",""
"","feedback","","html-keyboard-response","385","636462","0.0-1.0-537.0-0.0","0","0","49696","","null","","","null","59","","","","","","","","","","","","","","","",""
"","ITI","","html-keyboard-response","386","637468","0.0-1.0-540.0","0","0","49696","","null","","","null","59","","","","","","","","","","","","","","","NaN",""
"","S1","","html-keyboard-response","387","637723","0.0-1.0-542.0","0","0","49696","","null","","","null","60","","","","","","","","","","","","","","","",""
"","ISI","","html-keyboard-response","388","638733","0.0-1.0-543.0","0","0","49696","","770","","","68","60","d","","","","","","","","","","","","","","",""
"","S2","","html-keyboard-response","389","638832","0.0-1.0-544.0","0","0","49696","","98","","","68","60","","d","2","60","training","adjacent","AB","1","2","P.jpg","N.jpg","1","1","1","",""
"","feedback","","html-keyboard-response","390","639846","0.0-1.0-546.0-0.0","0","0","49696","","null","","","null","60","","","","","","","","","","","","","","","",""
"","ITI","","html-keyboard-response","391","640852","0.0-1.0-549.0","0","0","49696","","764","","","68","60","","","","","","","","","","","","","","","d",""
"","S1","","html-keyboard-response","392","641107","0.0-1.0-551.0","0","0","49696","","null","","","null","61","","","","","","","","","","","","","","","",""
"","ISI","","html-keyboard-response","393","642117","0.0-1.0-552.0","0","0","49696","","711","","","75","61","k","","","","","","","","","","","","","","",""
"","S2","","html-keyboard-response","394","642372","0.0-1.0-553.0","0","0","49696","","null","","","null","61","","NaN","","","","","","","","","","","","","",""
"","response","","html-keyboard-response","395","642400","0.0-1.0-554.0-0.0","0","0","49696","","25","","","75","61","","","2","61","training","adjacent","FE","6","5","Q.jpg","L.jpg","0","0","1","",""
"","feedback","","html-keyboard-response","396","643411","0.0-1.0-555.0-0.0","0","0","49696","","null","","","null","61","","","","","","","","","","","","","","","",""
"","ITI","","html-keyboard-response","397","644422","0.0-1.0-558.0","0","0","49696","","null","","","null","61","","","","","","","","","","","","","","","NaN",""
"","S1","","html-keyboard-response","398","644683","0.0-1.0-560.0","0","0","49696","","null","","","null","62","","","","","","","","","","","","","","","",""
"","ISI","","html-keyboard-response","399","645693","0.0-1.0-561.0","0","0","49696","","null","","","null","62","NaN","","","","","","","","","","","","","","",""
"","S2","","html-keyboard-response","400","645948","0.0-1.0-562.0","0","0","49696","","null","","","null","62","","NaN","","","","","","","","","","","","","",""
"","response","","html-keyboard-response","401","646273","0.0-1.0-563.0-0.0","0","0","49696","","323","","","68","62","","","2","62","training","adjacent","DC","4","3","R.jpg","M.jpg","1","0","0","",""
"","feedback","","html-keyboard-response","402","647284","0.0-1.0-564.0-0.0","0","0","49696","","null","","","null","62","","","","","","","","","","","","","","","",""
"","time_out","","html-keyboard-response","403","649292","0.0-1.0-566.0-0.0","0","0","49696","","null","","","null","62","","","","","","","","","","","","","","","",""
"","ITI","","html-keyboard-response","404","650302","0.0-1.0-567.0","0","0","49696","","null","","","null","62","","","","","","","","","","","","","","","NaN",""
"","S1","","html-keyboard-response","405","650557","0.0-1.0-569.0","0","0","49696","","null","","","null","63","","","","","","","","","","","","","","","",""
"","ISI","","html-keyboard-response","406","651566","0.0-1.0-570.0","0","0","49696","","637","","","68","63","d","","","","","","","","","","","","","","",""
"","S2","","html-keyboard-response","407","651829","0.0-1.0-571.0","0","0","49696","","null","","","null","63","","NaN","","","","","","","","","","","","","",""
"","response","","html-keyboard-response","408","652052","0.0-1.0-572.0-0.0","0","0","49696","","222","","","68","63","","","2","63","training","adjacent","BA","2","1","N.jpg","P.jpg","1","0","0","",""
"","feedback","","html-keyboard-response","409","653059","0.0-1.0-573.0-0.0","0","0","49696","","null","","","null","63","","","","","","","","","","","","","","","",""
"","time_out","","html-keyboard-response","410","655067","0.0-1.0-575.0-0.0","0","0","49696","","null","","","null","63","","","","","","","","","","","","","","","",""
"","ITI","","html-keyboard-response","411","656078","0.0-1.0-576.0","0","0","49696","","null","","","null","63","","","","","","","","","","","","","","","NaN",""
"","S1","","html-keyboard-response","412","656339","0.0-1.0-578.0","0","0","49696","","null","","","null","64","","","","","","","","","","","","","","","",""
"","ISI","","html-keyboard-response","413","657349","0.0-1.0-579.0","0","0","49696","","138","","","75","64","k","","","","","","","","","","","","","","",""
"","S2","","html-keyboard-response","414","657604","0.0-1.0-580.0","0","0","49696","","null","","","null","64","","NaN","","","","","","","","","","","","","",""
"","response","","html-keyboard-response","415","657671","0.0-1.0-581.0-0.0","0","0","49696","","65","","","75","64","","","2","64","training","adjacent","GF","7","6","O.jpg","Q.jpg","0","0","1","",""
"","feedback","","html-keyboard-response","416","658684","0.0-1.0-582.0-0.0","0","0","49696","","null","","","null","64","","","","","","","","","","","","","","","",""
"","ITI","","html-keyboard-response","417","659693","0.0-1.0-585.0","0","0","49696","","null","","","null","64","","","","","","","","","","","","","","","NaN",""
"","S1","","html-keyboard-response","418","659950","0.0-1.0-587.0","0","0","49696","","null","","","null","65","","","","","","","","","","","","","","","",""
"","ISI","","html-keyboard-response","419","660954","0.0-1.0-588.0","0","0","49696","","590","","","68","65","d","","","","","","","","","","","","","","",""
"","S2","","html-keyboard-response","420","661214","0.0-1.0-589.0","0","0","49696","","null","","","null","65","","NaN","","","","","","","","","","","","","",""
"","response","","html-keyboard-response","421","661313","0.0-1.0-590.0-0.0","0","0","49696","","98","","","68","65","","","2","65","training","adjacent","BC","2","3","N.jpg","M.jpg","1","1","1","",""
"","feedback","","html-keyboard-response","422","662324","0.0-1.0-591.0-0.0","0","0","49696","","null","","","null","65","","","","","","","","","","","","","","","",""
"","ITI","","html-keyboard-response","423","663333","0.0-1.0-594.0","0","0","49696","","null","","","null","65","","","","","","","","","","","","","","","NaN",""
"","S1","","html-keyboard-response","424","663589","0.0-1.0-596.0","0","0","49696","","null","","","null","66","","","","","","","","","","","","","","","",""
"","ISI","","html-keyboard-response","425","664593","0.0-1.0-597.0","0","0","49696","","null","","","null","66","NaN","","","","","","","","","","","","","","",""
"","S2","","html-keyboard-response","426","664751","0.0-1.0-598.0","0","0","49696","","156","","","68","66","","d","2","66","training","adjacent","FG","6","7","Q.jpg","O.jpg","1","1","1","",""
"","feedback","","html-keyboard-response","427","665765","0.0-1.0-600.0-0.0","0","0","49696","","null","","","null","66","","","","","","","","","","","","","","","",""
"","ITI","","html-keyboard-response","428","666770","0.0-1.0-603.0","0","0","49696","","null","","","null","66","","","","","","","","","","","","","","","NaN",""
"","S1","","html-keyboard-response","429","667026","0.0-1.0-605.0","0","0","49696","","null","","","null","67","","","","","","","","","","","","","","","",""
"","ISI","","html-keyboard-response","430","668036","0.0-1.0-606.0","0","0","49696","","null","","","null","67","NaN","","","","","","","","","","","","","","",""
"","S2","","html-keyboard-response","431","668291","0.0-1.0-607.0","0","0","49696","","null","","","null","67","","NaN","","","","","","","","","","","","","",""
"","response","","html-keyboard-response","432","668482","0.0-1.0-608.0-0.0","0","0","49696","","189","","","68","67","","","2","67","training","adjacent","CD","3","4","M.jpg","R.jpg","1","1","1","",""
"","feedback","","html-keyboard-response","433","669492","0.0-1.0-609.0-0.0","0","0","49696","","null","","","null","67","","","","","","","","","","","","","","","",""
"","ITI","","html-keyboard-response","434","670501","0.0-1.0-612.0","0","0","49696","","null","","","null","67","","","","","","","","","","","","","","","NaN",""
"","S1","","html-keyboard-response","435","670764","0.0-1.0-614.0","0","0","49696","","null","","","null","68","","","","","","","","","","","","","","","",""
"","ISI","","html-keyboard-response","436","671772","0.0-1.0-615.0","0","0","49696","","665","","","68","68","d","","","","","","","","","","","","","","",""
"","S2","","html-keyboard-response","437","671869","0.0-1.0-616.0","0","0","49696","","95","","","68","68","","d","2","68","training","adjacent","BA","2","1","N.jpg","P.jpg","1","0","0","",""
"","feedback","","html-keyboard-response","438","672877","0.0-1.0-618.0-0.0","0","0","49696","","null","","","null","68","","","","","","","","","","","","","","","",""
"","time_out","","html-keyboard-response","439","674885","0.0-1.0-620.0-0.0","0","0","49696","","null","","","null","68","","","","","","","","","","","","","","","",""
"","ITI","","html-keyboard-response","440","675890","0.0-1.0-621.0","0","0","49696","","126","","","68","68","","","","","","","","","","","","","","","d",""
"","S1","","html-keyboard-response","441","676145","0.0-1.0-623.0","0","0","49696","","null","","","null","69","","","","","","","","","","","","","","","",""
"","ISI","","html-keyboard-response","442","677155","0.0-1.0-624.0","0","0","49696","","10","","","68","69","d","","","","","","","","","","","","","","",""
"","S2","","html-keyboard-response","443","677179","0.0-1.0-625.0","0","0","49696","","22","","","68","69","","d","2","69","training","adjacent","DE","4","5","R.jpg","L.jpg","1","1","1","",""
"","feedback","","html-keyboard-response","444","678189","0.0-1.0-627.0-0.0","0","0","49696","","null","","","null","69","","","","","","","","","","","","","","","",""
"","ITI","","html-keyboard-response","445","679192","0.0-1.0-630.0","0","0","49696","","null","","","null","69","","","","","","","","","","","","","","","NaN",""
"","S1","","html-keyboard-response","446","679453","0.0-1.0-632.0","0","0","49696","","null","","","null","70","","","","","","","","","","","","","","","",""
"","ISI","","html-keyboard-response","447","680458","0.0-1.0-633.0","0","0","49696","","510","","","68","70","d","","","","","","","","","","","","","","",""
"","S2","","html-keyboard-response","448","680713","0.0-1.0-634.0","0","0","49696","","null","","","null","70","","NaN","","","","","","","","","","","","","",""
"","response","","html-keyboard-response","449","680918","0.0-1.0-635.0-0.0","0","0","49696","","203","","","68","70","","","2","70","training","adjacent","FG","6","7","Q.jpg","O.jpg","1","1","1","",""
"","feedback","","html-keyboard-response","450","681921","0.0-1.0-636.0-0.0","0","0","49696","","null","","","null","70","","","","","","","","","","","","","","","",""
"","ITI","","html-keyboard-response","451","682931","0.0-1.0-639.0","0","0","49696","","null","","","null","70","","","","","","","","","","","","","","","NaN",""
"","S1","","html-keyboard-response","452","683186","0.0-1.0-641.0","0","0","49696","","null","","","null","71","","","","","","","","","","","","","","","",""
"","ISI","","html-keyboard-response","453","684189","0.0-1.0-642.0","0","0","49696","","873","","","68","71","d","","","","","","","","","","","","","","",""
"","S2","","html-keyboard-response","454","684451","0.0-1.0-643.0","0","0","49696","","null","","","null","71","","NaN","","","","","","","","","","","","","",""
"","response","","html-keyboard-response","455","684919","0.0-1.0-644.0-0.0","0","0","49696","","466","","","68","71","","","2","71","training","adjacent","FE","6","5","Q.jpg","L.jpg","1","0","0","",""
"","feedback","","html-keyboard-response","456","685932","0.0-1.0-645.0-0.0","0","0","49696","","null","","","null","71","","","","","","","","","","","","","","","",""
"","time_out","","html-keyboard-response","457","687940","0.0-1.0-647.0-0.0","0","0","49696","","null","","","null","71","","","","","","","","","","","","","","","",""
"","ITI","","html-keyboard-response","458","688948","0.0-1.0-648.0","0","0","49696","","null","","","null","71","","","","","","","","","","","","","","","NaN",""
"","S1","","html-keyboard-response","459","689211","0.0-1.0-650.0","0","0","49696","","null","","","null","72","","","","","","","","","","","","","","","",""
"","ISI","","html-keyboard-response","460","690221","0.0-1.0-651.0","0","0","49696","","165","","","75","72","k","","","","","","","","","","","","","","",""
"","S2","","html-keyboard-response","461","690483","0.0-1.0-652.0","0","0","49696","","null","","","null","72","","NaN","","","","","","","","","","","","","",""
"","response","","html-keyboard-response","462","690691","0.0-1.0-653.0-0.0","0","0","49696","","206","","","75","72","","","2","72","training","adjacent","ED","5","4","L.jpg","R.jpg","0","0","1","",""
"","feedback","","html-keyboard-response","463","691700","0.0-1.0-654.0-0.0","0","0","49696","","null","","","null","72","","","","","","","","","","","","","","","",""
"","ITI","","html-keyboard-response","464","692704","0.0-1.0-657.0","0","0","49696","","null","","","null","72","","","","","","","","","","","","","","","NaN",""
"","S1","","html-keyboard-response","465","692961","0.0-1.0-659.0","0","0","49696","","null","","","null","73","","","","","","","","","","","","","","","",""
"","ISI","","html-keyboard-response","466","693972","0.0-1.0-660.0","0","0","49696","","2","","","68","73","d","","","","","","","","","","","","","","",""
"","S2","","html-keyboard-response","467","694233","0.0-1.0-661.0","0","0","49696","","null","","","null","73","","NaN","","","","","","","","","","","","","",""
"","response","","html-keyboard-response","468","694458","0.0-1.0-662.0-0.0","0","0","49696","","224","","","68","73","","","2","73","training","adjacent","GF","7","6","O.jpg","Q.jpg","1","0","0","",""
"","feedback","","html-keyboard-response","469","695468","0.0-1.0-663.0-0.0","0","0","49696","","null","","","null","73","","","","","","","","","","","","","","","",""
"","time_out","","html-keyboard-response","470","697476","0.0-1.0-665.0-0.0","0","0","49696","","null","","","null","73","","","","","","","","","","","","","","","",""
"","ITI","","html-keyboard-response","471","698482","0.0-1.0-666.0","0","0","49696","","561","","","68","73","","","","","","","","","","","","","","","d",""
"","S1","","html-keyboard-response","472","698737","0.0-1.0-668.0","0","0","49696","","null","","","null","74","","","","","","","","","","","","","","","",""
"","ISI","","html-keyboard-response","473","699747","0.0-1.0-669.0","0","0","49696","","null","","","null","74","NaN","","","","","","","","","","","","","","",""
"","S2","","html-keyboard-response","474","699826","0.0-1.0-670.0","0","0","49696","","76","","","68","74","","d","2","74","training","adjacent","AB","1","2","P.jpg","N.jpg","1","1","1","",""
"","feedback","","html-keyboard-response","475","700833","0.0-1.0-672.0-0.0","0","0","49696","","null","","","null","74","","","","","","","","","","","","","","","",""
"","ITI","","html-keyboard-response","476","701842","0.0-1.0-675.0","0","0","49696","","873","","","68","74","","","","","","","","","","","","","","","d",""
"","S1","","html-keyboard-response","477","702098","0.0-1.0-677.0","0","0","49696","","null","","","null","75","","","","","","","","","","","","","","","",""
"","ISI","","html-keyboard-response","478","703108","0.0-1.0-678.0","0","0","49696","","137","","","68","75","d","","","","","","","","","","","","","","",""
"","S2","","html-keyboard-response","479","703276","0.0-1.0-679.0","0","0","49696","","166","","","68","75","","d","2","75","training","adjacent","EF","5","6","L.jpg","Q.jpg","1","1","1","",""
"","feedback","","html-keyboard-response","480","704280","0.0-1.0-681.0-0.0","0","0","49696","","null","","","null","75","","","","","","","","","","","","","","","",""
"","ITI","","html-keyboard-response","481","705283","0.0-1.0-684.0","0","0","49696","","210","","","68","75","","","","","","","","","","","","","","","d",""
"","S1","","html-keyboard-response","482","705540","0.0-1.0-686.0","0","0","49696","","null","","","null","76","","","","","","","","","","","","","","","",""
"","ISI","","html-keyboard-response","483","706545","0.0-1.0-687.0","0","0","49696","","null","","","null","76","NaN","","","","","","","","","","","","","","",""
"","S2","","html-keyboard-response","484","706559","0.0-1.0-688.0","0","0","49696","","12","","","68","76","","d","2","76","training","adjacent","AB","1","2","P.jpg","N.jpg","1","1","1","",""
"","feedback","","html-keyboard-response","485","707571","0.0-1.0-690.0-0.0","0","0","49696","","null","","","null","76","","","","","","","","","","","","","","","",""
"","ITI","","html-keyboard-response","486","708576","0.0-1.0-693.0","0","0","49696","","null","","","null","76","","","","","","","","","","","","","","","NaN",""
"","S1","","html-keyboard-response","487","708836","0.0-1.0-695.0","0","0","49696","","null","","","null","77","","","","","","","","","","","","","","","",""
"","ISI","","html-keyboard-response","488","709841","0.0-1.0-696.0","0","0","49696","","152","","","75","77","k","","","","","","","","","","","","","","",""
"","S2","","html-keyboard-response","489","709871","0.0-1.0-697.0","0","0","49696","","28","","","75","77","","k","2","77","training","adjacent","DC","4","3","R.jpg","M.jpg","0","0","1","",""
"","feedback","","html-keyboard-response","490","710881","0.0-1.0-699.0-0.0","0","0","49696","","null","","","null","77","","","","","","","","","","","","","","","",""
"","ITI","","html-keyboard-response","491","711891","0.0-1.0-702.0","0","0","49696","","null","","","null","77","","","","","","","","","","","","","","","NaN",""
"","S1","","html-keyboard-response","492","712146","0.0-1.0-704.0","0","0","49696","","null","","","null","78","","","","","","","","","","","","","","","",""
"","ISI","","html-keyboard-response","493","713154","0.0-1.0-705.0","0","0","49696","","43","","","68","78","d","","","","","","","","","","","","","","",""
"","S2","","html-keyboard-response","494","713412","0.0-1.0-706.0","0","0","49696","","null","","","null","78","","NaN","","","","","","","","","","","","","",""
"","response","","html-keyboard-response","495","713510","0.0-1.0-707.0-0.0","0","0","49696","","96","","","68","78","","","2","78","training","adjacent","DE","4","5","R.jpg","L.jpg","1","1","1","",""
"","feedback","","html-keyboard-response","496","714520","0.0-1.0-708.0-0.0","0","0","49696","","null","","","null","78","","","","","","","","","","","","","","","",""
"","ITI","","html-keyboard-response","497","715530","0.0-1.0-711.0","0","0","49696","","275","","","68","78","","","","","","","","","","","","","","","d",""
"","S1","","html-keyboard-response","498","715786","0.0-1.0-713.0","0","0","49696","","null","","","null","79","","","","","","","","","","","","","","","",""
"","ISI","","html-keyboard-response","499","716796","0.0-1.0-714.0","0","0","49696","","168","","","68","79","d","","","","","","","","","","","","","","",""
"","S2","","html-keyboard-response","500","717057","0.0-1.0-715.0","0","0","49696","","null","","","null","79","","NaN","","","","","","","","","","","","","",""
"","response","","html-keyboard-response","501","717132","0.0-1.0-716.0-0.0","0","0","49696","","74","","","68","79","","","2","79","training","adjacent","CB","3","2","M.jpg","N.jpg","1","0","0","",""
"","feedback","","html-keyboard-response","502","718137","0.0-1.0-717.0-0.0","0","0","49696","","null","","","null","79","","","","","","","","","","","","","","","",""
"","time_out","","html-keyboard-response","503","720140","0.0-1.0-719.0-0.0","0","0","49696","","null","","","null","79","","","","","","","","","","","","","","","",""
"","ITI","","html-keyboard-response","504","721143","0.0-1.0-720.0","0","0","49696","","null","","","null","79","","","","","","","","","","","","","","","NaN",""
"","S1","","html-keyboard-response","505","721404","0.0-1.0-722.0","0","0","49696","","null","","","null","80","","","","","","","","","","","","","","","",""
"","ISI","","html-keyboard-response","506","722407","0.0-1.0-723.0","0","0","49696","","608","","","75","80","k","","","","","","","","","","","","","","",""
"","S2","","html-keyboard-response","507","722665","0.0-1.0-724.0","0","0","49696","","null","","","null","80","","NaN","","","","","","","","","","","","","",""
"","response","","html-keyboard-response","508","724423","0.0-1.0-725.0-0.0","0","0","49696","","null","","","null","80","","","2","80","training","adjacent","ED","5","4","L.jpg","R.jpg","NaN","0","0","",""
"","too_slow_prompt","","html-keyboard-response","509","725432","0.0-1.0-727.0-0.0","1","0","49696","","null","","","null","","","","","","","","","","","","","","","","",""
"","time_out","","html-keyboard-response","510","727441","0.0-1.0-728.0-0.0","0","0","49696","","null","","","null","80","","","","","","","","","","","","","","","",""
"","ITI","","html-keyboard-response","511","728450","0.0-1.0-729.0","0","0","49696","","null","","","null","80","","","","","","","","","","","","","","","NaN",""
"","S1","","html-keyboard-response","512","728712","0.0-1.0-731.0","0","0","49696","","null","","","null","81","","","","","","","","","","","","","","","",""
"","ISI","","html-keyboard-response","513","729722","0.0-1.0-732.0","0","0","49696","","631","","","75","81","k","","","","","","","","","","","","","","",""
"","S2","","html-keyboard-response","514","729836","0.0-1.0-733.0","0","0","49696","","113","","","75","81","","k","2","81","training","adjacent","EF","5","6","L.jpg","Q.jpg","0","1","0","",""
"","feedback","","html-keyboard-response","515","730845","0.0-1.0-735.0-0.0","0","0","49696","","null","","","null","81","","","","","","","","","","","","","","","",""
"","time_out","","html-keyboard-response","516","732856","0.0-1.0-737.0-0.0","0","0","49696","","null","","","null","81","","","","","","","","","","","","","","","",""
"","ITI","","html-keyboard-response","517","733865","0.0-1.0-738.0","0","0","49696","","927","","","68","81","","","","","","","","","","","","","","","d",""
"","S1","","html-keyboard-response","518","734121","0.0-1.0-740.0","0","0","49696","","null","","","null","82","","","","","","","","","","","","","","","",""
"","ISI","","html-keyboard-response","519","735126","0.0-1.0-741.0","0","0","49696","","842","","","68","82","d","","","","","","","","","","","","","","",""
"","S2","","html-keyboard-response","520","735309","0.0-1.0-742.0","0","0","49696","","182","","","68","82","","d","2","82","training","adjacent","EF","5","6","L.jpg","Q.jpg","1","1","1","",""
"","feedback","","html-keyboard-response","521","736318","0.0-1.0-744.0-0.0","0","0","49696","","null","","","null","82","","","","","","","","","","","","","","","",""
"","ITI","","html-keyboard-response","522","737325","0.0-1.0-747.0","0","0","49696","","222","","","68","82","","","","","","","","","","","","","","","d",""
"","S1","","html-keyboard-response","523","737581","0.0-1.0-749.0","0","0","49696","","null","","","null","83","","","","","","","","","","","","","","","",""
"","ISI","","html-keyboard-response","524","738591","0.0-1.0-750.0","0","0","49696","","null","","","null","83","NaN","","","","","","","","","","","","","","",""
"","S2","","html-keyboard-response","525","738845","0.0-1.0-751.0","0","0","49696","","null","","","null","83","","NaN","","","","","","","","","","","","","",""
"","response","","html-keyboard-response","526","738946","0.0-1.0-752.0-0.0","0","0","49696","","99","","","68","83","","","2","83","training","adjacent","CD","3","4","M.jpg","R.jpg","1","1","1","",""
"","feedback","","html-keyboard-response","527","739961","0.0-1.0-753.0-0.0","0","0","49696","","null","","","null","83","","","","","","","","","","","","","","","",""
"","ITI","","html-keyboard-response","528","740965","0.0-1.0-756.0","0","0","49696","","808","","","75","83","","","","","","","","","","","","","","","k",""
"","S1","","html-keyboard-response","529","741225","0.0-1.0-758.0","0","0","49696","","null","","","null","84","","","","","","","","","","","","","","","",""
"","ISI","","html-keyboard-response","530","742230","0.0-1.0-759.0","0","0","49696","","728","","","68","84","d","","","","","","","","","","","","","","",""
"","S2","","html-keyboard-response","531","742233","0.0-1.0-760.0","0","0","49696","","0","","","68","84","","d","2","84","training","adjacent","DE","4","5","R.jpg","L.jpg","1","1","1","",""
"","feedback","","html-keyboard-response","532","743240","0.0-1.0-762.0-0.0","0","0","49696","","null","","","null","84","","","","","","","","","","","","","","","",""
"","ITI","","html-keyboard-response","533","744244","0.0-1.0-765.0","0","0","49696","","null","","","null","84","","","","","","","","","","","","","","","NaN",""
"","S1","","html-keyboard-response","534","744504","0.0-1.0-767.0","0","0","49696","","null","","","null","85","","","","","","","","","","","","","","","",""
"","ISI","","html-keyboard-response","535","745510","0.0-1.0-768.0","0","0","49696","","949","","","68","85","d","","","","","","","","","","","","","","",""
"","S2","","html-keyboard-response","536","745765","0.0-1.0-769.0","0","0","49696","","null","","","null","85","","NaN","","","","","","","","","","","","","",""
"","response","","html-keyboard-response","537","745805","0.0-1.0-770.0-0.0","0","0","49696","","38","","","68","85","","","2","85","training","adjacent","GF","7","6","O.jpg","Q.jpg","1","0","0","",""
"","feedback","","html-keyboard-response","538","746815","0.0-1.0-771.0-0.0","0","0","49696","","null","","","null","85","","","","","","","","","","","","","","","",""
"","time_out","","html-keyboard-response","539","748824","0.0-1.0-773.0-0.0","0","0","49696","","null","","","null","85","","","","","","","","","","","","","","","",""
"","ITI","","html-keyboard-response","540","749828","0.0-1.0-774.0","0","0","49696","","791","","","75","85","","","","","","","","","","","","","","","k",""
"","S1","","html-keyboard-response","541","750084","0.0-1.0-776.0","0","0","49696","","null","","","null","86","","","","","","","","","","","","","","","",""
"","ISI","","html-keyboard-response","542","751093","0.0-1.0-777.0","0","0","49696","","2","","","75","86","k","","","","","","","","","","","","","","",""
"","S2","","html-keyboard-response","543","751204","0.0-1.0-778.0","0","0","49696","","108","","","75","86","","k","2","86","training","adjacent","FG","6","7","Q.jpg","O.jpg","0","1","0","",""
"","feedback","","html-keyboard-response","544","752214","0.0-1.0-780.0-0.0","0","0","49696","","null","","","null","86","","","","","","","","","","","","","","","",""
"","time_out","","html-keyboard-response","545","754222","0.0-1.0-782.0-0.0","0","0","49696","","null","","","null","86","","","","","","","","","","","","","","","",""
"","ITI","","html-keyboard-response","546","755232","0.0-1.0-783.0","0","0","49696","","340","","","68","86","","","","","","","","","","","","","","","d",""
"","S1","","html-keyboard-response","547","755493","0.0-1.0-785.0","0","0","49696","","null","","","null","87","","","","","","","","","","","","","","","",""
"","ISI","","html-keyboard-response","548","756504","0.0-1.0-786.0","0","0","49696","","281","","","68","87","d","","","","","","","","","","","","","","",""
"","S2","","html-keyboard-response","549","756539","0.0-1.0-787.0","0","0","49696","","34","","","68","87","","d","2","87","training","adjacent","BC","2","3","N.jpg","M.jpg","1","1","1","",""
"","feedback","","html-keyboard-response","550","757548","0.0-1.0-789.0-0.0","0","0","49696","","null","","","null","87","","","","","","","","","","","","","","","",""
"","ITI","","html-keyboard-response","551","758558","0.0-1.0-792.0","0","0","49696","","null","","","null","87","","","","","","","","","","","","","","","NaN",""
"","S1","","html-keyboard-response","552","758814","0.0-1.0-794.0","0","0","49696","","null","","","null","88","","","","","","","","","","","","","","","",""
"","ISI","","html-keyboard-response","553","759823","0.0-1.0-795.0","0","0","49696","","194","","","68","88","d","","","","","","","","","","","","","","",""
"","S2","","html-keyboard-response","554","760085","0.0-1.0-796.0","0","0","49696","","null","","","null","88","","NaN","","","","","","","","","","","","","",""
"","response","","html-keyboard-response","555","760282","0.0-1.0-797.0-0.0","0","0","49696","","195","","","68","88","","","2","88","training","adjacent","CD","3","4","M.jpg","R.jpg","1","1","1","",""
"","feedback","","html-keyboard-response","556","761287","0.0-1.0-798.0-0.0","0","0","49696","","null","","","null","88","","","","","","","","","","","","","","","",""
"","ITI","","html-keyboard-response","557","762295","0.0-1.0-801.0","0","0","49696","","593","","","75","88","","","","","","","","","","","","","","","k",""
"","S1","","html-keyboard-response","558","762558","0.0-1.0-803.0","0","0","49696","","null","","","null","89","","","","","","","","","","","","","","","",""
"","ISI","","html-keyboard-response","559","763566","0.0-1.0-804.0","0","0","49696","","555","","","75","89","k","","","","","","","","","","","","","","",""
"","S2","","html-keyboard-response","560","763719","0.0-1.0-805.0","0","0","49696","","150","","","75","89","","k","2","89","training","adjacent","FE","6","5","Q.jpg","L.jpg","0","0","1","",""
"","feedback","","html-keyboard-response","561","764723","0.0-1.0-807.0-0.0","0","0","49696","","null","","","null","89","","","","","","","","","","","","","","","",""
"","ITI","","html-keyboard-response","562","765733","0.0-1.0-810.0","0","0","49696","","403","","","75","89","","","","","","","","","","","","","","","k",""
"","S1","","html-keyboard-response","563","765989","0.0-1.0-812.0","0","0","49696","","null","","","null","90","","","","","","","","","","","","","","","",""
"","ISI","","html-keyboard-response","564","766996","0.0-1.0-813.0","0","0","49696","","null","","","null","90","NaN","","","","","","","","","","","","","","",""
"","S2","","html-keyboard-response","565","767251","0.0-1.0-814.0","0","0","49696","","null","","","null","90","","NaN","","","","","","","","","","","","","",""
"","response","","html-keyboard-response","566","767815","0.0-1.0-815.0-0.0","0","0","49696","","562","","","68","90","","","2","90","training","adjacent","CD","3","4","M.jpg","R.jpg","1","1","1","",""
"","feedback","","html-keyboard-response","567","768820","0.0-1.0-816.0-0.0","0","0","49696","","null","","","null","90","","","","","","","","","","","","","","","",""
"","ITI","","html-keyboard-response","568","769830","0.0-1.0-819.0","0","0","49696","","null","","","null","90","","","","","","","","","","","","","","","NaN",""
"","S1","","html-keyboard-response","569","770086","0.0-1.0-821.0","0","0","49696","","null","","","null","91","","","","","","","","","","","","","","","",""
"","ISI","","html-keyboard-response","570","771091","0.0-1.0-822.0","0","0","49696","","632","","","68","91","d","","","","","","","","","","","","","","",""
"","S2","","html-keyboard-response","571","771351","0.0-1.0-823.0","0","0","49696","","null","","","null","91","","NaN","","","","","","","","","","","","","",""
"","response","","html-keyboard-response","572","771398","0.0-1.0-824.0-0.0","0","0","49696","","46","","","68","91","","","2","91","training","adjacent","BC","2","3","N.jpg","M.jpg","1","1","1","",""
"","feedback","","html-keyboard-response","573","772403","0.0-1.0-825.0-0.0","0","0","49696","","null","","","null","91","","","","","","","","","","","","","","","",""
"","ITI","","html-keyboard-response","574","773413","0.0-1.0-828.0","0","0","49696","","null","","","null","91","","","","","","","","","","","","","","","NaN",""
"","S1","","html-keyboard-response","575","773668","0.0-1.0-830.0","0","0","49696","","null","","","null","92","","","","","","","","","","","","","","","",""
"","ISI","","html-keyboard-response","576","774678","0.0-1.0-831.0","0","0","49696","","30","","","75","92","k","","","","","","","","","","","","","","",""
"","S2","","html-keyboard-response","577","774933","0.0-1.0-832.0","0","0","49696","","null","","","null","92","","NaN","","","","","","","","","","","","","",""
"","response","","html-keyboard-response","578","775878","0.0-1.0-833.0-0.0","0","0","49696","","943","","","68","92","","","2","92","training","adjacent","FE","6","5","Q.jpg","L.jpg","1","0","0","",""
"","feedback","","html-keyboard-response","579","776884","0.0-1.0-834.0-0.0","0","0","49696","","null","","","null","92","","","","","","","","","","","","","","","",""
"","time_out","","html-keyboard-response","580","778892","0.0-1.0-836.0-0.0","0","0","49696","","null","","","null","92","","","","","","","","","","","","","","","",""
"","ITI","","html-keyboard-response","581","779902","0.0-1.0-837.0","0","0","49696","","75","","","75","92","","","","","","","","","","","","","","","k",""
"","S1","","html-keyboard-response","582","780163","0.0-1.0-839.0","0","0","49696","","null","","","null","93","","","","","","","","","","","","","","","",""
"","ISI","","html-keyboard-response","583","781174","0.0-1.0-840.0","0","0","49696","","82","","","75","93","k","","","","","","","","","","","","","","",""
"","S2","","html-keyboard-response","584","781289","0.0-1.0-841.0","0","0","49696","","114","","","75","93","","k","2","93","training","adjacent","ED","5","4","L.jpg","R.jpg","0","0","1","",""
