"success","ttype","start_time","trial_type","trial_index","time_elapsed","internal_node_id","warning","missed_checkup","PID","view_history","rt","responses","repeat_instructions","key_press","index","keypress_isi","keypress_S2","block","trial_num","phase","group_type","pair_type","S1_stim","S2_stim","S1_img","S2_img","S1_chosen","S1_higher","accuracy","keypress_iti","total_bonus_tally"
"true","full_screen","d04132023hr1426","fullscreen","0","35338","0.0-0.0","0","0","98271","","","","","","","","","","","","","","","","","","","","","",""
"","instructions","","instructions","1","93846","0.0-1.0-0.0-0.0","0","0","98271","[{""page_index"":0,""viewing_time"":4761},{""page_index"":1,""viewing_time"":36152},{""page_index"":2,""viewing_time"":15377},{""page_index"":3,""viewing_time"":2216}]","58506","","","","","","","","","","","","","","","","","","","",""
"","comprehension_check","","survey-multi-choice","2","128023","0.0-1.0-0.0-1.0","0","0","98271","","34172","{""Q0"":""True"",""Q1"":""K"",""Q2"":""Once the second image appears and while the screen 'MAKE A CHOICE' is shown"",""Q3"":""Green mark"",""Q4"":""either D or K""}","0","","","","","","","","","","","","","","","","","",""
"","start_exp","","html-keyboard-response","3","130672","0.0-1.0-1.0","0","0","98271","","2647","","","32","","","","","","","","","","","","","","","","",""
"","S1","","html-keyboard-response","4","130932","0.0-1.0-2.0","0","0","98271","","null","","","null","0","","","","","","","","","","","","","","","",""
"","ISI","","html-keyboard-response","5","131936","0.0-1.0-3.0","0","0","98271","","null","","","null","0","NaN","","","","","","","","","","","","","","",""
"","S2","","html-keyboard-response","6","132197","0.0-1.0-4.0","0","0","98271","","null","","","null","0","","NaN","","","","","","","","","","","","","",""
"","response","","html-keyboard-response","7","132280","0.0-1.0-5.0-0.0","0","0","98271","","82","","","75","0","","","1","0","training","adjacent","BC","2","3","R.jpg","Q.jpg","1","1","1","",""
"","feedback","","html-keyboard-response","8","133289","0.0-1.0-6.0-0.0","0","0","98271","","null","","","null","0","","","","","","","","","","","","","","","",""
"","ITI","","html-keyboard-response","9","134299","0.0-1.0-9.0","0","0","98271","","null","","","null","0","","","","","","","","","","","","","","","NaN",""
"","S1","","html-keyboard-response","10","134555","0.0-1.0-11.0","0","0","98271","","null","","","null","1","","","","","","","","","","","","","","","",""
"","ISI","","html-keyboard-response","11","135563","0.0-1.0-12.0","0","0","98271","","300","","","75","1","k","","","","","","","","","","","","","","",""
"","S2","","html-keyboard-response","12","135820","0.0-1.0-13.0","0","0","98271","","null","","","null","1","","NaN","","","","","","","","","","","","","",""
"","response","","html-keyboard-response","13","135824","0.0-1.0-14.0-0.0","0","0","98271","","3","","","75","1","","","1","1","training","adjacent","ED","5","4","M.jpg","L.jpg","1","0","0","",""
"","feedback","","html-keyboard-response","14","136830","0.0-1.0-15.0-0.0","0","0","98271","","null","","","null","1","","","","","","","","","","","","","","","",""
"","time_out","","html-keyboard-response","15","138833","0.0-1.0-17.0-0.0","0","0","98271","","null","","","null","1","","","","","","","","","","","","","","","",""
"","ITI","","html-keyboard-response","16","139843","0.0-1.0-18.0","0","0","98271","","null","","","null","1","","","","","","","","","","","","","","","NaN",""
"","S1","","html-keyboard-response","17","140098","0.0-1.0-20.0","0","0","98271","","null","","","null","2","","","","","","","","","","","","","","","",""
"","ISI","","html-keyboard-response","18","141109","0.0-1.0-21.0","0","0","98271","","293","","","68","2","d","","","","","","","","","","","","","","",""
"","S2","","html-keyboard-response","19","141216","0.0-1.0-22.0","0","0","98271","","106","","","68","2","","d","1","2","training","adjacent","CB","3","2","Q.jpg","R.jpg","0","0","1","",""
"","feedback","","html-keyboard-response","20","142227","0.0-1.0-24.0-0.0","0","0","98271","","null","","","null","2","","","","","","","","","","","","","","","",""
"","ITI","","html-keyboard-response","21","143233","0.0-1.0-27.0","0","0","98271","","null","","","null","2","","","","","","","","","","","","","","","NaN",""
"","S1","","html-keyboard-response","22","143488","0.0-1.0-29.0","0","0","98271","","null","","","null","3","","","","","","","","","","","","","","","",""
"","ISI","","html-keyboard-response","23","144499","0.0-1.0-30.0","0","0","98271","","null","","","null","3","NaN","","","","","","","","","","","","","","",""
"","S2","","html-keyboard-response","24","144696","0.0-1.0-31.0","0","0","98271","","196","","","75","3","","k","1","3","training","adjacent","CD","3","4","Q.jpg","L.jpg","1","1","1","",""
"","feedback","","html-keyboard-response","25","145707","0.0-1.0-33.0-0.0","0","0","98271","","null","","","null","3","","","","","","","","","","","","","","","",""
"","ITI","","html-keyboard-response","26","146717","0.0-1.0-36.0","0","0","98271","","null","","","null","3","","","","","","","","","","","","","","","NaN",""
"","S1","","html-keyboard-response","27","146971","0.0-1.0-38.0","0","0","98271","","null","","","null","4","","","","","","","","","","","","","","","",""
"","ISI","","html-keyboard-response","28","147980","0.0-1.0-39.0","0","0","98271","","876","","","68","4","d","","","","","","","","","","","","","","",""
"","S2","","html-keyboard-response","29","148236","0.0-1.0-40.0","0","0","98271","","null","","","null","4","","NaN","","","","","","","","","","","","","",""
"","response","","html-keyboard-response","30","148640","0.0-1.0-41.0-0.0","0","0","98271","","403","","","75","4","","","1","4","training","adjacent","BC","2","3","R.jpg","Q.jpg","1","1","1","",""
"","feedback","","html-keyboard-response","31","149652","0.0-1.0-42.0-0.0","0","0","98271","","null","","","null","4","","","","","","","","","","","","","","","",""
"","ITI","","html-keyboard-response","32","150657","0.0-1.0-45.0","0","0","98271","","null","","","null","4","","","","","","","","","","","","","","","NaN",""
"","S1","","html-keyboard-response","33","150914","0.0-1.0-47.0","0","0","98271","","null","","","null","5","","","","","","","","","","","","","","","",""
"","ISI","","html-keyboard-response","34","151923","0.0-1.0-48.0","0","0","98271","","790","","","75","5","k","","","","","","","","","","","","","","",""
"","S2","","html-keyboard-response","35","152179","0.0-1.0-49.0","0","0","98271","","null","","","null","5","","NaN","","","","","","","","","","","","","",""
"","response","","html-keyboard-response","36","152329","0.0-1.0-50.0-0.0","0","0","98271","","149","","","75","5","","","1","5","training","adjacent","DC","4","3","L.jpg","Q.jpg","1","0","0","",""
"","feedback","","html-keyboard-response","37","153339","0.0-1.0-51.0-0.0","0","0","98271","","null","","","null","5","","","","","","","","","","","","","","","",""
"","time_out","","html-keyboard-response","38","155348","0.0-1.0-53.0-0.0","0","0","98271","","null","","","null","5","","","","","","","","","","","","","","","",""
"","ITI","","html-keyboard-response","39","156353","0.0-1.0-54.0","0","0","98271","","null","","","null","5","","","","","","","","","","","","","","","NaN",""
"","S1","","html-keyboard-response","40","156612","0.0-1.0-56.0","0","0","98271","","null","","","null","6","","","","","","","","","","","","","","","",""
"","ISI","","html-keyboard-response","41","157618","0.0-1.0-57.0","0","0","98271","","null","","","null","6","NaN","","","","","","","","","","","","","","",""
"","S2","","html-keyboard-response","42","157872","0.0-1.0-58.0","0","0","98271","","254","","","75","6","","k","1","6","training","adjacent","EF","5","6","M.jpg","P.jpg","1","1","1","",""
"","feedback","","html-keyboard-response","43","158883","0.0-1.0-60.0-0.0","0","0","98271","","null","","","null","6","","","","","","","","","","","","","","","",""
"","ITI","","html-keyboard-response","44","159892","0.0-1.0-63.0","0","0","98271","","null","","","null","6","","","","","","","","","","","","","","","NaN",""
"","S1","","html-keyboard-response","45","160147","0.0-1.0-65.0","0","0","98271","","null","","","null","7","","","","","","","","","","","","","","","",""
"","ISI","","html-keyboard-response","46","161153","0.0-1.0-66.0","0","0","98271","","null","","","null","7","NaN","","","","","","","","","","","","","","",""
"","S2","","html-keyboard-response","47","161368","0.0-1.0-67.0","0","0","98271","","214","","","75","7","","k","1","7","training","adjacent","ED","5","4","M.jpg","L.jpg","1","0","0","",""
"","feedback","","html-keyboard-response","48","162378","0.0-1.0-69.0-0.0","0","0","98271","","null","","","null","7","","","","","","","","","","","","","","","",""
"","time_out","","html-keyboard-response","49","164387","0.0-1.0-71.0-0.0","0","0","98271","","null","","","null","7","","","","","","","","","","","","","","","",""
"","ITI","","html-keyboard-response","50","165397","0.0-1.0-72.0","0","0","98271","","null","","","null","7","","","","","","","","","","","","","","","NaN",""
"","S1","","html-keyboard-response","51","165658","0.0-1.0-74.0","0","0","98271","","null","","","null","8","","","","","","","","","","","","","","","",""
"","ISI","","html-keyboard-response","52","166669","0.0-1.0-75.0","0","0","98271","","558","","","68","8","d","","","","","","","","","","","","","","",""
"","S2","","html-keyboard-response","53","166873","0.0-1.0-76.0","0","0","98271","","203","","","68","8","","d","1","8","training","adjacent","DC","4","3","L.jpg","Q.jpg","0","0","1","",""
"","feedback","","html-keyboard-response","54","167881","0.0-1.0-78.0-0.0","0","0","98271","","null","","","null","8","","","","","","","","","","","","","","","",""
"","ITI","","html-keyboard-response","55","168891","0.0-1.0-81.0","0","0","98271","","null","","","null","8","","","","","","","","","","","","","","","NaN",""
"","S1","","html-keyboard-response","56","169147","0.0-1.0-83.0","0","0","98271","","null","","","null","9","","","","","","","","","","","","","","","",""
"","ISI","","html-keyboard-response","57","170156","0.0-1.0-84.0","0","0","98271","","172","","","75","9","k","","","","","","","","","","","","","","",""
"","S2","","html-keyboard-response","58","170412","0.0-1.0-85.0","0","0","98271","","null","","","null","9","","NaN","","","","","","","","","","","","","",""
"","response","","html-keyboard-response","59","170473","0.0-1.0-86.0-0.0","0","0","98271","","59","","","75","9","","","1","9","training","adjacent","CB","3","2","Q.jpg","R.jpg","1","0","0","",""
"","feedback","","html-keyboard-response","60","171481","0.0-1.0-87.0-0.0","0","0","98271","","null","","","null","9","","","","","","","","","","","","","","","",""
"","time_out","","html-keyboard-response","61","173490","0.0-1.0-89.0-0.0","0","0","98271","","null","","","null","9","","","","","","","","","","","","","","","",""
"","ITI","","html-keyboard-response","62","174499","0.0-1.0-90.0","0","0","98271","","null","","","null","9","","","","","","","","","","","","","","","NaN",""
"","S1","","html-keyboard-response","63","174755","0.0-1.0-92.0","0","0","98271","","null","","","null","10","","","","","","","","","","","","","","","",""
"","ISI","","html-keyboard-response","64","175765","0.0-1.0-93.0","0","0","98271","","null","","","null","10","NaN","","","","","","","","","","","","","","",""
"","S2","","html-keyboard-response","65","176020","0.0-1.0-94.0","0","0","98271","","null","","","null","10","","NaN","","","","","","","","","","","","","",""
"","response","","html-keyboard-response","66","176041","0.0-1.0-95.0-0.0","0","0","98271","","20","","","68","10","","","1","10","training","adjacent","DE","4","5","L.jpg","M.jpg","0","1","0","",""
"","feedback","","html-keyboard-response","67","177052","0.0-1.0-96.0-0.0","0","0","98271","","null","","","null","10","","","","","","","","","","","","","","","",""
"","time_out","","html-keyboard-response","68","179060","0.0-1.0-98.0-0.0","0","0","98271","","null","","","null","10","","","","","","","","","","","","","","","",""
"","ITI","","html-keyboard-response","69","180066","0.0-1.0-99.0","0","0","98271","","null","","","null","10","","","","","","","","","","","","","","","NaN",""
"","S1","","html-keyboard-response","70","180322","0.0-1.0-101.0","0","0","98271","","null","","","null","11","","","","","","","","","","","","","","","",""
"","ISI","","html-keyboard-response","71","181332","0.0-1.0-102.0","0","0","98271","","null","","","null","11","NaN","","","","","","","","","","","","","","",""
"","S2","","html-keyboard-response","72","181529","0.0-1.0-103.0","0","0","98271","","195","","","75","11","","k","1","11","training","adjacent","GF","7","6","N.jpg","P.jpg","1","0","0","",""
"","feedback","","html-keyboard-response","73","182540","0.0-1.0-105.0-0.0","0","0","98271","","null","","","null","11","","","","","","","","","","","","","","","",""
"","time_out","","html-keyboard-response","74","184547","0.0-1.0-107.0-0.0","0","0","98271","","null","","","null","11","","","","","","","","","","","","","","","",""
"","ITI","","html-keyboard-response","75","185557","0.0-1.0-108.0","0","0","98271","","null","","","null","11","","","","","","","","","","","","","","","NaN",""
"","S1","","html-keyboard-response","76","185813","0.0-1.0-110.0","0","0","98271","","null","","","null","12","","","","","","","","","","","","","","","",""
"","ISI","","html-keyboard-response","77","186818","0.0-1.0-111.0","0","0","98271","","235","","","75","12","k","","","","","","","","","","","","","","",""
"","S2","","html-keyboard-response","78","187017","0.0-1.0-112.0","0","0","98271","","197","","","75","12","","k","1","12","training","adjacent","AB","1","2","O.jpg","R.jpg","1","1","1","",""
"","feedback","","html-keyboard-response","79","188026","0.0-1.0-114.0-0.0","0","0","98271","","null","","","null","12","","","","","","","","","","","","","","","",""
"","ITI","","html-keyboard-response","80","189036","0.0-1.0-117.0","0","0","98271","","null","","","null","12","","","","","","","","","","","","","","","NaN",""
"","S1","","html-keyboard-response","81","189291","0.0-1.0-119.0","0","0","98271","","null","","","null","13","","","","","","","","","","","","","","","",""
"","ISI","","html-keyboard-response","82","190301","0.0-1.0-120.0","0","0","98271","","null","","","null","13","NaN","","","","","","","","","","","","","","",""
"","S2","","html-keyboard-response","83","190556","0.0-1.0-121.0","0","0","98271","","null","","","null","13","","NaN","","","","","","","","","","","","","",""
"","response","","html-keyboard-response","84","190593","0.0-1.0-122.0-0.0","0","0","98271","","36","","","75","13","","","1","13","training","adjacent","BC","2","3","R.jpg","Q.jpg","1","1","1","",""
"","feedback","","html-keyboard-response","85","191606","0.0-1.0-123.0-0.0","0","0","98271","","null","","","null","13","","","","","","","","","","","","","","","",""
"","ITI","","html-keyboard-response","86","192609","0.0-1.0-126.0","0","0","98271","","null","","","null","13","","","","","","","","","","","","","","","NaN",""
"","S1","","html-keyboard-response","87","192870","0.0-1.0-128.0","0","0","98271","","null","","","null","14","","","","","","","","","","","","","","","",""
"","ISI","","html-keyboard-response","88","193876","0.0-1.0-129.0","0","0","98271","","null","","","null","14","NaN","","","","","","","","","","","","","","",""
"","S2","","html-keyboard-response","89","194132","0.0-1.0-130.0","0","0","98271","","null","","","null","14","","NaN","","","","","","","","","","","","","",""
"","response","","html-keyboard-response","90","194137","0.0-1.0-131.0-0.0","0","0","98271","","3","","","75","14","","","1","14","training","adjacent","BA","2","1","R.jpg","O.jpg","1","0","0","",""
"","feedback","","html-keyboard-response","91","195148","0.0-1.0-132.0-0.0","0","0","98271","","null","","","null","14","","","","","","","","","","","","","","","",""
"","time_out","","html-keyboard-response","92","197156","0.0-1.0-134.0-0.0","0","0","98271","","null","","","null","14","","","","","","","","","","","","","","","",""
"","ITI","","html-keyboard-response","93","198165","0.0-1.0-135.0","0","0","98271","","null","","","null","14","","","","","","","","","","","","","","","NaN",""
"","S1","","html-keyboard-response","94","198417","0.0-1.0-137.0","0","0","98271","","null","","","null","15","","","","","","","","","","","","","","","",""
"","ISI","","html-keyboard-response","95","199426","0.0-1.0-138.0","0","0","98271","","null","","","null","15","NaN","","","","","","","","","","","","","","",""
"","S2","","html-keyboard-response","96","199441","0.0-1.0-139.0","0","0","98271","","13","","","68","15","","d","1","15","training","adjacent","CB","3","2","Q.jpg","R.jpg","0","0","1","",""
"","feedback","","html-keyboard-response","97","200453","0.0-1.0-141.0-0.0","0","0","98271","","null","","","null","15","","","","","","","","","","","","","","","",""
"","ITI","","html-keyboard-response","98","201460","0.0-1.0-144.0","0","0","98271","","null","","","null","15","","","","","","","","","","","","","","","NaN",""
"","S1","","html-keyboard-response","99","201714","0.0-1.0-146.0","0","0","98271","","null","","","null","16","","","","","","","","","","","","","","","",""
"","ISI","","html-keyboard-response","100","202723","0.0-1.0-147.0","0","0","98271","","null","","","null","16","NaN","","","","","","","","","","","","","","",""
"","S2","","html-keyboard-response","101","202969","0.0-1.0-148.0","0","0","98271","","244","","","75","16","","k","1","16","training","adjacent","CD","3","4","Q.jpg","L.jpg","1","1","1","",""
"","feedback","","html-keyboard-response","102","203978","0.0-1.0-150.0-0.0","0","0","98271","","null","","","null","16","","","","","","","","","","","","","","","",""
"","ITI","","html-keyboard-response","103","204988","0.0-1.0-153.0","0","0","98271","","null","","","null","16","","","","","","","","","","","","","","","NaN",""
"","S1","","html-keyboard-response","104","205243","0.0-1.0-155.0","0","0","98271","","null","","","null","17","","","","","","","","","","","","","","","",""
"","ISI","","html-keyboard-response","105","206254","0.0-1.0-156.0","0","0","98271","","null","","","null","17","NaN","","","","","","","","","","","","","","",""
"","S2","","html-keyboard-response","106","206508","0.0-1.0-157.0","0","0","98271","","null","","","null","17","","NaN","","","","","","","","","","","","","",""
"","response","","html-keyboard-response","107","206513","0.0-1.0-158.0-0.0","0","0","98271","","3","","","75","17","","","1","17","training","adjacent","CD","3","4","Q.jpg","L.jpg","1","1","1","",""
"","feedback","","html-keyboard-response","108","207524","0.0-1.0-159.0-0.0","0","0","98271","","null","","","null","17","","","","","","","","","","","","","","","",""
"","ITI","","html-keyboard-response","109","208533","0.0-1.0-162.0","0","0","98271","","null","","","null","17","","","","","","","","","","","","","","","NaN",""
"","S1","","html-keyboard-response","110","208788","0.0-1.0-164.0","0","0","98271","","null","","","null","18","","","","","","","","","","","","","","","",""
"","ISI","","html-keyboard-response","111","209795","0.0-1.0-165.0","0","0","98271","","null","","","null","18","NaN","","","","","","","","","","","","","","",""
"","S2","","html-keyboard-response","112","210041","0.0-1.0-166.0","0","0","98271","","246","","","75","18","","k","1","18","training","adjacent","BA","2","1","R.jpg","O.jpg","1","0","0","",""
"","feedback","","html-keyboard-response","113","211052","0.0-1.0-168.0-0.0","0","0","98271","","null","","","null","18","","","","","","","","","","","","","","","",""
"","time_out","","html-keyboard-response","114","213061","0.0-1.0-170.0-0.0","0","0","98271","","null","","","null","18","","","","","","","","","","","","","","","",""
"","ITI","","html-keyboard-response","115","214069","0.0-1.0-171.0","0","0","98271","","null","","","null","18","","","","","","","","","","","","","","","NaN",""
"","S1","","html-keyboard-response","116","214322","0.0-1.0-173.0","0","0","98271","","null","","","null","19","","","","","","","","","","","","","","","",""
"","ISI","","html-keyboard-response","117","215333","0.0-1.0-174.0","0","0","98271","","null","","","null","19","NaN","","","","","","","","","","","","","","",""
"","S2","","html-keyboard-response","118","215588","0.0-1.0-175.0","0","0","98271","","null","","","null","19","","NaN","","","","","","","","","","","","","",""
"","response","","html-keyboard-response","119","215593","0.0-1.0-176.0-0.0","0","0","98271","","5","","","68","19","","","1","19","training","adjacent","FE","6","5","P.jpg","M.jpg","0","0","1","",""
"","feedback","","html-keyboard-response","120","216604","0.0-1.0-177.0-0.0","0","0","98271","","null","","","null","19","","","","","","","","","","","","","","","",""
"","ITI","","html-keyboard-response","121","217614","0.0-1.0-180.0","0","0","98271","","null","","","null","19","","","","","","","","","","","","","","","NaN",""
"","S1","","html-keyboard-response","122","217875","0.0-1.0-182.0","0","0","98271","","null","","","null","20","","","","","","","","","","","","","","","",""
"","ISI","","html-keyboard-response","123","218885","0.0-1.0-183.0","0","0","98271","","null","","","null","20","NaN","","","","","","","","","","","","","","",""
"","S2","","html-keyboard-response","124","219140","0.0-1.0-184.0","0","0","98271","","null","","","null","20","","NaN","","","","","","","","","","","","","",""
"","response","","html-keyboard-response","125","219226","0.0-1.0-185.0-0.0","0","0","98271","","84","","","75","20","","","1","20","training","adjacent","FG","6","7","P.jpg","N.jpg","1","1","1","",""
"","feedback","","html-keyboard-response","126","220238","0.0-1.0-186.0-0.0","0","0","98271","","null","","","null","20","","","","","","","","","","","","","","","",""
"","ITI","","html-keyboard-response","127","221242","0.0-1.0-189.0","0","0","98271","","null","","","null","20","","","","","","","","","","","","","","","NaN",""
"","S1","","html-keyboard-response","128","221502","0.0-1.0-191.0","0","0","98271","","null","","","null","21","","","","","","","","","","","","","","","",""
"","ISI","","html-keyboard-response","129","222507","0.0-1.0-192.0","0","0","98271","","null","","","null","21","NaN","","","","","","","","","","","","","","",""
"","S2","","html-keyboard-response","130","222722","0.0-1.0-193.0","0","0","98271","","214","","","68","21","","d","1","21","training","adjacent","ED","5","4","M.jpg","L.jpg","0","0","1","",""
"","feedback","","html-keyboard-response","131","223733","0.0-1.0-195.0-0.0","0","0","98271","","null","","","null","21","","","","","","","","","","","","","","","",""
"","ITI","","html-keyboard-response","132","224740","0.0-1.0-198.0","0","0","98271","","null","","","null","21","","","","","","","","","","","","","","","NaN",""
"","S1","","html-keyboard-response","133","224997","0.0-1.0-200.0","0","0","98271","","null","","","null","22","","","","","","","","","","","","","","","",""
"","ISI","","html-keyboard-response","134","226003","0.0-1.0-201.0","0","0","98271","","null","","","null","22","NaN","","","","","","","","","","","","","","",""
"","S2","","html-keyboard-response","135","226218","0.0-1.0-202.0","0","0","98271","","214","","","75","22","","k","1","22","training","adjacent","DE","4","5","L.jpg","M.jpg","1","1","1","",""
"","feedback","","html-keyboard-response","136","227227","0.0-1.0-204.0-0.0","0","0","98271","","null","","","null","22","","","","","","","","","","","","","","","",""
"","ITI","","html-keyboard-response","137","228237","0.0-1.0-207.0","0","0","98271","","null","","","null","22","","","","","","","","","","","","","","","NaN",""
"","S1","","html-keyboard-response","138","228492","0.0-1.0-209.0","0","0","98271","","null","","","null","23","","","","","","","","","","","","","","","",""
"","ISI","","html-keyboard-response","139","229501","0.0-1.0-210.0","0","0","98271","","null","","","null","23","NaN","","","","","","","","","","","","","","",""
"","S2","","html-keyboard-response","140","229722","0.0-1.0-211.0","0","0","98271","","219","","","68","23","","d","1","23","training","adjacent","CD","3","4","Q.jpg","L.jpg","0","1","0","",""
"","feedback","","html-keyboard-response","141","230733","0.0-1.0-213.0-0.0","0","0","98271","","null","","","null","23","","","","","","","","","","","","","","","",""
"","time_out","","html-keyboard-response","142","232741","0.0-1.0-215.0-0.0","0","0","98271","","null","","","null","23","","","","","","","","","","","","","","","",""
"","ITI","","html-keyboard-response","143","233747","0.0-1.0-216.0","0","0","98271","","null","","","null","23","","","","","","","","","","","","","","","NaN",""
"","S1","","html-keyboard-response","144","234006","0.0-1.0-218.0","0","0","98271","","null","","","null","24","","","","","","","","","","","","","","","",""
"","ISI","","html-keyboard-response","145","235011","0.0-1.0-219.0","0","0","98271","","null","","","null","24","NaN","","","","","","","","","","","","","","",""
"","S2","","html-keyboard-response","146","235267","0.0-1.0-220.0","0","0","98271","","null","","","null","24","","NaN","","","","","","","","","","","","","",""
"","response","","html-keyboard-response","147","235306","0.0-1.0-221.0-0.0","0","0","98271","","38","","","75","24","","","1","24","training","adjacent","GF","7","6","N.jpg","P.jpg","1","0","0","",""
"","feedback","","html-keyboard-response","148","236317","0.0-1.0-222.0-0.0","0","0","98271","","null","","","null","24","","","","","","","","","","","","","","","",""
"","time_out","","html-keyboard-response","149","238325","0.0-1.0-224.0-0.0","0","0","98271","","null","","","null","24","","","","","","","","","","","","","","","",""
"","ITI","","html-keyboard-response","150","239334","0.0-1.0-225.0","0","0","98271","","null","","","null","24","","","","","","","","","","","","","","","NaN",""
"","S1","","html-keyboard-response","151","239589","0.0-1.0-227.0","0","0","98271","","null","","","null","25","","","","","","","","","","","","","","","",""
"","ISI","","html-keyboard-response","152","240596","0.0-1.0-228.0","0","0","98271","","null","","","null","25","NaN","","","","","","","","","","","","","","",""
"","S2","","html-keyboard-response","153","240834","0.0-1.0-229.0","0","0","98271","","237","","","75","25","","k","1","25","training","adjacent","FG","6","7","P.jpg","N.jpg","1","1","1","",""
"","feedback","","html-keyboard-response","154","241845","0.0-1.0-231.0-0.0","0","0","98271","","null","","","null","25","","","","","","","","","","","","","","","",""
"","ITI","","html-keyboard-response","155","242855","0.0-1.0-234.0","0","0","98271","","null","","","null","25","","","","","","","","","","","","","","","NaN",""
"","S1","","html-keyboard-response","156","243116","0.0-1.0-236.0","0","0","98271","","null","","","null","26","","","","","","","","","","","","","","","",""
"","ISI","","html-keyboard-response","157","244125","0.0-1.0-237.0","0","0","98271","","null","","","null","26","NaN","","","","","","","","","","","","","","",""
"","S2","","html-keyboard-response","158","244381","0.0-1.0-238.0","0","0","98271","","null","","","null","26","","NaN","","","","","","","","","","","","","",""
"","response","","html-keyboard-response","159","244386","0.0-1.0-239.0-0.0","0","0","98271","","4","","","68","26","","","1","26","training","adjacent","AB","1","2","O.jpg","R.jpg","0","1","0","",""
"","feedback","","html-keyboard-response","160","245396","0.0-1.0-240.0-0.0","0","0","98271","","null","","","null","26","","","","","","","","","","","","","","","",""
"","time_out","","html-keyboard-response","161","247405","0.0-1.0-242.0-0.0","0","0","98271","","null","","","null","26","","","","","","","","","","","","","","","",""
"","ITI","","html-keyboard-response","162","248414","0.0-1.0-243.0","0","0","98271","","null","","","null","26","","","","","","","","","","","","","","","NaN",""
"","S1","","html-keyboard-response","163","248669","0.0-1.0-245.0","0","0","98271","","null","","","null","27","","","","","","","","","","","","","","","",""
"","ISI","","html-keyboard-response","164","249675","0.0-1.0-246.0","0","0","98271","","null","","","null","27","NaN","","","","","","","","","","","","","","",""
"","S2","","html-keyboard-response","165","249930","0.0-1.0-247.0","0","0","98271","","null","","","null","27","","NaN","","","","","","","","","","","","","",""
"","response","","html-keyboard-response","166","250042","0.0-1.0-248.0-0.0","0","0","98271","","110","","","75","27","","","1","27","training","adjacent","FE","6","5","P.jpg","M.jpg","1","0","0","",""
"","feedback","","html-keyboard-response","167","251051","0.0-1.0-249.0-0.0","0","0","98271","","null","","","null","27","","","","","","","","","","","","","","","",""
"","time_out","","html-keyboard-response","168","253059","0.0-1.0-251.0-0.0","0","0","98271","","null","","","null","27","","","","","","","","","","","","","","","",""
"","ITI","","html-keyboard-response","169","254069","0.0-1.0-252.0","0","0","98271","","null","","","null","27","","","","","","","","","","","","","","","NaN",""
"","S1","","html-keyboard-response","170","254325","0.0-1.0-254.0","0","0","98271","","null","","","null","28","","","","","","","","","","","","","","","",""
"","ISI","","html-keyboard-response","171","255333","0.0-1.0-255.0","0","0","98271","","null","","","null","28","NaN","","","","","","","","","","","","","","",""
"","S2","","html-keyboard-response","172","255589","0.0-1.0-256.0","0","0","98271","","null","","","null","28","","NaN","","","","","","","","","","","","","",""
"","response","","html-keyboard-response","173","257050","0.0-1.0-257.0-0.0","0","0","98271","","1459","","","68","28","","","1","28","training","adjacent","ED","5","4","M.jpg","L.jpg","0","0","1","",""
"","feedback","","html-keyboard-response","174","258062","0.0-1.0-258.0-0.0","0","0","98271","","null","","","null","28","","","","","","","","","","","","","","","",""
"","ITI","","html-keyboard-response","175","259068","0.0-1.0-261.0","0","0","98271","","null","","","null","28","","","","","","","","","","","","","","","NaN",""
"","S1","","html-keyboard-response","176","259324","0.0-1.0-263.0","0","0","98271","","null","","","null","29","","","","","","","","","","","","","","","",""
"","ISI","","html-keyboard-response","177","260334","0.0-1.0-264.0","0","0","98271","","null","","","null","29","NaN","","","","","","","","","","","","","","",""
"","S2","","html-keyboard-response","178","260588","0.0-1.0-265.0","0","0","98271","","null","","","null","29","","NaN","","","","","","","","","","","","","",""
"","response","","html-keyboard-response","179","261226","0.0-1.0-266.0-0.0","0","0","98271","","636","","","68","29","","","1","29","training","adjacent","FG","6","7","P.jpg","N.jpg","0","1","0","",""
"","feedback","","html-keyboard-response","180","262238","0.0-1.0-267.0-0.0","0","0","98271","","null","","","null","29","","","","","","","","","","","","","","","",""
"","time_out","","html-keyboard-response","181","264246","0.0-1.0-269.0-0.0","0","0","98271","","null","","","null","29","","","","","","","","","","","","","","","",""
"","ITI","","html-keyboard-response","182","265251","0.0-1.0-270.0","0","0","98271","","null","","","null","29","","","","","","","","","","","","","","","NaN",""
"","S1","","html-keyboard-response","183","265509","0.0-1.0-272.0","0","0","98271","","null","","","null","30","","","","","","","","","","","","","","","",""
"","ISI","","html-keyboard-response","184","266515","0.0-1.0-273.0","0","0","98271","","null","","","null","30","NaN","","","","","","","","","","","","","","",""
"","S2","","html-keyboard-response","185","266771","0.0-1.0-274.0","0","0","98271","","null","","","null","30","","NaN","","","","","","","","","","","","","",""
"","response","","html-keyboard-response","186","267739","0.0-1.0-275.0-0.0","0","0","98271","","967","","","75","30","","","1","30","training","adjacent","BC","2","3","R.jpg","Q.jpg","1","1","1","",""
"","feedback","","html-keyboard-response","187","268749","0.0-1.0-276.0-0.0","0","0","98271","","null","","","null","30","","","","","","","","","","","","","","","",""
"","ITI","","html-keyboard-response","188","269755","0.0-1.0-279.0","0","0","98271","","null","","","null","30","","","","","","","","","","","","","","","NaN",""
"","S1","","html-keyboard-response","189","270015","0.0-1.0-281.0","0","0","98271","","null","","","null","31","","","","","","","","","","","","","","","",""
"","ISI","","html-keyboard-response","190","271021","0.0-1.0-282.0","0","0","98271","","null","","","null","31","NaN","","","","","","","","","","","","","","",""
"","S2","","html-keyboard-response","191","271277","0.0-1.0-283.0","0","0","98271","","null","","","null","31","","NaN","","","","","","","","","","","","","",""
"","response","","html-keyboard-response","192","271330","0.0-1.0-284.0-0.0","0","0","98271","","53","","","75","31","","","1","31","training","adjacent","BA","2","1","R.jpg","O.jpg","1","0","0","",""
"","feedback","","html-keyboard-response","193","272343","0.0-1.0-285.0-0.0","0","0","98271","","null","","","null","31","","","","","","","","","","","","","","","",""
"","time_out","","html-keyboard-response","194","274347","0.0-1.0-287.0-0.0","0","0","98271","","null","","","null","31","","","","","","","","","","","","","","","",""
"","ITI","","html-keyboard-response","195","275357","0.0-1.0-288.0","0","0","98271","","null","","","null","31","","","","","","","","","","","","","","","NaN",""
"","S1","","html-keyboard-response","196","275613","0.0-1.0-290.0","0","0","98271","","null","","","null","32","","","","","","","","","","","","","","","",""
"","ISI","","html-keyboard-response","197","276620","0.0-1.0-291.0","0","0","98271","","null","","","null","32","NaN","","","","","","","","","","","","","","",""
"","S2","","html-keyboard-response","198","276878","0.0-1.0-292.0","0","0","98271","","null","","","null","32","","NaN","","","","","","","","","","","","","",""
"","response","","html-keyboard-response","199","276946","0.0-1.0-293.0-0.0","0","0","98271","","67","","","68","32","","","1","32","training","adjacent","AB","1","2","O.jpg","R.jpg","0","1","0","",""
"","feedback","","html-keyboard-response","200","277957","0.0-1.0-294.0-0.0","0","0","98271","","null","","","null","32","","","","","","","","","","","","","","","",""
"","time_out","","html-keyboard-response","201","279966","0.0-1.0-296.0-0.0","0","0","98271","","null","","","null","32","","","","","","","","","","","","","","","",""
"","ITI","","html-keyboard-response","202","280975","0.0-1.0-297.0","0","0","98271","","null","","","null","32","","","","","","","","","","","","","","","NaN",""
"","S1","","html-keyboard-response","203","281230","0.0-1.0-299.0","0","0","98271","","null","","","null","33","","","","","","","","","","","","","","","",""
"","ISI","","html-keyboard-response","204","282236","0.0-1.0-300.0","0","0","98271","","null","","","null","33","NaN","","","","","","","","","","","","","","",""
"","S2","","html-keyboard-response","205","282491","0.0-1.0-301.0","0","0","98271","","null","","","null","33","","NaN","","","","","","","","","","","","","",""
"","response","","html-keyboard-response","206","282508","0.0-1.0-302.0-0.0","0","0","98271","","16","","","75","33","","","1","33","training","adjacent","CB","3","2","Q.jpg","R.jpg","1","0","0","",""
"","feedback","","html-keyboard-response","207","283519","0.0-1.0-303.0-0.0","0","0","98271","","null","","","null","33","","","","","","","","","","","","","","","",""
"","time_out","","html-keyboard-response","208","285525","0.0-1.0-305.0-0.0","0","0","98271","","null","","","null","33","","","","","","","","","","","","","","","",""
"","ITI","","html-keyboard-response","209","286529","0.0-1.0-306.0","0","0","98271","","null","","","null","33","","","","","","","","","","","","","","","NaN",""
"","S1","","html-keyboard-response","210","286791","0.0-1.0-308.0","0","0","98271","","null","","","null","34","","","","","","","","","","","","","","","",""
"","ISI","","html-keyboard-response","211","287798","0.0-1.0-309.0","0","0","98271","","null","","","null","34","NaN","","","","","","","","","","","","","","",""
"","S2","","html-keyboard-response","212","288019","0.0-1.0-310.0","0","0","98271","","220","","","68","34","","d","1","34","training","adjacent","GF","7","6","N.jpg","P.jpg","0","0","1","",""
"","feedback","","html-keyboard-response","213","289032","0.0-1.0-312.0-0.0","0","0","98271","","null","","","null","34","","","","","","","","","","","","","","","",""
"","ITI","","html-keyboard-response","214","290038","0.0-1.0-315.0","0","0","98271","","null","","","null","34","","","","","","","","","","","","","","","NaN",""
"","S1","","html-keyboard-response","215","290293","0.0-1.0-317.0","0","0","98271","","null","","","null","35","","","","","","","","","","","","","","","",""
"","ISI","","html-keyboard-response","216","291302","0.0-1.0-318.0","0","0","98271","","900","","","75","35","k","","","","","","","","","","","","","","",""
"","S2","","html-keyboard-response","217","291558","0.0-1.0-319.0","0","0","98271","","null","","","null","35","","NaN","","","","","","","","","","","","","",""
"","response","","html-keyboard-response","218","291811","0.0-1.0-320.0-0.0","0","0","98271","","251","","","75","35","","","1","35","training","adjacent","EF","5","6","M.jpg","P.jpg","1","1","1","",""
"","feedback","","html-keyboard-response","219","292819","0.0-1.0-321.0-0.0","0","0","98271","","null","","","null","35","","","","","","","","","","","","","","","",""
"","ITI","","html-keyboard-response","220","293829","0.0-1.0-324.0","0","0","98271","","null","","","null","35","","","","","","","","","","","","","","","NaN",""
"","S1","","html-keyboard-response","221","294084","0.0-1.0-326.0","0","0","98271","","null","","","null","36","","","","","","","","","","","","","","","",""
"","ISI","","html-keyboard-response","222","295094","0.0-1.0-327.0","0","0","98271","","null","","","null","36","NaN","","","","","","","","","","","","","","",""
"","S2","","html-keyboard-response","223","295349","0.0-1.0-328.0","0","0","98271","","null","","","null","36","","NaN","","","","","","","","","","","","","",""
"","response","","html-keyboard-response","224","295435","0.0-1.0-329.0-0.0","0","0","98271","","84","","","75","36","","","1","36","training","adjacent","EF","5","6","M.jpg","P.jpg","1","1","1","",""
"","feedback","","html-keyboard-response","225","296446","0.0-1.0-330.0-0.0","0","0","98271","","null","","","null","36","","","","","","","","","","","","","","","",""
"","ITI","","html-keyboard-response","226","297452","0.0-1.0-333.0","0","0","98271","","null","","","null","36","","","","","","","","","","","","","","","NaN",""
"","S1","","html-keyboard-response","227","297711","0.0-1.0-335.0","0","0","98271","","null","","","null","37","","","","","","","","","","","","","","","",""
"","ISI","","html-keyboard-response","228","298717","0.0-1.0-336.0","0","0","98271","","null","","","null","37","NaN","","","","","","","","","","","","","","",""
"","S2","","html-keyboard-response","229","298971","0.0-1.0-337.0","0","0","98271","","252","","","75","37","","k","1","37","training","adjacent","DC","4","3","L.jpg","Q.jpg","1","0","0","",""
"","feedback","","html-keyboard-response","230","299982","0.0-1.0-339.0-0.0","0","0","98271","","null","","","null","37","","","","","","","","","","","","","","","",""
"","time_out","","html-keyboard-response","231","301991","0.0-1.0-341.0-0.0","0","0","98271","","null","","","null","37","","","","","","","","","","","","","","","",""
"","ITI","","html-keyboard-response","232","302996","0.0-1.0-342.0","0","0","98271","","null","","","null","37","","","","","","","","","","","","","","","NaN",""
"","S1","","html-keyboard-response","233","303254","0.0-1.0-344.0","0","0","98271","","null","","","null","38","","","","","","","","","","","","","","","",""
"","ISI","","html-keyboard-response","234","304260","0.0-1.0-345.0","0","0","98271","","null","","","null","38","NaN","","","","","","","","","","","","","","",""
"","S2","","html-keyboard-response","235","304491","0.0-1.0-346.0","0","0","98271","","230","","","68","38","","d","1","38","training","adjacent","FG","6","7","P.jpg","N.jpg","0","1","0","",""
"","feedback","","html-keyboard-response","236","305502","0.0-1.0-348.0-0.0","0","0","98271","","null","","","null","38","","","","","","","","","","","","","","","",""
"","time_out","","html-keyboard-response","237","307511","0.0-1.0-350.0-0.0","0","0","98271","","null","","","null","38","","","","","","","","","","","","","","","",""
"","ITI","","html-keyboard-response","238","308516","0.0-1.0-351.0","0","0","98271","","null","","","null","38","","","","","","","","","","","","","","","NaN",""
"","S1","","html-keyboard-response","239","308776","0.0-1.0-353.0","0","0","98271","","null","","","null","39","","","","","","","","","","","","","","","",""
"","ISI","","html-keyboard-response","240","309782","0.0-1.0-354.0","0","0","98271","","null","","","null","39","NaN","","","","","","","","","","","","","","",""
"","S2","","html-keyboard-response","241","310011","0.0-1.0-355.0","0","0","98271","","228","","","75","39","","k","1","39","training","adjacent","DE","4","5","L.jpg","M.jpg","1","1","1","",""
"","feedback","","html-keyboard-response","242","311024","0.0-1.0-357.0-0.0","0","0","98271","","null","","","null","39","","","","","","","","","","","","","","","",""
"","ITI","","html-keyboard-response","243","312027","0.0-1.0-360.0","0","0","98271","","null","","","null","39","","","","","","","","","","","","","","","NaN",""
"","S1","","html-keyboard-response","244","312288","0.0-1.0-362.0","0","0","98271","","null","","","null","40","","","","","","","","","","","","","","","",""
"","ISI","","html-keyboard-response","245","313293","0.0-1.0-363.0","0","0","98271","","null","","","null","40","NaN","","","","","","","","","","","","","","",""
"","S2","","html-keyboard-response","246","313549","0.0-1.0-364.0","0","0","98271","","null","","","null","40","","NaN","","","","","","","","","","","","","",""
"","response","","html-keyboard-response","247","313715","0.0-1.0-365.0-0.0","0","0","98271","","164","","","68","40","","","1","40","training","adjacent","DC","4","3","L.jpg","Q.jpg","0","0","1","",""
"","feedback","","html-keyboard-response","248","314727","0.0-1.0-366.0-0.0","0","0","98271","","null","","","null","40","","","","","","","","","","","","","","","",""
"","ITI","","html-keyboard-response","249","315735","0.0-1.0-369.0","0","0","98271","","null","","","null","40","","","","","","","","","","","","","","","NaN",""
"","S1","","html-keyboard-response","250","315990","0.0-1.0-371.0","0","0","98271","","null","","","null","41","","","","","","","","","","","","","","","",""
"","ISI","","html-keyboard-response","251","316997","0.0-1.0-372.0","0","0","98271","","null","","","null","41","NaN","","","","","","","","","","","","","","",""
"","S2","","html-keyboard-response","252","317252","0.0-1.0-373.0","0","0","98271","","null","","","null","41","","NaN","","","","","","","","","","","","","",""
"","response","","html-keyboard-response","253","317411","0.0-1.0-374.0-0.0","0","0","98271","","159","","","75","41","","","1","41","training","adjacent","FE","6","5","P.jpg","M.jpg","1","0","0","",""
"","feedback","","html-keyboard-response","254","318419","0.0-1.0-375.0-0.0","0","0","98271","","null","","","null","41","","","","","","","","","","","","","","","",""
"","time_out","","html-keyboard-response","255","320428","0.0-1.0-377.0-0.0","0","0","98271","","null","","","null","41","","","","","","","","","","","","","","","",""
"","ITI","","html-keyboard-response","256","321438","0.0-1.0-378.0","0","0","98271","","823","","","68","41","","","","","","","","","","","","","","","d",""
"","S1","","html-keyboard-response","257","321694","0.0-1.0-380.0","0","0","98271","","null","","","null","42","","","","","","","","","","","","","","","",""
"","ISI","","html-keyboard-response","258","322703","0.0-1.0-381.0","0","0","98271","","null","","","null","42","NaN","","","","","","","","","","","","","","",""
"","S2","","html-keyboard-response","259","322959","0.0-1.0-382.0","0","0","98271","","null","","","null","42","","NaN","","","","","","","","","","","","","",""
"","response","","html-keyboard-response","260","323219","0.0-1.0-383.0-0.0","0","0","98271","","260","","","68","42","","","1","42","training","adjacent","EF","5","6","M.jpg","P.jpg","0","1","0","",""
"","feedback","","html-keyboard-response","261","324229","0.0-1.0-384.0-0.0","0","0","98271","","null","","","null","42","","","","","","","","","","","","","","","",""
"","time_out","","html-keyboard-response","262","326239","0.0-1.0-386.0-0.0","0","0","98271","","null","","","null","42","","","","","","","","","","","","","","","",""
"","ITI","","html-keyboard-response","263","327247","0.0-1.0-387.0","0","0","98271","","null","","","null","42","","","","","","","","","","","","","","","NaN",""
"","S1","","html-keyboard-response","264","327502","0.0-1.0-389.0","0","0","98271","","null","","","null","43","","","","","","","","","","","","","","","",""
"","ISI","","html-keyboard-response","265","328509","0.0-1.0-390.0","0","0","98271","","null","","","null","43","NaN","","","","","","","","","","","","","","",""
"","S2","","html-keyboard-response","266","328763","0.0-1.0-391.0","0","0","98271","","null","","","null","43","","NaN","","","","","","","","","","","","","",""
"","response","","html-keyboard-response","267","329172","0.0-1.0-392.0-0.0","0","0","98271","","407","","","75","43","","","1","43","training","adjacent","AB","1","2","O.jpg","R.jpg","1","1","1","",""
"","feedback","","html-keyboard-response","268","330180","0.0-1.0-393.0-0.0","0","0","98271","","null","","","null","43","","","","","","","","","","","","","","","",""
"","ITI","","html-keyboard-response","269","331190","0.0-1.0-396.0","0","0","98271","","null","","","null","43","","","","","","","","","","","","","","","NaN",""
"","S1","","html-keyboard-response","270","331446","0.0-1.0-398.0","0","0","98271","","null","","","null","44","","","","","","","","","","","","","","","",""
"","ISI","","html-keyboard-response","271","332454","0.0-1.0-399.0","0","0","98271","","null","","","null","44","NaN","","","","","","","","","","","","","","",""
"","S2","","html-keyboard-response","272","332712","0.0-1.0-400.0","0","0","98271","","null","","","null","44","","NaN","","","","","","","","","","","","","",""
"","response","","html-keyboard-response","273","332915","0.0-1.0-401.0-0.0","0","0","98271","","203","","","75","44","","","1","44","training","adjacent","DE","4","5","L.jpg","M.jpg","1","1","1","",""
"","feedback","","html-keyboard-response","274","333924","0.0-1.0-402.0-0.0","0","0","98271","","null","","","null","44","","","","","","","","","","","","","","","",""
"","ITI","","html-keyboard-response","275","334935","0.0-1.0-405.0","0","0","98271","","null","","","null","44","","","","","","","","","","","","","","","NaN",""
"","S1","","html-keyboard-response","276","335189","0.0-1.0-407.0","0","0","98271","","null","","","null","45","","","","","","","","","","","","","","","",""
"","ISI","","html-keyboard-response","277","336198","0.0-1.0-408.0","0","0","98271","","null","","","null","45","NaN","","","","","","","","","","","","","","",""
"","S2","","html-keyboard-response","278","336452","0.0-1.0-409.0","0","0","98271","","252","","","75","45","","k","1","45","training","adjacent","GF","7","6","N.jpg","P.jpg","1","0","0","",""
"","feedback","","html-keyboard-response","279","337460","0.0-1.0-411.0-0.0","0","0","98271","","null","","","null","45","","","","","","","","","","","","","","","",""
"","time_out","","html-keyboard-response","280","339469","0.0-1.0-413.0-0.0","0","0","98271","","null","","","null","45","","","","","","","","","","","","","","","",""
"","ITI","","html-keyboard-response","281","340478","0.0-1.0-414.0","0","0","98271","","null","","","null","45","","","","","","","","","","","","","","","NaN",""
"","S1","","html-keyboard-response","282","340734","0.0-1.0-416.0","0","0","98271","","null","","","null","46","","","","","","","","","","","","","","","",""
"","ISI","","html-keyboard-response","283","341744","0.0-1.0-417.0","0","0","98271","","381","","","75","46","k","","","","","","","","","","","","","","",""
"","S2","","html-keyboard-response","284","342005","0.0-1.0-418.0","0","0","98271","","null","","","null","46","","NaN","","","","","","","","","","","","","",""
"","response","","html-keyboard-response","285","343196","0.0-1.0-419.0-0.0","0","0","98271","","1189","","","68","46","","","1","46","training","adjacent","FE","6","5","P.jpg","M.jpg","0","0","1","",""
"","feedback","","html-keyboard-response","286","344205","0.0-1.0-420.0-0.0","0","0","98271","","null","","","null","46","","","","","","","","","","","","","","","",""
"","ITI","","html-keyboard-response","287","345215","0.0-1.0-423.0","0","0","98271","","null","","","null","46","","","","","","","","","","","","","","","NaN",""
"","S1","","html-keyboard-response","288","345470","0.0-1.0-425.0","0","0","98271","","null","","","null","47","","","","","","","","","","","","","","","",""
"","ISI","","html-keyboard-response","289","346479","0.0-1.0-426.0","0","0","98271","","null","","","null","47","NaN","","","","","","","","","","","","","","",""
"","S2","","html-keyboard-response","290","346734","0.0-1.0-427.0","0","0","98271","","null","","","null","47","","NaN","","","","","","","","","","","","","",""
"","response","","html-keyboard-response","291","346780","0.0-1.0-428.0-0.0","0","0","98271","","44","","","75","47","","","1","47","training","adjacent","BA","2","1","R.jpg","O.jpg","1","0","0","",""
"","feedback","","html-keyboard-response","292","347792","0.0-1.0-429.0-0.0","0","0","98271","","null","","","null","47","","","","","","","","","","","","","","","",""
"","time_out","","html-keyboard-response","293","349799","0.0-1.0-431.0-0.0","0","0","98271","","null","","","null","47","","","","","","","","","","","","","","","",""
"","ITI","","html-keyboard-response","294","350806","0.0-1.0-432.0","0","0","98271","","null","","","null","47","","","","","","","","","","","","","","","NaN",""
"","block_over","","html-keyboard-response","295","360732","0.0-1.0-433.0-0.0","0","0","98271","","9924","","","32","47","","","","","","","","","","","","","","","",""
"","S1","","html-keyboard-response","296","360991","0.0-1.0-434.0","0","0","98271","","null","","","null","48","","","","","","","","","","","","","","","",""
"","ISI","","html-keyboard-response","297","361998","0.0-1.0-435.0","0","0","98271","","null","","","null","48","NaN","","","","","","","","","","","","","","",""
"","S2","","html-keyboard-response","298","362254","0.0-1.0-436.0","0","0","98271","","null","","","null","48","","NaN","","","","","","","","","","","","","",""
"","response","","html-keyboard-response","299","363060","0.0-1.0-437.0-0.0","0","0","98271","","805","","","68","48","","","2","48","training","adjacent","FE","6","5","P.jpg","M.jpg","0","0","1","",""
"","feedback","","html-keyboard-response","300","364071","0.0-1.0-438.0-0.0","0","0","98271","","null","","","null","48","","","","","","","","","","","","","","","",""
"","ITI","","html-keyboard-response","301","365079","0.0-1.0-441.0","0","0","98271","","null","","","null","48","","","","","","","","","","","","","","","NaN",""
"","S1","","html-keyboard-response","302","365336","0.0-1.0-443.0","0","0","98271","","null","","","null","49","","","","","","","","","","","","","","","",""
"","ISI","","html-keyboard-response","303","366344","0.0-1.0-444.0","0","0","98271","","null","","","null","49","NaN","","","","","","","","","","","","","","",""
"","S2","","html-keyboard-response","304","366588","0.0-1.0-445.0","0","0","98271","","242","","","75","49","","k","2","49","training","adjacent","CD","3","4","Q.jpg","L.jpg","1","1","1","",""
"","feedback","","html-keyboard-response","305","367599","0.0-1.0-447.0-0.0","0","0","98271","","null","","","null","49","","","","","","","","","","","","","","","",""
"","ITI","","html-keyboard-response","306","368608","0.0-1.0-450.0","0","0","98271","","null","","","null","49","","","","","","","","","","","","","","","NaN",""
"","S1","","html-keyboard-response","307","368864","0.0-1.0-452.0","0","0","98271","","null","","","null","50","","","","","","","","","","","","","","","",""
"","ISI","","html-keyboard-response","308","369870","0.0-1.0-453.0","0","0","98271","","null","","","null","50","NaN","","","","","","","","","","","","","","",""
"","S2","","html-keyboard-response","309","370084","0.0-1.0-454.0","0","0","98271","","213","","","75","50","","k","2","50","training","adjacent","DE","4","5","L.jpg","M.jpg","1","1","1","",""
"","feedback","","html-keyboard-response","310","371094","0.0-1.0-456.0-0.0","0","0","98271","","null","","","null","50","","","","","","","","","","","","","","","",""
"","ITI","","html-keyboard-response","311","372104","0.0-1.0-459.0","0","0","98271","","null","","","null","50","","","","","","","","","","","","","","","NaN",""
"","S1","","html-keyboard-response","312","372360","0.0-1.0-461.0","0","0","98271","","null","","","null","51","","","","","","","","","","","","","","","",""
"","ISI","","html-keyboard-response","313","373368","0.0-1.0-462.0","0","0","98271","","null","","","null","51","NaN","","","","","","","","","","","","","","",""
"","S2","","html-keyboard-response","314","373623","0.0-1.0-463.0","0","0","98271","","null","","","null","51","","NaN","","","","","","","","","","","","","",""
"","response","","html-keyboard-response","315","373636","0.0-1.0-464.0-0.0","0","0","98271","","11","","","68","51","","","2","51","training","adjacent","GF","7","6","N.jpg","P.jpg","0","0","1","",""
"","feedback","","html-keyboard-response","316","374648","0.0-1.0-465.0-0.0","0","0","98271","","null","","","null","51","","","","","","","","","","","","","","","",""
"","ITI","","html-keyboard-response","317","375656","0.0-1.0-468.0","0","0","98271","","null","","","null","51","","","","","","","","","","","","","","","NaN",""
"","S1","","html-keyboard-response","318","375911","0.0-1.0-470.0","0","0","98271","","null","","","null","52","","","","","","","","","","","","","","","",""
"","ISI","","html-keyboard-response","319","376917","0.0-1.0-471.0","0","0","98271","","null","","","null","52","NaN","","","","","","","","","","","","","","",""
"","S2","","html-keyboard-response","320","377164","0.0-1.0-472.0","0","0","98271","","245","","","75","52","","k","2","52","training","adjacent","BC","2","3","R.jpg","Q.jpg","1","1","1","",""
"","feedback","","html-keyboard-response","321","378175","0.0-1.0-474.0-0.0","0","0","98271","","null","","","null","52","","","","","","","","","","","","","","","",""
"","ITI","","html-keyboard-response","322","379181","0.0-1.0-477.0","0","0","98271","","null","","","null","52","","","","","","","","","","","","","","","NaN",""
"","S1","","html-keyboard-response","323","379436","0.0-1.0-479.0","0","0","98271","","null","","","null","53","","","","","","","","","","","","","","","",""
"","ISI","","html-keyboard-response","324","380446","0.0-1.0-480.0","0","0","98271","","null","","","null","53","NaN","","","","","","","","","","","","","","",""
"","S2","","html-keyboard-response","325","380692","0.0-1.0-481.0","0","0","98271","","244","","","75","53","","k","2","53","training","adjacent","BC","2","3","R.jpg","Q.jpg","1","1","1","",""
"","feedback","","html-keyboard-response","326","381701","0.0-1.0-483.0-0.0","0","0","98271","","null","","","null","53","","","","","","","","","","","","","","","",""
"","ITI","","html-keyboard-response","327","382710","0.0-1.0-486.0","0","0","98271","","null","","","null","53","","","","","","","","","","","","","","","NaN",""
"","S1","","html-keyboard-response","328","382966","0.0-1.0-488.0","0","0","98271","","null","","","null","54","","","","","","","","","","","","","","","",""
"","ISI","","html-keyboard-response","329","383976","0.0-1.0-489.0","0","0","98271","","null","","","null","54","NaN","","","","","","","","","","","","","","",""
"","S2","","html-keyboard-response","330","384231","0.0-1.0-490.0","0","0","98271","","null","","","null","54","","NaN","","","","","","","","","","","","","",""
"","response","","html-keyboard-response","331","384277","0.0-1.0-491.0-0.0","0","0","98271","","45","","","68","54","","","2","54","training","adjacent","FE","6","5","P.jpg","M.jpg","0","0","1","",""
"","feedback","","html-keyboard-response","332","385288","0.0-1.0-492.0-0.0","0","0","98271","","null","","","null","54","","","","","","","","","","","","","","","",""
"","ITI","","html-keyboard-response","333","386296","0.0-1.0-495.0","0","0","98271","","null","","","null","54","","","","","","","","","","","","","","","NaN",""
"","S1","","html-keyboard-response","334","386552","0.0-1.0-497.0","0","0","98271","","null","","","null","55","","","","","","","","","","","","","","","",""
"","ISI","","html-keyboard-response","335","387558","0.0-1.0-498.0","0","0","98271","","null","","","null","55","NaN","","","","","","","","","","","","","","",""
"","S2","","html-keyboard-response","336","387813","0.0-1.0-499.0","0","0","98271","","null","","","null","55","","NaN","","","","","","","","","","","","","",""
"","response","","html-keyboard-response","337","388245","0.0-1.0-500.0-0.0","0","0","98271","","430","","","75","55","","","2","55","training","adjacent","AB","1","2","O.jpg","R.jpg","1","1","1","",""
"","feedback","","html-keyboard-response","338","389253","0.0-1.0-501.0-0.0","0","0","98271","","null","","","null","55","","","","","","","","","","","","","","","",""
"","ITI","","html-keyboard-response","339","390263","0.0-1.0-504.0","0","0","98271","","null","","","null","55","","","","","","","","","","","","","","","NaN",""
"","S1","","html-keyboard-response","340","390519","0.0-1.0-506.0","0","0","98271","","null","","","null","56","","","","","","","","","","","","","","","",""
"","ISI","","html-keyboard-response","341","391527","0.0-1.0-507.0","0","0","98271","","null","","","null","56","NaN","","","","","","","","","","","","","","",""
"","S2","","html-keyboard-response","342","391757","0.0-1.0-508.0","0","0","98271","","229","","","75","56","","k","2","56","training","adjacent","BC","2","3","R.jpg","Q.jpg","1","1","1","",""
"","feedback","","html-keyboard-response","343","392765","0.0-1.0-510.0-0.0","0","0","98271","","null","","","null","56","","","","","","","","","","","","","","","",""
"","ITI","","html-keyboard-response","344","393775","0.0-1.0-513.0","0","0","98271","","null","","","null","56","","","","","","","","","","","","","","","NaN",""
"","S1","","html-keyboard-response","345","394030","0.0-1.0-515.0","0","0","98271","","null","","","null","57","","","","","","","","","","","","","","","",""
"","ISI","","html-keyboard-response","346","395040","0.0-1.0-516.0","0","0","98271","","null","","","null","57","NaN","","","","","","","","","","","","","","",""
"","S2","","html-keyboard-response","347","395295","0.0-1.0-517.0","0","0","98271","","null","","","null","57","","NaN","","","","","","","","","","","","","",""
"","response","","html-keyboard-response","348","395309","0.0-1.0-518.0-0.0","0","0","98271","","12","","","68","57","","","2","57","training","adjacent","DC","4","3","L.jpg","Q.jpg","0","0","1","",""
"","feedback","","html-keyboard-response","349","396318","0.0-1.0-519.0-0.0","0","0","98271","","null","","","null","57","","","","","","","","","","","","","","","",""
"","ITI","","html-keyboard-response","350","397328","0.0-1.0-522.0","0","0","98271","","null","","","null","57","","","","","","","","","","","","","","","NaN",""
"","S1","","html-keyboard-response","351","397583","0.0-1.0-524.0","0","0","98271","","null","","","null","58","","","","","","","","","","","","","","","",""
"","ISI","","html-keyboard-response","352","398592","0.0-1.0-525.0","0","0","98271","","null","","","null","58","NaN","","","","","","","","","","","","","","",""
"","S2","","html-keyboard-response","353","398757","0.0-1.0-526.0","0","0","98271","","163","","","75","58","","k","2","58","training","adjacent","EF","5","6","M.jpg","P.jpg","1","1","1","",""
"","feedback","","html-keyboard-response","354","399766","0.0-1.0-528.0-0.0","0","0","98271","","null","","","null","58","","","","","","","","","","","","","","","",""
"","ITI","","html-keyboard-response","355","400776","0.0-1.0-531.0","0","0","98271","","null","","","null","58","","","","","","","","","","","","","","","NaN",""
"","S1","","html-keyboard-response","356","401032","0.0-1.0-533.0","0","0","98271","","null","","","null","59","","","","","","","","","","","","","","","",""
"","ISI","","html-keyboard-response","357","402040","0.0-1.0-534.0","0","0","98271","","null","","","null","59","NaN","","","","","","","","","","","","","","",""
"","S2","","html-keyboard-response","358","402297","0.0-1.0-535.0","0","0","98271","","null","","","null","59","","NaN","","","","","","","","","","","","","",""
"","response","","html-keyboard-response","359","402317","0.0-1.0-536.0-0.0","0","0","98271","","19","","","68","59","","","2","59","training","adjacent","BA","2","1","R.jpg","O.jpg","0","0","1","",""
"","feedback","","html-keyboard-response","360","403328","0.0-1.0-537.0-0.0","0","0","98271","","null","","","null","59","","","","","","","","","","","","","","","",""
"","ITI","","html-keyboard-response","361","404336","0.0-1.0-540.0","0","0","98271","","null","","","null","59","","","","","","","","","","","","","","","NaN",""
"","S1","","html-keyboard-response","362","404590","0.0-1.0-542.0","0","0","98271","","null","","","null","60","","","","","","","","","","","","","","","",""
"","ISI","","html-keyboard-response","363","405600","0.0-1.0-543.0","0","0","98271","","null","","","null","60","NaN","","","","","","","","","","","","","","",""
"","S2","","html-keyboard-response","364","405805","0.0-1.0-544.0","0","0","98271","","203","","","75","60","","k","2","60","training","adjacent","BA","2","1","R.jpg","O.jpg","1","0","0","",""
"","feedback","","html-keyboard-response","365","406813","0.0-1.0-546.0-0.0","0","0","98271","","null","","","null","60","","","","","","","","","","","","","","","",""
"","time_out","","html-keyboard-response","366","408822","0.0-1.0-548.0-0.0","0","0","98271","","null","","","null","60","","","","","","","","","","","","","","","",""
"","ITI","","html-keyboard-response","367","409831","0.0-1.0-549.0","0","0","98271","","685","","","75","60","","","","","","","","","","","","","","","k",""
"","S1","","html-keyboard-response","368","410087","0.0-1.0-551.0","0","0","98271","","null","","","null","61","","","","","","","","","","","","","","","",""
"","ISI","","html-keyboard-response","369","411096","0.0-1.0-552.0","0","0","98271","","141","","","75","61","k","","","","","","","","","","","","","","",""
"","S2","","html-keyboard-response","370","411353","0.0-1.0-553.0","0","0","98271","","null","","","null","61","","NaN","","","","","","","","","","","","","",""
"","response","","html-keyboard-response","371","411421","0.0-1.0-554.0-0.0","0","0","98271","","67","","","75","61","","","2","61","training","adjacent","GF","7","6","N.jpg","P.jpg","1","0","0","",""
"","feedback","","html-keyboard-response","372","412432","0.0-1.0-555.0-0.0","0","0","98271","","null","","","null","61","","","","","","","","","","","","","","","",""
"","time_out","","html-keyboard-response","373","414441","0.0-1.0-557.0-0.0","0","0","98271","","null","","","null","61","","","","","","","","","","","","","","","",""
"","ITI","","html-keyboard-response","374","415445","0.0-1.0-558.0","0","0","98271","","null","","","null","61","","","","","","","","","","","","","","","NaN",""
"","S1","","html-keyboard-response","375","415705","0.0-1.0-560.0","0","0","98271","","null","","","null","62","","","","","","","","","","","","","","","",""
"","ISI","","html-keyboard-response","376","416711","0.0-1.0-561.0","0","0","98271","","null","","","null","62","NaN","","","","","","","","","","","","","","",""
"","S2","","html-keyboard-response","377","416966","0.0-1.0-562.0","0","0","98271","","null","","","null","62","","NaN","","","","","","","","","","","","","",""
"","response","","html-keyboard-response","378","417285","0.0-1.0-563.0-0.0","0","0","98271","","318","","","75","62","","","2","62","training","adjacent","DE","4","5","L.jpg","M.jpg","1","1","1","",""
"","feedback","","html-keyboard-response","379","418295","0.0-1.0-564.0-0.0","0","0","98271","","null","","","null","62","","","","","","","","","","","","","","","",""
"","ITI","","html-keyboard-response","380","419305","0.0-1.0-567.0","0","0","98271","","null","","","null","62","","","","","","","","","","","","","","","NaN",""
"","S1","","html-keyboard-response","381","419561","0.0-1.0-569.0","0","0","98271","","null","","","null","63","","","","","","","","","","","","","","","",""
"","ISI","","html-keyboard-response","382","420566","0.0-1.0-570.0","0","0","98271","","null","","","null","63","NaN","","","","","","","","","","","","","","",""
"","S2","","html-keyboard-response","383","420825","0.0-1.0-571.0","0","0","98271","","null","","","null","63","","NaN","","","","","","","","","","","","","",""
"","response","","html-keyboard-response","384","421669","0.0-1.0-572.0-0.0","0","0","98271","","842","","","75","63","","","2","63","training","adjacent","CD","3","4","Q.jpg","L.jpg","1","1","1","",""
"","feedback","","html-keyboard-response","385","422678","0.0-1.0-573.0-0.0","0","0","98271","","null","","","null","63","","","","","","","","","","","","","","","",""
"","ITI","","html-keyboard-response","386","423688","0.0-1.0-576.0","0","0","98271","","null","","","null","63","","","","","","","","","","","","","","","NaN",""
"","S1","","html-keyboard-response","387","423944","0.0-1.0-578.0","0","0","98271","","null","","","null","64","","","","","","","","","","","","","","","",""
"","ISI","","html-keyboard-response","388","424953","0.0-1.0-579.0","0","0","98271","","null","","","null","64","NaN","","","","","","","","","","","","","","",""
"","S2","","html-keyboard-response","389","425210","0.0-1.0-580.0","0","0","98271","","null","","","null","64","","NaN","","","","","","","","","","","","","",""
"","response","","html-keyboard-response","390","425885","0.0-1.0-581.0-0.0","0","0","98271","","674","","","68","64","","","2","64","training","adjacent","DE","4","5","L.jpg","M.jpg","0","1","0","",""
"","feedback","","html-keyboard-response","391","426898","0.0-1.0-582.0-0.0","0","0","98271","","null","","","null","64","","","","","","","","","","","","","","","",""
"","time_out","","html-keyboard-response","392","428902","0.0-1.0-584.0-0.0","0","0","98271","","null","","","null","64","","","","","","","","","","","","","","","",""
"","ITI","","html-keyboard-response","393","429912","0.0-1.0-585.0","0","0","98271","","null","","","null","64","","","","","","","","","","","","","","","NaN",""
"","S1","","html-keyboard-response","394","430167","0.0-1.0-587.0","0","0","98271","","null","","","null","65","","","","","","","","","","","","","","","",""
"","ISI","","html-keyboard-response","395","431177","0.0-1.0-588.0","0","0","98271","","null","","","null","65","NaN","","","","","","","","","","","","","","",""
"","S2","","html-keyboard-response","396","431433","0.0-1.0-589.0","0","0","98271","","null","","","null","65","","NaN","","","","","","","","","","","","","",""
"","response","","html-keyboard-response","397","431677","0.0-1.0-590.0-0.0","0","0","98271","","244","","","68","65","","","2","65","training","adjacent","GF","7","6","N.jpg","P.jpg","0","0","1","",""
"","feedback","","html-keyboard-response","398","432686","0.0-1.0-591.0-0.0","0","0","98271","","null","","","null","65","","","","","","","","","","","","","","","",""
"","ITI","","html-keyboard-response","399","433697","0.0-1.0-594.0","0","0","98271","","null","","","null","65","","","","","","","","","","","","","","","NaN",""
"","S1","","html-keyboard-response","400","433952","0.0-1.0-596.0","0","0","98271","","null","","","null","66","","","","","","","","","","","","","","","",""
"","ISI","","html-keyboard-response","401","434961","0.0-1.0-597.0","0","0","98271","","null","","","null","66","NaN","","","","","","","","","","","","","","",""
"","S2","","html-keyboard-response","402","435218","0.0-1.0-598.0","0","0","98271","","null","","","null","66","","NaN","","","","","","","","","","","","","",""
"","response","","html-keyboard-response","403","435405","0.0-1.0-599.0-0.0","0","0","98271","","186","","","75","66","","","2","66","training","adjacent","BA","2","1","R.jpg","O.jpg","1","0","0","",""
"","feedback","","html-keyboard-response","404","436414","0.0-1.0-600.0-0.0","0","0","98271","","null","","","null","66","","","","","","","","","","","","","","","",""
"","time_out","","html-keyboard-response","405","438422","0.0-1.0-602.0-0.0","0","0","98271","","null","","","null","66","","","","","","","","","","","","","","","",""
"","ITI","","html-keyboard-response","406","439432","0.0-1.0-603.0","0","0","98271","","null","","","null","66","","","","","","","","","","","","","","","NaN",""
"","S1","","html-keyboard-response","407","439687","0.0-1.0-605.0","0","0","98271","","null","","","null","67","","","","","","","","","","","","","","","",""
"","ISI","","html-keyboard-response","408","440697","0.0-1.0-606.0","0","0","98271","","null","","","null","67","NaN","","","","","","","","","","","","","","",""
"","S2","","html-keyboard-response","409","440953","0.0-1.0-607.0","0","0","98271","","null","","","null","67","","NaN","","","","","","","","","","","","","",""
"","response","","html-keyboard-response","410","440973","0.0-1.0-608.0-0.0","0","0","98271","","20","","","68","67","","","2","67","training","adjacent","ED","5","4","M.jpg","L.jpg","0","0","1","",""
"","feedback","","html-keyboard-response","411","441985","0.0-1.0-609.0-0.0","0","0","98271","","null","","","null","67","","","","","","","","","","","","","","","",""
"","ITI","","html-keyboard-response","412","442991","0.0-1.0-612.0","0","0","98271","","null","","","null","67","","","","","","","","","","","","","","","NaN",""
"","S1","","html-keyboard-response","413","443250","0.0-1.0-614.0","0","0","98271","","null","","","null","68","","","","","","","","","","","","","","","",""
"","ISI","","html-keyboard-response","414","444256","0.0-1.0-615.0","0","0","98271","","null","","","null","68","NaN","","","","","","","","","","","","","","",""
"","S2","","html-keyboard-response","415","444511","0.0-1.0-616.0","0","0","98271","","null","","","null","68","","NaN","","","","","","","","","","","","","",""
"","response","","html-keyboard-response","416","445830","0.0-1.0-617.0-0.0","0","0","98271","","1317","","","68","68","","","2","68","training","adjacent","DC","4","3","L.jpg","Q.jpg","0","0","1","",""
"","feedback","","html-keyboard-response","417","446840","0.0-1.0-618.0-0.0","0","0","98271","","null","","","null","68","","","","","","","","","","","","","","","",""
"","ITI","","html-keyboard-response","418","447850","0.0-1.0-621.0","0","0","98271","","null","","","null","68","","","","","","","","","","","","","","","NaN",""
"","S1","","html-keyboard-response","419","448105","0.0-1.0-623.0","0","0","98271","","null","","","null","69","","","","","","","","","","","","","","","",""
"","ISI","","html-keyboard-response","420","449113","0.0-1.0-624.0","0","0","98271","","null","","","null","69","NaN","","","","","","","","","","","","","","",""
"","S2","","html-keyboard-response","421","449369","0.0-1.0-625.0","0","0","98271","","null","","","null","69","","NaN","","","","","","","","","","","","","",""
"","response","","html-keyboard-response","422","450150","0.0-1.0-626.0-0.0","0","0","98271","","779","","","68","69","","","2","69","training","adjacent","ED","5","4","M.jpg","L.jpg","0","0","1","",""
"","feedback","","html-keyboard-response","423","451158","0.0-1.0-627.0-0.0","0","0","98271","","null","","","null","69","","","","","","","","","","","","","","","",""
"","ITI","","html-keyboard-response","424","452169","0.0-1.0-630.0","0","0","98271","","null","","","null","69","","","","","","","","","","","","","","","NaN",""
"","S1","","html-keyboard-response","425","452424","0.0-1.0-632.0","0","0","98271","","null","","","null","70","","","","","","","","","","","","","","","",""
"","ISI","","html-keyboard-response","426","453432","0.0-1.0-633.0","0","0","98271","","null","","","null","70","NaN","","","","","","","","","","","","","","",""
"","S2","","html-keyboard-response","427","453689","0.0-1.0-634.0","0","0","98271","","null","","","null","70","","NaN","","","","","","","","","","","","","",""
"","response","","html-keyboard-response","428","455174","0.0-1.0-635.0-0.0","0","0","98271","","1484","","","68","70","","","2","70","training","adjacent","CB","3","2","Q.jpg","R.jpg","0","0","1","",""
"","feedback","","html-keyboard-response","429","456186","0.0-1.0-636.0-0.0","0","0","98271","","null","","","null","70","","","","","","","","","","","","","","","",""
"","ITI","","html-keyboard-response","430","457194","0.0-1.0-639.0","0","0","98271","","null","","","null","70","","","","","","","","","","","","","","","NaN",""
"","S1","","html-keyboard-response","431","457450","0.0-1.0-641.0","0","0","98271","","null","","","null","71","","","","","","","","","","","","","","","",""
"","ISI","","html-keyboard-response","432","458455","0.0-1.0-642.0","0","0","98271","","null","","","null","71","NaN","","","","","","","","","","","","","","",""
"","S2","","html-keyboard-response","433","458710","0.0-1.0-643.0","0","0","98271","","null","","","null","71","","NaN","","","","","","","","","","","","","",""
"","response","","html-keyboard-response","434","459102","0.0-1.0-644.0-0.0","0","0","98271","","390","","","68","71","","","2","71","training","adjacent","AB","1","2","O.jpg","R.jpg","0","1","0","",""
"","feedback","","html-keyboard-response","435","460114","0.0-1.0-645.0-0.0","0","0","98271","","null","","","null","71","","","","","","","","","","","","","","","",""
"","time_out","","html-keyboard-response","436","462118","0.0-1.0-647.0-0.0","0","0","98271","","null","","","null","71","","","","","","","","","","","","","","","",""
"","ITI","","html-keyboard-response","437","463121","0.0-1.0-648.0","0","0","98271","","null","","","null","71","","","","","","","","","","","","","","","NaN",""
"","S1","","html-keyboard-response","438","463378","0.0-1.0-650.0","0","0","98271","","null","","","null","72","","","","","","","","","","","","","","","",""
"","ISI","","html-keyboard-response","439","464382","0.0-1.0-651.0","0","0","98271","","null","","","null","72","NaN","","","","","","","","","","","","","","",""
"","S2","","html-keyboard-response","440","464642","0.0-1.0-652.0","0","0","98271","","null","","","null","72","","NaN","","","","","","","","","","","","","",""
"","response","","html-keyboard-response","441","466401","0.0-1.0-653.0-0.0","0","0","98271","","null","","","null","72","","","2","72","training","adjacent","ED","5","4","M.jpg","L.jpg","NaN","0","0","",""
"","too_slow_prompt","","html-keyboard-response","442","467406","0.0-1.0-655.0-0.0","1","0","98271","","null","","","null","","","","","","","","","","","","","","","","",""
"","time_out","","html-keyboard-response","443","469416","0.0-1.0-656.0-0.0","0","0","98271","","null","","","null","72","","","","","","","","","","","","","","","",""
"","ITI","","html-keyboard-response","444","470425","0.0-1.0-657.0","0","0","98271","","805","","","68","72","","","","","","","","","","","","","","","d",""
"","S1","","html-keyboard-response","445","470681","0.0-1.0-659.0","0","0","98271","","null","","","null","73","","","","","","","","","","","","","","","",""
"","ISI","","html-keyboard-response","446","471689","0.0-1.0-660.0","0","0","98271","","null","","","null","73","NaN","","","","","","","","","","","","","","",""
"","S2","","html-keyboard-response","447","471945","0.0-1.0-661.0","0","0","98271","","null","","","null","73","","NaN","","","","","","","","","","","","","",""
"","response","","html-keyboard-response","448","472494","0.0-1.0-662.0-0.0","0","0","98271","","547","","","75","73","","","2","73","training","adjacent","FG","6","7","P.jpg","N.jpg","1","1","1","",""
"","feedback","","html-keyboard-response","449","473502","0.0-1.0-663.0-0.0","0","0","98271","","null","","","null","73","","","","","","","","","","","","","","","",""
"","ITI","","html-keyboard-response","450","474512","0.0-1.0-666.0","0","0","98271","","null","","","null","73","","","","","","","","","","","","","","","NaN",""
"","S1","","html-keyboard-response","451","474768","0.0-1.0-668.0","0","0","98271","","null","","","null","74","","","","","","","","","","","","","","","",""
"","ISI","","html-keyboard-response","452","475777","0.0-1.0-669.0","0","0","98271","","null","","","null","74","NaN","","","","","","","","","","","","","","",""
"","S2","","html-keyboard-response","453","476033","0.0-1.0-670.0","0","0","98271","","null","","","null","74","","NaN","","","","","","","","","","","","","",""
"","response","","html-keyboard-response","454","476342","0.0-1.0-671.0-0.0","0","0","98271","","307","","","75","74","","","2","74","training","adjacent","AB","1","2","O.jpg","R.jpg","1","1","1","",""
"","feedback","","html-keyboard-response","455","477350","0.0-1.0-672.0-0.0","0","0","98271","","null","","","null","74","","","","","","","","","","","","","","","",""
"","ITI","","html-keyboard-response","456","478360","0.0-1.0-675.0","0","0","98271","","null","","","null","74","","","","","","","","","","","","","","","NaN",""
"","S1","","html-keyboard-response","457","478616","0.0-1.0-677.0","0","0","98271","","null","","","null","75","","","","","","","","","","","","","","","",""
"","ISI","","html-keyboard-response","458","479625","0.0-1.0-678.0","0","0","98271","","null","","","null","75","NaN","","","","","","","","","","","","","","",""
"","S2","","html-keyboard-response","459","479882","0.0-1.0-679.0","0","0","98271","","null","","","null","75","","NaN","","","","","","","","","","","","","",""
"","response","","html-keyboard-response","460","479902","0.0-1.0-680.0-0.0","0","0","98271","","19","","","75","75","","","2","75","training","adjacent","FE","6","5","P.jpg","M.jpg","1","0","0","",""
"","feedback","","html-keyboard-response","461","480914","0.0-1.0-681.0-0.0","0","0","98271","","null","","","null","75","","","","","","","","","","","","","","","",""
"","time_out","","html-keyboard-response","462","482922","0.0-1.0-683.0-0.0","0","0","98271","","null","","","null","75","","","","","","","","","","","","","","","",""
"","ITI","","html-keyboard-response","463","483928","0.0-1.0-684.0","0","0","98271","","null","","","null","75","","","","","","","","","","","","","","","NaN",""
"","S1","","html-keyboard-response","464","484184","0.0-1.0-686.0","0","0","98271","","null","","","null","76","","","","","","","","","","","","","","","",""
"","ISI","","html-keyboard-response","465","485193","0.0-1.0-687.0","0","0","98271","","null","","","null","76","NaN","","","","","","","","","","","","","","",""
"","S2","","html-keyboard-response","466","485422","0.0-1.0-688.0","0","0","98271","","228","","","75","76","","k","2","76","training","adjacent","EF","5","6","M.jpg","P.jpg","1","1","1","",""
"","feedback","","html-keyboard-response","467","486434","0.0-1.0-690.0-0.0","0","0","98271","","null","","","null","76","","","","","","","","","","","","","","","",""
"","ITI","","html-keyboard-response","468","487440","0.0-1.0-693.0","0","0","98271","","null","","","null","76","","","","","","","","","","","","","","","NaN",""
"","S1","","html-keyboard-response","469","487696","0.0-1.0-695.0","0","0","98271","","null","","","null","77","","","","","","","","","","","","","","","",""
"","ISI","","html-keyboard-response","470","488706","0.0-1.0-696.0","0","0","98271","","null","","","null","77","NaN","","","","","","","","","","","","","","",""
"","S2","","html-keyboard-response","471","488790","0.0-1.0-697.0","0","0","98271","","83","","","75","77","","k","2","77","training","adjacent","DC","4","3","L.jpg","Q.jpg","1","0","0","",""
"","feedback","","html-keyboard-response","472","489801","0.0-1.0-699.0-0.0","0","0","98271","","null","","","null","77","","","","","","","","","","","","","","","",""
"","time_out","","html-keyboard-response","473","491810","0.0-1.0-701.0-0.0","0","0","98271","","null","","","null","77","","","","","","","","","","","","","","","",""
"","ITI","","html-keyboard-response","474","492815","0.0-1.0-702.0","0","0","98271","","null","","","null","77","","","","","","","","","","","","","","","NaN",""
"","S1","","html-keyboard-response","475","493071","0.0-1.0-704.0","0","0","98271","","null","","","null","78","","","","","","","","","","","","","","","",""
"","ISI","","html-keyboard-response","476","494081","0.0-1.0-705.0","0","0","98271","","158","","","68","78","d","","","","","","","","","","","","","","",""
"","S2","","html-keyboard-response","477","494338","0.0-1.0-706.0","0","0","98271","","null","","","null","78","","NaN","","","","","","","","","","","","","",""
"","response","","html-keyboard-response","478","494446","0.0-1.0-707.0-0.0","0","0","98271","","106","","","68","78","","","2","78","training","adjacent","BA","2","1","R.jpg","O.jpg","0","0","1","",""
"","feedback","","html-keyboard-response","479","495456","0.0-1.0-708.0-0.0","0","0","98271","","null","","","null","78","","","","","","","","","","","","","","","",""
"","ITI","","html-keyboard-response","480","496465","0.0-1.0-711.0","0","0","98271","","null","","","null","78","","","","","","","","","","","","","","","NaN",""
"","S1","","html-keyboard-response","481","496722","0.0-1.0-713.0","0","0","98271","","null","","","null","79","","","","","","","","","","","","","","","",""
"","ISI","","html-keyboard-response","482","497727","0.0-1.0-714.0","0","0","98271","","null","","","null","79","NaN","","","","","","","","","","","","","","",""
"","S2","","html-keyboard-response","483","497987","0.0-1.0-715.0","0","0","98271","","null","","","null","79","","NaN","","","","","","","","","","","","","",""
"","response","","html-keyboard-response","484","497990","0.0-1.0-716.0-0.0","0","0","98271","","2","","","75","79","","","2","79","training","adjacent","FG","6","7","P.jpg","N.jpg","1","1","1","",""
"","feedback","","html-keyboard-response","485","499002","0.0-1.0-717.0-0.0","0","0","98271","","null","","","null","79","","","","","","","","","","","","","","","",""
"","ITI","","html-keyboard-response","486","500009","0.0-1.0-720.0","0","0","98271","","null","","","null","79","","","","","","","","","","","","","","","NaN",""
"","S1","","html-keyboard-response","487","500263","0.0-1.0-722.0","0","0","98271","","null","","","null","80","","","","","","","","","","","","","","","",""
"","ISI","","html-keyboard-response","488","501274","0.0-1.0-723.0","0","0","98271","","null","","","null","80","NaN","","","","","","","","","","","","","","",""
"","S2","","html-keyboard-response","489","501529","0.0-1.0-724.0","0","0","98271","","null","","","null","80","","NaN","","","","","","","","","","","","","",""
"","response","","html-keyboard-response","490","501702","0.0-1.0-725.0-0.0","0","0","98271","","172","","","75","80","","","2","80","training","adjacent","EF","5","6","M.jpg","P.jpg","1","1","1","",""
"","feedback","","html-keyboard-response","491","502713","0.0-1.0-726.0-0.0","0","0","98271","","null","","","null","80","","","","","","","","","","","","","","","",""
"","ITI","","html-keyboard-response","492","503721","0.0-1.0-729.0","0","0","98271","","null","","","null","80","","","","","","","","","","","","","","","NaN",""
"","S1","","html-keyboard-response","493","503979","0.0-1.0-731.0","0","0","98271","","null","","","null","81","","","","","","","","","","","","","","","",""
"","ISI","","html-keyboard-response","494","504983","0.0-1.0-732.0","0","0","98271","","null","","","null","81","NaN","","","","","","","","","","","","","","",""
"","S2","","html-keyboard-response","495","505239","0.0-1.0-733.0","0","0","98271","","null","","","null","81","","NaN","","","","","","","","","","","","","",""
"","response","","html-keyboard-response","496","505959","0.0-1.0-734.0-0.0","0","0","98271","","719","","","75","81","","","2","81","training","adjacent","AB","1","2","O.jpg","R.jpg","1","1","1","",""
"","feedback","","html-keyboard-response","497","506968","0.0-1.0-735.0-0.0","0","0","98271","","null","","","null","81","","","","","","","","","","","","","","","",""
"","ITI","","html-keyboard-response","498","507979","0.0-1.0-738.0","0","0","98271","","null","","","null","81","","","","","","","","","","","","","","","NaN",""
"","S1","","html-keyboard-response","499","508234","0.0-1.0-740.0","0","0","98271","","null","","","null","82","","","","","","","","","","","","","","","",""
"","ISI","","html-keyboard-response","500","509243","0.0-1.0-741.0","0","0","98271","","700","","","75","82","k","","","","","","","","","","","","","","",""
"","S2","","html-keyboard-response","501","509303","0.0-1.0-742.0","0","0","98271","","59","","","68","82","","d","2","82","training","adjacent","ED","5","4","M.jpg","L.jpg","0","0","1","",""
"","feedback","","html-keyboard-response","502","510312","0.0-1.0-744.0-0.0","0","0","98271","","null","","","null","82","","","","","","","","","","","","","","","",""
"","ITI","","html-keyboard-response","503","511320","0.0-1.0-747.0","0","0","98271","","null","","","null","82","","","","","","","","","","","","","","","NaN",""
"","S1","","html-keyboard-response","504","511577","0.0-1.0-749.0","0","0","98271","","null","","","null","83","","","","","","","","","","","","","","","",""
"","ISI","","html-keyboard-response","505","512586","0.0-1.0-750.0","0","0","98271","","null","","","null","83","NaN","","","","","","","","","","","","","","",""
"","S2","","html-keyboard-response","506","512839","0.0-1.0-751.0","0","0","98271","","252","","","75","83","","k","2","83","training","adjacent","GF","7","6","N.jpg","P.jpg","1","0","0","",""
"","feedback","","html-keyboard-response","507","513847","0.0-1.0-753.0-0.0","0","0","98271","","null","","","null","83","","","","","","","","","","","","","","","",""
"","time_out","","html-keyboard-response","508","515855","0.0-1.0-755.0-0.0","0","0","98271","","null","","","null","83","","","","","","","","","","","","","","","",""
"","ITI","","html-keyboard-response","509","516866","0.0-1.0-756.0","0","0","98271","","974","","","68","83","","","","","","","","","","","","","","","d",""
"","S1","","html-keyboard-response","510","517119","0.0-1.0-758.0","0","0","98271","","null","","","null","84","","","","","","","","","","","","","","","",""
"","ISI","","html-keyboard-response","511","518130","0.0-1.0-759.0","0","0","98271","","431","","","68","84","d","","","","","","","","","","","","","","",""
"","S2","","html-keyboard-response","512","518387","0.0-1.0-760.0","0","0","98271","","null","","","null","84","","NaN","","","","","","","","","","","","","",""
"","response","","html-keyboard-response","513","518647","0.0-1.0-761.0-0.0","0","0","98271","","259","","","75","84","","","2","84","training","adjacent","CB","3","2","Q.jpg","R.jpg","1","0","0","",""
"","feedback","","html-keyboard-response","514","519658","0.0-1.0-762.0-0.0","0","0","98271","","null","","","null","84","","","","","","","","","","","","","","","",""
"","time_out","","html-keyboard-response","515","521667","0.0-1.0-764.0-0.0","0","0","98271","","null","","","null","84","","","","","","","","","","","","","","","",""
"","ITI","","html-keyboard-response","516","522671","0.0-1.0-765.0","0","0","98271","","null","","","null","84","","","","","","","","","","","","","","","NaN",""
"","S1","","html-keyboard-response","517","522930","0.0-1.0-767.0","0","0","98271","","null","","","null","85","","","","","","","","","","","","","","","",""
"","ISI","","html-keyboard-response","518","523936","0.0-1.0-768.0","0","0","98271","","null","","","null","85","NaN","","","","","","","","","","","","","","",""
"","S2","","html-keyboard-response","519","524191","0.0-1.0-769.0","0","0","98271","","null","","","null","85","","NaN","","","","","","","","","","","","","",""
"","response","","html-keyboard-response","520","524359","0.0-1.0-770.0-0.0","0","0","98271","","166","","","68","85","","","2","85","training","adjacent","CB","3","2","Q.jpg","R.jpg","0","0","1","",""
"","feedback","","html-keyboard-response","521","525371","0.0-1.0-771.0-0.0","0","0","98271","","null","","","null","85","","","","","","","","","","","","","","","",""
"","ITI","","html-keyboard-response","522","526379","0.0-1.0-774.0","0","0","98271","","null","","","null","85","","","","","","","","","","","","","","","NaN",""
"","S1","","html-keyboard-response","523","526635","0.0-1.0-776.0","0","0","98271","","null","","","null","86","","","","","","","","","","","","","","","",""
"","ISI","","html-keyboard-response","524","527640","0.0-1.0-777.0","0","0","98271","","null","","","null","86","NaN","","","","","","","","","","","","","","",""
"","S2","","html-keyboard-response","525","527895","0.0-1.0-778.0","0","0","98271","","null","","","null","86","","NaN","","","","","","","","","","","","","",""
"","response","","html-keyboard-response","526","528711","0.0-1.0-779.0-0.0","0","0","98271","","814","","","75","86","","","2","86","training","adjacent","EF","5","6","M.jpg","P.jpg","1","1","1","",""
"","feedback","","html-keyboard-response","527","529722","0.0-1.0-780.0-0.0","0","0","98271","","null","","","null","86","","","","","","","","","","","","","","","",""
"","ITI","","html-keyboard-response","528","530728","0.0-1.0-783.0","0","0","98271","","null","","","null","86","","","","","","","","","","","","","","","NaN",""
"","S1","","html-keyboard-response","529","530983","0.0-1.0-785.0","0","0","98271","","null","","","null","87","","","","","","","","","","","","","","","",""
"","ISI","","html-keyboard-response","530","531994","0.0-1.0-786.0","0","0","98271","","null","","","null","87","NaN","","","","","","","","","","","","","","",""
"","S2","","html-keyboard-response","531","532249","0.0-1.0-787.0","0","0","98271","","null","","","null","87","","NaN","","","","","","","","","","","","","",""
"","response","","html-keyboard-response","532","533023","0.0-1.0-788.0-0.0","0","0","98271","","772","","","68","87","","","2","87","training","adjacent","DC","4","3","L.jpg","Q.jpg","0","0","1","",""
"","feedback","","html-keyboard-response","533","534032","0.0-1.0-789.0-0.0","0","0","98271","","null","","","null","87","","","","","","","","","","","","","","","",""
"","ITI","","html-keyboard-response","534","535041","0.0-1.0-792.0","0","0","98271","","null","","","null","87","","","","","","","","","","","","","","","NaN",""
"","S1","","html-keyboard-response","535","535297","0.0-1.0-794.0","0","0","98271","","null","","","null","88","","","","","","","","","","","","","","","",""
"","ISI","","html-keyboard-response","536","536308","0.0-1.0-795.0","0","0","98271","","null","","","null","88","NaN","","","","","","","","","","","","","","",""
"","S2","","html-keyboard-response","537","536569","0.0-1.0-796.0","0","0","98271","","null","","","null","88","","NaN","","","","","","","","","","","","","",""
"","response","","html-keyboard-response","538","536999","0.0-1.0-797.0-0.0","0","0","98271","","429","","","75","88","","","2","88","training","adjacent","FG","6","7","P.jpg","N.jpg","1","1","1","",""
"","feedback","","html-keyboard-response","539","538008","0.0-1.0-798.0-0.0","0","0","98271","","null","","","null","88","","","","","","","","","","","","","","","",""
"","ITI","","html-keyboard-response","540","539018","0.0-1.0-801.0","0","0","98271","","null","","","null","88","","","","","","","","","","","","","","","NaN",""
"","S1","","html-keyboard-response","541","539274","0.0-1.0-803.0","0","0","98271","","null","","","null","89","","","","","","","","","","","","","","","",""
"","ISI","","html-keyboard-response","542","540280","0.0-1.0-804.0","0","0","98271","","883","","","68","89","d","","","","","","","","","","","","","","",""
"","S2","","html-keyboard-response","543","540539","0.0-1.0-805.0","0","0","98271","","null","","","null","89","","NaN","","","","","","","","","","","","","",""
"","response","","html-keyboard-response","544","540679","0.0-1.0-806.0-0.0","0","0","98271","","138","","","68","89","","","2","89","training","adjacent","CB","3","2","Q.jpg","R.jpg","0","0","1","",""
"","feedback","","html-keyboard-response","545","541689","0.0-1.0-807.0-0.0","0","0","98271","","null","","","null","89","","","","","","","","","","","","","","","",""
"","ITI","","html-keyboard-response","546","542698","0.0-1.0-810.0","0","0","98271","","null","","","null","89","","","","","","","","","","","","","","","NaN",""
"","S1","","html-keyboard-response","547","542955","0.0-1.0-812.0","0","0","98271","","null","","","null","90","","","","","","","","","","","","","","","",""
"","ISI","","html-keyboard-response","548","543962","0.0-1.0-813.0","0","0","98271","","435","","","68","90","d","","","","","","","","","","","","","","",""
"","S2","","html-keyboard-response","549","544095","0.0-1.0-814.0","0","0","98271","","131","","","68","90","","d","2","90","training","adjacent","CD","3","4","Q.jpg","L.jpg","0","1","0","",""
"","feedback","","html-keyboard-response","550","545106","0.0-1.0-816.0-0.0","0","0","98271","","null","","","null","90","","","","","","","","","","","","","","","",""
"","time_out","","html-keyboard-response","551","547115","0.0-1.0-818.0-0.0","0","0","98271","","null","","","null","90","","","","","","","","","","","","","","","",""
"","ITI","","html-keyboard-response","552","548121","0.0-1.0-819.0","0","0","98271","","259","","","68","90","","","","","","","","","","","","","","","d",""
"","S1","","html-keyboard-response","553","548375","0.0-1.0-821.0","0","0","98271","","null","","","null","91","","","","","","","","","","","","","","","",""
"","ISI","","html-keyboard-response","554","549386","0.0-1.0-822.0","0","0","98271","","14","","","68","91","d","","","","","","","","","","","","","","",""
"","S2","","html-keyboard-response","555","549575","0.0-1.0-823.0","0","0","98271","","188","","","68","91","","d","2","91","training","adjacent","DE","4","5","L.jpg","M.jpg","0","1","0","",""
"","feedback","","html-keyboard-response","556","550586","0.0-1.0-825.0-0.0","0","0","98271","","null","","","null","91","","","","","","","","","","","","","","","",""
"","time_out","","html-keyboard-response","557","552595","0.0-1.0-827.0-0.0","0","0","98271","","null","","","null","91","","","","","","","","","","","","","","","",""
"","ITI","","html-keyboard-response","558","553601","0.0-1.0-828.0","0","0","98271","","139","","","75","91","","","","","","","","","","","","","","","k",""
"","S1","","html-keyboard-response","559","553857","0.0-1.0-830.0","0","0","98271","","null","","","null","92","","","","","","","","","","","","","","","",""
"","ISI","","html-keyboard-response","560","554866","0.0-1.0-831.0","0","0","98271","","null","","","null","92","NaN","","","","","","","","","","","","","","",""
"","S2","","html-keyboard-response","561","555087","0.0-1.0-832.0","0","0","98271","","220","","","68","92","","d","2","92","training","adjacent","CD","3","4","Q.jpg","L.jpg","0","1","0","",""
"","feedback","","html-keyboard-response","562","556096","0.0-1.0-834.0-0.0","0","0","98271","","null","","","null","92","","","","","","","","","","","","","","","",""
"","time_out","","html-keyboard-response","563","558105","0.0-1.0-836.0-0.0","0","0","98271","","null","","","null","92","","","","","","","","","","","","","","","",""
"","ITI","","html-keyboard-response","564","559115","0.0-1.0-837.0","0","0","98271","","646","","","68","92","","","","","","","","","","","","","","","d",""
"","S1","","html-keyboard-response","565","559371","0.0-1.0-839.0","0","0","98271","","null","","","null","93","","","","","","","","","","","","","","","",""
"","ISI","","html-keyboard-response","566","560380","0.0-1.0-840.0","0","0","98271","","null","","","null","93","NaN","","","","","","","","","","","","","","",""
"","S2","","html-keyboard-response","567","560600","0.0-1.0-841.0","0","0","98271","","219","","","68","93","","d","2","93","training","adjacent","FG","6","7","P.jpg","N.jpg","0","1","0","",""
"","feedback","","html-keyboard-response","568","561611","0.0-1.0-843.0-0.0","0","0","98271","","null","","","null","93","","","","","","","","","","","","","","","",""
"","time_out","","html-keyboard-response","569","563619","0.0-1.0-845.0-0.0","0","0","98271","","null","","","null","93","","","","","","","","","","","","","","","",""
"","ITI","","html-keyboard-response","570","564624","0.0-1.0-846.0","0","0","98271","","123","","","68","93","","","","","","","","","","","","","","","d",""
"","S1","","html-keyboard-response","571","564880","0.0-1.0-848.0","0","0","98271","","null","","","null","94","","","","","","","","","","","","","","","",""
"","ISI","","html-keyboard-response","572","565882","0.0-1.0-849.0","0","0","98271","","493","","","75","94","k","","","","","","","","","","","","","","",""
"","S2","","html-keyboard-response","573","566040","0.0-1.0-850.0","0","0","98271","","156","","","75","94","","k","2","94","training","adjacent","BC","2","3","R.jpg","Q.jpg","1","1","1","",""
"","feedback","","html-keyboard-response","574","567051","0.0-1.0-852.0-0.0","0","0","98271","","null","","","null","94","","","","","","","","","","","","","","","",""
"","ITI","","html-keyboard-response","575","568059","0.0-1.0-855.0","0","0","98271","","null","","","null","94","","","","","","","","","","","","","","","NaN",""
"","S1","","html-keyboard-response","576","568315","0.0-1.0-857.0","0","0","98271","","null","","","null","95","","","","","","","","","","","","","","","",""
"","ISI","","html-keyboard-response","577","569320","0.0-1.0-858.0","0","0","98271","","null","","","null","95","NaN","","","","","","","","","","","","","","",""
"","S2","","html-keyboard-response","578","569464","0.0-1.0-859.0","0","0","98271","","142","","","75","95","","k","2","95","training","adjacent","FE","6","5","P.jpg","M.jpg","1","0","0","",""
"","feedback","","html-keyboard-response","579","570474","0.0-1.0-861.0-0.0","0","0","98271","","null","","","null","95","","","","","","","","","","","","","","","",""
"","time_out","","html-keyboard-response","580","572482","0.0-1.0-863.0-0.0","0","0","98271","","null","","","null","95","","","","","","","","","","","","","","","",""
"","ITI","","html-keyboard-response","581","573489","0.0-1.0-864.0","0","0","98271","","null","","","null","95","","","","","","","","","","","","","","","NaN",""
"","block_over","","html-keyboard-response","582","587720","0.0-1.0-865.0-0.0","0","0","98271","","14230","","","32","95","","","","","","","","","","","","","","","",""
"","S1","","html-keyboard-response","583","587978","0.0-1.0-866.0","0","0","98271","","null","","","null","96","","","","","","","","","","","","","","","",""
