"success","ttype","start_time","trial_type","trial_index","time_elapsed","internal_node_id","warning","missed_checkup","PID","view_history","rt","responses","repeat_instructions","key_press","index","keypress_isi","keypress_S2","block","trial_num","phase","group_type","pair_type","S1_stim","S2_stim","S1_img","S2_img","S1_chosen","S1_higher","accuracy","keypress_iti","total_bonus_tally"
"true","full_screen","d03032023hr2244","fullscreen","0","13439","0.0-0.0","0","0","87296","","","","","","","","","","","","","","","","","","","","","",""
"","instructions","","instructions","1","34691","0.0-1.0-0.0-0.0","0","0","87296","[{""page_index"":0,""viewing_time"":3455},{""page_index"":1,""viewing_time"":13495},{""page_index"":2,""viewing_time"":3020},{""page_index"":3,""viewing_time"":1277}]","21249","","","","","","","","","","","","","","","","","","","",""
"","comprehension_check","","survey-multi-choice","2","52255","0.0-1.0-0.0-1.0","0","0","87296","","17556","{""Q0"":""True"",""Q1"":""D"",""Q2"":""Only when the screen 'MAKE A CHOICE' is shown"",""Q3"":""Green mark"",""Q4"":""either D or K""}","1","","","","","","","","","","","","","","","","","",""
"","missed_instruction_checkup","","html-keyboard-response","3","53943","0.0-1.0-0.0-2.0-0.0","0","1","87296","","1663","","","32","","","","","","","","","","","","","","","","",""
"","instructions","","instructions","4","61591","0.0-1.0-0.1-0.1","0","0","87296","[{""page_index"":0,""viewing_time"":2247},{""page_index"":1,""viewing_time"":3084},{""page_index"":2,""viewing_time"":1507},{""page_index"":3,""viewing_time"":809}]","7647","","","","","","","","","","","","","","","","","","","",""
"","comprehension_check","","survey-multi-choice","5","72817","0.0-1.0-0.1-1.1","0","0","87296","","11220","{""Q0"":""True"",""Q1"":""D"",""Q2"":""Once the second image appears and while the screen 'MAKE A CHOICE' is shown"",""Q3"":""Green mark"",""Q4"":""either D or K""}","0","","","","","","","","","","","","","","","","","",""
"","start_exp","","html-keyboard-response","6","73966","0.0-1.0-1.0","0","0","87296","","1147","","","32","","","","","","","","","","","","","","","","",""
"","S1","","html-keyboard-response","7","74226","0.0-1.0-2.0","0","0","87296","","null","","","null","0","","","","","","","","","","","","","","","",""
"","ISI","","html-keyboard-response","8","74729","0.0-1.0-3.0","0","0","87296","","null","","","null","0","NaN","","","","","","","","","","","","","","",""
"","S2","","html-keyboard-response","9","74984","0.0-1.0-4.0","0","0","87296","","null","","","null","0","","NaN","","","","","","","","","","","","","",""
"","response","","html-keyboard-response","10","75886","0.0-1.0-5.0-0.0","0","0","87296","","899","","","75","0","","","1","0","training","adjacent","DE","4","5","Q.jpg","R.jpg","0","1","0","",""
"","feedback","","html-keyboard-response","11","76890","0.0-1.0-6.0-0.0","0","0","87296","","null","","","null","0","","","","","","","","","","","","","","","",""
"","time_out","","html-keyboard-response","12","78894","0.0-1.0-8.0-0.0","0","0","87296","","null","","","null","0","","","","","","","","","","","","","","","",""
"","ITI","","html-keyboard-response","13","79898","0.0-1.0-9.0","0","0","87296","","null","","","null","0","","","","","","","","","","","","","","","NaN",""
"","S1","","html-keyboard-response","14","80152","0.0-1.0-11.0","0","0","87296","","null","","","null","1","","","","","","","","","","","","","","","",""
"","ISI","","html-keyboard-response","15","80655","0.0-1.0-12.0","0","0","87296","","null","","","null","1","NaN","","","","","","","","","","","","","","",""
"","S2","","html-keyboard-response","16","80908","0.0-1.0-13.0","0","0","87296","","null","","","null","1","","NaN","","","","","","","","","","","","","",""
"","response","","html-keyboard-response","17","81327","0.0-1.0-14.0-0.0","0","0","87296","","416","","","75","1","","","1","1","training","adjacent","EF","5","6","R.jpg","N.jpg","0","1","0","",""
"","feedback","","html-keyboard-response","18","82339","0.0-1.0-15.0-0.0","0","0","87296","","null","","","null","1","","","","","","","","","","","","","","","",""
"","time_out","","html-keyboard-response","19","84341","0.0-1.0-17.0-0.0","0","0","87296","","null","","","null","1","","","","","","","","","","","","","","","",""
"","ITI","","html-keyboard-response","20","85344","0.0-1.0-18.0","0","0","87296","","null","","","null","1","","","","","","","","","","","","","","","NaN",""
"","S1","","html-keyboard-response","21","85598","0.0-1.0-20.0","0","0","87296","","null","","","null","2","","","","","","","","","","","","","","","",""
"","ISI","","html-keyboard-response","22","86101","0.0-1.0-21.0","0","0","87296","","null","","","null","2","NaN","","","","","","","","","","","","","","",""
"","S2","","html-keyboard-response","23","86356","0.0-1.0-22.0","0","0","87296","","null","","","null","2","","NaN","","","","","","","","","","","","","",""
"","response","","html-keyboard-response","24","86409","0.0-1.0-23.0-0.0","0","0","87296","","51","","","75","2","","","1","2","training","adjacent","AB","1","2","L.jpg","M.jpg","0","1","0","",""
"","feedback","","html-keyboard-response","25","87416","0.0-1.0-24.0-0.0","0","0","87296","","null","","","null","2","","","","","","","","","","","","","","","",""
"","time_out","","html-keyboard-response","26","89428","0.0-1.0-26.0-0.0","0","0","87296","","null","","","null","2","","","","","","","","","","","","","","","",""
"","ITI","","html-keyboard-response","27","90432","0.0-1.0-27.0","0","0","87296","","null","","","null","2","","","","","","","","","","","","","","","NaN",""
"","S1","","html-keyboard-response","28","90685","0.0-1.0-29.0","0","0","87296","","null","","","null","3","","","","","","","","","","","","","","","",""
"","ISI","","html-keyboard-response","29","91194","0.0-1.0-30.0","0","0","87296","","null","","","null","3","NaN","","","","","","","","","","","","","","",""
"","S2","","html-keyboard-response","30","91447","0.0-1.0-31.0","0","0","87296","","null","","","null","3","","NaN","","","","","","","","","","","","","",""
"","response","","html-keyboard-response","31","91608","0.0-1.0-32.0-0.0","0","0","87296","","158","","","68","3","","","1","3","training","adjacent","DC","4","3","Q.jpg","P.jpg","1","0","0","",""
"","feedback","","html-keyboard-response","32","92611","0.0-1.0-33.0-0.0","0","0","87296","","null","","","null","3","","","","","","","","","","","","","","","",""
"","time_out","","html-keyboard-response","33","94620","0.0-1.0-35.0-0.0","0","0","87296","","null","","","null","3","","","","","","","","","","","","","","","",""
"","ITI","","html-keyboard-response","34","95624","0.0-1.0-36.0","0","0","87296","","null","","","null","3","","","","","","","","","","","","","","","NaN",""
"","S1","","html-keyboard-response","35","95877","0.0-1.0-38.0","0","0","87296","","null","","","null","4","","","","","","","","","","","","","","","",""
"","ISI","","html-keyboard-response","36","96382","0.0-1.0-39.0","0","0","87296","","null","","","null","4","NaN","","","","","","","","","","","","","","",""
"","S2","","html-keyboard-response","37","96636","0.0-1.0-40.0","0","0","87296","","null","","","null","4","","NaN","","","","","","","","","","","","","",""
"","response","","html-keyboard-response","38","96902","0.0-1.0-41.0-0.0","0","0","87296","","263","","","75","4","","","1","4","training","adjacent","DE","4","5","Q.jpg","R.jpg","0","1","0","",""
"","feedback","","html-keyboard-response","39","97906","0.0-1.0-42.0-0.0","0","0","87296","","null","","","null","4","","","","","","","","","","","","","","","",""
"","time_out","","html-keyboard-response","40","99916","0.0-1.0-44.0-0.0","0","0","87296","","null","","","null","4","","","","","","","","","","","","","","","",""
"","ITI","","html-keyboard-response","41","100931","0.0-1.0-45.0","0","0","87296","","null","","","null","4","","","","","","","","","","","","","","","NaN",""
"","S1","","html-keyboard-response","42","101184","0.0-1.0-47.0","0","0","87296","","null","","","null","5","","","","","","","","","","","","","","","",""
"","ISI","","html-keyboard-response","43","101693","0.0-1.0-48.0","0","0","87296","","null","","","null","5","NaN","","","","","","","","","","","","","","",""
"","S2","","html-keyboard-response","44","101948","0.0-1.0-49.0","0","0","87296","","null","","","null","5","","NaN","","","","","","","","","","","","","",""
"","response","","html-keyboard-response","45","102253","0.0-1.0-50.0-0.0","0","0","87296","","303","","","75","5","","","1","5","training","adjacent","FG","6","7","N.jpg","O.jpg","0","1","0","",""
"","feedback","","html-keyboard-response","46","103257","0.0-1.0-51.0-0.0","0","0","87296","","null","","","null","5","","","","","","","","","","","","","","","",""
"","time_out","","html-keyboard-response","47","105259","0.0-1.0-53.0-0.0","0","0","87296","","null","","","null","5","","","","","","","","","","","","","","","",""
"","ITI","","html-keyboard-response","48","106263","0.0-1.0-54.0","0","0","87296","","null","","","null","5","","","","","","","","","","","","","","","NaN",""
"","S1","","html-keyboard-response","49","106516","0.0-1.0-56.0","0","0","87296","","null","","","null","6","","","","","","","","","","","","","","","",""
"","ISI","","html-keyboard-response","50","107020","0.0-1.0-57.0","0","0","87296","","null","","","null","6","NaN","","","","","","","","","","","","","","",""
"","S2","","html-keyboard-response","51","107275","0.0-1.0-58.0","0","0","87296","","null","","","null","6","","NaN","","","","","","","","","","","","","",""
"","response","","html-keyboard-response","52","107483","0.0-1.0-59.0-0.0","0","0","87296","","205","","","68","6","","","1","6","training","adjacent","DC","4","3","Q.jpg","P.jpg","1","0","0","",""
"","feedback","","html-keyboard-response","53","108486","0.0-1.0-60.0-0.0","0","0","87296","","null","","","null","6","","","","","","","","","","","","","","","",""
"","time_out","","html-keyboard-response","54","110490","0.0-1.0-62.0-0.0","0","0","87296","","null","","","null","6","","","","","","","","","","","","","","","",""
"","ITI","","html-keyboard-response","55","111494","0.0-1.0-63.0","0","0","87296","","null","","","null","6","","","","","","","","","","","","","","","NaN",""
"","S1","","html-keyboard-response","56","111748","0.0-1.0-65.0","0","0","87296","","null","","","null","7","","","","","","","","","","","","","","","",""
"","ISI","","html-keyboard-response","57","112256","0.0-1.0-66.0","0","0","87296","","null","","","null","7","NaN","","","","","","","","","","","","","","",""
"","S2","","html-keyboard-response","58","112516","0.0-1.0-67.0","0","0","87296","","null","","","null","7","","NaN","","","","","","","","","","","","","",""
"","response","","html-keyboard-response","59","112747","0.0-1.0-68.0-0.0","0","0","87296","","228","","","68","7","","","1","7","training","adjacent","BA","2","1","M.jpg","L.jpg","1","0","0","",""
"","feedback","","html-keyboard-response","60","113749","0.0-1.0-69.0-0.0","0","0","87296","","null","","","null","7","","","","","","","","","","","","","","","",""
"","time_out","","html-keyboard-response","61","115751","0.0-1.0-71.0-0.0","0","0","87296","","null","","","null","7","","","","","","","","","","","","","","","",""
"","ITI","","html-keyboard-response","62","116755","0.0-1.0-72.0","0","0","87296","","null","","","null","7","","","","","","","","","","","","","","","NaN",""
"","S1","","html-keyboard-response","63","117009","0.0-1.0-74.0","0","0","87296","","null","","","null","8","","","","","","","","","","","","","","","",""
"","ISI","","html-keyboard-response","64","117535","0.0-1.0-75.0","0","0","87296","","null","","","null","8","NaN","","","","","","","","","","","","","","",""
"","S2","","html-keyboard-response","65","117788","0.0-1.0-76.0","0","0","87296","","null","","","null","8","","NaN","","","","","","","","","","","","","",""
"","response","","html-keyboard-response","66","117946","0.0-1.0-77.0-0.0","0","0","87296","","155","","","68","8","","","1","8","training","adjacent","AB","1","2","L.jpg","M.jpg","1","1","1","",""
"","feedback","","html-keyboard-response","67","118949","0.0-1.0-78.0-0.0","0","0","87296","","null","","","null","8","","","","","","","","","","","","","","","",""
"","ITI","","html-keyboard-response","68","119953","0.0-1.0-81.0","0","0","87296","","null","","","null","8","","","","","","","","","","","","","","","NaN",""
"","S1","","html-keyboard-response","69","120206","0.0-1.0-83.0","0","0","87296","","null","","","null","9","","","","","","","","","","","","","","","",""
"","ISI","","html-keyboard-response","70","120708","0.0-1.0-84.0","0","0","87296","","null","","","null","9","NaN","","","","","","","","","","","","","","",""
"","S2","","html-keyboard-response","71","120963","0.0-1.0-85.0","0","0","87296","","null","","","null","9","","NaN","","","","","","","","","","","","","",""
"","response","","html-keyboard-response","72","121126","0.0-1.0-86.0-0.0","0","0","87296","","161","","","75","9","","","1","9","training","adjacent","ED","5","4","R.jpg","Q.jpg","0","0","1","",""
"","feedback","","html-keyboard-response","73","122130","0.0-1.0-87.0-0.0","0","0","87296","","null","","","null","9","","","","","","","","","","","","","","","",""
"","ITI","","html-keyboard-response","74","123133","0.0-1.0-90.0","0","0","87296","","null","","","null","9","","","","","","","","","","","","","","","NaN",""
"","S1","","html-keyboard-response","75","123394","0.0-1.0-92.0","0","0","87296","","null","","","null","10","","","","","","","","","","","","","","","",""
"","ISI","","html-keyboard-response","76","123897","0.0-1.0-93.0","0","0","87296","","null","","","null","10","NaN","","","","","","","","","","","","","","",""
"","S2","","html-keyboard-response","77","124160","0.0-1.0-94.0","0","0","87296","","null","","","null","10","","NaN","","","","","","","","","","","","","",""
"","response","","html-keyboard-response","78","124281","0.0-1.0-95.0-0.0","0","0","87296","","118","","","68","10","","","1","10","training","adjacent","BC","2","3","M.jpg","P.jpg","1","1","1","",""
"","feedback","","html-keyboard-response","79","125285","0.0-1.0-96.0-0.0","0","0","87296","","null","","","null","10","","","","","","","","","","","","","","","",""
"","ITI","","html-keyboard-response","80","126289","0.0-1.0-99.0","0","0","87296","","null","","","null","10","","","","","","","","","","","","","","","NaN",""
"","S1","","html-keyboard-response","81","126540","0.0-1.0-101.0","0","0","87296","","null","","","null","11","","","","","","","","","","","","","","","",""
"","ISI","","html-keyboard-response","82","127045","0.0-1.0-102.0","0","0","87296","","null","","","null","11","NaN","","","","","","","","","","","","","","",""
"","S2","","html-keyboard-response","83","127298","0.0-1.0-103.0","0","0","87296","","null","","","null","11","","NaN","","","","","","","","","","","","","",""
"","response","","html-keyboard-response","84","127371","0.0-1.0-104.0-0.0","0","0","87296","","70","","","68","11","","","1","11","training","adjacent","DE","4","5","Q.jpg","R.jpg","1","1","1","",""
"","feedback","","html-keyboard-response","85","128373","0.0-1.0-105.0-0.0","0","0","87296","","null","","","null","11","","","","","","","","","","","","","","","",""
"","ITI","","html-keyboard-response","86","129378","0.0-1.0-108.0","0","0","87296","","null","","","null","11","","","","","","","","","","","","","","","NaN",""
"","S1","","html-keyboard-response","87","129631","0.0-1.0-110.0","0","0","87296","","null","","","null","12","","","","","","","","","","","","","","","",""
"","ISI","","html-keyboard-response","88","130133","0.0-1.0-111.0","0","0","87296","","null","","","null","12","NaN","","","","","","","","","","","","","","",""
"","S2","","html-keyboard-response","89","130400","0.0-1.0-112.0","0","0","87296","","null","","","null","12","","NaN","","","","","","","","","","","","","",""
"","response","","html-keyboard-response","90","130419","0.0-1.0-113.0-0.0","0","0","87296","","17","","","68","12","","","1","12","training","adjacent","BA","2","1","M.jpg","L.jpg","1","0","0","",""
"","feedback","","html-keyboard-response","91","131422","0.0-1.0-114.0-0.0","0","0","87296","","null","","","null","12","","","","","","","","","","","","","","","",""
"","time_out","","html-keyboard-response","92","133426","0.0-1.0-116.0-0.0","0","0","87296","","null","","","null","12","","","","","","","","","","","","","","","",""
"","ITI","","html-keyboard-response","93","134428","0.0-1.0-117.0","0","0","87296","","null","","","null","12","","","","","","","","","","","","","","","NaN",""
"","S1","","html-keyboard-response","94","134680","0.0-1.0-119.0","0","0","87296","","null","","","null","13","","","","","","","","","","","","","","","",""
"","ISI","","html-keyboard-response","95","135183","0.0-1.0-120.0","0","0","87296","","null","","","null","13","NaN","","","","","","","","","","","","","","",""
"","S2","","html-keyboard-response","96","135436","0.0-1.0-121.0","0","0","87296","","null","","","null","13","","NaN","","","","","","","","","","","","","",""
"","response","","html-keyboard-response","97","135554","0.0-1.0-122.0-0.0","0","0","87296","","116","","","75","13","","","1","13","training","adjacent","CD","3","4","P.jpg","Q.jpg","0","1","0","",""
"","feedback","","html-keyboard-response","98","136563","0.0-1.0-123.0-0.0","0","0","87296","","null","","","null","13","","","","","","","","","","","","","","","",""
"","time_out","","html-keyboard-response","99","138565","0.0-1.0-125.0-0.0","0","0","87296","","null","","","null","13","","","","","","","","","","","","","","","",""
"","ITI","","html-keyboard-response","100","139571","0.0-1.0-126.0","0","0","87296","","null","","","null","13","","","","","","","","","","","","","","","NaN",""
"","S1","","html-keyboard-response","101","139826","0.0-1.0-128.0","0","0","87296","","null","","","null","14","","","","","","","","","","","","","","","",""
"","ISI","","html-keyboard-response","102","140338","0.0-1.0-129.0","0","0","87296","","null","","","null","14","NaN","","","","","","","","","","","","","","",""
"","S2","","html-keyboard-response","103","140592","0.0-1.0-130.0","0","0","87296","","null","","","null","14","","NaN","","","","","","","","","","","","","",""
"","response","","html-keyboard-response","104","140702","0.0-1.0-131.0-0.0","0","0","87296","","109","","","75","14","","","1","14","training","adjacent","CB","3","2","P.jpg","M.jpg","0","0","1","",""
"","feedback","","html-keyboard-response","105","141705","0.0-1.0-132.0-0.0","0","0","87296","","null","","","null","14","","","","","","","","","","","","","","","",""
"","ITI","","html-keyboard-response","106","142708","0.0-1.0-135.0","0","0","87296","","null","","","null","14","","","","","","","","","","","","","","","NaN",""
"","S1","","html-keyboard-response","107","142962","0.0-1.0-137.0","0","0","87296","","null","","","null","15","","","","","","","","","","","","","","","",""
"","ISI","","html-keyboard-response","108","143473","0.0-1.0-138.0","0","0","87296","","null","","","null","15","NaN","","","","","","","","","","","","","","",""
"","S2","","html-keyboard-response","109","143727","0.0-1.0-139.0","0","0","87296","","null","","","null","15","","NaN","","","","","","","","","","","","","",""
"","response","","html-keyboard-response","110","143909","0.0-1.0-140.0-0.0","0","0","87296","","179","","","75","15","","","1","15","training","adjacent","BA","2","1","M.jpg","L.jpg","0","0","1","",""
"","feedback","","html-keyboard-response","111","144913","0.0-1.0-141.0-0.0","0","0","87296","","null","","","null","15","","","","","","","","","","","","","","","",""
"","ITI","","html-keyboard-response","112","145917","0.0-1.0-144.0","0","0","87296","","null","","","null","15","","","","","","","","","","","","","","","NaN",""
"","S1","","html-keyboard-response","113","146184","0.0-1.0-146.0","0","0","87296","","null","","","null","16","","","","","","","","","","","","","","","",""
"","ISI","","html-keyboard-response","114","146694","0.0-1.0-147.0","0","0","87296","","null","","","null","16","NaN","","","","","","","","","","","","","","",""
"","S2","","html-keyboard-response","115","146898","0.0-1.0-148.0","0","0","87296","","203","","","68","16","","d","1","16","training","adjacent","DC","4","3","Q.jpg","P.jpg","1","0","0","",""
"","feedback","","html-keyboard-response","116","147902","0.0-1.0-150.0-0.0","0","0","87296","","null","","","null","16","","","","","","","","","","","","","","","",""
"","time_out","","html-keyboard-response","117","149909","0.0-1.0-152.0-0.0","0","0","87296","","null","","","null","16","","","","","","","","","","","","","","","",""
"","ITI","","html-keyboard-response","118","150919","0.0-1.0-153.0","0","0","87296","","null","","","null","16","","","","","","","","","","","","","","","NaN",""
"","S1","","html-keyboard-response","119","151172","0.0-1.0-155.0","0","0","87296","","null","","","null","17","","","","","","","","","","","","","","","",""
"","ISI","","html-keyboard-response","120","151675","0.0-1.0-156.0","0","0","87296","","null","","","null","17","NaN","","","","","","","","","","","","","","",""
"","S2","","html-keyboard-response","121","151928","0.0-1.0-157.0","0","0","87296","","null","","","null","17","","NaN","","","","","","","","","","","","","",""
"","response","","html-keyboard-response","122","152002","0.0-1.0-158.0-0.0","0","0","87296","","72","","","75","17","","","1","17","training","adjacent","FE","6","5","N.jpg","R.jpg","0","0","1","",""
"","feedback","","html-keyboard-response","123","153006","0.0-1.0-159.0-0.0","0","0","87296","","null","","","null","17","","","","","","","","","","","","","","","",""
"","ITI","","html-keyboard-response","124","154013","0.0-1.0-162.0","0","0","87296","","null","","","null","17","","","","","","","","","","","","","","","NaN",""
"","S1","","html-keyboard-response","125","154266","0.0-1.0-164.0","0","0","87296","","null","","","null","18","","","","","","","","","","","","","","","",""
"","ISI","","html-keyboard-response","126","154769","0.0-1.0-165.0","0","0","87296","","null","","","null","18","NaN","","","","","","","","","","","","","","",""
"","S2","","html-keyboard-response","127","154970","0.0-1.0-166.0","0","0","87296","","199","","","68","18","","d","1","18","training","adjacent","DE","4","5","Q.jpg","R.jpg","1","1","1","",""
"","feedback","","html-keyboard-response","128","155980","0.0-1.0-168.0-0.0","0","0","87296","","null","","","null","18","","","","","","","","","","","","","","","",""
"","ITI","","html-keyboard-response","129","156983","0.0-1.0-171.0","0","0","87296","","null","","","null","18","","","","","","","","","","","","","","","NaN",""
"","S1","","html-keyboard-response","130","157236","0.0-1.0-173.0","0","0","87296","","null","","","null","19","","","","","","","","","","","","","","","",""
"","ISI","","html-keyboard-response","131","157739","0.0-1.0-174.0","0","0","87296","","null","","","null","19","NaN","","","","","","","","","","","","","","",""
"","S2","","html-keyboard-response","132","157994","0.0-1.0-175.0","0","0","87296","","null","","","null","19","","NaN","","","","","","","","","","","","","",""
"","response","","html-keyboard-response","133","158031","0.0-1.0-176.0-0.0","0","0","87296","","37","","","75","19","","","1","19","training","adjacent","GF","7","6","O.jpg","N.jpg","0","0","1","",""
"","feedback","","html-keyboard-response","134","159039","0.0-1.0-177.0-0.0","0","0","87296","","null","","","null","19","","","","","","","","","","","","","","","",""
"","ITI","","html-keyboard-response","135","160042","0.0-1.0-180.0","0","0","87296","","null","","","null","19","","","","","","","","","","","","","","","NaN",""
"","S1","","html-keyboard-response","136","160297","0.0-1.0-182.0","0","0","87296","","null","","","null","20","","","","","","","","","","","","","","","",""
"","ISI","","html-keyboard-response","137","160799","0.0-1.0-183.0","0","0","87296","","null","","","null","20","NaN","","","","","","","","","","","","","","",""
"","S2","","html-keyboard-response","138","161052","0.0-1.0-184.0","0","0","87296","","null","","","null","20","","NaN","","","","","","","","","","","","","",""
"","response","","html-keyboard-response","139","161189","0.0-1.0-185.0-0.0","0","0","87296","","135","","","75","20","","","1","20","training","adjacent","FE","6","5","N.jpg","R.jpg","0","0","1","",""
"","feedback","","html-keyboard-response","140","162193","0.0-1.0-186.0-0.0","0","0","87296","","null","","","null","20","","","","","","","","","","","","","","","",""
"","ITI","","html-keyboard-response","141","163197","0.0-1.0-189.0","0","0","87296","","null","","","null","20","","","","","","","","","","","","","","","NaN",""
"","S1","","html-keyboard-response","142","163450","0.0-1.0-191.0","0","0","87296","","null","","","null","21","","","","","","","","","","","","","","","",""
"","ISI","","html-keyboard-response","143","163965","0.0-1.0-192.0","0","0","87296","","null","","","null","21","NaN","","","","","","","","","","","","","","",""
"","S2","","html-keyboard-response","144","164228","0.0-1.0-193.0","0","0","87296","","null","","","null","21","","NaN","","","","","","","","","","","","","",""
"","response","","html-keyboard-response","145","164384","0.0-1.0-194.0-0.0","0","0","87296","","153","","","75","21","","","1","21","training","adjacent","EF","5","6","R.jpg","N.jpg","0","1","0","",""
"","feedback","","html-keyboard-response","146","165388","0.0-1.0-195.0-0.0","0","0","87296","","null","","","null","21","","","","","","","","","","","","","","","",""
"","time_out","","html-keyboard-response","147","167391","0.0-1.0-197.0-0.0","0","0","87296","","null","","","null","21","","","","","","","","","","","","","","","",""
"","ITI","","html-keyboard-response","148","168394","0.0-1.0-198.0","0","0","87296","","null","","","null","21","","","","","","","","","","","","","","","NaN",""
"","S1","","html-keyboard-response","149","168647","0.0-1.0-200.0","0","0","87296","","null","","","null","22","","","","","","","","","","","","","","","",""
"","ISI","","html-keyboard-response","150","169149","0.0-1.0-201.0","0","0","87296","","null","","","null","22","NaN","","","","","","","","","","","","","","",""
"","S2","","html-keyboard-response","151","169403","0.0-1.0-202.0","0","0","87296","","null","","","null","22","","NaN","","","","","","","","","","","","","",""
"","response","","html-keyboard-response","152","169569","0.0-1.0-203.0-0.0","0","0","87296","","163","","","75","22","","","1","22","training","adjacent","CB","3","2","P.jpg","M.jpg","0","0","1","",""
"","feedback","","html-keyboard-response","153","170571","0.0-1.0-204.0-0.0","0","0","87296","","null","","","null","22","","","","","","","","","","","","","","","",""
"","ITI","","html-keyboard-response","154","171574","0.0-1.0-207.0","0","0","87296","","null","","","null","22","","","","","","","","","","","","","","","NaN",""
"","S1","","html-keyboard-response","155","171828","0.0-1.0-209.0","0","0","87296","","null","","","null","23","","","","","","","","","","","","","","","",""
"","ISI","","html-keyboard-response","156","172332","0.0-1.0-210.0","0","0","87296","","null","","","null","23","NaN","","","","","","","","","","","","","","",""
"","S2","","html-keyboard-response","157","172586","0.0-1.0-211.0","0","0","87296","","null","","","null","23","","NaN","","","","","","","","","","","","","",""
"","response","","html-keyboard-response","158","172729","0.0-1.0-212.0-0.0","0","0","87296","","140","","","75","23","","","1","23","training","adjacent","CD","3","4","P.jpg","Q.jpg","0","1","0","",""
"","feedback","","html-keyboard-response","159","173732","0.0-1.0-213.0-0.0","0","0","87296","","null","","","null","23","","","","","","","","","","","","","","","",""
"","time_out","","html-keyboard-response","160","175735","0.0-1.0-215.0-0.0","0","0","87296","","null","","","null","23","","","","","","","","","","","","","","","",""
"","ITI","","html-keyboard-response","161","176743","0.0-1.0-216.0","0","0","87296","","null","","","null","23","","","","","","","","","","","","","","","NaN",""
"","S1","","html-keyboard-response","162","176999","0.0-1.0-218.0","0","0","87296","","null","","","null","24","","","","","","","","","","","","","","","",""
"","ISI","","html-keyboard-response","163","177502","0.0-1.0-219.0","0","0","87296","","null","","","null","24","NaN","","","","","","","","","","","","","","",""
"","S2","","html-keyboard-response","164","177756","0.0-1.0-220.0","0","0","87296","","null","","","null","24","","NaN","","","","","","","","","","","","","",""
"","response","","html-keyboard-response","165","177827","0.0-1.0-221.0-0.0","0","0","87296","","70","","","75","24","","","1","24","training","adjacent","GF","7","6","O.jpg","N.jpg","0","0","1","",""
"","feedback","","html-keyboard-response","166","178831","0.0-1.0-222.0-0.0","0","0","87296","","null","","","null","24","","","","","","","","","","","","","","","",""
"","ITI","","html-keyboard-response","167","179838","0.0-1.0-225.0","0","0","87296","","null","","","null","24","","","","","","","","","","","","","","","NaN",""
"","S1","","html-keyboard-response","168","180093","0.0-1.0-227.0","0","0","87296","","null","","","null","25","","","","","","","","","","","","","","","",""
"","ISI","","html-keyboard-response","169","180596","0.0-1.0-228.0","0","0","87296","","null","","","null","25","NaN","","","","","","","","","","","","","","",""
"","S2","","html-keyboard-response","170","180849","0.0-1.0-229.0","0","0","87296","","null","","","null","25","","NaN","","","","","","","","","","","","","",""
"","response","","html-keyboard-response","171","181003","0.0-1.0-230.0-0.0","0","0","87296","","153","","","75","25","","","1","25","training","adjacent","FG","6","7","N.jpg","O.jpg","0","1","0","",""
"","feedback","","html-keyboard-response","172","182012","0.0-1.0-231.0-0.0","0","0","87296","","null","","","null","25","","","","","","","","","","","","","","","",""
"","time_out","","html-keyboard-response","173","184015","0.0-1.0-233.0-0.0","0","0","87296","","null","","","null","25","","","","","","","","","","","","","","","",""
"","ITI","","html-keyboard-response","174","185025","0.0-1.0-234.0","0","0","87296","","null","","","null","25","","","","","","","","","","","","","","","NaN",""
"","S1","","html-keyboard-response","175","185278","0.0-1.0-236.0","0","0","87296","","null","","","null","26","","","","","","","","","","","","","","","",""
"","ISI","","html-keyboard-response","176","185781","0.0-1.0-237.0","0","0","87296","","null","","","null","26","NaN","","","","","","","","","","","","","","",""
"","S2","","html-keyboard-response","177","186034","0.0-1.0-238.0","0","0","87296","","null","","","null","26","","NaN","","","","","","","","","","","","","",""
"","response","","html-keyboard-response","178","186283","0.0-1.0-239.0-0.0","0","0","87296","","246","","","68","26","","","1","26","training","adjacent","BC","2","3","M.jpg","P.jpg","1","1","1","",""
"","feedback","","html-keyboard-response","179","187286","0.0-1.0-240.0-0.0","0","0","87296","","null","","","null","26","","","","","","","","","","","","","","","",""
"","ITI","","html-keyboard-response","180","188297","0.0-1.0-243.0","0","0","87296","","null","","","null","26","","","","","","","","","","","","","","","NaN",""
"","S1","","html-keyboard-response","181","188554","0.0-1.0-245.0","0","0","87296","","null","","","null","27","","","","","","","","","","","","","","","",""
"","ISI","","html-keyboard-response","182","189059","0.0-1.0-246.0","0","0","87296","","null","","","null","27","NaN","","","","","","","","","","","","","","",""
"","S2","","html-keyboard-response","183","189312","0.0-1.0-247.0","0","0","87296","","null","","","null","27","","NaN","","","","","","","","","","","","","",""
"","response","","html-keyboard-response","184","189460","0.0-1.0-248.0-0.0","0","0","87296","","145","","","68","27","","","1","27","training","adjacent","DC","4","3","Q.jpg","P.jpg","1","0","0","",""
"","feedback","","html-keyboard-response","185","190463","0.0-1.0-249.0-0.0","0","0","87296","","null","","","null","27","","","","","","","","","","","","","","","",""
"","time_out","","html-keyboard-response","186","192467","0.0-1.0-251.0-0.0","0","0","87296","","null","","","null","27","","","","","","","","","","","","","","","",""
"","ITI","","html-keyboard-response","187","193473","0.0-1.0-252.0","0","0","87296","","null","","","null","27","","","","","","","","","","","","","","","NaN",""
"","S1","","html-keyboard-response","188","193727","0.0-1.0-254.0","0","0","87296","","null","","","null","28","","","","","","","","","","","","","","","",""
"","ISI","","html-keyboard-response","189","194229","0.0-1.0-255.0","0","0","87296","","null","","","null","28","NaN","","","","","","","","","","","","","","",""
"","S2","","html-keyboard-response","190","194483","0.0-1.0-256.0","0","0","87296","","null","","","null","28","","NaN","","","","","","","","","","","","","",""
"","response","","html-keyboard-response","191","194698","0.0-1.0-257.0-0.0","0","0","87296","","212","","","68","28","","","1","28","training","adjacent","FG","6","7","N.jpg","O.jpg","1","1","1","",""
"","feedback","","html-keyboard-response","192","195701","0.0-1.0-258.0-0.0","0","0","87296","","null","","","null","28","","","","","","","","","","","","","","","",""
"","ITI","","html-keyboard-response","193","196703","0.0-1.0-261.0","0","0","87296","","null","","","null","28","","","","","","","","","","","","","","","NaN",""
"","S1","","html-keyboard-response","194","196957","0.0-1.0-263.0","0","0","87296","","null","","","null","29","","","","","","","","","","","","","","","",""
"","ISI","","html-keyboard-response","195","197461","0.0-1.0-264.0","0","0","87296","","null","","","null","29","NaN","","","","","","","","","","","","","","",""
"","S2","","html-keyboard-response","196","197713","0.0-1.0-265.0","0","0","87296","","null","","","null","29","","NaN","","","","","","","","","","","","","",""
"","response","","html-keyboard-response","197","197869","0.0-1.0-266.0-0.0","0","0","87296","","154","","","68","29","","","1","29","training","adjacent","ED","5","4","R.jpg","Q.jpg","1","0","0","",""
"","feedback","","html-keyboard-response","198","198874","0.0-1.0-267.0-0.0","0","0","87296","","null","","","null","29","","","","","","","","","","","","","","","",""
"","time_out","","html-keyboard-response","199","200878","0.0-1.0-269.0-0.0","0","0","87296","","null","","","null","29","","","","","","","","","","","","","","","",""
"","ITI","","html-keyboard-response","200","201880","0.0-1.0-270.0","0","0","87296","","null","","","null","29","","","","","","","","","","","","","","","NaN",""
"","S1","","html-keyboard-response","201","202133","0.0-1.0-272.0","0","0","87296","","null","","","null","30","","","","","","","","","","","","","","","",""
"","ISI","","html-keyboard-response","202","202644","0.0-1.0-273.0","0","0","87296","","null","","","null","30","NaN","","","","","","","","","","","","","","",""
"","S2","","html-keyboard-response","203","202897","0.0-1.0-274.0","0","0","87296","","null","","","null","30","","NaN","","","","","","","","","","","","","",""
"","response","","html-keyboard-response","204","202958","0.0-1.0-275.0-0.0","0","0","87296","","58","","","75","30","","","1","30","training","adjacent","CD","3","4","P.jpg","Q.jpg","0","1","0","",""
"","feedback","","html-keyboard-response","205","203961","0.0-1.0-276.0-0.0","0","0","87296","","null","","","null","30","","","","","","","","","","","","","","","",""
"","time_out","","html-keyboard-response","206","205963","0.0-1.0-278.0-0.0","0","0","87296","","null","","","null","30","","","","","","","","","","","","","","","",""
"","ITI","","html-keyboard-response","207","206966","0.0-1.0-279.0","0","0","87296","","null","","","null","30","","","","","","","","","","","","","","","NaN",""
"","S1","","html-keyboard-response","208","207219","0.0-1.0-281.0","0","0","87296","","null","","","null","31","","","","","","","","","","","","","","","",""
"","ISI","","html-keyboard-response","209","207725","0.0-1.0-282.0","0","0","87296","","null","","","null","31","NaN","","","","","","","","","","","","","","",""
"","S2","","html-keyboard-response","210","207982","0.0-1.0-283.0","0","0","87296","","null","","","null","31","","NaN","","","","","","","","","","","","","",""
"","response","","html-keyboard-response","211","208146","0.0-1.0-284.0-0.0","0","0","87296","","163","","","75","31","","","1","31","training","adjacent","BC","2","3","M.jpg","P.jpg","0","1","0","",""
"","feedback","","html-keyboard-response","212","209149","0.0-1.0-285.0-0.0","0","0","87296","","null","","","null","31","","","","","","","","","","","","","","","",""
"","time_out","","html-keyboard-response","213","211153","0.0-1.0-287.0-0.0","0","0","87296","","null","","","null","31","","","","","","","","","","","","","","","",""
"","ITI","","html-keyboard-response","214","212158","0.0-1.0-288.0","0","0","87296","","null","","","null","31","","","","","","","","","","","","","","","NaN",""
"","S1","","html-keyboard-response","215","212411","0.0-1.0-290.0","0","0","87296","","null","","","null","32","","","","","","","","","","","","","","","",""
"","ISI","","html-keyboard-response","216","212914","0.0-1.0-291.0","0","0","87296","","null","","","null","32","NaN","","","","","","","","","","","","","","",""
"","S2","","html-keyboard-response","217","213167","0.0-1.0-292.0","0","0","87296","","null","","","null","32","","NaN","","","","","","","","","","","","","",""
"","response","","html-keyboard-response","218","213277","0.0-1.0-293.0-0.0","0","0","87296","","108","","","75","32","","","1","32","training","adjacent","AB","1","2","L.jpg","M.jpg","0","1","0","",""
"","feedback","","html-keyboard-response","219","214281","0.0-1.0-294.0-0.0","0","0","87296","","null","","","null","32","","","","","","","","","","","","","","","",""
"","time_out","","html-keyboard-response","220","216291","0.0-1.0-296.0-0.0","0","0","87296","","null","","","null","32","","","","","","","","","","","","","","","",""
"","ITI","","html-keyboard-response","221","217295","0.0-1.0-297.0","0","0","87296","","null","","","null","32","","","","","","","","","","","","","","","NaN",""
"","S1","","html-keyboard-response","222","217547","0.0-1.0-299.0","0","0","87296","","null","","","null","33","","","","","","","","","","","","","","","",""
"","ISI","","html-keyboard-response","223","218052","0.0-1.0-300.0","0","0","87296","","null","","","null","33","NaN","","","","","","","","","","","","","","",""
"","S2","","html-keyboard-response","224","218297","0.0-1.0-301.0","0","0","87296","","235","","","75","33","","k","1","33","training","adjacent","ED","5","4","R.jpg","Q.jpg","0","0","1","",""
"","feedback","","html-keyboard-response","225","219308","0.0-1.0-303.0-0.0","0","0","87296","","null","","","null","33","","","","","","","","","","","","","","","",""
"","ITI","","html-keyboard-response","226","220310","0.0-1.0-306.0","0","0","87296","","null","","","null","33","","","","","","","","","","","","","","","NaN",""
"","S1","","html-keyboard-response","227","220564","0.0-1.0-308.0","0","0","87296","","null","","","null","34","","","","","","","","","","","","","","","",""
"","ISI","","html-keyboard-response","228","221066","0.0-1.0-309.0","0","0","87296","","null","","","null","34","NaN","","","","","","","","","","","","","","",""
"","S2","","html-keyboard-response","229","221321","0.0-1.0-310.0","0","0","87296","","null","","","null","34","","NaN","","","","","","","","","","","","","",""
"","response","","html-keyboard-response","230","221324","0.0-1.0-311.0-0.0","0","0","87296","","0","","","75","34","","","1","34","training","adjacent","CB","3","2","P.jpg","M.jpg","0","0","1","",""
"","feedback","","html-keyboard-response","231","222327","0.0-1.0-312.0-0.0","0","0","87296","","null","","","null","34","","","","","","","","","","","","","","","",""
"","ITI","","html-keyboard-response","232","223330","0.0-1.0-315.0","0","0","87296","","null","","","null","34","","","","","","","","","","","","","","","NaN",""
"","S1","","html-keyboard-response","233","223583","0.0-1.0-317.0","0","0","87296","","null","","","null","35","","","","","","","","","","","","","","","",""
"","ISI","","html-keyboard-response","234","224086","0.0-1.0-318.0","0","0","87296","","null","","","null","35","NaN","","","","","","","","","","","","","","",""
"","S2","","html-keyboard-response","235","224284","0.0-1.0-319.0","0","0","87296","","196","","","75","35","","k","1","35","training","adjacent","FE","6","5","N.jpg","R.jpg","0","0","1","",""
"","feedback","","html-keyboard-response","236","225287","0.0-1.0-321.0-0.0","0","0","87296","","null","","","null","35","","","","","","","","","","","","","","","",""
"","ITI","","html-keyboard-response","237","226291","0.0-1.0-324.0","0","0","87296","","null","","","null","35","","","","","","","","","","","","","","","NaN",""
"","S1","","html-keyboard-response","238","226544","0.0-1.0-326.0","0","0","87296","","null","","","null","36","","","","","","","","","","","","","","","",""
"","ISI","","html-keyboard-response","239","227062","0.0-1.0-327.0","0","0","87296","","null","","","null","36","NaN","","","","","","","","","","","","","","",""
"","S2","","html-keyboard-response","240","227257","0.0-1.0-328.0","0","0","87296","","191","","","75","36","","k","1","36","training","adjacent","GF","7","6","O.jpg","N.jpg","0","0","1","",""
"","feedback","","html-keyboard-response","241","228261","0.0-1.0-330.0-0.0","0","0","87296","","null","","","null","36","","","","","","","","","","","","","","","",""
"","ITI","","html-keyboard-response","242","229265","0.0-1.0-333.0","0","0","87296","","null","","","null","36","","","","","","","","","","","","","","","NaN",""
"","S1","","html-keyboard-response","243","229518","0.0-1.0-335.0","0","0","87296","","null","","","null","37","","","","","","","","","","","","","","","",""
"","ISI","","html-keyboard-response","244","230031","0.0-1.0-336.0","0","0","87296","","null","","","null","37","NaN","","","","","","","","","","","","","","",""
"","S2","","html-keyboard-response","245","230229","0.0-1.0-337.0","0","0","87296","","197","","","75","37","","k","1","37","training","adjacent","CD","3","4","P.jpg","Q.jpg","0","1","0","",""
"","feedback","","html-keyboard-response","246","231233","0.0-1.0-339.0-0.0","0","0","87296","","null","","","null","37","","","","","","","","","","","","","","","",""
"","time_out","","html-keyboard-response","247","233236","0.0-1.0-341.0-0.0","0","0","87296","","null","","","null","37","","","","","","","","","","","","","","","",""
"","ITI","","html-keyboard-response","248","234240","0.0-1.0-342.0","0","0","87296","","null","","","null","37","","","","","","","","","","","","","","","NaN",""
"","S1","","html-keyboard-response","249","234492","0.0-1.0-344.0","0","0","87296","","null","","","null","38","","","","","","","","","","","","","","","",""
"","ISI","","html-keyboard-response","250","234996","0.0-1.0-345.0","0","0","87296","","null","","","null","38","NaN","","","","","","","","","","","","","","",""
"","S2","","html-keyboard-response","251","235249","0.0-1.0-346.0","0","0","87296","","null","","","null","38","","NaN","","","","","","","","","","","","","",""
"","response","","html-keyboard-response","252","235257","0.0-1.0-347.0-0.0","0","0","87296","","7","","","75","38","","","1","38","training","adjacent","EF","5","6","R.jpg","N.jpg","0","1","0","",""
"","feedback","","html-keyboard-response","253","236262","0.0-1.0-348.0-0.0","0","0","87296","","null","","","null","38","","","","","","","","","","","","","","","",""
"","time_out","","html-keyboard-response","254","238265","0.0-1.0-350.0-0.0","0","0","87296","","null","","","null","38","","","","","","","","","","","","","","","",""
"","ITI","","html-keyboard-response","255","239268","0.0-1.0-351.0","0","0","87296","","null","","","null","38","","","","","","","","","","","","","","","NaN",""
"","S1","","html-keyboard-response","256","239522","0.0-1.0-353.0","0","0","87296","","null","","","null","39","","","","","","","","","","","","","","","",""
"","ISI","","html-keyboard-response","257","240025","0.0-1.0-354.0","0","0","87296","","null","","","null","39","NaN","","","","","","","","","","","","","","",""
"","S2","","html-keyboard-response","258","240278","0.0-1.0-355.0","0","0","87296","","null","","","null","39","","NaN","","","","","","","","","","","","","",""
"","response","","html-keyboard-response","259","240320","0.0-1.0-356.0-0.0","0","0","87296","","40","","","75","39","","","1","39","training","adjacent","EF","5","6","R.jpg","N.jpg","0","1","0","",""
"","feedback","","html-keyboard-response","260","241325","0.0-1.0-357.0-0.0","0","0","87296","","null","","","null","39","","","","","","","","","","","","","","","",""
"","time_out","","html-keyboard-response","261","243328","0.0-1.0-359.0-0.0","0","0","87296","","null","","","null","39","","","","","","","","","","","","","","","",""
"","ITI","","html-keyboard-response","262","244331","0.0-1.0-360.0","0","0","87296","","null","","","null","39","","","","","","","","","","","","","","","NaN",""
"","S1","","html-keyboard-response","263","244584","0.0-1.0-362.0","0","0","87296","","null","","","null","40","","","","","","","","","","","","","","","",""
"","ISI","","html-keyboard-response","264","245087","0.0-1.0-363.0","0","0","87296","","null","","","null","40","NaN","","","","","","","","","","","","","","",""
"","S2","","html-keyboard-response","265","245251","0.0-1.0-364.0","0","0","87296","","162","","","75","40","","k","1","40","training","adjacent","BA","2","1","M.jpg","L.jpg","0","0","1","",""
"","feedback","","html-keyboard-response","266","246256","0.0-1.0-366.0-0.0","0","0","87296","","null","","","null","40","","","","","","","","","","","","","","","",""
"","ITI","","html-keyboard-response","267","247258","0.0-1.0-369.0","0","0","87296","","null","","","null","40","","","","","","","","","","","","","","","NaN",""
"","S1","","html-keyboard-response","268","247511","0.0-1.0-371.0","0","0","87296","","null","","","null","41","","","","","","","","","","","","","","","",""
"","ISI","","html-keyboard-response","269","248013","0.0-1.0-372.0","0","0","87296","","null","","","null","41","NaN","","","","","","","","","","","","","","",""
"","S2","","html-keyboard-response","270","248223","0.0-1.0-373.0","0","0","87296","","206","","","75","41","","k","1","41","training","adjacent","FE","6","5","N.jpg","R.jpg","0","0","1","",""
"","feedback","","html-keyboard-response","271","249227","0.0-1.0-375.0-0.0","0","0","87296","","null","","","null","41","","","","","","","","","","","","","","","",""
"","ITI","","html-keyboard-response","272","250232","0.0-1.0-378.0","0","0","87296","","null","","","null","41","","","","","","","","","","","","","","","NaN",""
"","S1","","html-keyboard-response","273","250486","0.0-1.0-380.0","0","0","87296","","null","","","null","42","","","","","","","","","","","","","","","",""
"","ISI","","html-keyboard-response","274","250989","0.0-1.0-381.0","0","0","87296","","null","","","null","42","NaN","","","","","","","","","","","","","","",""
"","S2","","html-keyboard-response","275","251182","0.0-1.0-382.0","0","0","87296","","190","","","75","42","","k","1","42","training","adjacent","GF","7","6","O.jpg","N.jpg","0","0","1","",""
"","feedback","","html-keyboard-response","276","252186","0.0-1.0-384.0-0.0","0","0","87296","","null","","","null","42","","","","","","","","","","","","","","","",""
"","ITI","","html-keyboard-response","277","253191","0.0-1.0-387.0","0","0","87296","","null","","","null","42","","","","","","","","","","","","","","","NaN",""
"","S1","","html-keyboard-response","278","253451","0.0-1.0-389.0","0","0","87296","","null","","","null","43","","","","","","","","","","","","","","","",""
"","ISI","","html-keyboard-response","279","253954","0.0-1.0-390.0","0","0","87296","","null","","","null","43","NaN","","","","","","","","","","","","","","",""
"","S2","","html-keyboard-response","280","254185","0.0-1.0-391.0","0","0","87296","","229","","","68","43","","d","1","43","training","adjacent","AB","1","2","L.jpg","M.jpg","1","1","1","",""
"","feedback","","html-keyboard-response","281","255191","0.0-1.0-393.0-0.0","0","0","87296","","null","","","null","43","","","","","","","","","","","","","","","",""
"","ITI","","html-keyboard-response","282","256194","0.0-1.0-396.0","0","0","87296","","null","","","null","43","","","","","","","","","","","","","","","NaN",""
"","S1","","html-keyboard-response","283","256446","0.0-1.0-398.0","0","0","87296","","null","","","null","44","","","","","","","","","","","","","","","",""
"","ISI","","html-keyboard-response","284","256950","0.0-1.0-399.0","0","0","87296","","null","","","null","44","NaN","","","","","","","","","","","","","","",""
"","S2","","html-keyboard-response","285","257165","0.0-1.0-400.0","0","0","87296","","212","","","68","44","","d","1","44","training","adjacent","CB","3","2","P.jpg","M.jpg","1","0","0","",""
"","feedback","","html-keyboard-response","286","258183","0.0-1.0-402.0-0.0","0","0","87296","","null","","","null","44","","","","","","","","","","","","","","","",""
"","time_out","","html-keyboard-response","287","260186","0.0-1.0-404.0-0.0","0","0","87296","","null","","","null","44","","","","","","","","","","","","","","","",""
"","ITI","","html-keyboard-response","288","261194","0.0-1.0-405.0","0","0","87296","","null","","","null","44","","","","","","","","","","","","","","","NaN",""
"","S1","","html-keyboard-response","289","261447","0.0-1.0-407.0","0","0","87296","","null","","","null","45","","","","","","","","","","","","","","","",""
"","ISI","","html-keyboard-response","290","261950","0.0-1.0-408.0","0","0","87296","","null","","","null","45","NaN","","","","","","","","","","","","","","",""
"","S2","","html-keyboard-response","291","262188","0.0-1.0-409.0","0","0","87296","","236","","","68","45","","d","1","45","training","adjacent","BC","2","3","M.jpg","P.jpg","1","1","1","",""
"","feedback","","html-keyboard-response","292","263192","0.0-1.0-411.0-0.0","0","0","87296","","null","","","null","45","","","","","","","","","","","","","","","",""
"","ITI","","html-keyboard-response","293","264196","0.0-1.0-414.0","0","0","87296","","null","","","null","45","","","","","","","","","","","","","","","NaN",""
"","S1","","html-keyboard-response","294","264449","0.0-1.0-416.0","0","0","87296","","null","","","null","46","","","","","","","","","","","","","","","",""
"","ISI","","html-keyboard-response","295","264952","0.0-1.0-417.0","0","0","87296","","null","","","null","46","NaN","","","","","","","","","","","","","","",""
"","S2","","html-keyboard-response","296","265207","0.0-1.0-418.0","0","0","87296","","null","","","null","46","","NaN","","","","","","","","","","","","","",""
"","response","","html-keyboard-response","297","265435","0.0-1.0-419.0-0.0","0","0","87296","","216","","","68","46","","","1","46","training","adjacent","FG","6","7","N.jpg","O.jpg","1","1","1","",""
"","feedback","","html-keyboard-response","298","266439","0.0-1.0-420.0-0.0","0","0","87296","","null","","","null","46","","","","","","","","","","","","","","","",""
"","ITI","","html-keyboard-response","299","267444","0.0-1.0-423.0","0","0","87296","","null","","","null","46","","","","","","","","","","","","","","","NaN",""
"","S1","","html-keyboard-response","300","267696","0.0-1.0-425.0","0","0","87296","","null","","","null","47","","","","","","","","","","","","","","","",""
"","ISI","","html-keyboard-response","301","268211","0.0-1.0-426.0","0","0","87296","","null","","","null","47","NaN","","","","","","","","","","","","","","",""
"","S2","","html-keyboard-response","302","268464","0.0-1.0-427.0","0","0","87296","","null","","","null","47","","NaN","","","","","","","","","","","","","",""
"","response","","html-keyboard-response","303","268500","0.0-1.0-428.0-0.0","0","0","87296","","34","","","75","47","","","1","47","training","adjacent","ED","5","4","R.jpg","Q.jpg","0","0","1","",""
"","feedback","","html-keyboard-response","304","269504","0.0-1.0-429.0-0.0","0","0","87296","","null","","","null","47","","","","","","","","","","","","","","","",""
"","ITI","","html-keyboard-response","305","270508","0.0-1.0-432.0","0","0","87296","","null","","","null","47","","","","","","","","","","","","","","","NaN",""
"","block_over","","html-keyboard-response","306","275380","0.0-1.0-433.0-0.0","0","0","87296","","4869","","","32","47","","","","","","","","","","","","","","","",""
"","S1","","html-keyboard-response","307","275638","0.0-1.0-434.0","0","0","87296","","null","","","null","48","","","","","","","","","","","","","","","",""
"","ISI","","html-keyboard-response","308","276149","0.0-1.0-435.0","0","0","87296","","null","","","null","48","NaN","","","","","","","","","","","","","","",""
"","S2","","html-keyboard-response","309","276403","0.0-1.0-436.0","0","0","87296","","null","","","null","48","","NaN","","","","","","","","","","","","","",""
"","response","","html-keyboard-response","310","276586","0.0-1.0-437.0-0.0","0","0","87296","","181","","","68","48","","","2","48","training","adjacent","CD","3","4","P.jpg","Q.jpg","1","1","1","",""
"","feedback","","html-keyboard-response","311","277595","0.0-1.0-438.0-0.0","0","0","87296","","null","","","null","48","","","","","","","","","","","","","","","",""
"","ITI","","html-keyboard-response","312","278599","0.0-1.0-441.0","0","0","87296","","null","","","null","48","","","","","","","","","","","","","","","NaN",""
"","S1","","html-keyboard-response","313","278851","0.0-1.0-443.0","0","0","87296","","null","","","null","49","","","","","","","","","","","","","","","",""
"","ISI","","html-keyboard-response","314","279354","0.0-1.0-444.0","0","0","87296","","null","","","null","49","NaN","","","","","","","","","","","","","","",""
"","S2","","html-keyboard-response","315","279608","0.0-1.0-445.0","0","0","87296","","250","","","75","49","","k","2","49","training","adjacent","FE","6","5","N.jpg","R.jpg","0","0","1","",""
"","feedback","","html-keyboard-response","316","280613","0.0-1.0-447.0-0.0","0","0","87296","","null","","","null","49","","","","","","","","","","","","","","","",""
"","ITI","","html-keyboard-response","317","281620","0.0-1.0-450.0","0","0","87296","","null","","","null","49","","","","","","","","","","","","","","","NaN",""
"","S1","","html-keyboard-response","318","281875","0.0-1.0-452.0","0","0","87296","","null","","","null","50","","","","","","","","","","","","","","","",""
"","ISI","","html-keyboard-response","319","282378","0.0-1.0-453.0","0","0","87296","","null","","","null","50","NaN","","","","","","","","","","","","","","",""
"","S2","","html-keyboard-response","320","282587","0.0-1.0-454.0","0","0","87296","","206","","","75","50","","k","2","50","training","adjacent","EF","5","6","R.jpg","N.jpg","0","1","0","",""
"","feedback","","html-keyboard-response","321","283591","0.0-1.0-456.0-0.0","0","0","87296","","null","","","null","50","","","","","","","","","","","","","","","",""
"","time_out","","html-keyboard-response","322","285593","0.0-1.0-458.0-0.0","0","0","87296","","null","","","null","50","","","","","","","","","","","","","","","",""
"","ITI","","html-keyboard-response","323","286597","0.0-1.0-459.0","0","0","87296","","null","","","null","50","","","","","","","","","","","","","","","NaN",""
"","S1","","html-keyboard-response","324","286850","0.0-1.0-461.0","0","0","87296","","null","","","null","51","","","","","","","","","","","","","","","",""
"","ISI","","html-keyboard-response","325","287354","0.0-1.0-462.0","0","0","87296","","null","","","null","51","NaN","","","","","","","","","","","","","","",""
"","S2","","html-keyboard-response","326","287579","0.0-1.0-463.0","0","0","87296","","224","","","75","51","","k","2","51","training","adjacent","CD","3","4","P.jpg","Q.jpg","0","1","0","",""
"","feedback","","html-keyboard-response","327","288587","0.0-1.0-465.0-0.0","0","0","87296","","null","","","null","51","","","","","","","","","","","","","","","",""
"","time_out","","html-keyboard-response","328","290590","0.0-1.0-467.0-0.0","0","0","87296","","null","","","null","51","","","","","","","","","","","","","","","",""
"","ITI","","html-keyboard-response","329","291593","0.0-1.0-468.0","0","0","87296","","null","","","null","51","","","","","","","","","","","","","","","NaN",""
"","S1","","html-keyboard-response","330","291846","0.0-1.0-470.0","0","0","87296","","null","","","null","52","","","","","","","","","","","","","","","",""
"","ISI","","html-keyboard-response","331","292349","0.0-1.0-471.0","0","0","87296","","null","","","null","52","NaN","","","","","","","","","","","","","","",""
"","S2","","html-keyboard-response","332","292554","0.0-1.0-472.0","0","0","87296","","202","","","75","52","","k","2","52","training","adjacent","DE","4","5","Q.jpg","R.jpg","0","1","0","",""
"","feedback","","html-keyboard-response","333","293562","0.0-1.0-474.0-0.0","0","0","87296","","null","","","null","52","","","","","","","","","","","","","","","",""
"","time_out","","html-keyboard-response","334","295566","0.0-1.0-476.0-0.0","0","0","87296","","null","","","null","52","","","","","","","","","","","","","","","",""
"","ITI","","html-keyboard-response","335","296570","0.0-1.0-477.0","0","0","87296","","null","","","null","52","","","","","","","","","","","","","","","NaN",""
"","S1","","html-keyboard-response","336","296826","0.0-1.0-479.0","0","0","87296","","null","","","null","53","","","","","","","","","","","","","","","",""
"","ISI","","html-keyboard-response","337","297332","0.0-1.0-480.0","0","0","87296","","null","","","null","53","NaN","","","","","","","","","","","","","","",""
"","S2","","html-keyboard-response","338","297428","0.0-1.0-481.0","0","0","87296","","93","","","75","53","","k","2","53","training","adjacent","FG","6","7","N.jpg","O.jpg","0","1","0","",""
"","feedback","","html-keyboard-response","339","298432","0.0-1.0-483.0-0.0","0","0","87296","","null","","","null","53","","","","","","","","","","","","","","","",""
"","time_out","","html-keyboard-response","340","300439","0.0-1.0-485.0-0.0","0","0","87296","","null","","","null","53","","","","","","","","","","","","","","","",""
"","ITI","","html-keyboard-response","341","301442","0.0-1.0-486.0","0","0","87296","","null","","","null","53","","","","","","","","","","","","","","","NaN",""
"","S1","","html-keyboard-response","342","301695","0.0-1.0-488.0","0","0","87296","","null","","","null","54","","","","","","","","","","","","","","","",""
"","ISI","","html-keyboard-response","343","302198","0.0-1.0-489.0","0","0","87296","","null","","","null","54","NaN","","","","","","","","","","","","","","",""
"","S2","","html-keyboard-response","344","302400","0.0-1.0-490.0","0","0","87296","","201","","","75","54","","k","2","54","training","adjacent","ED","5","4","R.jpg","Q.jpg","0","0","1","",""
"","feedback","","html-keyboard-response","345","303405","0.0-1.0-492.0-0.0","0","0","87296","","null","","","null","54","","","","","","","","","","","","","","","",""
"","ITI","","html-keyboard-response","346","304408","0.0-1.0-495.0","0","0","87296","","null","","","null","54","","","","","","","","","","","","","","","NaN",""
"","S1","","html-keyboard-response","347","304660","0.0-1.0-497.0","0","0","87296","","null","","","null","55","","","","","","","","","","","","","","","",""
"","ISI","","html-keyboard-response","348","305163","0.0-1.0-498.0","0","0","87296","","null","","","null","55","NaN","","","","","","","","","","","","","","",""
"","S2","","html-keyboard-response","349","305396","0.0-1.0-499.0","0","0","87296","","230","","","68","55","","d","2","55","training","adjacent","DC","4","3","Q.jpg","P.jpg","1","0","0","",""
"","feedback","","html-keyboard-response","350","306402","0.0-1.0-501.0-0.0","0","0","87296","","null","","","null","55","","","","","","","","","","","","","","","",""
"","time_out","","html-keyboard-response","351","308405","0.0-1.0-503.0-0.0","0","0","87296","","null","","","null","55","","","","","","","","","","","","","","","",""
"","ITI","","html-keyboard-response","352","309408","0.0-1.0-504.0","0","0","87296","","null","","","null","55","","","","","","","","","","","","","","","NaN",""
"","S1","","html-keyboard-response","353","309669","0.0-1.0-506.0","0","0","87296","","null","","","null","56","","","","","","","","","","","","","","","",""
"","ISI","","html-keyboard-response","354","310181","0.0-1.0-507.0","0","0","87296","","null","","","null","56","NaN","","","","","","","","","","","","","","",""
"","S2","","html-keyboard-response","355","310419","0.0-1.0-508.0","0","0","87296","","234","","","68","56","","d","2","56","training","adjacent","FE","6","5","N.jpg","R.jpg","1","0","0","",""
"","feedback","","html-keyboard-response","356","311431","0.0-1.0-510.0-0.0","0","0","87296","","null","","","null","56","","","","","","","","","","","","","","","",""
"","time_out","","html-keyboard-response","357","313438","0.0-1.0-512.0-0.0","0","0","87296","","null","","","null","56","","","","","","","","","","","","","","","",""
"","ITI","","html-keyboard-response","358","314443","0.0-1.0-513.0","0","0","87296","","null","","","null","56","","","","","","","","","","","","","","","NaN",""
"","S1","","html-keyboard-response","359","314709","0.0-1.0-515.0","0","0","87296","","null","","","null","57","","","","","","","","","","","","","","","",""
"","ISI","","html-keyboard-response","360","315212","0.0-1.0-516.0","0","0","87296","","null","","","null","57","NaN","","","","","","","","","","","","","","",""
"","S2","","html-keyboard-response","361","315476","0.0-1.0-517.0","0","0","87296","","null","","","null","57","","NaN","","","","","","","","","","","","","",""
"","response","","html-keyboard-response","362","315479","0.0-1.0-518.0-0.0","0","0","87296","","0","","","75","57","","","2","57","training","adjacent","FG","6","7","N.jpg","O.jpg","0","1","0","",""
"","feedback","","html-keyboard-response","363","316484","0.0-1.0-519.0-0.0","0","0","87296","","null","","","null","57","","","","","","","","","","","","","","","",""
"","time_out","","html-keyboard-response","364","318487","0.0-1.0-521.0-0.0","0","0","87296","","null","","","null","57","","","","","","","","","","","","","","","",""
"","ITI","","html-keyboard-response","365","319490","0.0-1.0-522.0","0","0","87296","","null","","","null","57","","","","","","","","","","","","","","","NaN",""
"","S1","","html-keyboard-response","366","319743","0.0-1.0-524.0","0","0","87296","","null","","","null","58","","","","","","","","","","","","","","","",""
"","ISI","","html-keyboard-response","367","320246","0.0-1.0-525.0","0","0","87296","","null","","","null","58","NaN","","","","","","","","","","","","","","",""
"","S2","","html-keyboard-response","368","320327","0.0-1.0-526.0","0","0","87296","","80","","","68","58","","d","2","58","training","adjacent","DE","4","5","Q.jpg","R.jpg","1","1","1","",""
"","feedback","","html-keyboard-response","369","321330","0.0-1.0-528.0-0.0","0","0","87296","","null","","","null","58","","","","","","","","","","","","","","","",""
"","ITI","","html-keyboard-response","370","322335","0.0-1.0-531.0","0","0","87296","","null","","","null","58","","","","","","","","","","","","","","","NaN",""
"","S1","","html-keyboard-response","371","322587","0.0-1.0-533.0","0","0","87296","","null","","","null","59","","","","","","","","","","","","","","","",""
"","ISI","","html-keyboard-response","372","323091","0.0-1.0-534.0","0","0","87296","","null","","","null","59","NaN","","","","","","","","","","","","","","",""
"","S2","","html-keyboard-response","373","323345","0.0-1.0-535.0","0","0","87296","","null","","","null","59","","NaN","","","","","","","","","","","","","",""
"","response","","html-keyboard-response","374","323347","0.0-1.0-536.0-0.0","0","0","87296","","0","","","68","59","","","2","59","training","adjacent","AB","1","2","L.jpg","M.jpg","1","1","1","",""
"","feedback","","html-keyboard-response","375","324352","0.0-1.0-537.0-0.0","0","0","87296","","null","","","null","59","","","","","","","","","","","","","","","",""
"","ITI","","html-keyboard-response","376","325355","0.0-1.0-540.0","0","0","87296","","null","","","null","59","","","","","","","","","","","","","","","NaN",""
"","S1","","html-keyboard-response","377","325608","0.0-1.0-542.0","0","0","87296","","null","","","null","60","","","","","","","","","","","","","","","",""
"","ISI","","html-keyboard-response","378","326111","0.0-1.0-543.0","0","0","87296","","null","","","null","60","NaN","","","","","","","","","","","","","","",""
"","S2","","html-keyboard-response","379","326348","0.0-1.0-544.0","0","0","87296","","234","","","75","60","","k","2","60","training","adjacent","BA","2","1","M.jpg","L.jpg","0","0","1","",""
"","feedback","","html-keyboard-response","380","327353","0.0-1.0-546.0-0.0","0","0","87296","","null","","","null","60","","","","","","","","","","","","","","","",""
"","ITI","","html-keyboard-response","381","328357","0.0-1.0-549.0","0","0","87296","","null","","","null","60","","","","","","","","","","","","","","","NaN",""
"","S1","","html-keyboard-response","382","328610","0.0-1.0-551.0","0","0","87296","","null","","","null","61","","","","","","","","","","","","","","","",""
"","ISI","","html-keyboard-response","383","329114","0.0-1.0-552.0","0","0","87296","","null","","","null","61","NaN","","","","","","","","","","","","","","",""
"","S2","","html-keyboard-response","384","329369","0.0-1.0-553.0","0","0","87296","","null","","","null","61","","NaN","","","","","","","","","","","","","",""
"","response","","html-keyboard-response","385","329407","0.0-1.0-554.0-0.0","0","0","87296","","35","","","75","61","","","2","61","training","adjacent","EF","5","6","R.jpg","N.jpg","0","1","0","",""
"","feedback","","html-keyboard-response","386","330411","0.0-1.0-555.0-0.0","0","0","87296","","null","","","null","61","","","","","","","","","","","","","","","",""
"","time_out","","html-keyboard-response","387","332416","0.0-1.0-557.0-0.0","0","0","87296","","null","","","null","61","","","","","","","","","","","","","","","",""
"","ITI","","html-keyboard-response","388","333433","0.0-1.0-558.0","0","0","87296","","null","","","null","61","","","","","","","","","","","","","","","NaN",""
"","S1","","html-keyboard-response","389","333686","0.0-1.0-560.0","0","0","87296","","null","","","null","62","","","","","","","","","","","","","","","",""
"","ISI","","html-keyboard-response","390","334189","0.0-1.0-561.0","0","0","87296","","null","","","null","62","NaN","","","","","","","","","","","","","","",""
"","S2","","html-keyboard-response","391","334440","0.0-1.0-562.0","0","0","87296","","249","","","75","62","","k","2","62","training","adjacent","BC","2","3","M.jpg","P.jpg","0","1","0","",""
"","feedback","","html-keyboard-response","392","335450","0.0-1.0-564.0-0.0","0","0","87296","","null","","","null","62","","","","","","","","","","","","","","","",""
"","time_out","","html-keyboard-response","393","337453","0.0-1.0-566.0-0.0","0","0","87296","","null","","","null","62","","","","","","","","","","","","","","","",""
"","ITI","","html-keyboard-response","394","338461","0.0-1.0-567.0","0","0","87296","","null","","","null","62","","","","","","","","","","","","","","","NaN",""
"","S1","","html-keyboard-response","395","338715","0.0-1.0-569.0","0","0","87296","","null","","","null","63","","","","","","","","","","","","","","","",""
"","ISI","","html-keyboard-response","396","339219","0.0-1.0-570.0","0","0","87296","","null","","","null","63","NaN","","","","","","","","","","","","","","",""
"","S2","","html-keyboard-response","397","339397","0.0-1.0-571.0","0","0","87296","","175","","","75","63","","k","2","63","training","adjacent","BA","2","1","M.jpg","L.jpg","0","0","1","",""
"","feedback","","html-keyboard-response","398","340403","0.0-1.0-573.0-0.0","0","0","87296","","null","","","null","63","","","","","","","","","","","","","","","",""
"","ITI","","html-keyboard-response","399","341407","0.0-1.0-576.0","0","0","87296","","null","","","null","63","","","","","","","","","","","","","","","NaN",""
"","S1","","html-keyboard-response","400","341659","0.0-1.0-578.0","0","0","87296","","null","","","null","64","","","","","","","","","","","","","","","",""
"","ISI","","html-keyboard-response","401","342162","0.0-1.0-579.0","0","0","87296","","null","","","null","64","NaN","","","","","","","","","","","","","","",""
"","S2","","html-keyboard-response","402","342383","0.0-1.0-580.0","0","0","87296","","218","","","75","64","","k","2","64","training","adjacent","ED","5","4","R.jpg","Q.jpg","0","0","1","",""
"","feedback","","html-keyboard-response","403","343387","0.0-1.0-582.0-0.0","0","0","87296","","null","","","null","64","","","","","","","","","","","","","","","",""
"","ITI","","html-keyboard-response","404","344390","0.0-1.0-585.0","0","0","87296","","null","","","null","64","","","","","","","","","","","","","","","NaN",""
"","S1","","html-keyboard-response","405","344643","0.0-1.0-587.0","0","0","87296","","null","","","null","65","","","","","","","","","","","","","","","",""
"","ISI","","html-keyboard-response","406","345147","0.0-1.0-588.0","0","0","87296","","null","","","null","65","NaN","","","","","","","","","","","","","","",""
"","S2","","html-keyboard-response","407","345317","0.0-1.0-589.0","0","0","87296","","165","","","75","65","","k","2","65","training","adjacent","GF","7","6","O.jpg","N.jpg","0","0","1","",""
"","feedback","","html-keyboard-response","408","346320","0.0-1.0-591.0-0.0","0","0","87296","","null","","","null","65","","","","","","","","","","","","","","","",""
"","ITI","","html-keyboard-response","409","347324","0.0-1.0-594.0","0","0","87296","","null","","","null","65","","","","","","","","","","","","","","","NaN",""
"","S1","","html-keyboard-response","410","347579","0.0-1.0-596.0","0","0","87296","","null","","","null","66","","","","","","","","","","","","","","","",""
"","ISI","","html-keyboard-response","411","348089","0.0-1.0-597.0","0","0","87296","","null","","","null","66","NaN","","","","","","","","","","","","","","",""
"","S2","","html-keyboard-response","412","348270","0.0-1.0-598.0","0","0","87296","","178","","","68","66","","d","2","66","training","adjacent","BA","2","1","M.jpg","L.jpg","1","0","0","",""
"","feedback","","html-keyboard-response","413","349273","0.0-1.0-600.0-0.0","0","0","87296","","null","","","null","66","","","","","","","","","","","","","","","",""
"","time_out","","html-keyboard-response","414","351276","0.0-1.0-602.0-0.0","0","0","87296","","null","","","null","66","","","","","","","","","","","","","","","",""
"","ITI","","html-keyboard-response","415","352279","0.0-1.0-603.0","0","0","87296","","null","","","null","66","","","","","","","","","","","","","","","NaN",""
"","S1","","html-keyboard-response","416","352534","0.0-1.0-605.0","0","0","87296","","null","","","null","67","","","","","","","","","","","","","","","",""
"","ISI","","html-keyboard-response","417","353038","0.0-1.0-606.0","0","0","87296","","null","","","null","67","NaN","","","","","","","","","","","","","","",""
"","S2","","html-keyboard-response","418","353126","0.0-1.0-607.0","0","0","87296","","86","","","68","67","","d","2","67","training","adjacent","DE","4","5","Q.jpg","R.jpg","1","1","1","",""
"","feedback","","html-keyboard-response","419","354130","0.0-1.0-609.0-0.0","0","0","87296","","null","","","null","67","","","","","","","","","","","","","","","",""
"","ITI","","html-keyboard-response","420","355134","0.0-1.0-612.0","0","0","87296","","null","","","null","67","","","","","","","","","","","","","","","NaN",""
"","S1","","html-keyboard-response","421","355387","0.0-1.0-614.0","0","0","87296","","null","","","null","68","","","","","","","","","","","","","","","",""
"","ISI","","html-keyboard-response","422","355894","0.0-1.0-615.0","0","0","87296","","null","","","null","68","NaN","","","","","","","","","","","","","","",""
"","S2","","html-keyboard-response","423","356172","0.0-1.0-616.0","0","0","87296","","null","","","null","68","","NaN","","","","","","","","","","","","","",""
"","response","","html-keyboard-response","424","356286","0.0-1.0-617.0-0.0","0","0","87296","","112","","","75","68","","","2","68","training","adjacent","BC","2","3","M.jpg","P.jpg","0","1","0","",""
"","feedback","","html-keyboard-response","425","357290","0.0-1.0-618.0-0.0","0","0","87296","","null","","","null","68","","","","","","","","","","","","","","","",""
"","time_out","","html-keyboard-response","426","359299","0.0-1.0-620.0-0.0","0","0","87296","","null","","","null","68","","","","","","","","","","","","","","","",""
"","ITI","","html-keyboard-response","427","360302","0.0-1.0-621.0","0","0","87296","","null","","","null","68","","","","","","","","","","","","","","","NaN",""
"","S1","","html-keyboard-response","428","360557","0.0-1.0-623.0","0","0","87296","","null","","","null","69","","","","","","","","","","","","","","","",""
"","ISI","","html-keyboard-response","429","361060","0.0-1.0-624.0","0","0","87296","","null","","","null","69","NaN","","","","","","","","","","","","","","",""
"","S2","","html-keyboard-response","430","361244","0.0-1.0-625.0","0","0","87296","","182","","","75","69","","k","2","69","training","adjacent","FE","6","5","N.jpg","R.jpg","0","0","1","",""
"","feedback","","html-keyboard-response","431","362249","0.0-1.0-627.0-0.0","0","0","87296","","null","","","null","69","","","","","","","","","","","","","","","",""
"","ITI","","html-keyboard-response","432","363253","0.0-1.0-630.0","0","0","87296","","null","","","null","69","","","","","","","","","","","","","","","NaN",""
"","S1","","html-keyboard-response","433","363506","0.0-1.0-632.0","0","0","87296","","null","","","null","70","","","","","","","","","","","","","","","",""
"","ISI","","html-keyboard-response","434","364009","0.0-1.0-633.0","0","0","87296","","null","","","null","70","NaN","","","","","","","","","","","","","","",""
"","S2","","html-keyboard-response","435","364172","0.0-1.0-634.0","0","0","87296","","161","","","68","70","","d","2","70","training","adjacent","DC","4","3","Q.jpg","P.jpg","1","0","0","",""
"","feedback","","html-keyboard-response","436","365176","0.0-1.0-636.0-0.0","0","0","87296","","null","","","null","70","","","","","","","","","","","","","","","",""
"","time_out","","html-keyboard-response","437","367180","0.0-1.0-638.0-0.0","0","0","87296","","null","","","null","70","","","","","","","","","","","","","","","",""
"","ITI","","html-keyboard-response","438","368184","0.0-1.0-639.0","0","0","87296","","null","","","null","70","","","","","","","","","","","","","","","NaN",""
"","S1","","html-keyboard-response","439","368436","0.0-1.0-641.0","0","0","87296","","null","","","null","71","","","","","","","","","","","","","","","",""
"","ISI","","html-keyboard-response","440","368939","0.0-1.0-642.0","0","0","87296","","null","","","null","71","NaN","","","","","","","","","","","","","","",""
"","S2","","html-keyboard-response","441","369135","0.0-1.0-643.0","0","0","87296","","193","","","75","71","","k","2","71","training","adjacent","CD","3","4","P.jpg","Q.jpg","0","1","0","",""
"","feedback","","html-keyboard-response","442","370139","0.0-1.0-645.0-0.0","0","0","87296","","null","","","null","71","","","","","","","","","","","","","","","",""
"","time_out","","html-keyboard-response","443","372153","0.0-1.0-647.0-0.0","0","0","87296","","null","","","null","71","","","","","","","","","","","","","","","",""
"","ITI","","html-keyboard-response","444","373156","0.0-1.0-648.0","0","0","87296","","null","","","null","71","","","","","","","","","","","","","","","NaN",""
"","S1","","html-keyboard-response","445","373409","0.0-1.0-650.0","0","0","87296","","null","","","null","72","","","","","","","","","","","","","","","",""
"","ISI","","html-keyboard-response","446","373912","0.0-1.0-651.0","0","0","87296","","null","","","null","72","NaN","","","","","","","","","","","","","","",""
"","S2","","html-keyboard-response","447","374078","0.0-1.0-652.0","0","0","87296","","163","","","75","72","","k","2","72","training","adjacent","EF","5","6","R.jpg","N.jpg","0","1","0","",""
"","feedback","","html-keyboard-response","448","375096","0.0-1.0-654.0-0.0","0","0","87296","","null","","","null","72","","","","","","","","","","","","","","","",""
"","time_out","","html-keyboard-response","449","377101","0.0-1.0-656.0-0.0","0","0","87296","","null","","","null","72","","","","","","","","","","","","","","","",""
"","ITI","","html-keyboard-response","450","378104","0.0-1.0-657.0","0","0","87296","","null","","","null","72","","","","","","","","","","","","","","","NaN",""
"","S1","","html-keyboard-response","451","378359","0.0-1.0-659.0","0","0","87296","","null","","","null","73","","","","","","","","","","","","","","","",""
"","ISI","","html-keyboard-response","452","378862","0.0-1.0-660.0","0","0","87296","","null","","","null","73","NaN","","","","","","","","","","","","","","",""
"","S2","","html-keyboard-response","453","379046","0.0-1.0-661.0","0","0","87296","","180","","","75","73","","k","2","73","training","adjacent","CD","3","4","P.jpg","Q.jpg","0","1","0","",""
"","feedback","","html-keyboard-response","454","380050","0.0-1.0-663.0-0.0","0","0","87296","","null","","","null","73","","","","","","","","","","","","","","","",""
"","time_out","","html-keyboard-response","455","382053","0.0-1.0-665.0-0.0","0","0","87296","","null","","","null","73","","","","","","","","","","","","","","","",""
"","ITI","","html-keyboard-response","456","383064","0.0-1.0-666.0","0","0","87296","","null","","","null","73","","","","","","","","","","","","","","","NaN",""
"","S1","","html-keyboard-response","457","383317","0.0-1.0-668.0","0","0","87296","","null","","","null","74","","","","","","","","","","","","","","","",""
"","ISI","","html-keyboard-response","458","383819","0.0-1.0-669.0","0","0","87296","","null","","","null","74","NaN","","","","","","","","","","","","","","",""
"","S2","","html-keyboard-response","459","383949","0.0-1.0-670.0","0","0","87296","","127","","","75","74","","k","2","74","training","adjacent","CB","3","2","P.jpg","M.jpg","0","0","1","",""
"","feedback","","html-keyboard-response","460","384952","0.0-1.0-672.0-0.0","0","0","87296","","null","","","null","74","","","","","","","","","","","","","","","",""
"","ITI","","html-keyboard-response","461","385955","0.0-1.0-675.0","0","0","87296","","null","","","null","74","","","","","","","","","","","","","","","NaN",""
"","S1","","html-keyboard-response","462","386211","0.0-1.0-677.0","0","0","87296","","null","","","null","75","","","","","","","","","","","","","","","",""
"","ISI","","html-keyboard-response","463","386714","0.0-1.0-678.0","0","0","87296","","null","","","null","75","NaN","","","","","","","","","","","","","","",""
"","S2","","html-keyboard-response","464","386909","0.0-1.0-679.0","0","0","87296","","192","","","68","75","","d","2","75","training","adjacent","AB","1","2","L.jpg","M.jpg","1","1","1","",""
"","feedback","","html-keyboard-response","465","387914","0.0-1.0-681.0-0.0","0","0","87296","","null","","","null","75","","","","","","","","","","","","","","","",""
"","ITI","","html-keyboard-response","466","388925","0.0-1.0-684.0","0","0","87296","","null","","","null","75","","","","","","","","","","","","","","","NaN",""
"","S1","","html-keyboard-response","467","389186","0.0-1.0-686.0","0","0","87296","","null","","","null","76","","","","","","","","","","","","","","","",""
"","ISI","","html-keyboard-response","468","389688","0.0-1.0-687.0","0","0","87296","","null","","","null","76","NaN","","","","","","","","","","","","","","",""
"","S2","","html-keyboard-response","469","389901","0.0-1.0-688.0","0","0","87296","","211","","","75","76","","k","2","76","training","adjacent","FE","6","5","N.jpg","R.jpg","0","0","1","",""
"","feedback","","html-keyboard-response","470","390905","0.0-1.0-690.0-0.0","0","0","87296","","null","","","null","76","","","","","","","","","","","","","","","",""
"","ITI","","html-keyboard-response","471","391908","0.0-1.0-693.0","0","0","87296","","null","","","null","76","","","","","","","","","","","","","","","NaN",""
"","S1","","html-keyboard-response","472","392162","0.0-1.0-695.0","0","0","87296","","null","","","null","77","","","","","","","","","","","","","","","",""
"","ISI","","html-keyboard-response","473","392665","0.0-1.0-696.0","0","0","87296","","null","","","null","77","NaN","","","","","","","","","","","","","","",""
"","S2","","html-keyboard-response","474","392866","0.0-1.0-697.0","0","0","87296","","199","","","75","77","","k","2","77","training","adjacent","CB","3","2","P.jpg","M.jpg","0","0","1","",""
"","feedback","","html-keyboard-response","475","393869","0.0-1.0-699.0-0.0","0","0","87296","","null","","","null","77","","","","","","","","","","","","","","","",""
"","ITI","","html-keyboard-response","476","394875","0.0-1.0-702.0","0","0","87296","","null","","","null","77","","","","","","","","","","","","","","","NaN",""
"","S1","","html-keyboard-response","477","395131","0.0-1.0-704.0","0","0","87296","","null","","","null","78","","","","","","","","","","","","","","","",""
"","ISI","","html-keyboard-response","478","395633","0.0-1.0-705.0","0","0","87296","","null","","","null","78","NaN","","","","","","","","","","","","","","",""
"","S2","","html-keyboard-response","479","395827","0.0-1.0-706.0","0","0","87296","","192","","","75","78","","k","2","78","training","adjacent","ED","5","4","R.jpg","Q.jpg","0","0","1","",""
"","feedback","","html-keyboard-response","480","396831","0.0-1.0-708.0-0.0","0","0","87296","","null","","","null","78","","","","","","","","","","","","","","","",""
"","ITI","","html-keyboard-response","481","397834","0.0-1.0-711.0","0","0","87296","","null","","","null","78","","","","","","","","","","","","","","","NaN",""
"","S1","","html-keyboard-response","482","398087","0.0-1.0-713.0","0","0","87296","","null","","","null","79","","","","","","","","","","","","","","","",""
"","ISI","","html-keyboard-response","483","398590","0.0-1.0-714.0","0","0","87296","","null","","","null","79","NaN","","","","","","","","","","","","","","",""
"","S2","","html-keyboard-response","484","398769","0.0-1.0-715.0","0","0","87296","","178","","","68","79","","d","2","79","training","adjacent","BC","2","3","M.jpg","P.jpg","1","1","1","",""
"","feedback","","html-keyboard-response","485","399772","0.0-1.0-717.0-0.0","0","0","87296","","null","","","null","79","","","","","","","","","","","","","","","",""
"","ITI","","html-keyboard-response","486","400775","0.0-1.0-720.0","0","0","87296","","null","","","null","79","","","","","","","","","","","","","","","NaN",""
"","S1","","html-keyboard-response","487","401030","0.0-1.0-722.0","0","0","87296","","null","","","null","80","","","","","","","","","","","","","","","",""
"","ISI","","html-keyboard-response","488","401540","0.0-1.0-723.0","0","0","87296","","null","","","null","80","NaN","","","","","","","","","","","","","","",""
"","S2","","html-keyboard-response","489","401741","0.0-1.0-724.0","0","0","87296","","197","","","75","80","","k","2","80","training","adjacent","CB","3","2","P.jpg","M.jpg","0","0","1","",""
"","feedback","","html-keyboard-response","490","402744","0.0-1.0-726.0-0.0","0","0","87296","","null","","","null","80","","","","","","","","","","","","","","","",""
"","ITI","","html-keyboard-response","491","403749","0.0-1.0-729.0","0","0","87296","","null","","","null","80","","","","","","","","","","","","","","","NaN",""
"","S1","","html-keyboard-response","492","404003","0.0-1.0-731.0","0","0","87296","","null","","","null","81","","","","","","","","","","","","","","","",""
"","ISI","","html-keyboard-response","493","404506","0.0-1.0-732.0","0","0","87296","","null","","","null","81","NaN","","","","","","","","","","","","","","",""
"","S2","","html-keyboard-response","494","404662","0.0-1.0-733.0","0","0","87296","","153","","","68","81","","d","2","81","training","adjacent","BA","2","1","M.jpg","L.jpg","1","0","0","",""
"","feedback","","html-keyboard-response","495","405665","0.0-1.0-735.0-0.0","0","0","87296","","null","","","null","81","","","","","","","","","","","","","","","",""
"","time_out","","html-keyboard-response","496","407668","0.0-1.0-737.0-0.0","0","0","87296","","null","","","null","81","","","","","","","","","","","","","","","",""
"","ITI","","html-keyboard-response","497","408671","0.0-1.0-738.0","0","0","87296","","null","","","null","81","","","","","","","","","","","","","","","NaN",""
"","S1","","html-keyboard-response","498","408924","0.0-1.0-740.0","0","0","87296","","null","","","null","82","","","","","","","","","","","","","","","",""
"","ISI","","html-keyboard-response","499","409427","0.0-1.0-741.0","0","0","87296","","null","","","null","82","NaN","","","","","","","","","","","","","","",""
"","S2","","html-keyboard-response","500","409495","0.0-1.0-742.0","0","0","87296","","63","","","68","82","","d","2","82","training","adjacent","DC","4","3","Q.jpg","P.jpg","1","0","0","",""
"","feedback","","html-keyboard-response","501","410502","0.0-1.0-744.0-0.0","0","0","87296","","null","","","null","82","","","","","","","","","","","","","","","",""
"","time_out","","html-keyboard-response","502","412506","0.0-1.0-746.0-0.0","0","0","87296","","null","","","null","82","","","","","","","","","","","","","","","",""
"","ITI","","html-keyboard-response","503","413508","0.0-1.0-747.0","0","0","87296","","null","","","null","82","","","","","","","","","","","","","","","NaN",""
"","S1","","html-keyboard-response","504","413762","0.0-1.0-749.0","0","0","87296","","null","","","null","83","","","","","","","","","","","","","","","",""
"","ISI","","html-keyboard-response","505","414265","0.0-1.0-750.0","0","0","87296","","null","","","null","83","NaN","","","","","","","","","","","","","","",""
"","S2","","html-keyboard-response","506","414526","0.0-1.0-751.0","0","0","87296","","null","","","null","83","","NaN","","","","","","","","","","","","","",""
"","response","","html-keyboard-response","507","414552","0.0-1.0-752.0-0.0","0","0","87296","","23","","","75","83","","","2","83","training","adjacent","BC","2","3","M.jpg","P.jpg","0","1","0","",""
"","feedback","","html-keyboard-response","508","415554","0.0-1.0-753.0-0.0","0","0","87296","","null","","","null","83","","","","","","","","","","","","","","","",""
"","time_out","","html-keyboard-response","509","417563","0.0-1.0-755.0-0.0","0","0","87296","","null","","","null","83","","","","","","","","","","","","","","","",""
"","ITI","","html-keyboard-response","510","418565","0.0-1.0-756.0","0","0","87296","","null","","","null","83","","","","","","","","","","","","","","","NaN",""
"","S1","","html-keyboard-response","511","418819","0.0-1.0-758.0","0","0","87296","","null","","","null","84","","","","","","","","","","","","","","","",""
"","ISI","","html-keyboard-response","512","419322","0.0-1.0-759.0","0","0","87296","","null","","","null","84","NaN","","","","","","","","","","","","","","",""
"","S2","","html-keyboard-response","513","419509","0.0-1.0-760.0","0","0","87296","","184","","","68","84","","d","2","84","training","adjacent","AB","1","2","L.jpg","M.jpg","1","1","1","",""
"","feedback","","html-keyboard-response","514","420514","0.0-1.0-762.0-0.0","0","0","87296","","null","","","null","84","","","","","","","","","","","","","","","",""
"","ITI","","html-keyboard-response","515","421517","0.0-1.0-765.0","0","0","87296","","null","","","null","84","","","","","","","","","","","","","","","NaN",""
"","S1","","html-keyboard-response","516","421782","0.0-1.0-767.0","0","0","87296","","null","","","null","85","","","","","","","","","","","","","","","",""
"","ISI","","html-keyboard-response","517","422285","0.0-1.0-768.0","0","0","87296","","null","","","null","85","NaN","","","","","","","","","","","","","","",""
"","S2","","html-keyboard-response","518","422454","0.0-1.0-769.0","0","0","87296","","166","","","68","85","","d","2","85","training","adjacent","CB","3","2","P.jpg","M.jpg","1","0","0","",""
"","feedback","","html-keyboard-response","519","423459","0.0-1.0-771.0-0.0","0","0","87296","","null","","","null","85","","","","","","","","","","","","","","","",""
"","time_out","","html-keyboard-response","520","425463","0.0-1.0-773.0-0.0","0","0","87296","","null","","","null","85","","","","","","","","","","","","","","","",""
"","ITI","","html-keyboard-response","521","426470","0.0-1.0-774.0","0","0","87296","","null","","","null","85","","","","","","","","","","","","","","","NaN",""
"","S1","","html-keyboard-response","522","426724","0.0-1.0-776.0","0","0","87296","","null","","","null","86","","","","","","","","","","","","","","","",""
"","ISI","","html-keyboard-response","523","427228","0.0-1.0-777.0","0","0","87296","","null","","","null","86","NaN","","","","","","","","","","","","","","",""
"","S2","","html-keyboard-response","524","427414","0.0-1.0-778.0","0","0","87296","","184","","","75","86","","k","2","86","training","adjacent","GF","7","6","O.jpg","N.jpg","0","0","1","",""
"","feedback","","html-keyboard-response","525","428418","0.0-1.0-780.0-0.0","0","0","87296","","null","","","null","86","","","","","","","","","","","","","","","",""
"","ITI","","html-keyboard-response","526","429421","0.0-1.0-783.0","0","0","87296","","null","","","null","86","","","","","","","","","","","","","","","NaN",""
"","S1","","html-keyboard-response","527","429674","0.0-1.0-785.0","0","0","87296","","null","","","null","87","","","","","","","","","","","","","","","",""
"","ISI","","html-keyboard-response","528","430179","0.0-1.0-786.0","0","0","87296","","null","","","null","87","NaN","","","","","","","","","","","","","","",""
"","S2","","html-keyboard-response","529","430433","0.0-1.0-787.0","0","0","87296","","null","","","null","87","","NaN","","","","","","","","","","","","","",""
"","response","","html-keyboard-response","530","430566","0.0-1.0-788.0-0.0","0","0","87296","","130","","","75","87","","","2","87","training","adjacent","FG","6","7","N.jpg","O.jpg","0","1","0","",""
"","feedback","","html-keyboard-response","531","431569","0.0-1.0-789.0-0.0","0","0","87296","","null","","","null","87","","","","","","","","","","","","","","","",""
"","time_out","","html-keyboard-response","532","433572","0.0-1.0-791.0-0.0","0","0","87296","","null","","","null","87","","","","","","","","","","","","","","","",""
"","ITI","","html-keyboard-response","533","434579","0.0-1.0-792.0","0","0","87296","","null","","","null","87","","","","","","","","","","","","","","","NaN",""
"","S1","","html-keyboard-response","534","434833","0.0-1.0-794.0","0","0","87296","","null","","","null","88","","","","","","","","","","","","","","","",""
"","ISI","","html-keyboard-response","535","435337","0.0-1.0-795.0","0","0","87296","","null","","","null","88","NaN","","","","","","","","","","","","","","",""
"","S2","","html-keyboard-response","536","435427","0.0-1.0-796.0","0","0","87296","","87","","","68","88","","d","2","88","training","adjacent","AB","1","2","L.jpg","M.jpg","1","1","1","",""
"","feedback","","html-keyboard-response","537","436431","0.0-1.0-798.0-0.0","0","0","87296","","null","","","null","88","","","","","","","","","","","","","","","",""
"","ITI","","html-keyboard-response","538","437435","0.0-1.0-801.0","0","0","87296","","null","","","null","88","","","","","","","","","","","","","","","NaN",""
"","S1","","html-keyboard-response","539","437689","0.0-1.0-803.0","0","0","87296","","null","","","null","89","","","","","","","","","","","","","","","",""
"","ISI","","html-keyboard-response","540","438194","0.0-1.0-804.0","0","0","87296","","null","","","null","89","NaN","","","","","","","","","","","","","","",""
"","S2","","html-keyboard-response","541","438447","0.0-1.0-805.0","0","0","87296","","null","","","null","89","","NaN","","","","","","","","","","","","","",""
"","response","","html-keyboard-response","542","438597","0.0-1.0-806.0-0.0","0","0","87296","","148","","","75","89","","","2","89","training","adjacent","EF","5","6","R.jpg","N.jpg","0","1","0","",""
"","feedback","","html-keyboard-response","543","439600","0.0-1.0-807.0-0.0","0","0","87296","","null","","","null","89","","","","","","","","","","","","","","","",""
"","time_out","","html-keyboard-response","544","441603","0.0-1.0-809.0-0.0","0","0","87296","","null","","","null","89","","","","","","","","","","","","","","","",""
"","ITI","","html-keyboard-response","545","442607","0.0-1.0-810.0","0","0","87296","","null","","","null","89","","","","","","","","","","","","","","","NaN",""
"","S1","","html-keyboard-response","546","442860","0.0-1.0-812.0","0","0","87296","","null","","","null","90","","","","","","","","","","","","","","","",""
"","ISI","","html-keyboard-response","547","443363","0.0-1.0-813.0","0","0","87296","","null","","","null","90","NaN","","","","","","","","","","","","","","",""
"","S2","","html-keyboard-response","548","443595","0.0-1.0-814.0","0","0","87296","","229","","","68","90","","d","2","90","training","adjacent","GF","7","6","O.jpg","N.jpg","1","0","0","",""
"","feedback","","html-keyboard-response","549","444598","0.0-1.0-816.0-0.0","0","0","87296","","null","","","null","90","","","","","","","","","","","","","","","",""
"","time_out","","html-keyboard-response","550","446601","0.0-1.0-818.0-0.0","0","0","87296","","null","","","null","90","","","","","","","","","","","","","","","",""
"","ITI","","html-keyboard-response","551","447611","0.0-1.0-819.0","0","0","87296","","null","","","null","90","","","","","","","","","","","","","","","NaN",""
"","S1","","html-keyboard-response","552","447865","0.0-1.0-821.0","0","0","87296","","null","","","null","91","","","","","","","","","","","","","","","",""
"","ISI","","html-keyboard-response","553","448367","0.0-1.0-822.0","0","0","87296","","499","","","68","91","d","","","","","","","","","","","","","","",""
"","S2","","html-keyboard-response","554","448622","0.0-1.0-823.0","0","0","87296","","null","","","null","91","","NaN","","","","","","","","","","","","","",""
"","response","","html-keyboard-response","555","448779","0.0-1.0-824.0-0.0","0","0","87296","","154","","","68","91","","","2","91","training","adjacent","DC","4","3","Q.jpg","P.jpg","1","0","0","",""
"","feedback","","html-keyboard-response","556","449783","0.0-1.0-825.0-0.0","0","0","87296","","null","","","null","91","","","","","","","","","","","","","","","",""
"","time_out","","html-keyboard-response","557","451792","0.0-1.0-827.0-0.0","0","0","87296","","null","","","null","91","","","","","","","","","","","","","","","",""
"","ITI","","html-keyboard-response","558","452794","0.0-1.0-828.0","0","0","87296","","null","","","null","91","","","","","","","","","","","","","","","NaN",""
"","S1","","html-keyboard-response","559","453046","0.0-1.0-830.0","0","0","87296","","null","","","null","92","","","","","","","","","","","","","","","",""
"","ISI","","html-keyboard-response","560","453549","0.0-1.0-831.0","0","0","87296","","null","","","null","92","NaN","","","","","","","","","","","","","","",""
"","S2","","html-keyboard-response","561","453731","0.0-1.0-832.0","0","0","87296","","179","","","68","92","","d","2","92","training","adjacent","GF","7","6","O.jpg","N.jpg","1","0","0","",""
"","feedback","","html-keyboard-response","562","454736","0.0-1.0-834.0-0.0","0","0","87296","","null","","","null","92","","","","","","","","","","","","","","","",""
"","time_out","","html-keyboard-response","563","456739","0.0-1.0-836.0-0.0","0","0","87296","","null","","","null","92","","","","","","","","","","","","","","","",""
"","ITI","","html-keyboard-response","564","457744","0.0-1.0-837.0","0","0","87296","","null","","","null","92","","","","","","","","","","","","","","","NaN",""
"","S1","","html-keyboard-response","565","458000","0.0-1.0-839.0","0","0","87296","","null","","","null","93","","","","","","","","","","","","","","","",""
"","ISI","","html-keyboard-response","566","458503","0.0-1.0-840.0","0","0","87296","","null","","","null","93","NaN","","","","","","","","","","","","","","",""
"","S2","","html-keyboard-response","567","458583","0.0-1.0-841.0","0","0","87296","","78","","","68","93","","d","2","93","training","adjacent","FG","6","7","N.jpg","O.jpg","1","1","1","",""
"","feedback","","html-keyboard-response","568","459586","0.0-1.0-843.0-0.0","0","0","87296","","null","","","null","93","","","","","","","","","","","","","","","",""
"","ITI","","html-keyboard-response","569","460595","0.0-1.0-846.0","0","0","87296","","null","","","null","93","","","","","","","","","","","","","","","NaN",""
"","S1","","html-keyboard-response","570","460850","0.0-1.0-848.0","0","0","87296","","null","","","null","94","","","","","","","","","","","","","","","",""
"","ISI","","html-keyboard-response","571","461353","0.0-1.0-849.0","0","0","87296","","452","","","68","94","d","","","","","","","","","","","","","","",""
"","S2","","html-keyboard-response","572","461607","0.0-1.0-850.0","0","0","87296","","null","","","null","94","","NaN","","","","","","","","","","","","","",""
"","response","","html-keyboard-response","573","461662","0.0-1.0-851.0-0.0","0","0","87296","","52","","","68","94","","","2","94","training","adjacent","DE","4","5","Q.jpg","R.jpg","1","1","1","",""
"","feedback","","html-keyboard-response","574","462668","0.0-1.0-852.0-0.0","0","0","87296","","null","","","null","94","","","","","","","","","","","","","","","",""
"","ITI","","html-keyboard-response","575","463675","0.0-1.0-855.0","0","0","87296","","null","","","null","94","","","","","","","","","","","","","","","NaN",""
"","S1","","html-keyboard-response","576","463929","0.0-1.0-857.0","0","0","87296","","null","","","null","95","","","","","","","","","","","","","","","",""
"","ISI","","html-keyboard-response","577","464432","0.0-1.0-858.0","0","0","87296","","null","","","null","95","NaN","","","","","","","","","","","","","","",""
"","S2","","html-keyboard-response","578","464650","0.0-1.0-859.0","0","0","87296","","215","","","75","95","","k","2","95","training","adjacent","ED","5","4","R.jpg","Q.jpg","0","0","1","",""
"","feedback","","html-keyboard-response","579","465659","0.0-1.0-861.0-0.0","0","0","87296","","null","","","null","95","","","","","","","","","","","","","","","",""
"","ITI","","html-keyboard-response","580","466662","0.0-1.0-864.0","0","0","87296","","null","","","null","95","","","","","","","","","","","","","","","NaN",""
"","block_over","","html-keyboard-response","581","468773","0.0-1.0-865.0-0.0","0","0","87296","","2110","","","32","95","","","","","","","","","","","","","","","",""
