"success","ttype","start_time","trial_type","trial_index","time_elapsed","internal_node_id","warning","missed_checkup","PID","view_history","rt","responses","repeat_instructions","key_press","index","keypress_isi","keypress_S2","block","trial_num","phase","group_type","pair_type","S1_stim","S2_stim","S1_img","S2_img","S1_chosen","S1_higher","accuracy","keypress_iti","total_bonus_tally"
"true","full_screen","d03032023hr2002","fullscreen","0","10742","0.0-0.0","0","0","34315","","","","","","","","","","","","","","","","","","","","","",""
"","instructions","","instructions","1","92739","0.0-1.0-0.0-0.0","0","0","34315","[{""page_index"":0,""viewing_time"":14917},{""page_index"":1,""viewing_time"":50128},{""page_index"":2,""viewing_time"":12318},{""page_index"":3,""viewing_time"":4621}]","81986","","","","","","","","","","","","","","","","","","","",""
"","comprehension_check","","survey-multi-choice","2","117540","0.0-1.0-0.0-1.0","0","0","34315","","24782","{""Q0"":""True"",""Q1"":""K"",""Q2"":""Once the second image appears and while the screen 'MAKE A CHOICE' is shown"",""Q3"":""Green mark"",""Q4"":""either D or K""}","0","","","","","","","","","","","","","","","","","",""
"","start_exp","","html-keyboard-response","3","120709","0.0-1.0-1.0","0","0","34315","","3161","","","32","","","","","","","","","","","","","","","","",""
"","S1","","html-keyboard-response","4","120965","0.0-1.0-2.0","0","0","34315","","null","","","null","0","","","","","","","","","","","","","","","",""
"","ISI","","html-keyboard-response","5","121475","0.0-1.0-3.0","0","0","34315","","null","","","null","0","NaN","","","","","","","","","","","","","","",""
"","S2","","html-keyboard-response","6","121732","0.0-1.0-4.0","0","0","34315","","null","","","null","0","","NaN","","","","","","","","","","","","","",""
"","response","","html-keyboard-response","7","123487","0.0-1.0-5.0-0.0","0","0","34315","","null","","","null","0","","","1","0","training","adjacent","DC","4","3","P.jpg","L.jpg","NaN","0","0","",""
"","too_slow_prompt","","html-keyboard-response","8","124496","0.0-1.0-7.0-0.0","1","0","34315","","null","","","null","","","","","","","","","","","","","","","","",""
"","time_out","","html-keyboard-response","9","126503","0.0-1.0-8.0-0.0","0","0","34315","","null","","","null","0","","","","","","","","","","","","","","","",""
"","ITI","","html-keyboard-response","10","127511","0.0-1.0-9.0","0","0","34315","","null","","","null","0","","","","","","","","","","","","","","","NaN",""
"","S1","","html-keyboard-response","11","127765","0.0-1.0-11.0","0","0","34315","","null","","","null","1","","","","","","","","","","","","","","","",""
"","ISI","","html-keyboard-response","12","128269","0.0-1.0-12.0","0","0","34315","","null","","","null","1","NaN","","","","","","","","","","","","","","",""
"","S2","","html-keyboard-response","13","128526","0.0-1.0-13.0","0","0","34315","","null","","","null","1","","NaN","","","","","","","","","","","","","",""
"","response","","html-keyboard-response","14","129072","0.0-1.0-14.0-0.0","0","0","34315","","541","","","75","1","","","1","1","training","adjacent","EF","5","6","M.jpg","Q.jpg","1","1","1","",""
"","feedback","","html-keyboard-response","15","130078","0.0-1.0-15.0-0.0","0","0","34315","","null","","","null","1","","","","","","","","","","","","","","","",""
"","ITI","","html-keyboard-response","16","131083","0.0-1.0-18.0","0","0","34315","","null","","","null","1","","","","","","","","","","","","","","","NaN",""
"","S1","","html-keyboard-response","17","131338","0.0-1.0-20.0","0","0","34315","","null","","","null","2","","","","","","","","","","","","","","","",""
"","ISI","","html-keyboard-response","18","131842","0.0-1.0-21.0","0","0","34315","","null","","","null","2","NaN","","","","","","","","","","","","","","",""
"","S2","","html-keyboard-response","19","132099","0.0-1.0-22.0","0","0","34315","","null","","","null","2","","NaN","","","","","","","","","","","","","",""
"","response","","html-keyboard-response","20","132719","0.0-1.0-23.0-0.0","0","0","34315","","614","","","75","2","","","1","2","training","adjacent","AB","1","2","O.jpg","N.jpg","1","1","1","",""
"","feedback","","html-keyboard-response","21","133726","0.0-1.0-24.0-0.0","0","0","34315","","null","","","null","2","","","","","","","","","","","","","","","",""
"","ITI","","html-keyboard-response","22","134733","0.0-1.0-27.0","0","0","34315","","null","","","null","2","","","","","","","","","","","","","","","NaN",""
"","S1","","html-keyboard-response","23","134987","0.0-1.0-29.0","0","0","34315","","null","","","null","3","","","","","","","","","","","","","","","",""
"","ISI","","html-keyboard-response","24","135494","0.0-1.0-30.0","0","0","34315","","null","","","null","3","NaN","","","","","","","","","","","","","","",""
"","S2","","html-keyboard-response","25","135750","0.0-1.0-31.0","0","0","34315","","null","","","null","3","","NaN","","","","","","","","","","","","","",""
"","response","","html-keyboard-response","26","135997","0.0-1.0-32.0-0.0","0","0","34315","","242","","","68","3","","","1","3","training","adjacent","GF","7","6","R.jpg","Q.jpg","0","0","1","",""
"","feedback","","html-keyboard-response","27","137005","0.0-1.0-33.0-0.0","0","0","34315","","null","","","null","3","","","","","","","","","","","","","","","",""
"","ITI","","html-keyboard-response","28","138012","0.0-1.0-36.0","0","0","34315","","null","","","null","3","","","","","","","","","","","","","","","NaN",""
"","S1","","html-keyboard-response","29","138267","0.0-1.0-38.0","0","0","34315","","null","","","null","4","","","","","","","","","","","","","","","",""
"","ISI","","html-keyboard-response","30","138772","0.0-1.0-39.0","0","0","34315","","null","","","null","4","NaN","","","","","","","","","","","","","","",""
"","S2","","html-keyboard-response","31","139028","0.0-1.0-40.0","0","0","34315","","null","","","null","4","","NaN","","","","","","","","","","","","","",""
"","response","","html-keyboard-response","32","140188","0.0-1.0-41.0-0.0","0","0","34315","","1151","","","68","4","","","1","4","training","adjacent","BA","2","1","N.jpg","O.jpg","0","0","1","",""
"","feedback","","html-keyboard-response","33","141199","0.0-1.0-42.0-0.0","0","0","34315","","null","","","null","4","","","","","","","","","","","","","","","",""
"","ITI","","html-keyboard-response","34","142206","0.0-1.0-45.0","0","0","34315","","null","","","null","4","","","","","","","","","","","","","","","NaN",""
"","S1","","html-keyboard-response","35","142463","0.0-1.0-47.0","0","0","34315","","null","","","null","5","","","","","","","","","","","","","","","",""
"","ISI","","html-keyboard-response","36","142968","0.0-1.0-48.0","0","0","34315","","null","","","null","5","NaN","","","","","","","","","","","","","","",""
"","S2","","html-keyboard-response","37","143224","0.0-1.0-49.0","0","0","34315","","null","","","null","5","","NaN","","","","","","","","","","","","","",""
"","response","","html-keyboard-response","38","143681","0.0-1.0-50.0-0.0","0","0","34315","","453","","","75","5","","","1","5","training","adjacent","EF","5","6","M.jpg","Q.jpg","1","1","1","",""
"","feedback","","html-keyboard-response","39","144696","0.0-1.0-51.0-0.0","0","0","34315","","null","","","null","5","","","","","","","","","","","","","","","",""
"","ITI","","html-keyboard-response","40","145723","0.0-1.0-54.0","0","0","34315","","null","","","null","5","","","","","","","","","","","","","","","NaN",""
"","S1","","html-keyboard-response","41","145979","0.0-1.0-56.0","0","0","34315","","null","","","null","6","","","","","","","","","","","","","","","",""
"","ISI","","html-keyboard-response","42","146484","0.0-1.0-57.0","0","0","34315","","null","","","null","6","NaN","","","","","","","","","","","","","","",""
"","S2","","html-keyboard-response","43","146740","0.0-1.0-58.0","0","0","34315","","null","","","null","6","","NaN","","","","","","","","","","","","","",""
"","response","","html-keyboard-response","44","147374","0.0-1.0-59.0-0.0","0","0","34315","","630","","","75","6","","","1","6","training","adjacent","DE","4","5","P.jpg","M.jpg","1","1","1","",""
"","feedback","","html-keyboard-response","45","148379","0.0-1.0-60.0-0.0","0","0","34315","","null","","","null","6","","","","","","","","","","","","","","","",""
"","ITI","","html-keyboard-response","46","149385","0.0-1.0-63.0","0","0","34315","","null","","","null","6","","","","","","","","","","","","","","","NaN",""
"","S1","","html-keyboard-response","47","149644","0.0-1.0-65.0","0","0","34315","","null","","","null","7","","","","","","","","","","","","","","","",""
"","ISI","","html-keyboard-response","48","150152","0.0-1.0-66.0","0","0","34315","","null","","","null","7","NaN","","","","","","","","","","","","","","",""
"","S2","","html-keyboard-response","49","150408","0.0-1.0-67.0","0","0","34315","","null","","","null","7","","NaN","","","","","","","","","","","","","",""
"","response","","html-keyboard-response","50","150853","0.0-1.0-68.0-0.0","0","0","34315","","439","","","68","7","","","1","7","training","adjacent","CD","3","4","L.jpg","P.jpg","0","1","0","",""
"","feedback","","html-keyboard-response","51","151860","0.0-1.0-69.0-0.0","0","0","34315","","null","","","null","7","","","","","","","","","","","","","","","",""
"","time_out","","html-keyboard-response","52","153865","0.0-1.0-71.0-0.0","0","0","34315","","null","","","null","7","","","","","","","","","","","","","","","",""
"","ITI","","html-keyboard-response","53","154870","0.0-1.0-72.0","0","0","34315","","null","","","null","7","","","","","","","","","","","","","","","NaN",""
"","S1","","html-keyboard-response","54","155124","0.0-1.0-74.0","0","0","34315","","null","","","null","8","","","","","","","","","","","","","","","",""
"","ISI","","html-keyboard-response","55","155630","0.0-1.0-75.0","0","0","34315","","null","","","null","8","NaN","","","","","","","","","","","","","","",""
"","S2","","html-keyboard-response","56","155887","0.0-1.0-76.0","0","0","34315","","null","","","null","8","","NaN","","","","","","","","","","","","","",""
"","response","","html-keyboard-response","57","156701","0.0-1.0-77.0-0.0","0","0","34315","","809","","","75","8","","","1","8","training","adjacent","AB","1","2","O.jpg","N.jpg","1","1","1","",""
"","feedback","","html-keyboard-response","58","157706","0.0-1.0-78.0-0.0","0","0","34315","","null","","","null","8","","","","","","","","","","","","","","","",""
"","ITI","","html-keyboard-response","59","158713","0.0-1.0-81.0","0","0","34315","","null","","","null","8","","","","","","","","","","","","","","","NaN",""
"","S1","","html-keyboard-response","60","158968","0.0-1.0-83.0","0","0","34315","","null","","","null","9","","","","","","","","","","","","","","","",""
"","ISI","","html-keyboard-response","61","159476","0.0-1.0-84.0","0","0","34315","","null","","","null","9","NaN","","","","","","","","","","","","","","",""
"","S2","","html-keyboard-response","62","159733","0.0-1.0-85.0","0","0","34315","","null","","","null","9","","NaN","","","","","","","","","","","","","",""
"","response","","html-keyboard-response","63","160065","0.0-1.0-86.0-0.0","0","0","34315","","329","","","75","9","","","1","9","training","adjacent","DE","4","5","P.jpg","M.jpg","1","1","1","",""
"","feedback","","html-keyboard-response","64","161074","0.0-1.0-87.0-0.0","0","0","34315","","null","","","null","9","","","","","","","","","","","","","","","",""
"","ITI","","html-keyboard-response","65","162081","0.0-1.0-90.0","0","0","34315","","null","","","null","9","","","","","","","","","","","","","","","NaN",""
"","S1","","html-keyboard-response","66","162336","0.0-1.0-92.0","0","0","34315","","null","","","null","10","","","","","","","","","","","","","","","",""
"","ISI","","html-keyboard-response","67","162842","0.0-1.0-93.0","0","0","34315","","null","","","null","10","NaN","","","","","","","","","","","","","","",""
"","S2","","html-keyboard-response","68","163100","0.0-1.0-94.0","0","0","34315","","null","","","null","10","","NaN","","","","","","","","","","","","","",""
"","response","","html-keyboard-response","69","163626","0.0-1.0-95.0-0.0","0","0","34315","","521","","","75","10","","","1","10","training","adjacent","AB","1","2","O.jpg","N.jpg","1","1","1","",""
"","feedback","","html-keyboard-response","70","164631","0.0-1.0-96.0-0.0","0","0","34315","","null","","","null","10","","","","","","","","","","","","","","","",""
"","ITI","","html-keyboard-response","71","165635","0.0-1.0-99.0","0","0","34315","","null","","","null","10","","","","","","","","","","","","","","","NaN",""
"","S1","","html-keyboard-response","72","165889","0.0-1.0-101.0","0","0","34315","","null","","","null","11","","","","","","","","","","","","","","","",""
"","ISI","","html-keyboard-response","73","166393","0.0-1.0-102.0","0","0","34315","","null","","","null","11","NaN","","","","","","","","","","","","","","",""
"","S2","","html-keyboard-response","74","166651","0.0-1.0-103.0","0","0","34315","","null","","","null","11","","NaN","","","","","","","","","","","","","",""
"","response","","html-keyboard-response","75","166946","0.0-1.0-104.0-0.0","0","0","34315","","291","","","68","11","","","1","11","training","adjacent","FE","6","5","Q.jpg","M.jpg","0","0","1","",""
"","feedback","","html-keyboard-response","76","167956","0.0-1.0-105.0-0.0","0","0","34315","","null","","","null","11","","","","","","","","","","","","","","","",""
"","ITI","","html-keyboard-response","77","168963","0.0-1.0-108.0","0","0","34315","","null","","","null","11","","","","","","","","","","","","","","","NaN",""
"","S1","","html-keyboard-response","78","169217","0.0-1.0-110.0","0","0","34315","","null","","","null","12","","","","","","","","","","","","","","","",""
"","ISI","","html-keyboard-response","79","169723","0.0-1.0-111.0","0","0","34315","","null","","","null","12","NaN","","","","","","","","","","","","","","",""
"","S2","","html-keyboard-response","80","169981","0.0-1.0-112.0","0","0","34315","","null","","","null","12","","NaN","","","","","","","","","","","","","",""
"","response","","html-keyboard-response","81","170455","0.0-1.0-113.0-0.0","0","0","34315","","465","","","75","12","","","1","12","training","adjacent","CB","3","2","L.jpg","N.jpg","1","0","0","",""
"","feedback","","html-keyboard-response","82","171466","0.0-1.0-114.0-0.0","0","0","34315","","null","","","null","12","","","","","","","","","","","","","","","",""
"","time_out","","html-keyboard-response","83","173472","0.0-1.0-116.0-0.0","0","0","34315","","null","","","null","12","","","","","","","","","","","","","","","",""
"","ITI","","html-keyboard-response","84","174484","0.0-1.0-117.0","0","0","34315","","null","","","null","12","","","","","","","","","","","","","","","NaN",""
"","S1","","html-keyboard-response","85","174740","0.0-1.0-119.0","0","0","34315","","null","","","null","13","","","","","","","","","","","","","","","",""
"","ISI","","html-keyboard-response","86","175246","0.0-1.0-120.0","0","0","34315","","null","","","null","13","NaN","","","","","","","","","","","","","","",""
"","S2","","html-keyboard-response","87","175503","0.0-1.0-121.0","0","0","34315","","null","","","null","13","","NaN","","","","","","","","","","","","","",""
"","response","","html-keyboard-response","88","176097","0.0-1.0-122.0-0.0","0","0","34315","","590","","","68","13","","","1","13","training","adjacent","DE","4","5","P.jpg","M.jpg","0","1","0","",""
"","feedback","","html-keyboard-response","89","177104","0.0-1.0-123.0-0.0","0","0","34315","","null","","","null","13","","","","","","","","","","","","","","","",""
"","time_out","","html-keyboard-response","90","179115","0.0-1.0-125.0-0.0","0","0","34315","","null","","","null","13","","","","","","","","","","","","","","","",""
"","ITI","","html-keyboard-response","91","180120","0.0-1.0-126.0","0","0","34315","","null","","","null","13","","","","","","","","","","","","","","","NaN",""
"","S1","","html-keyboard-response","92","180377","0.0-1.0-128.0","0","0","34315","","null","","","null","14","","","","","","","","","","","","","","","",""
"","ISI","","html-keyboard-response","93","180883","0.0-1.0-129.0","0","0","34315","","null","","","null","14","NaN","","","","","","","","","","","","","","",""
"","S2","","html-keyboard-response","94","181142","0.0-1.0-130.0","0","0","34315","","null","","","null","14","","NaN","","","","","","","","","","","","","",""
"","response","","html-keyboard-response","95","181794","0.0-1.0-131.0-0.0","0","0","34315","","646","","","68","14","","","1","14","training","adjacent","CD","3","4","L.jpg","P.jpg","0","1","0","",""
"","feedback","","html-keyboard-response","96","182800","0.0-1.0-132.0-0.0","0","0","34315","","null","","","null","14","","","","","","","","","","","","","","","",""
"","time_out","","html-keyboard-response","97","184805","0.0-1.0-134.0-0.0","0","0","34315","","null","","","null","14","","","","","","","","","","","","","","","",""
"","ITI","","html-keyboard-response","98","185808","0.0-1.0-135.0","0","0","34315","","null","","","null","14","","","","","","","","","","","","","","","NaN",""
"","S1","","html-keyboard-response","99","186063","0.0-1.0-137.0","0","0","34315","","null","","","null","15","","","","","","","","","","","","","","","",""
"","ISI","","html-keyboard-response","100","186568","0.0-1.0-138.0","0","0","34315","","null","","","null","15","NaN","","","","","","","","","","","","","","",""
"","S2","","html-keyboard-response","101","186824","0.0-1.0-139.0","0","0","34315","","null","","","null","15","","NaN","","","","","","","","","","","","","",""
"","response","","html-keyboard-response","102","187886","0.0-1.0-140.0-0.0","0","0","34315","","1055","","","75","15","","","1","15","training","adjacent","CD","3","4","L.jpg","P.jpg","1","1","1","",""
"","feedback","","html-keyboard-response","103","188892","0.0-1.0-141.0-0.0","0","0","34315","","null","","","null","15","","","","","","","","","","","","","","","",""
"","ITI","","html-keyboard-response","104","189901","0.0-1.0-144.0","0","0","34315","","null","","","null","15","","","","","","","","","","","","","","","NaN",""
"","S1","","html-keyboard-response","105","190157","0.0-1.0-146.0","0","0","34315","","null","","","null","16","","","","","","","","","","","","","","","",""
"","ISI","","html-keyboard-response","106","190660","0.0-1.0-147.0","0","0","34315","","null","","","null","16","NaN","","","","","","","","","","","","","","",""
"","S2","","html-keyboard-response","107","190914","0.0-1.0-148.0","0","0","34315","","null","","","null","16","","NaN","","","","","","","","","","","","","",""
"","response","","html-keyboard-response","108","191785","0.0-1.0-149.0-0.0","0","0","34315","","866","","","75","16","","","1","16","training","adjacent","ED","5","4","M.jpg","P.jpg","1","0","0","",""
"","feedback","","html-keyboard-response","109","192793","0.0-1.0-150.0-0.0","0","0","34315","","null","","","null","16","","","","","","","","","","","","","","","",""
"","time_out","","html-keyboard-response","110","194801","0.0-1.0-152.0-0.0","0","0","34315","","null","","","null","16","","","","","","","","","","","","","","","",""
"","ITI","","html-keyboard-response","111","195807","0.0-1.0-153.0","0","0","34315","","null","","","null","16","","","","","","","","","","","","","","","NaN",""
"","S1","","html-keyboard-response","112","196063","0.0-1.0-155.0","0","0","34315","","null","","","null","17","","","","","","","","","","","","","","","",""
"","ISI","","html-keyboard-response","113","196569","0.0-1.0-156.0","0","0","34315","","null","","","null","17","NaN","","","","","","","","","","","","","","",""
"","S2","","html-keyboard-response","114","196822","0.0-1.0-157.0","0","0","34315","","null","","","null","17","","NaN","","","","","","","","","","","","","",""
"","response","","html-keyboard-response","115","197490","0.0-1.0-158.0-0.0","0","0","34315","","663","","","68","17","","","1","17","training","adjacent","FG","6","7","Q.jpg","R.jpg","0","1","0","",""
"","feedback","","html-keyboard-response","116","198499","0.0-1.0-159.0-0.0","0","0","34315","","null","","","null","17","","","","","","","","","","","","","","","",""
"","time_out","","html-keyboard-response","117","200505","0.0-1.0-161.0-0.0","0","0","34315","","null","","","null","17","","","","","","","","","","","","","","","",""
"","ITI","","html-keyboard-response","118","201510","0.0-1.0-162.0","0","0","34315","","null","","","null","17","","","","","","","","","","","","","","","NaN",""
"","S1","","html-keyboard-response","119","201766","0.0-1.0-164.0","0","0","34315","","null","","","null","18","","","","","","","","","","","","","","","",""
"","ISI","","html-keyboard-response","120","202271","0.0-1.0-165.0","0","0","34315","","null","","","null","18","NaN","","","","","","","","","","","","","","",""
"","S2","","html-keyboard-response","121","202526","0.0-1.0-166.0","0","0","34315","","null","","","null","18","","NaN","","","","","","","","","","","","","",""
"","response","","html-keyboard-response","122","204284","0.0-1.0-167.0-0.0","0","0","34315","","null","","","null","18","","","1","18","training","adjacent","GF","7","6","R.jpg","Q.jpg","NaN","0","0","",""
"","too_slow_prompt","","html-keyboard-response","123","205291","0.0-1.0-169.0-0.0","1","0","34315","","null","","","null","","","","","","","","","","","","","","","","",""
"","time_out","","html-keyboard-response","124","207297","0.0-1.0-170.0-0.0","0","0","34315","","null","","","null","18","","","","","","","","","","","","","","","",""
"","ITI","","html-keyboard-response","125","208305","0.0-1.0-171.0","0","0","34315","","null","","","null","18","","","","","","","","","","","","","","","NaN",""
"","S1","","html-keyboard-response","126","208560","0.0-1.0-173.0","0","0","34315","","null","","","null","19","","","","","","","","","","","","","","","",""
"","ISI","","html-keyboard-response","127","209063","0.0-1.0-174.0","0","0","34315","","null","","","null","19","NaN","","","","","","","","","","","","","","",""
"","S2","","html-keyboard-response","128","209322","0.0-1.0-175.0","0","0","34315","","null","","","null","19","","NaN","","","","","","","","","","","","","",""
"","response","","html-keyboard-response","129","209841","0.0-1.0-176.0-0.0","0","0","34315","","515","","","75","19","","","1","19","training","adjacent","EF","5","6","M.jpg","Q.jpg","1","1","1","",""
"","feedback","","html-keyboard-response","130","210851","0.0-1.0-177.0-0.0","0","0","34315","","null","","","null","19","","","","","","","","","","","","","","","",""
"","ITI","","html-keyboard-response","131","211857","0.0-1.0-180.0","0","0","34315","","null","","","null","19","","","","","","","","","","","","","","","NaN",""
"","S1","","html-keyboard-response","132","212113","0.0-1.0-182.0","0","0","34315","","null","","","null","20","","","","","","","","","","","","","","","",""
"","ISI","","html-keyboard-response","133","212688","0.0-1.0-183.0","0","0","34315","","null","","","null","20","NaN","","","","","","","","","","","","","","",""
"","S2","","html-keyboard-response","134","212941","0.0-1.0-184.0","0","0","34315","","null","","","null","20","","NaN","","","","","","","","","","","","","",""
"","response","","html-keyboard-response","135","213132","0.0-1.0-185.0-0.0","0","0","34315","","186","","","75","20","","","1","20","training","adjacent","BC","2","3","N.jpg","L.jpg","1","1","1","",""
"","feedback","","html-keyboard-response","136","214140","0.0-1.0-186.0-0.0","0","0","34315","","null","","","null","20","","","","","","","","","","","","","","","",""
"","ITI","","html-keyboard-response","137","215148","0.0-1.0-189.0","0","0","34315","","null","","","null","20","","","","","","","","","","","","","","","NaN",""
"","S1","","html-keyboard-response","138","215404","0.0-1.0-191.0","0","0","34315","","null","","","null","21","","","","","","","","","","","","","","","",""
"","ISI","","html-keyboard-response","139","215907","0.0-1.0-192.0","0","0","34315","","null","","","null","21","NaN","","","","","","","","","","","","","","",""
"","S2","","html-keyboard-response","140","216163","0.0-1.0-193.0","0","0","34315","","null","","","null","21","","NaN","","","","","","","","","","","","","",""
"","response","","html-keyboard-response","141","216469","0.0-1.0-194.0-0.0","0","0","34315","","300","","","75","21","","","1","21","training","adjacent","BC","2","3","N.jpg","L.jpg","1","1","1","",""
"","feedback","","html-keyboard-response","142","217476","0.0-1.0-195.0-0.0","0","0","34315","","null","","","null","21","","","","","","","","","","","","","","","",""
"","ITI","","html-keyboard-response","143","218482","0.0-1.0-198.0","0","0","34315","","null","","","null","21","","","","","","","","","","","","","","","NaN",""
"","S1","","html-keyboard-response","144","218738","0.0-1.0-200.0","0","0","34315","","null","","","null","22","","","","","","","","","","","","","","","",""
"","ISI","","html-keyboard-response","145","219241","0.0-1.0-201.0","0","0","34315","","null","","","null","22","NaN","","","","","","","","","","","","","","",""
"","S2","","html-keyboard-response","146","219495","0.0-1.0-202.0","0","0","34315","","null","","","null","22","","NaN","","","","","","","","","","","","","",""
"","response","","html-keyboard-response","147","219974","0.0-1.0-203.0-0.0","0","0","34315","","474","","","75","22","","","1","22","training","adjacent","BA","2","1","N.jpg","O.jpg","1","0","0","",""
"","feedback","","html-keyboard-response","148","221021","0.0-1.0-204.0-0.0","0","0","34315","","null","","","null","22","","","","","","","","","","","","","","","",""
"","time_out","","html-keyboard-response","149","223027","0.0-1.0-206.0-0.0","0","0","34315","","null","","","null","22","","","","","","","","","","","","","","","",""
"","ITI","","html-keyboard-response","150","224033","0.0-1.0-207.0","0","0","34315","","null","","","null","22","","","","","","","","","","","","","","","NaN",""
"","S1","","html-keyboard-response","151","224290","0.0-1.0-209.0","0","0","34315","","null","","","null","23","","","","","","","","","","","","","","","",""
"","ISI","","html-keyboard-response","152","224795","0.0-1.0-210.0","0","0","34315","","null","","","null","23","NaN","","","","","","","","","","","","","","",""
"","S2","","html-keyboard-response","153","225051","0.0-1.0-211.0","0","0","34315","","null","","","null","23","","NaN","","","","","","","","","","","","","",""
"","response","","html-keyboard-response","154","225565","0.0-1.0-212.0-0.0","0","0","34315","","508","","","75","23","","","1","23","training","adjacent","CB","3","2","L.jpg","N.jpg","1","0","0","",""
"","feedback","","html-keyboard-response","155","226576","0.0-1.0-213.0-0.0","0","0","34315","","null","","","null","23","","","","","","","","","","","","","","","",""
"","time_out","","html-keyboard-response","156","228583","0.0-1.0-215.0-0.0","0","0","34315","","null","","","null","23","","","","","","","","","","","","","","","",""
"","ITI","","html-keyboard-response","157","229590","0.0-1.0-216.0","0","0","34315","","null","","","null","23","","","","","","","","","","","","","","","NaN",""
"","S1","","html-keyboard-response","158","229847","0.0-1.0-218.0","0","0","34315","","null","","","null","24","","","","","","","","","","","","","","","",""
"","ISI","","html-keyboard-response","159","230352","0.0-1.0-219.0","0","0","34315","","null","","","null","24","NaN","","","","","","","","","","","","","","",""
"","S2","","html-keyboard-response","160","230608","0.0-1.0-220.0","0","0","34315","","null","","","null","24","","NaN","","","","","","","","","","","","","",""
"","response","","html-keyboard-response","161","231516","0.0-1.0-221.0-0.0","0","0","34315","","904","","","68","24","","","1","24","training","adjacent","FG","6","7","Q.jpg","R.jpg","0","1","0","",""
"","feedback","","html-keyboard-response","162","232523","0.0-1.0-222.0-0.0","0","0","34315","","null","","","null","24","","","","","","","","","","","","","","","",""
"","time_out","","html-keyboard-response","163","234532","0.0-1.0-224.0-0.0","0","0","34315","","null","","","null","24","","","","","","","","","","","","","","","",""
"","ITI","","html-keyboard-response","164","235540","0.0-1.0-225.0","0","0","34315","","null","","","null","24","","","","","","","","","","","","","","","NaN",""
"","S1","","html-keyboard-response","165","235797","0.0-1.0-227.0","0","0","34315","","null","","","null","25","","","","","","","","","","","","","","","",""
"","ISI","","html-keyboard-response","166","236303","0.0-1.0-228.0","0","0","34315","","null","","","null","25","NaN","","","","","","","","","","","","","","",""
"","S2","","html-keyboard-response","167","236558","0.0-1.0-229.0","0","0","34315","","null","","","null","25","","NaN","","","","","","","","","","","","","",""
"","response","","html-keyboard-response","168","236832","0.0-1.0-230.0-0.0","0","0","34315","","270","","","75","25","","","1","25","training","adjacent","DC","4","3","P.jpg","L.jpg","1","0","0","",""
"","feedback","","html-keyboard-response","169","237838","0.0-1.0-231.0-0.0","0","0","34315","","null","","","null","25","","","","","","","","","","","","","","","",""
"","time_out","","html-keyboard-response","170","239845","0.0-1.0-233.0-0.0","0","0","34315","","null","","","null","25","","","","","","","","","","","","","","","",""
"","ITI","","html-keyboard-response","171","240853","0.0-1.0-234.0","0","0","34315","","null","","","null","25","","","","","","","","","","","","","","","NaN",""
"","S1","","html-keyboard-response","172","241110","0.0-1.0-236.0","0","0","34315","","null","","","null","26","","","","","","","","","","","","","","","",""
"","ISI","","html-keyboard-response","173","241615","0.0-1.0-237.0","0","0","34315","","null","","","null","26","NaN","","","","","","","","","","","","","","",""
"","S2","","html-keyboard-response","174","241872","0.0-1.0-238.0","0","0","34315","","null","","","null","26","","NaN","","","","","","","","","","","","","",""
"","response","","html-keyboard-response","175","242248","0.0-1.0-239.0-0.0","0","0","34315","","370","","","75","26","","","1","26","training","adjacent","DC","4","3","P.jpg","L.jpg","1","0","0","",""
"","feedback","","html-keyboard-response","176","243253","0.0-1.0-240.0-0.0","0","0","34315","","null","","","null","26","","","","","","","","","","","","","","","",""
"","time_out","","html-keyboard-response","177","245259","0.0-1.0-242.0-0.0","0","0","34315","","null","","","null","26","","","","","","","","","","","","","","","",""
"","ITI","","html-keyboard-response","178","246267","0.0-1.0-243.0","0","0","34315","","null","","","null","26","","","","","","","","","","","","","","","NaN",""
"","S1","","html-keyboard-response","179","246522","0.0-1.0-245.0","0","0","34315","","null","","","null","27","","","","","","","","","","","","","","","",""
"","ISI","","html-keyboard-response","180","247027","0.0-1.0-246.0","0","0","34315","","null","","","null","27","NaN","","","","","","","","","","","","","","",""
"","S2","","html-keyboard-response","181","247032","0.0-1.0-247.0","0","0","34315","","0","","","68","27","","d","1","27","training","adjacent","CB","3","2","L.jpg","N.jpg","0","0","1","",""
"","feedback","","html-keyboard-response","182","248040","0.0-1.0-249.0-0.0","0","0","34315","","null","","","null","27","","","","","","","","","","","","","","","",""
"","ITI","","html-keyboard-response","183","249047","0.0-1.0-252.0","0","0","34315","","null","","","null","27","","","","","","","","","","","","","","","NaN",""
"","S1","","html-keyboard-response","184","249302","0.0-1.0-254.0","0","0","34315","","null","","","null","28","","","","","","","","","","","","","","","",""
"","ISI","","html-keyboard-response","185","249808","0.0-1.0-255.0","0","0","34315","","null","","","null","28","NaN","","","","","","","","","","","","","","",""
"","S2","","html-keyboard-response","186","250065","0.0-1.0-256.0","0","0","34315","","null","","","null","28","","NaN","","","","","","","","","","","","","",""
"","response","","html-keyboard-response","187","250125","0.0-1.0-257.0-0.0","0","0","34315","","54","","","75","28","","","1","28","training","adjacent","ED","5","4","M.jpg","P.jpg","1","0","0","",""
"","feedback","","html-keyboard-response","188","251130","0.0-1.0-258.0-0.0","0","0","34315","","null","","","null","28","","","","","","","","","","","","","","","",""
"","time_out","","html-keyboard-response","189","253135","0.0-1.0-260.0-0.0","0","0","34315","","null","","","null","28","","","","","","","","","","","","","","","",""
"","ITI","","html-keyboard-response","190","254140","0.0-1.0-261.0","0","0","34315","","null","","","null","28","","","","","","","","","","","","","","","NaN",""
"","S1","","html-keyboard-response","191","254394","0.0-1.0-263.0","0","0","34315","","null","","","null","29","","","","","","","","","","","","","","","",""
"","ISI","","html-keyboard-response","192","254896","0.0-1.0-264.0","0","0","34315","","340","","","68","29","d","","","","","","","","","","","","","","",""
"","S2","","html-keyboard-response","193","255152","0.0-1.0-265.0","0","0","34315","","null","","","null","29","","NaN","","","","","","","","","","","","","",""
"","response","","html-keyboard-response","194","256619","0.0-1.0-266.0-0.0","0","0","34315","","1461","","","68","29","","","1","29","training","adjacent","DE","4","5","P.jpg","M.jpg","0","1","0","",""
"","feedback","","html-keyboard-response","195","257626","0.0-1.0-267.0-0.0","0","0","34315","","null","","","null","29","","","","","","","","","","","","","","","",""
"","time_out","","html-keyboard-response","196","259637","0.0-1.0-269.0-0.0","0","0","34315","","null","","","null","29","","","","","","","","","","","","","","","",""
"","ITI","","html-keyboard-response","197","260655","0.0-1.0-270.0","0","0","34315","","null","","","null","29","","","","","","","","","","","","","","","NaN",""
"","S1","","html-keyboard-response","198","260917","0.0-1.0-272.0","0","0","34315","","null","","","null","30","","","","","","","","","","","","","","","",""
"","ISI","","html-keyboard-response","199","261421","0.0-1.0-273.0","0","0","34315","","null","","","null","30","NaN","","","","","","","","","","","","","","",""
"","S2","","html-keyboard-response","200","261678","0.0-1.0-274.0","0","0","34315","","null","","","null","30","","NaN","","","","","","","","","","","","","",""
"","response","","html-keyboard-response","201","262184","0.0-1.0-275.0-0.0","0","0","34315","","499","","","75","30","","","1","30","training","adjacent","GF","7","6","R.jpg","Q.jpg","1","0","0","",""
"","feedback","","html-keyboard-response","202","263188","0.0-1.0-276.0-0.0","0","0","34315","","null","","","null","30","","","","","","","","","","","","","","","",""
"","time_out","","html-keyboard-response","203","265195","0.0-1.0-278.0-0.0","0","0","34315","","null","","","null","30","","","","","","","","","","","","","","","",""
"","ITI","","html-keyboard-response","204","266204","0.0-1.0-279.0","0","0","34315","","null","","","null","30","","","","","","","","","","","","","","","NaN",""
"","S1","","html-keyboard-response","205","266462","0.0-1.0-281.0","0","0","34315","","null","","","null","31","","","","","","","","","","","","","","","",""
"","ISI","","html-keyboard-response","206","266966","0.0-1.0-282.0","0","0","34315","","null","","","null","31","NaN","","","","","","","","","","","","","","",""
"","S2","","html-keyboard-response","207","267223","0.0-1.0-283.0","0","0","34315","","null","","","null","31","","NaN","","","","","","","","","","","","","",""
"","response","","html-keyboard-response","208","267793","0.0-1.0-284.0-0.0","0","0","34315","","562","","","75","31","","","1","31","training","adjacent","FE","6","5","Q.jpg","M.jpg","1","0","0","",""
"","feedback","","html-keyboard-response","209","268801","0.0-1.0-285.0-0.0","0","0","34315","","null","","","null","31","","","","","","","","","","","","","","","",""
"","time_out","","html-keyboard-response","210","270813","0.0-1.0-287.0-0.0","0","0","34315","","null","","","null","31","","","","","","","","","","","","","","","",""
"","ITI","","html-keyboard-response","211","271819","0.0-1.0-288.0","0","0","34315","","null","","","null","31","","","","","","","","","","","","","","","NaN",""
"","S1","","html-keyboard-response","212","272077","0.0-1.0-290.0","0","0","34315","","null","","","null","32","","","","","","","","","","","","","","","",""
"","ISI","","html-keyboard-response","213","272581","0.0-1.0-291.0","0","0","34315","","341","","","68","32","d","","","","","","","","","","","","","","",""
"","S2","","html-keyboard-response","214","272836","0.0-1.0-292.0","0","0","34315","","null","","","null","32","","NaN","","","","","","","","","","","","","",""
"","response","","html-keyboard-response","215","273693","0.0-1.0-293.0-0.0","0","0","34315","","850","","","68","32","","","1","32","training","adjacent","CB","3","2","L.jpg","N.jpg","0","0","1","",""
"","feedback","","html-keyboard-response","216","274698","0.0-1.0-294.0-0.0","0","0","34315","","null","","","null","32","","","","","","","","","","","","","","","",""
"","ITI","","html-keyboard-response","217","275701","0.0-1.0-297.0","0","0","34315","","null","","","null","32","","","","","","","","","","","","","","","NaN",""
"","S1","","html-keyboard-response","218","275955","0.0-1.0-299.0","0","0","34315","","null","","","null","33","","","","","","","","","","","","","","","",""
"","ISI","","html-keyboard-response","219","276462","0.0-1.0-300.0","0","0","34315","","null","","","null","33","NaN","","","","","","","","","","","","","","",""
"","S2","","html-keyboard-response","220","276532","0.0-1.0-301.0","0","0","34315","","63","","","68","33","","d","1","33","training","adjacent","CD","3","4","L.jpg","P.jpg","0","1","0","",""
"","feedback","","html-keyboard-response","221","277539","0.0-1.0-303.0-0.0","0","0","34315","","null","","","null","33","","","","","","","","","","","","","","","",""
"","time_out","","html-keyboard-response","222","279549","0.0-1.0-305.0-0.0","0","0","34315","","null","","","null","33","","","","","","","","","","","","","","","",""
"","ITI","","html-keyboard-response","223","280557","0.0-1.0-306.0","0","0","34315","","null","","","null","33","","","","","","","","","","","","","","","NaN",""
"","S1","","html-keyboard-response","224","280812","0.0-1.0-308.0","0","0","34315","","null","","","null","34","","","","","","","","","","","","","","","",""
"","ISI","","html-keyboard-response","225","281316","0.0-1.0-309.0","0","0","34315","","null","","","null","34","NaN","","","","","","","","","","","","","","",""
"","S2","","html-keyboard-response","226","281573","0.0-1.0-310.0","0","0","34315","","null","","","null","34","","NaN","","","","","","","","","","","","","",""
"","response","","html-keyboard-response","227","281774","0.0-1.0-311.0-0.0","0","0","34315","","198","","","68","34","","","1","34","training","adjacent","BC","2","3","N.jpg","L.jpg","0","1","0","",""
"","feedback","","html-keyboard-response","228","282780","0.0-1.0-312.0-0.0","0","0","34315","","null","","","null","34","","","","","","","","","","","","","","","",""
"","time_out","","html-keyboard-response","229","284785","0.0-1.0-314.0-0.0","0","0","34315","","null","","","null","34","","","","","","","","","","","","","","","",""
"","ITI","","html-keyboard-response","230","285791","0.0-1.0-315.0","0","0","34315","","null","","","null","34","","","","","","","","","","","","","","","NaN",""
"","S1","","html-keyboard-response","231","286045","0.0-1.0-317.0","0","0","34315","","null","","","null","35","","","","","","","","","","","","","","","",""
"","ISI","","html-keyboard-response","232","286550","0.0-1.0-318.0","0","0","34315","","null","","","null","35","NaN","","","","","","","","","","","","","","",""
"","S2","","html-keyboard-response","233","286803","0.0-1.0-319.0","0","0","34315","","null","","","null","35","","NaN","","","","","","","","","","","","","",""
"","response","","html-keyboard-response","234","287423","0.0-1.0-320.0-0.0","0","0","34315","","613","","","68","35","","","1","35","training","adjacent","AB","1","2","O.jpg","N.jpg","0","1","0","",""
"","feedback","","html-keyboard-response","235","288428","0.0-1.0-321.0-0.0","0","0","34315","","null","","","null","35","","","","","","","","","","","","","","","",""
"","time_out","","html-keyboard-response","236","290437","0.0-1.0-323.0-0.0","0","0","34315","","null","","","null","35","","","","","","","","","","","","","","","",""
"","ITI","","html-keyboard-response","237","291444","0.0-1.0-324.0","0","0","34315","","null","","","null","35","","","","","","","","","","","","","","","NaN",""
"","S1","","html-keyboard-response","238","291698","0.0-1.0-326.0","0","0","34315","","null","","","null","36","","","","","","","","","","","","","","","",""
"","ISI","","html-keyboard-response","239","292202","0.0-1.0-327.0","0","0","34315","","null","","","null","36","NaN","","","","","","","","","","","","","","",""
"","S2","","html-keyboard-response","240","292460","0.0-1.0-328.0","0","0","34315","","null","","","null","36","","NaN","","","","","","","","","","","","","",""
"","response","","html-keyboard-response","241","292857","0.0-1.0-329.0-0.0","0","0","34315","","391","","","75","36","","","1","36","training","adjacent","ED","5","4","M.jpg","P.jpg","1","0","0","",""
"","feedback","","html-keyboard-response","242","293864","0.0-1.0-330.0-0.0","0","0","34315","","null","","","null","36","","","","","","","","","","","","","","","",""
"","time_out","","html-keyboard-response","243","295869","0.0-1.0-332.0-0.0","0","0","34315","","null","","","null","36","","","","","","","","","","","","","","","",""
"","ITI","","html-keyboard-response","244","296874","0.0-1.0-333.0","0","0","34315","","null","","","null","36","","","","","","","","","","","","","","","NaN",""
"","S1","","html-keyboard-response","245","297129","0.0-1.0-335.0","0","0","34315","","null","","","null","37","","","","","","","","","","","","","","","",""
"","ISI","","html-keyboard-response","246","297632","0.0-1.0-336.0","0","0","34315","","null","","","null","37","NaN","","","","","","","","","","","","","","",""
"","S2","","html-keyboard-response","247","297888","0.0-1.0-337.0","0","0","34315","","null","","","null","37","","NaN","","","","","","","","","","","","","",""
"","response","","html-keyboard-response","248","298184","0.0-1.0-338.0-0.0","0","0","34315","","291","","","68","37","","","1","37","training","adjacent","FG","6","7","Q.jpg","R.jpg","0","1","0","",""
"","feedback","","html-keyboard-response","249","299190","0.0-1.0-339.0-0.0","0","0","34315","","null","","","null","37","","","","","","","","","","","","","","","",""
"","time_out","","html-keyboard-response","250","301196","0.0-1.0-341.0-0.0","0","0","34315","","null","","","null","37","","","","","","","","","","","","","","","",""
"","ITI","","html-keyboard-response","251","302200","0.0-1.0-342.0","0","0","34315","","null","","","null","37","","","","","","","","","","","","","","","NaN",""
"","S1","","html-keyboard-response","252","302457","0.0-1.0-344.0","0","0","34315","","null","","","null","38","","","","","","","","","","","","","","","",""
"","ISI","","html-keyboard-response","253","302960","0.0-1.0-345.0","0","0","34315","","null","","","null","38","NaN","","","","","","","","","","","","","","",""
"","S2","","html-keyboard-response","254","303218","0.0-1.0-346.0","0","0","34315","","null","","","null","38","","NaN","","","","","","","","","","","","","",""
"","response","","html-keyboard-response","255","304210","0.0-1.0-347.0-0.0","0","0","34315","","986","","","75","38","","","1","38","training","adjacent","EF","5","6","M.jpg","Q.jpg","1","1","1","",""
"","feedback","","html-keyboard-response","256","305219","0.0-1.0-348.0-0.0","0","0","34315","","null","","","null","38","","","","","","","","","","","","","","","",""
"","ITI","","html-keyboard-response","257","306223","0.0-1.0-351.0","0","0","34315","","null","","","null","38","","","","","","","","","","","","","","","NaN",""
"","S1","","html-keyboard-response","258","306480","0.0-1.0-353.0","0","0","34315","","null","","","null","39","","","","","","","","","","","","","","","",""
"","ISI","","html-keyboard-response","259","306984","0.0-1.0-354.0","0","0","34315","","null","","","null","39","NaN","","","","","","","","","","","","","","",""
"","S2","","html-keyboard-response","260","307239","0.0-1.0-355.0","0","0","34315","","null","","","null","39","","NaN","","","","","","","","","","","","","",""
"","response","","html-keyboard-response","261","307634","0.0-1.0-356.0-0.0","0","0","34315","","390","","","75","39","","","1","39","training","adjacent","BA","2","1","N.jpg","O.jpg","1","0","0","",""
"","feedback","","html-keyboard-response","262","308733","0.0-1.0-357.0-0.0","0","0","34315","","null","","","null","39","","","","","","","","","","","","","","","",""
"","time_out","","html-keyboard-response","263","310736","0.0-1.0-359.0-0.0","0","0","34315","","null","","","null","39","","","","","","","","","","","","","","","",""
"","ITI","","html-keyboard-response","264","311741","0.0-1.0-360.0","0","0","34315","","null","","","null","39","","","","","","","","","","","","","","","NaN",""
"","S1","","html-keyboard-response","265","311997","0.0-1.0-362.0","0","0","34315","","null","","","null","40","","","","","","","","","","","","","","","",""
"","ISI","","html-keyboard-response","266","312501","0.0-1.0-363.0","0","0","34315","","237","","","75","40","k","","","","","","","","","","","","","","",""
"","S2","","html-keyboard-response","267","312758","0.0-1.0-364.0","0","0","34315","","null","","","null","40","","NaN","","","","","","","","","","","","","",""
"","response","","html-keyboard-response","268","313394","0.0-1.0-365.0-0.0","0","0","34315","","630","","","75","40","","","1","40","training","adjacent","FE","6","5","Q.jpg","M.jpg","1","0","0","",""
"","feedback","","html-keyboard-response","269","314404","0.0-1.0-366.0-0.0","0","0","34315","","null","","","null","40","","","","","","","","","","","","","","","",""
"","time_out","","html-keyboard-response","270","316415","0.0-1.0-368.0-0.0","0","0","34315","","null","","","null","40","","","","","","","","","","","","","","","",""
"","ITI","","html-keyboard-response","271","317425","0.0-1.0-369.0","0","0","34315","","null","","","null","40","","","","","","","","","","","","","","","NaN",""
"","S1","","html-keyboard-response","272","317681","0.0-1.0-371.0","0","0","34315","","null","","","null","41","","","","","","","","","","","","","","","",""
"","ISI","","html-keyboard-response","273","318186","0.0-1.0-372.0","0","0","34315","","null","","","null","41","NaN","","","","","","","","","","","","","","",""
"","S2","","html-keyboard-response","274","318441","0.0-1.0-373.0","0","0","34315","","null","","","null","41","","NaN","","","","","","","","","","","","","",""
"","response","","html-keyboard-response","275","319098","0.0-1.0-374.0-0.0","0","0","34315","","651","","","75","41","","","1","41","training","adjacent","GF","7","6","R.jpg","Q.jpg","1","0","0","",""
"","feedback","","html-keyboard-response","276","320104","0.0-1.0-375.0-0.0","0","0","34315","","null","","","null","41","","","","","","","","","","","","","","","",""
"","time_out","","html-keyboard-response","277","322111","0.0-1.0-377.0-0.0","0","0","34315","","null","","","null","41","","","","","","","","","","","","","","","",""
"","ITI","","html-keyboard-response","278","323126","0.0-1.0-378.0","0","0","34315","","null","","","null","41","","","","","","","","","","","","","","","NaN",""
"","S1","","html-keyboard-response","279","323381","0.0-1.0-380.0","0","0","34315","","null","","","null","42","","","","","","","","","","","","","","","",""
"","ISI","","html-keyboard-response","280","323884","0.0-1.0-381.0","0","0","34315","","null","","","null","42","NaN","","","","","","","","","","","","","","",""
"","S2","","html-keyboard-response","281","324138","0.0-1.0-382.0","0","0","34315","","null","","","null","42","","NaN","","","","","","","","","","","","","",""
"","response","","html-keyboard-response","282","324494","0.0-1.0-383.0-0.0","0","0","34315","","349","","","68","42","","","1","42","training","adjacent","FE","6","5","Q.jpg","M.jpg","0","0","1","",""
"","feedback","","html-keyboard-response","283","325500","0.0-1.0-384.0-0.0","0","0","34315","","null","","","null","42","","","","","","","","","","","","","","","",""
"","ITI","","html-keyboard-response","284","326508","0.0-1.0-387.0","0","0","34315","","null","","","null","42","","","","","","","","","","","","","","","NaN",""
"","S1","","html-keyboard-response","285","326763","0.0-1.0-389.0","0","0","34315","","null","","","null","43","","","","","","","","","","","","","","","",""
"","ISI","","html-keyboard-response","286","327267","0.0-1.0-390.0","0","0","34315","","null","","","null","43","NaN","","","","","","","","","","","","","","",""
"","S2","","html-keyboard-response","287","327525","0.0-1.0-391.0","0","0","34315","","null","","","null","43","","NaN","","","","","","","","","","","","","",""
"","response","","html-keyboard-response","288","328245","0.0-1.0-392.0-0.0","0","0","34315","","711","","","68","43","","","1","43","training","adjacent","DC","4","3","P.jpg","L.jpg","0","0","1","",""
"","feedback","","html-keyboard-response","289","329252","0.0-1.0-393.0-0.0","0","0","34315","","null","","","null","43","","","","","","","","","","","","","","","",""
"","ITI","","html-keyboard-response","290","330259","0.0-1.0-396.0","0","0","34315","","null","","","null","43","","","","","","","","","","","","","","","NaN",""
"","S1","","html-keyboard-response","291","330515","0.0-1.0-398.0","0","0","34315","","null","","","null","44","","","","","","","","","","","","","","","",""
"","ISI","","html-keyboard-response","292","331020","0.0-1.0-399.0","0","0","34315","","null","","","null","44","NaN","","","","","","","","","","","","","","",""
"","S2","","html-keyboard-response","293","331276","0.0-1.0-400.0","0","0","34315","","null","","","null","44","","NaN","","","","","","","","","","","","","",""
"","response","","html-keyboard-response","294","331608","0.0-1.0-401.0-0.0","0","0","34315","","328","","","68","44","","","1","44","training","adjacent","ED","5","4","M.jpg","P.jpg","0","0","1","",""
"","feedback","","html-keyboard-response","295","332617","0.0-1.0-402.0-0.0","0","0","34315","","null","","","null","44","","","","","","","","","","","","","","","",""
"","ITI","","html-keyboard-response","296","333626","0.0-1.0-405.0","0","0","34315","","null","","","null","44","","","","","","","","","","","","","","","NaN",""
"","S1","","html-keyboard-response","297","333881","0.0-1.0-407.0","0","0","34315","","null","","","null","45","","","","","","","","","","","","","","","",""
"","ISI","","html-keyboard-response","298","334386","0.0-1.0-408.0","0","0","34315","","null","","","null","45","NaN","","","","","","","","","","","","","","",""
"","S2","","html-keyboard-response","299","334643","0.0-1.0-409.0","0","0","34315","","null","","","null","45","","NaN","","","","","","","","","","","","","",""
"","response","","html-keyboard-response","300","334905","0.0-1.0-410.0-0.0","0","0","34315","","257","","","68","45","","","1","45","training","adjacent","FG","6","7","Q.jpg","R.jpg","0","1","0","",""
"","feedback","","html-keyboard-response","301","335911","0.0-1.0-411.0-0.0","0","0","34315","","null","","","null","45","","","","","","","","","","","","","","","",""
"","time_out","","html-keyboard-response","302","337920","0.0-1.0-413.0-0.0","0","0","34315","","null","","","null","45","","","","","","","","","","","","","","","",""
"","ITI","","html-keyboard-response","303","338925","0.0-1.0-414.0","0","0","34315","","null","","","null","45","","","","","","","","","","","","","","","NaN",""
"","S1","","html-keyboard-response","304","339180","0.0-1.0-416.0","0","0","34315","","null","","","null","46","","","","","","","","","","","","","","","",""
"","ISI","","html-keyboard-response","305","339683","0.0-1.0-417.0","0","0","34315","","null","","","null","46","NaN","","","","","","","","","","","","","","",""
"","S2","","html-keyboard-response","306","339940","0.0-1.0-418.0","0","0","34315","","null","","","null","46","","NaN","","","","","","","","","","","","","",""
"","response","","html-keyboard-response","307","340225","0.0-1.0-419.0-0.0","0","0","34315","","279","","","68","46","","","1","46","training","adjacent","BA","2","1","N.jpg","O.jpg","0","0","1","",""
"","feedback","","html-keyboard-response","308","341231","0.0-1.0-420.0-0.0","0","0","34315","","null","","","null","46","","","","","","","","","","","","","","","",""
"","ITI","","html-keyboard-response","309","342249","0.0-1.0-423.0","0","0","34315","","null","","","null","46","","","","","","","","","","","","","","","NaN",""
"","S1","","html-keyboard-response","310","342504","0.0-1.0-425.0","0","0","34315","","null","","","null","47","","","","","","","","","","","","","","","",""
"","ISI","","html-keyboard-response","311","343009","0.0-1.0-426.0","0","0","34315","","null","","","null","47","NaN","","","","","","","","","","","","","","",""
"","S2","","html-keyboard-response","312","343267","0.0-1.0-427.0","0","0","34315","","null","","","null","47","","NaN","","","","","","","","","","","","","",""
"","response","","html-keyboard-response","313","343867","0.0-1.0-428.0-0.0","0","0","34315","","593","","","68","47","","","1","47","training","adjacent","BC","2","3","N.jpg","L.jpg","0","1","0","",""
"","feedback","","html-keyboard-response","314","344873","0.0-1.0-429.0-0.0","0","0","34315","","null","","","null","47","","","","","","","","","","","","","","","",""
"","time_out","","html-keyboard-response","315","346888","0.0-1.0-431.0-0.0","0","0","34315","","null","","","null","47","","","","","","","","","","","","","","","",""
"","ITI","","html-keyboard-response","316","347894","0.0-1.0-432.0","0","0","34315","","null","","","null","47","","","","","","","","","","","","","","","NaN",""
"","block_over","","html-keyboard-response","317","355926","0.0-1.0-433.0-0.0","0","0","34315","","8014","","","32","47","","","","","","","","","","","","","","","",""
"","S1","","html-keyboard-response","318","356180","0.0-1.0-434.0","0","0","34315","","null","","","null","48","","","","","","","","","","","","","","","",""
"","ISI","","html-keyboard-response","319","356685","0.0-1.0-435.0","0","0","34315","","null","","","null","48","NaN","","","","","","","","","","","","","","",""
"","S2","","html-keyboard-response","320","356942","0.0-1.0-436.0","0","0","34315","","null","","","null","48","","NaN","","","","","","","","","","","","","",""
"","response","","html-keyboard-response","321","357677","0.0-1.0-437.0-0.0","0","0","34315","","729","","","75","48","","","2","48","training","adjacent","FE","6","5","Q.jpg","M.jpg","1","0","0","",""
"","feedback","","html-keyboard-response","322","358685","0.0-1.0-438.0-0.0","0","0","34315","","null","","","null","48","","","","","","","","","","","","","","","",""
"","time_out","","html-keyboard-response","323","360691","0.0-1.0-440.0-0.0","0","0","34315","","null","","","null","48","","","","","","","","","","","","","","","",""
"","ITI","","html-keyboard-response","324","361699","0.0-1.0-441.0","0","0","34315","","null","","","null","48","","","","","","","","","","","","","","","NaN",""
"","S1","","html-keyboard-response","325","361955","0.0-1.0-443.0","0","0","34315","","null","","","null","49","","","","","","","","","","","","","","","",""
"","ISI","","html-keyboard-response","326","362462","0.0-1.0-444.0","0","0","34315","","null","","","null","49","NaN","","","","","","","","","","","","","","",""
"","S2","","html-keyboard-response","327","362624","0.0-1.0-445.0","0","0","34315","","156","","","68","49","","d","2","49","training","adjacent","GF","7","6","R.jpg","Q.jpg","0","0","1","",""
"","feedback","","html-keyboard-response","328","363631","0.0-1.0-447.0-0.0","0","0","34315","","null","","","null","49","","","","","","","","","","","","","","","",""
"","ITI","","html-keyboard-response","329","364637","0.0-1.0-450.0","0","0","34315","","null","","","null","49","","","","","","","","","","","","","","","NaN",""
"","S1","","html-keyboard-response","330","364893","0.0-1.0-452.0","0","0","34315","","null","","","null","50","","","","","","","","","","","","","","","",""
"","ISI","","html-keyboard-response","331","365399","0.0-1.0-453.0","0","0","34315","","null","","","null","50","NaN","","","","","","","","","","","","","","",""
"","S2","","html-keyboard-response","332","365659","0.0-1.0-454.0","0","0","34315","","null","","","null","50","","NaN","","","","","","","","","","","","","",""
"","response","","html-keyboard-response","333","366064","0.0-1.0-455.0-0.0","0","0","34315","","394","","","75","50","","","2","50","training","adjacent","DE","4","5","P.jpg","M.jpg","1","1","1","",""
"","feedback","","html-keyboard-response","334","367071","0.0-1.0-456.0-0.0","0","0","34315","","null","","","null","50","","","","","","","","","","","","","","","",""
"","ITI","","html-keyboard-response","335","368078","0.0-1.0-459.0","0","0","34315","","null","","","null","50","","","","","","","","","","","","","","","NaN",""
"","S1","","html-keyboard-response","336","368335","0.0-1.0-461.0","0","0","34315","","null","","","null","51","","","","","","","","","","","","","","","",""
"","ISI","","html-keyboard-response","337","368842","0.0-1.0-462.0","0","0","34315","","null","","","null","51","NaN","","","","","","","","","","","","","","",""
"","S2","","html-keyboard-response","338","369099","0.0-1.0-463.0","0","0","34315","","null","","","null","51","","NaN","","","","","","","","","","","","","",""
"","response","","html-keyboard-response","339","369647","0.0-1.0-464.0-0.0","0","0","34315","","541","","","75","51","","","2","51","training","adjacent","DC","4","3","P.jpg","L.jpg","1","0","0","",""
"","feedback","","html-keyboard-response","340","370653","0.0-1.0-465.0-0.0","0","0","34315","","null","","","null","51","","","","","","","","","","","","","","","",""
"","time_out","","html-keyboard-response","341","372660","0.0-1.0-467.0-0.0","0","0","34315","","null","","","null","51","","","","","","","","","","","","","","","",""
"","ITI","","html-keyboard-response","342","373666","0.0-1.0-468.0","0","0","34315","","null","","","null","51","","","","","","","","","","","","","","","NaN",""
"","S1","","html-keyboard-response","343","373921","0.0-1.0-470.0","0","0","34315","","null","","","null","52","","","","","","","","","","","","","","","",""
"","ISI","","html-keyboard-response","344","374428","0.0-1.0-471.0","0","0","34315","","null","","","null","52","NaN","","","","","","","","","","","","","","",""
"","S2","","html-keyboard-response","345","374685","0.0-1.0-472.0","0","0","34315","","null","","","null","52","","NaN","","","","","","","","","","","","","",""
"","response","","html-keyboard-response","346","375622","0.0-1.0-473.0-0.0","0","0","34315","","932","","","75","52","","","2","52","training","adjacent","BC","2","3","N.jpg","L.jpg","1","1","1","",""
"","feedback","","html-keyboard-response","347","376630","0.0-1.0-474.0-0.0","0","0","34315","","null","","","null","52","","","","","","","","","","","","","","","",""
"","ITI","","html-keyboard-response","348","377638","0.0-1.0-477.0","0","0","34315","","null","","","null","52","","","","","","","","","","","","","","","NaN",""
"","S1","","html-keyboard-response","349","377893","0.0-1.0-479.0","0","0","34315","","null","","","null","53","","","","","","","","","","","","","","","",""
"","ISI","","html-keyboard-response","350","378399","0.0-1.0-480.0","0","0","34315","","null","","","null","53","NaN","","","","","","","","","","","","","","",""
"","S2","","html-keyboard-response","351","378657","0.0-1.0-481.0","0","0","34315","","null","","","null","53","","NaN","","","","","","","","","","","","","",""
"","response","","html-keyboard-response","352","379547","0.0-1.0-482.0-0.0","0","0","34315","","879","","","75","53","","","2","53","training","adjacent","GF","7","6","R.jpg","Q.jpg","1","0","0","",""
"","feedback","","html-keyboard-response","353","380555","0.0-1.0-483.0-0.0","0","0","34315","","null","","","null","53","","","","","","","","","","","","","","","",""
"","time_out","","html-keyboard-response","354","382561","0.0-1.0-485.0-0.0","0","0","34315","","null","","","null","53","","","","","","","","","","","","","","","",""
"","ITI","","html-keyboard-response","355","383566","0.0-1.0-486.0","0","0","34315","","null","","","null","53","","","","","","","","","","","","","","","NaN",""
"","S1","","html-keyboard-response","356","383820","0.0-1.0-488.0","0","0","34315","","null","","","null","54","","","","","","","","","","","","","","","",""
"","ISI","","html-keyboard-response","357","384324","0.0-1.0-489.0","0","0","34315","","null","","","null","54","NaN","","","","","","","","","","","","","","",""
"","S2","","html-keyboard-response","358","384579","0.0-1.0-490.0","0","0","34315","","null","","","null","54","","NaN","","","","","","","","","","","","","",""
"","response","","html-keyboard-response","359","385871","0.0-1.0-491.0-0.0","0","0","34315","","1283","","","75","54","","","2","54","training","adjacent","EF","5","6","M.jpg","Q.jpg","1","1","1","",""
"","feedback","","html-keyboard-response","360","386876","0.0-1.0-492.0-0.0","0","0","34315","","null","","","null","54","","","","","","","","","","","","","","","",""
"","ITI","","html-keyboard-response","361","387882","0.0-1.0-495.0","0","0","34315","","null","","","null","54","","","","","","","","","","","","","","","NaN",""
"","S1","","html-keyboard-response","362","388136","0.0-1.0-497.0","0","0","34315","","null","","","null","55","","","","","","","","","","","","","","","",""
"","ISI","","html-keyboard-response","363","388641","0.0-1.0-498.0","0","0","34315","","null","","","null","55","NaN","","","","","","","","","","","","","","",""
"","S2","","html-keyboard-response","364","388896","0.0-1.0-499.0","0","0","34315","","null","","","null","55","","NaN","","","","","","","","","","","","","",""
"","response","","html-keyboard-response","365","389351","0.0-1.0-500.0-0.0","0","0","34315","","449","","","75","55","","","2","55","training","adjacent","GF","7","6","R.jpg","Q.jpg","1","0","0","",""
"","feedback","","html-keyboard-response","366","390358","0.0-1.0-501.0-0.0","0","0","34315","","null","","","null","55","","","","","","","","","","","","","","","",""
"","time_out","","html-keyboard-response","367","392363","0.0-1.0-503.0-0.0","0","0","34315","","null","","","null","55","","","","","","","","","","","","","","","",""
"","ITI","","html-keyboard-response","368","393370","0.0-1.0-504.0","0","0","34315","","null","","","null","55","","","","","","","","","","","","","","","NaN",""
"","S1","","html-keyboard-response","369","393624","0.0-1.0-506.0","0","0","34315","","null","","","null","56","","","","","","","","","","","","","","","",""
"","ISI","","html-keyboard-response","370","394126","0.0-1.0-507.0","0","0","34315","","null","","","null","56","NaN","","","","","","","","","","","","","","",""
"","S2","","html-keyboard-response","371","394381","0.0-1.0-508.0","0","0","34315","","null","","","null","56","","NaN","","","","","","","","","","","","","",""
"","response","","html-keyboard-response","372","394728","0.0-1.0-509.0-0.0","0","0","34315","","340","","","75","56","","","2","56","training","adjacent","DE","4","5","P.jpg","M.jpg","1","1","1","",""
"","feedback","","html-keyboard-response","373","395735","0.0-1.0-510.0-0.0","0","0","34315","","null","","","null","56","","","","","","","","","","","","","","","",""
"","ITI","","html-keyboard-response","374","396743","0.0-1.0-513.0","0","0","34315","","null","","","null","56","","","","","","","","","","","","","","","NaN",""
"","S1","","html-keyboard-response","375","397000","0.0-1.0-515.0","0","0","34315","","null","","","null","57","","","","","","","","","","","","","","","",""
"","ISI","","html-keyboard-response","376","397506","0.0-1.0-516.0","0","0","34315","","null","","","null","57","NaN","","","","","","","","","","","","","","",""
"","S2","","html-keyboard-response","377","397761","0.0-1.0-517.0","0","0","34315","","null","","","null","57","","NaN","","","","","","","","","","","","","",""
"","response","","html-keyboard-response","378","398423","0.0-1.0-518.0-0.0","0","0","34315","","655","","","68","57","","","2","57","training","adjacent","AB","1","2","O.jpg","N.jpg","0","1","0","",""
"","feedback","","html-keyboard-response","379","399441","0.0-1.0-519.0-0.0","0","0","34315","","null","","","null","57","","","","","","","","","","","","","","","",""
"","time_out","","html-keyboard-response","380","401452","0.0-1.0-521.0-0.0","0","0","34315","","null","","","null","57","","","","","","","","","","","","","","","",""
"","ITI","","html-keyboard-response","381","402460","0.0-1.0-522.0","0","0","34315","","null","","","null","57","","","","","","","","","","","","","","","NaN",""
"","S1","","html-keyboard-response","382","402716","0.0-1.0-524.0","0","0","34315","","null","","","null","58","","","","","","","","","","","","","","","",""
"","ISI","","html-keyboard-response","383","403219","0.0-1.0-525.0","0","0","34315","","null","","","null","58","NaN","","","","","","","","","","","","","","",""
"","S2","","html-keyboard-response","384","403476","0.0-1.0-526.0","0","0","34315","","null","","","null","58","","NaN","","","","","","","","","","","","","",""
"","response","","html-keyboard-response","385","403811","0.0-1.0-527.0-0.0","0","0","34315","","330","","","75","58","","","2","58","training","adjacent","ED","5","4","M.jpg","P.jpg","1","0","0","",""
"","feedback","","html-keyboard-response","386","404819","0.0-1.0-528.0-0.0","0","0","34315","","null","","","null","58","","","","","","","","","","","","","","","",""
"","time_out","","html-keyboard-response","387","406825","0.0-1.0-530.0-0.0","0","0","34315","","null","","","null","58","","","","","","","","","","","","","","","",""
"","ITI","","html-keyboard-response","388","407831","0.0-1.0-531.0","0","0","34315","","null","","","null","58","","","","","","","","","","","","","","","NaN",""
"","S1","","html-keyboard-response","389","408084","0.0-1.0-533.0","0","0","34315","","null","","","null","59","","","","","","","","","","","","","","","",""
"","ISI","","html-keyboard-response","390","408591","0.0-1.0-534.0","0","0","34315","","null","","","null","59","NaN","","","","","","","","","","","","","","",""
"","S2","","html-keyboard-response","391","408847","0.0-1.0-535.0","0","0","34315","","null","","","null","59","","NaN","","","","","","","","","","","","","",""
"","response","","html-keyboard-response","392","409269","0.0-1.0-536.0-0.0","0","0","34315","","417","","","75","59","","","2","59","training","adjacent","DE","4","5","P.jpg","M.jpg","1","1","1","",""
"","feedback","","html-keyboard-response","393","410283","0.0-1.0-537.0-0.0","0","0","34315","","null","","","null","59","","","","","","","","","","","","","","","",""
"","ITI","","html-keyboard-response","394","411289","0.0-1.0-540.0","0","0","34315","","null","","","null","59","","","","","","","","","","","","","","","NaN",""
"","S1","","html-keyboard-response","395","411546","0.0-1.0-542.0","0","0","34315","","null","","","null","60","","","","","","","","","","","","","","","",""
"","ISI","","html-keyboard-response","396","412051","0.0-1.0-543.0","0","0","34315","","null","","","null","60","NaN","","","","","","","","","","","","","","",""
"","S2","","html-keyboard-response","397","412310","0.0-1.0-544.0","0","0","34315","","null","","","null","60","","NaN","","","","","","","","","","","","","",""
"","response","","html-keyboard-response","398","412588","0.0-1.0-545.0-0.0","0","0","34315","","273","","","75","60","","","2","60","training","adjacent","FE","6","5","Q.jpg","M.jpg","1","0","0","",""
"","feedback","","html-keyboard-response","399","413594","0.0-1.0-546.0-0.0","0","0","34315","","null","","","null","60","","","","","","","","","","","","","","","",""
"","time_out","","html-keyboard-response","400","415607","0.0-1.0-548.0-0.0","0","0","34315","","null","","","null","60","","","","","","","","","","","","","","","",""
"","ITI","","html-keyboard-response","401","416612","0.0-1.0-549.0","0","0","34315","","null","","","null","60","","","","","","","","","","","","","","","NaN",""
"","S1","","html-keyboard-response","402","416869","0.0-1.0-551.0","0","0","34315","","null","","","null","61","","","","","","","","","","","","","","","",""
"","ISI","","html-keyboard-response","403","417371","0.0-1.0-552.0","0","0","34315","","null","","","null","61","NaN","","","","","","","","","","","","","","",""
"","S2","","html-keyboard-response","404","417626","0.0-1.0-553.0","0","0","34315","","null","","","null","61","","NaN","","","","","","","","","","","","","",""
"","response","","html-keyboard-response","405","417917","0.0-1.0-554.0-0.0","0","0","34315","","283","","","68","61","","","2","61","training","adjacent","CD","3","4","L.jpg","P.jpg","0","1","0","",""
"","feedback","","html-keyboard-response","406","418925","0.0-1.0-555.0-0.0","0","0","34315","","null","","","null","61","","","","","","","","","","","","","","","",""
"","time_out","","html-keyboard-response","407","420934","0.0-1.0-557.0-0.0","0","0","34315","","null","","","null","61","","","","","","","","","","","","","","","",""
"","ITI","","html-keyboard-response","408","421941","0.0-1.0-558.0","0","0","34315","","null","","","null","61","","","","","","","","","","","","","","","NaN",""
"","S1","","html-keyboard-response","409","422195","0.0-1.0-560.0","0","0","34315","","null","","","null","62","","","","","","","","","","","","","","","",""
"","ISI","","html-keyboard-response","410","422703","0.0-1.0-561.0","0","0","34315","","null","","","null","62","NaN","","","","","","","","","","","","","","",""
"","S2","","html-keyboard-response","411","422956","0.0-1.0-562.0","0","0","34315","","null","","","null","62","","NaN","","","","","","","","","","","","","",""
"","response","","html-keyboard-response","412","423847","0.0-1.0-563.0-0.0","0","0","34315","","884","","","68","62","","","2","62","training","adjacent","BA","2","1","N.jpg","O.jpg","0","0","1","",""
"","feedback","","html-keyboard-response","413","424856","0.0-1.0-564.0-0.0","0","0","34315","","null","","","null","62","","","","","","","","","","","","","","","",""
"","ITI","","html-keyboard-response","414","425864","0.0-1.0-567.0","0","0","34315","","null","","","null","62","","","","","","","","","","","","","","","NaN",""
"","S1","","html-keyboard-response","415","426119","0.0-1.0-569.0","0","0","34315","","null","","","null","63","","","","","","","","","","","","","","","",""
"","ISI","","html-keyboard-response","416","426627","0.0-1.0-570.0","0","0","34315","","null","","","null","63","NaN","","","","","","","","","","","","","","",""
"","S2","","html-keyboard-response","417","426882","0.0-1.0-571.0","0","0","34315","","null","","","null","63","","NaN","","","","","","","","","","","","","",""
"","response","","html-keyboard-response","418","427333","0.0-1.0-572.0-0.0","0","0","34315","","446","","","68","63","","","2","63","training","adjacent","AB","1","2","O.jpg","N.jpg","0","1","0","",""
"","feedback","","html-keyboard-response","419","428340","0.0-1.0-573.0-0.0","0","0","34315","","null","","","null","63","","","","","","","","","","","","","","","",""
"","time_out","","html-keyboard-response","420","430347","0.0-1.0-575.0-0.0","0","0","34315","","null","","","null","63","","","","","","","","","","","","","","","",""
"","ITI","","html-keyboard-response","421","431355","0.0-1.0-576.0","0","0","34315","","null","","","null","63","","","","","","","","","","","","","","","NaN",""
"","S1","","html-keyboard-response","422","431610","0.0-1.0-578.0","0","0","34315","","null","","","null","64","","","","","","","","","","","","","","","",""
"","ISI","","html-keyboard-response","423","432116","0.0-1.0-579.0","0","0","34315","","null","","","null","64","NaN","","","","","","","","","","","","","","",""
"","S2","","html-keyboard-response","424","432374","0.0-1.0-580.0","0","0","34315","","null","","","null","64","","NaN","","","","","","","","","","","","","",""
"","response","","html-keyboard-response","425","432615","0.0-1.0-581.0-0.0","0","0","34315","","234","","","75","64","","","2","64","training","adjacent","BA","2","1","N.jpg","O.jpg","1","0","0","",""
"","feedback","","html-keyboard-response","426","433622","0.0-1.0-582.0-0.0","0","0","34315","","null","","","null","64","","","","","","","","","","","","","","","",""
"","time_out","","html-keyboard-response","427","435631","0.0-1.0-584.0-0.0","0","0","34315","","null","","","null","64","","","","","","","","","","","","","","","",""
"","ITI","","html-keyboard-response","428","436639","0.0-1.0-585.0","0","0","34315","","null","","","null","64","","","","","","","","","","","","","","","NaN",""
"","S1","","html-keyboard-response","429","436895","0.0-1.0-587.0","0","0","34315","","null","","","null","65","","","","","","","","","","","","","","","",""
"","ISI","","html-keyboard-response","430","437398","0.0-1.0-588.0","0","0","34315","","null","","","null","65","NaN","","","","","","","","","","","","","","",""
"","S2","","html-keyboard-response","431","437653","0.0-1.0-589.0","0","0","34315","","null","","","null","65","","NaN","","","","","","","","","","","","","",""
"","response","","html-keyboard-response","432","438446","0.0-1.0-590.0-0.0","0","0","34315","","789","","","75","65","","","2","65","training","adjacent","BC","2","3","N.jpg","L.jpg","1","1","1","",""
"","feedback","","html-keyboard-response","433","439451","0.0-1.0-591.0-0.0","0","0","34315","","null","","","null","65","","","","","","","","","","","","","","","",""
"","ITI","","html-keyboard-response","434","440456","0.0-1.0-594.0","0","0","34315","","null","","","null","65","","","","","","","","","","","","","","","NaN",""
"","S1","","html-keyboard-response","435","440710","0.0-1.0-596.0","0","0","34315","","null","","","null","66","","","","","","","","","","","","","","","",""
"","ISI","","html-keyboard-response","436","441218","0.0-1.0-597.0","0","0","34315","","null","","","null","66","NaN","","","","","","","","","","","","","","",""
"","S2","","html-keyboard-response","437","441482","0.0-1.0-598.0","0","0","34315","","null","","","null","66","","NaN","","","","","","","","","","","","","",""
"","response","","html-keyboard-response","438","441628","0.0-1.0-599.0-0.0","0","0","34315","","139","","","75","66","","","2","66","training","adjacent","FE","6","5","Q.jpg","M.jpg","1","0","0","",""
"","feedback","","html-keyboard-response","439","442636","0.0-1.0-600.0-0.0","0","0","34315","","null","","","null","66","","","","","","","","","","","","","","","",""
"","time_out","","html-keyboard-response","440","444645","0.0-1.0-602.0-0.0","0","0","34315","","null","","","null","66","","","","","","","","","","","","","","","",""
"","ITI","","html-keyboard-response","441","445651","0.0-1.0-603.0","0","0","34315","","null","","","null","66","","","","","","","","","","","","","","","NaN",""
"","S1","","html-keyboard-response","442","445908","0.0-1.0-605.0","0","0","34315","","null","","","null","67","","","","","","","","","","","","","","","",""
"","ISI","","html-keyboard-response","443","446414","0.0-1.0-606.0","0","0","34315","","null","","","null","67","NaN","","","","","","","","","","","","","","",""
"","S2","","html-keyboard-response","444","446674","0.0-1.0-607.0","0","0","34315","","null","","","null","67","","NaN","","","","","","","","","","","","","",""
"","response","","html-keyboard-response","445","446980","0.0-1.0-608.0-0.0","0","0","34315","","300","","","75","67","","","2","67","training","adjacent","CD","3","4","L.jpg","P.jpg","1","1","1","",""
"","feedback","","html-keyboard-response","446","447988","0.0-1.0-609.0-0.0","0","0","34315","","null","","","null","67","","","","","","","","","","","","","","","",""
"","ITI","","html-keyboard-response","447","448995","0.0-1.0-612.0","0","0","34315","","null","","","null","67","","","","","","","","","","","","","","","NaN",""
"","S1","","html-keyboard-response","448","449250","0.0-1.0-614.0","0","0","34315","","null","","","null","68","","","","","","","","","","","","","","","",""
"","ISI","","html-keyboard-response","449","449754","0.0-1.0-615.0","0","0","34315","","null","","","null","68","NaN","","","","","","","","","","","","","","",""
"","S2","","html-keyboard-response","450","450012","0.0-1.0-616.0","0","0","34315","","null","","","null","68","","NaN","","","","","","","","","","","","","",""
"","response","","html-keyboard-response","451","451768","0.0-1.0-617.0-0.0","0","0","34315","","null","","","null","68","","","2","68","training","adjacent","FG","6","7","Q.jpg","R.jpg","NaN","1","0","",""
"","too_slow_prompt","","html-keyboard-response","452","452775","0.0-1.0-619.0-0.0","1","0","34315","","null","","","null","","","","","","","","","","","","","","","","",""
"","time_out","","html-keyboard-response","453","454781","0.0-1.0-620.0-0.0","0","0","34315","","null","","","null","68","","","","","","","","","","","","","","","",""
"","ITI","","html-keyboard-response","454","455787","0.0-1.0-621.0","0","0","34315","","null","","","null","68","","","","","","","","","","","","","","","NaN",""
"","S1","","html-keyboard-response","455","456043","0.0-1.0-623.0","0","0","34315","","null","","","null","69","","","","","","","","","","","","","","","",""
"","ISI","","html-keyboard-response","456","456551","0.0-1.0-624.0","0","0","34315","","null","","","null","69","NaN","","","","","","","","","","","","","","",""
"","S2","","html-keyboard-response","457","456804","0.0-1.0-625.0","0","0","34315","","244","","","75","69","","k","2","69","training","adjacent","BA","2","1","N.jpg","O.jpg","1","0","0","",""
"","feedback","","html-keyboard-response","458","457811","0.0-1.0-627.0-0.0","0","0","34315","","null","","","null","69","","","","","","","","","","","","","","","",""
"","time_out","","html-keyboard-response","459","459820","0.0-1.0-629.0-0.0","0","0","34315","","null","","","null","69","","","","","","","","","","","","","","","",""
"","ITI","","html-keyboard-response","460","460826","0.0-1.0-630.0","0","0","34315","","null","","","null","69","","","","","","","","","","","","","","","NaN",""
"","S1","","html-keyboard-response","461","461081","0.0-1.0-632.0","0","0","34315","","null","","","null","70","","","","","","","","","","","","","","","",""
"","ISI","","html-keyboard-response","462","461584","0.0-1.0-633.0","0","0","34315","","null","","","null","70","NaN","","","","","","","","","","","","","","",""
"","S2","","html-keyboard-response","463","461847","0.0-1.0-634.0","0","0","34315","","null","","","null","70","","NaN","","","","","","","","","","","","","",""
"","response","","html-keyboard-response","464","462178","0.0-1.0-635.0-0.0","0","0","34315","","325","","","75","70","","","2","70","training","adjacent","ED","5","4","M.jpg","P.jpg","1","0","0","",""
"","feedback","","html-keyboard-response","465","463184","0.0-1.0-636.0-0.0","0","0","34315","","null","","","null","70","","","","","","","","","","","","","","","",""
"","time_out","","html-keyboard-response","466","465193","0.0-1.0-638.0-0.0","0","0","34315","","null","","","null","70","","","","","","","","","","","","","","","",""
"","ITI","","html-keyboard-response","467","466199","0.0-1.0-639.0","0","0","34315","","null","","","null","70","","","","","","","","","","","","","","","NaN",""
"","S1","","html-keyboard-response","468","466454","0.0-1.0-641.0","0","0","34315","","null","","","null","71","","","","","","","","","","","","","","","",""
"","ISI","","html-keyboard-response","469","466964","0.0-1.0-642.0","0","0","34315","","null","","","null","71","NaN","","","","","","","","","","","","","","",""
"","S2","","html-keyboard-response","470","467222","0.0-1.0-643.0","0","0","34315","","null","","","null","71","","NaN","","","","","","","","","","","","","",""
"","response","","html-keyboard-response","471","467848","0.0-1.0-644.0-0.0","0","0","34315","","622","","","68","71","","","2","71","training","adjacent","GF","7","6","R.jpg","Q.jpg","0","0","1","",""
"","feedback","","html-keyboard-response","472","468856","0.0-1.0-645.0-0.0","0","0","34315","","null","","","null","71","","","","","","","","","","","","","","","",""
"","ITI","","html-keyboard-response","473","469866","0.0-1.0-648.0","0","0","34315","","null","","","null","71","","","","","","","","","","","","","","","NaN",""
"","S1","","html-keyboard-response","474","470123","0.0-1.0-650.0","0","0","34315","","null","","","null","72","","","","","","","","","","","","","","","",""
"","ISI","","html-keyboard-response","475","470628","0.0-1.0-651.0","0","0","34315","","null","","","null","72","NaN","","","","","","","","","","","","","","",""
"","S2","","html-keyboard-response","476","470885","0.0-1.0-652.0","0","0","34315","","null","","","null","72","","NaN","","","","","","","","","","","","","",""
"","response","","html-keyboard-response","477","471693","0.0-1.0-653.0-0.0","0","0","34315","","803","","","75","72","","","2","72","training","adjacent","BA","2","1","N.jpg","O.jpg","1","0","0","",""
"","feedback","","html-keyboard-response","478","472701","0.0-1.0-654.0-0.0","0","0","34315","","null","","","null","72","","","","","","","","","","","","","","","",""
"","time_out","","html-keyboard-response","479","474710","0.0-1.0-656.0-0.0","0","0","34315","","null","","","null","72","","","","","","","","","","","","","","","",""
"","ITI","","html-keyboard-response","480","475755","0.0-1.0-657.0","0","0","34315","","null","","","null","72","","","","","","","","","","","","","","","NaN",""
"","S1","","html-keyboard-response","481","476008","0.0-1.0-659.0","0","0","34315","","null","","","null","73","","","","","","","","","","","","","","","",""
"","ISI","","html-keyboard-response","482","476511","0.0-1.0-660.0","0","0","34315","","null","","","null","73","NaN","","","","","","","","","","","","","","",""
"","S2","","html-keyboard-response","483","476768","0.0-1.0-661.0","0","0","34315","","null","","","null","73","","NaN","","","","","","","","","","","","","",""
"","response","","html-keyboard-response","484","477416","0.0-1.0-662.0-0.0","0","0","34315","","642","","","75","73","","","2","73","training","adjacent","ED","5","4","M.jpg","P.jpg","1","0","0","",""
"","feedback","","html-keyboard-response","485","478426","0.0-1.0-663.0-0.0","0","0","34315","","null","","","null","73","","","","","","","","","","","","","","","",""
"","time_out","","html-keyboard-response","486","480433","0.0-1.0-665.0-0.0","0","0","34315","","null","","","null","73","","","","","","","","","","","","","","","",""
"","ITI","","html-keyboard-response","487","481439","0.0-1.0-666.0","0","0","34315","","null","","","null","73","","","","","","","","","","","","","","","NaN",""
"","S1","","html-keyboard-response","488","481699","0.0-1.0-668.0","0","0","34315","","null","","","null","74","","","","","","","","","","","","","","","",""
"","ISI","","html-keyboard-response","489","482202","0.0-1.0-669.0","0","0","34315","","null","","","null","74","NaN","","","","","","","","","","","","","","",""
"","S2","","html-keyboard-response","490","482458","0.0-1.0-670.0","0","0","34315","","null","","","null","74","","NaN","","","","","","","","","","","","","",""
"","response","","html-keyboard-response","491","483133","0.0-1.0-671.0-0.0","0","0","34315","","669","","","68","74","","","2","74","training","adjacent","EF","5","6","M.jpg","Q.jpg","0","1","0","",""
"","feedback","","html-keyboard-response","492","484139","0.0-1.0-672.0-0.0","0","0","34315","","null","","","null","74","","","","","","","","","","","","","","","",""
"","time_out","","html-keyboard-response","493","486147","0.0-1.0-674.0-0.0","0","0","34315","","null","","","null","74","","","","","","","","","","","","","","","",""
"","ITI","","html-keyboard-response","494","487155","0.0-1.0-675.0","0","0","34315","","null","","","null","74","","","","","","","","","","","","","","","NaN",""
"","S1","","html-keyboard-response","495","487409","0.0-1.0-677.0","0","0","34315","","null","","","null","75","","","","","","","","","","","","","","","",""
"","ISI","","html-keyboard-response","496","487915","0.0-1.0-678.0","0","0","34315","","null","","","null","75","NaN","","","","","","","","","","","","","","",""
"","S2","","html-keyboard-response","497","488172","0.0-1.0-679.0","0","0","34315","","null","","","null","75","","NaN","","","","","","","","","","","","","",""
"","response","","html-keyboard-response","498","489058","0.0-1.0-680.0-0.0","0","0","34315","","880","","","75","75","","","2","75","training","adjacent","BC","2","3","N.jpg","L.jpg","1","1","1","",""
"","feedback","","html-keyboard-response","499","490072","0.0-1.0-681.0-0.0","0","0","34315","","null","","","null","75","","","","","","","","","","","","","","","",""
"","ITI","","html-keyboard-response","500","491079","0.0-1.0-684.0","0","0","34315","","null","","","null","75","","","","","","","","","","","","","","","NaN",""
"","S1","","html-keyboard-response","501","491335","0.0-1.0-686.0","0","0","34315","","null","","","null","76","","","","","","","","","","","","","","","",""
"","ISI","","html-keyboard-response","502","491840","0.0-1.0-687.0","0","0","34315","","null","","","null","76","NaN","","","","","","","","","","","","","","",""
"","S2","","html-keyboard-response","503","492094","0.0-1.0-688.0","0","0","34315","","null","","","null","76","","NaN","","","","","","","","","","","","","",""
"","response","","html-keyboard-response","504","492579","0.0-1.0-689.0-0.0","0","0","34315","","479","","","75","76","","","2","76","training","adjacent","DC","4","3","P.jpg","L.jpg","1","0","0","",""
"","feedback","","html-keyboard-response","505","493588","0.0-1.0-690.0-0.0","0","0","34315","","null","","","null","76","","","","","","","","","","","","","","","",""
"","time_out","","html-keyboard-response","506","495593","0.0-1.0-692.0-0.0","0","0","34315","","null","","","null","76","","","","","","","","","","","","","","","",""
"","ITI","","html-keyboard-response","507","496599","0.0-1.0-693.0","0","0","34315","","null","","","null","76","","","","","","","","","","","","","","","NaN",""
"","S1","","html-keyboard-response","508","496854","0.0-1.0-695.0","0","0","34315","","null","","","null","77","","","","","","","","","","","","","","","",""
"","ISI","","html-keyboard-response","509","497361","0.0-1.0-696.0","0","0","34315","","null","","","null","77","NaN","","","","","","","","","","","","","","",""
"","S2","","html-keyboard-response","510","497619","0.0-1.0-697.0","0","0","34315","","null","","","null","77","","NaN","","","","","","","","","","","","","",""
"","response","","html-keyboard-response","511","498035","0.0-1.0-698.0-0.0","0","0","34315","","410","","","75","77","","","2","77","training","adjacent","AB","1","2","O.jpg","N.jpg","1","1","1","",""
"","feedback","","html-keyboard-response","512","499042","0.0-1.0-699.0-0.0","0","0","34315","","null","","","null","77","","","","","","","","","","","","","","","",""
"","ITI","","html-keyboard-response","513","500049","0.0-1.0-702.0","0","0","34315","","null","","","null","77","","","","","","","","","","","","","","","NaN",""
"","S1","","html-keyboard-response","514","500308","0.0-1.0-704.0","0","0","34315","","null","","","null","78","","","","","","","","","","","","","","","",""
"","ISI","","html-keyboard-response","515","500815","0.0-1.0-705.0","0","0","34315","","null","","","null","78","NaN","","","","","","","","","","","","","","",""
"","S2","","html-keyboard-response","516","501074","0.0-1.0-706.0","0","0","34315","","null","","","null","78","","NaN","","","","","","","","","","","","","",""
"","response","","html-keyboard-response","517","501974","0.0-1.0-707.0-0.0","0","0","34315","","894","","","75","78","","","2","78","training","adjacent","CB","3","2","L.jpg","N.jpg","1","0","0","",""
"","feedback","","html-keyboard-response","518","502982","0.0-1.0-708.0-0.0","0","0","34315","","null","","","null","78","","","","","","","","","","","","","","","",""
"","time_out","","html-keyboard-response","519","504993","0.0-1.0-710.0-0.0","0","0","34315","","null","","","null","78","","","","","","","","","","","","","","","",""
"","ITI","","html-keyboard-response","520","505999","0.0-1.0-711.0","0","0","34315","","null","","","null","78","","","","","","","","","","","","","","","NaN",""
"","S1","","html-keyboard-response","521","506253","0.0-1.0-713.0","0","0","34315","","null","","","null","79","","","","","","","","","","","","","","","",""
"","ISI","","html-keyboard-response","522","506759","0.0-1.0-714.0","0","0","34315","","null","","","null","79","NaN","","","","","","","","","","","","","","",""
"","S2","","html-keyboard-response","523","507012","0.0-1.0-715.0","0","0","34315","","null","","","null","79","","NaN","","","","","","","","","","","","","",""
"","response","","html-keyboard-response","524","507922","0.0-1.0-716.0-0.0","0","0","34315","","901","","","68","79","","","2","79","training","adjacent","CD","3","4","L.jpg","P.jpg","0","1","0","",""
"","feedback","","html-keyboard-response","525","508937","0.0-1.0-717.0-0.0","0","0","34315","","null","","","null","79","","","","","","","","","","","","","","","",""
"","time_out","","html-keyboard-response","526","510944","0.0-1.0-719.0-0.0","0","0","34315","","null","","","null","79","","","","","","","","","","","","","","","",""
"","ITI","","html-keyboard-response","527","511952","0.0-1.0-720.0","0","0","34315","","null","","","null","79","","","","","","","","","","","","","","","NaN",""
"","S1","","html-keyboard-response","528","512211","0.0-1.0-722.0","0","0","34315","","null","","","null","80","","","","","","","","","","","","","","","",""
"","ISI","","html-keyboard-response","529","512717","0.0-1.0-723.0","0","0","34315","","null","","","null","80","NaN","","","","","","","","","","","","","","",""
"","S2","","html-keyboard-response","530","512974","0.0-1.0-724.0","0","0","34315","","null","","","null","80","","NaN","","","","","","","","","","","","","",""
"","response","","html-keyboard-response","531","513869","0.0-1.0-725.0-0.0","0","0","34315","","889","","","75","80","","","2","80","training","adjacent","DC","4","3","P.jpg","L.jpg","1","0","0","",""
"","feedback","","html-keyboard-response","532","514876","0.0-1.0-726.0-0.0","0","0","34315","","null","","","null","80","","","","","","","","","","","","","","","",""
"","time_out","","html-keyboard-response","533","516886","0.0-1.0-728.0-0.0","0","0","34315","","null","","","null","80","","","","","","","","","","","","","","","",""
"","ITI","","html-keyboard-response","534","517892","0.0-1.0-729.0","0","0","34315","","null","","","null","80","","","","","","","","","","","","","","","NaN",""
"","S1","","html-keyboard-response","535","518148","0.0-1.0-731.0","0","0","34315","","null","","","null","81","","","","","","","","","","","","","","","",""
"","ISI","","html-keyboard-response","536","518654","0.0-1.0-732.0","0","0","34315","","null","","","null","81","NaN","","","","","","","","","","","","","","",""
"","S2","","html-keyboard-response","537","518912","0.0-1.0-733.0","0","0","34315","","null","","","null","81","","NaN","","","","","","","","","","","","","",""
"","response","","html-keyboard-response","538","519185","0.0-1.0-734.0-0.0","0","0","34315","","269","","","75","81","","","2","81","training","adjacent","CD","3","4","L.jpg","P.jpg","1","1","1","",""
"","feedback","","html-keyboard-response","539","520194","0.0-1.0-735.0-0.0","0","0","34315","","null","","","null","81","","","","","","","","","","","","","","","",""
"","ITI","","html-keyboard-response","540","521202","0.0-1.0-738.0","0","0","34315","","null","","","null","81","","","","","","","","","","","","","","","NaN",""
"","S1","","html-keyboard-response","541","521459","0.0-1.0-740.0","0","0","34315","","null","","","null","82","","","","","","","","","","","","","","","",""
"","ISI","","html-keyboard-response","542","521965","0.0-1.0-741.0","0","0","34315","","null","","","null","82","NaN","","","","","","","","","","","","","","",""
"","S2","","html-keyboard-response","543","522222","0.0-1.0-742.0","0","0","34315","","null","","","null","82","","NaN","","","","","","","","","","","","","",""
"","response","","html-keyboard-response","544","523279","0.0-1.0-743.0-0.0","0","0","34315","","1047","","","68","82","","","2","82","training","adjacent","EF","5","6","M.jpg","Q.jpg","0","1","0","",""
"","feedback","","html-keyboard-response","545","524285","0.0-1.0-744.0-0.0","0","0","34315","","null","","","null","82","","","","","","","","","","","","","","","",""
"","time_out","","html-keyboard-response","546","526293","0.0-1.0-746.0-0.0","0","0","34315","","null","","","null","82","","","","","","","","","","","","","","","",""
"","ITI","","html-keyboard-response","547","527298","0.0-1.0-747.0","0","0","34315","","null","","","null","82","","","","","","","","","","","","","","","NaN",""
"","S1","","html-keyboard-response","548","527554","0.0-1.0-749.0","0","0","34315","","null","","","null","83","","","","","","","","","","","","","","","",""
"","ISI","","html-keyboard-response","549","528060","0.0-1.0-750.0","0","0","34315","","null","","","null","83","NaN","","","","","","","","","","","","","","",""
"","S2","","html-keyboard-response","550","528316","0.0-1.0-751.0","0","0","34315","","null","","","null","83","","NaN","","","","","","","","","","","","","",""
"","response","","html-keyboard-response","551","528646","0.0-1.0-752.0-0.0","0","0","34315","","324","","","75","83","","","2","83","training","adjacent","AB","1","2","O.jpg","N.jpg","1","1","1","",""
"","feedback","","html-keyboard-response","552","529656","0.0-1.0-753.0-0.0","0","0","34315","","null","","","null","83","","","","","","","","","","","","","","","",""
"","ITI","","html-keyboard-response","553","530663","0.0-1.0-756.0","0","0","34315","","null","","","null","83","","","","","","","","","","","","","","","NaN",""
"","S1","","html-keyboard-response","554","530920","0.0-1.0-758.0","0","0","34315","","null","","","null","84","","","","","","","","","","","","","","","",""
"","ISI","","html-keyboard-response","555","531427","0.0-1.0-759.0","0","0","34315","","null","","","null","84","NaN","","","","","","","","","","","","","","",""
"","S2","","html-keyboard-response","556","531704","0.0-1.0-760.0","0","0","34315","","null","","","null","84","","NaN","","","","","","","","","","","","","",""
"","response","","html-keyboard-response","557","532047","0.0-1.0-761.0-0.0","0","0","34315","","338","","","75","84","","","2","84","training","adjacent","BC","2","3","N.jpg","L.jpg","1","1","1","",""
"","feedback","","html-keyboard-response","558","533057","0.0-1.0-762.0-0.0","0","0","34315","","null","","","null","84","","","","","","","","","","","","","","","",""
"","ITI","","html-keyboard-response","559","534065","0.0-1.0-765.0","0","0","34315","","null","","","null","84","","","","","","","","","","","","","","","NaN",""
"","S1","","html-keyboard-response","560","534321","0.0-1.0-767.0","0","0","34315","","null","","","null","85","","","","","","","","","","","","","","","",""
"","ISI","","html-keyboard-response","561","534835","0.0-1.0-768.0","0","0","34315","","null","","","null","85","NaN","","","","","","","","","","","","","","",""
"","S2","","html-keyboard-response","562","535091","0.0-1.0-769.0","0","0","34315","","null","","","null","85","","NaN","","","","","","","","","","","","","",""
"","response","","html-keyboard-response","563","535645","0.0-1.0-770.0-0.0","0","0","34315","","547","","","75","85","","","2","85","training","adjacent","DE","4","5","P.jpg","M.jpg","1","1","1","",""
"","feedback","","html-keyboard-response","564","536651","0.0-1.0-771.0-0.0","0","0","34315","","null","","","null","85","","","","","","","","","","","","","","","",""
"","ITI","","html-keyboard-response","565","537656","0.0-1.0-774.0","0","0","34315","","null","","","null","85","","","","","","","","","","","","","","","NaN",""
"","S1","","html-keyboard-response","566","537909","0.0-1.0-776.0","0","0","34315","","null","","","null","86","","","","","","","","","","","","","","","",""
"","ISI","","html-keyboard-response","567","538415","0.0-1.0-777.0","0","0","34315","","null","","","null","86","NaN","","","","","","","","","","","","","","",""
"","S2","","html-keyboard-response","568","538674","0.0-1.0-778.0","0","0","34315","","null","","","null","86","","NaN","","","","","","","","","","","","","",""
"","response","","html-keyboard-response","569","539136","0.0-1.0-779.0-0.0","0","0","34315","","457","","","75","86","","","2","86","training","adjacent","FE","6","5","Q.jpg","M.jpg","1","0","0","",""
"","feedback","","html-keyboard-response","570","540146","0.0-1.0-780.0-0.0","0","0","34315","","null","","","null","86","","","","","","","","","","","","","","","",""
"","time_out","","html-keyboard-response","571","542154","0.0-1.0-782.0-0.0","0","0","34315","","null","","","null","86","","","","","","","","","","","","","","","",""
"","ITI","","html-keyboard-response","572","543161","0.0-1.0-783.0","0","0","34315","","null","","","null","86","","","","","","","","","","","","","","","NaN",""
"","S1","","html-keyboard-response","573","543419","0.0-1.0-785.0","0","0","34315","","null","","","null","87","","","","","","","","","","","","","","","",""
"","ISI","","html-keyboard-response","574","543924","0.0-1.0-786.0","0","0","34315","","null","","","null","87","NaN","","","","","","","","","","","","","","",""
"","S2","","html-keyboard-response","575","544182","0.0-1.0-787.0","0","0","34315","","null","","","null","87","","NaN","","","","","","","","","","","","","",""
"","response","","html-keyboard-response","576","544763","0.0-1.0-788.0-0.0","0","0","34315","","575","","","68","87","","","2","87","training","adjacent","CB","3","2","L.jpg","N.jpg","0","0","1","",""
"","feedback","","html-keyboard-response","577","545770","0.0-1.0-789.0-0.0","0","0","34315","","null","","","null","87","","","","","","","","","","","","","","","",""
"","ITI","","html-keyboard-response","578","546778","0.0-1.0-792.0","0","0","34315","","null","","","null","87","","","","","","","","","","","","","","","NaN",""
"","S1","","html-keyboard-response","579","547033","0.0-1.0-794.0","0","0","34315","","null","","","null","88","","","","","","","","","","","","","","","",""
"","ISI","","html-keyboard-response","580","547538","0.0-1.0-795.0","0","0","34315","","null","","","null","88","NaN","","","","","","","","","","","","","","",""
"","S2","","html-keyboard-response","581","547794","0.0-1.0-796.0","0","0","34315","","null","","","null","88","","NaN","","","","","","","","","","","","","",""
"","response","","html-keyboard-response","582","548379","0.0-1.0-797.0-0.0","0","0","34315","","579","","","75","88","","","2","88","training","adjacent","FG","6","7","Q.jpg","R.jpg","1","1","1","",""
