"success","ttype","start_time","trial_type","trial_index","time_elapsed","internal_node_id","warning","missed_checkup","PID","view_history","rt","responses","repeat_instructions","key_press","index","keypress_isi","keypress_S2","block","trial_num","phase","group_type","pair_type","S1_stim","S2_stim","S1_img","S2_img","S1_chosen","S1_higher","accuracy","keypress_iti","total_bonus_tally"
"true","full_screen","d08052022hr1511","fullscreen","0","9649","0.0-0.0","0","0","70745","","","","","","","","","","","","","","","","","","","","","",""
"","instructions","","instructions","1","51157","0.0-1.0-0.0-0.0","0","0","70745","[{""page_index"":0,""viewing_time"":5069},{""page_index"":1,""viewing_time"":24525},{""page_index"":2,""viewing_time"":9885},{""page_index"":3,""viewing_time"":2028}]","41508","","","","","","","","","","","","","","","","","","","",""
"","comprehension_check","","survey-multi-choice","2","71340","0.0-1.0-0.0-1.0","0","0","70745","","20179","{""Q0"":""True"",""Q1"":""K"",""Q2"":""Once the second image appears and while the screen 'MAKE A CHOICE' is shown"",""Q3"":""Green mark"",""Q4"":""either D or K""}","0","","","","","","","","","","","","","","","","","",""
"","start_exp","","html-keyboard-response","3","73471","0.0-1.0-1.0","0","0","70745","","2129","","","32","","","","","","","","","","","","","","","","",""
"","S1","","html-keyboard-response","4","73722","0.0-1.0-2.0","0","0","70745","","null","","","null","0","","","","","","","","","","","","","","","",""
"","ISI","","html-keyboard-response","5","75724","0.0-1.0-3.0","0","0","70745","","258","","","75","0","k","","","","","","","","","","","","","","",""
"","S2","","html-keyboard-response","6","75977","0.0-1.0-4.0","0","0","70745","","null","","","null","0","","NaN","","","","","","","","","","","","","",""
"","response","","html-keyboard-response","7","76182","0.0-1.0-5.0-0.0","0","0","70745","","204","","","75","0","","","1","0","training","adjacent","CD","3","4","N.jpg","O.jpg","1","1","1","",""
"","feedback","","html-keyboard-response","8","77184","0.0-1.0-6.0-0.0","0","0","70745","","null","","","null","0","","","","","","","","","","","","","","","",""
"","ITI","","html-keyboard-response","9","78186","0.0-1.0-9.0","0","0","70745","","null","","","null","0","","","","","","","","","","","","","","","NaN",""
"","S1","","html-keyboard-response","10","78437","0.0-1.0-11.0","0","0","70745","","null","","","null","1","","","","","","","","","","","","","","","",""
"","ISI","","html-keyboard-response","11","80439","0.0-1.0-12.0","0","0","70745","","null","","","null","1","NaN","","","","","","","","","","","","","","",""
"","S2","","html-keyboard-response","12","80691","0.0-1.0-13.0","0","0","70745","","null","","","null","1","","NaN","","","","","","","","","","","","","",""
"","response","","html-keyboard-response","13","80790","0.0-1.0-14.0-0.0","0","0","70745","","98","","","68","1","","","1","1","training","adjacent","DE","4","5","O.jpg","P.jpg","0","1","0","",""
"","feedback","","html-keyboard-response","14","81792","0.0-1.0-15.0-0.0","0","0","70745","","null","","","null","1","","","","","","","","","","","","","","","",""
"","time_out","","html-keyboard-response","15","83794","0.0-1.0-17.0-0.0","0","0","70745","","null","","","null","1","","","","","","","","","","","","","","","",""
"","ITI","","html-keyboard-response","16","84796","0.0-1.0-18.0","0","0","70745","","null","","","null","1","","","","","","","","","","","","","","","NaN",""
"","S1","","html-keyboard-response","17","85048","0.0-1.0-20.0","0","0","70745","","null","","","null","2","","","","","","","","","","","","","","","",""
"","ISI","","html-keyboard-response","18","87049","0.0-1.0-21.0","0","0","70745","","null","","","null","2","NaN","","","","","","","","","","","","","","",""
"","S2","","html-keyboard-response","19","87302","0.0-1.0-22.0","0","0","70745","","null","","","null","2","","NaN","","","","","","","","","","","","","",""
"","response","","html-keyboard-response","20","87415","0.0-1.0-23.0-0.0","0","0","70745","","112","","","75","2","","","1","2","training","adjacent","FE","6","5","Q.jpg","P.jpg","1","0","0","",""
"","feedback","","html-keyboard-response","21","88417","0.0-1.0-24.0-0.0","0","0","70745","","null","","","null","2","","","","","","","","","","","","","","","",""
"","time_out","","html-keyboard-response","22","90419","0.0-1.0-26.0-0.0","0","0","70745","","null","","","null","2","","","","","","","","","","","","","","","",""
"","ITI","","html-keyboard-response","23","91420","0.0-1.0-27.0","0","0","70745","","null","","","null","2","","","","","","","","","","","","","","","NaN",""
"","S1","","html-keyboard-response","24","91672","0.0-1.0-29.0","0","0","70745","","null","","","null","3","","","","","","","","","","","","","","","",""
"","ISI","","html-keyboard-response","25","93673","0.0-1.0-30.0","0","0","70745","","null","","","null","3","NaN","","","","","","","","","","","","","","",""
"","S2","","html-keyboard-response","26","93925","0.0-1.0-31.0","0","0","70745","","null","","","null","3","","NaN","","","","","","","","","","","","","",""
"","response","","html-keyboard-response","27","93952","0.0-1.0-32.0-0.0","0","0","70745","","25","","","68","3","","","1","3","training","adjacent","FE","6","5","Q.jpg","P.jpg","0","0","1","",""
"","feedback","","html-keyboard-response","28","94954","0.0-1.0-33.0-0.0","0","0","70745","","null","","","null","3","","","","","","","","","","","","","","","",""
"","ITI","","html-keyboard-response","29","95956","0.0-1.0-36.0","0","0","70745","","null","","","null","3","","","","","","","","","","","","","","","NaN",""
"","S1","","html-keyboard-response","30","96208","0.0-1.0-38.0","0","0","70745","","null","","","null","4","","","","","","","","","","","","","","","",""
"","ISI","","html-keyboard-response","31","98209","0.0-1.0-39.0","0","0","70745","","null","","","null","4","NaN","","","","","","","","","","","","","","",""
"","S2","","html-keyboard-response","32","98462","0.0-1.0-40.0","0","0","70745","","null","","","null","4","","NaN","","","","","","","","","","","","","",""
"","response","","html-keyboard-response","33","98593","0.0-1.0-41.0-0.0","0","0","70745","","129","","","75","4","","","1","4","training","adjacent","BC","2","3","L.jpg","N.jpg","1","1","1","",""
"","feedback","","html-keyboard-response","34","99595","0.0-1.0-42.0-0.0","0","0","70745","","null","","","null","4","","","","","","","","","","","","","","","",""
"","ITI","","html-keyboard-response","35","100598","0.0-1.0-45.0","0","0","70745","","null","","","null","4","","","","","","","","","","","","","","","NaN",""
"","S1","","html-keyboard-response","36","100850","0.0-1.0-47.0","0","0","70745","","null","","","null","5","","","","","","","","","","","","","","","",""
"","ISI","","html-keyboard-response","37","102852","0.0-1.0-48.0","0","0","70745","","null","","","null","5","NaN","","","","","","","","","","","","","","",""
"","S2","","html-keyboard-response","38","103104","0.0-1.0-49.0","0","0","70745","","null","","","null","5","","NaN","","","","","","","","","","","","","",""
"","response","","html-keyboard-response","39","103178","0.0-1.0-50.0-0.0","0","0","70745","","73","","","68","5","","","1","5","training","adjacent","CD","3","4","N.jpg","O.jpg","0","1","0","",""
"","feedback","","html-keyboard-response","40","104179","0.0-1.0-51.0-0.0","0","0","70745","","null","","","null","5","","","","","","","","","","","","","","","",""
"","time_out","","html-keyboard-response","41","106181","0.0-1.0-53.0-0.0","0","0","70745","","null","","","null","5","","","","","","","","","","","","","","","",""
"","ITI","","html-keyboard-response","42","107184","0.0-1.0-54.0","0","0","70745","","null","","","null","5","","","","","","","","","","","","","","","NaN",""
"","S1","","html-keyboard-response","43","107436","0.0-1.0-56.0","0","0","70745","","null","","","null","6","","","","","","","","","","","","","","","",""
"","ISI","","html-keyboard-response","44","109438","0.0-1.0-57.0","0","0","70745","","null","","","null","6","NaN","","","","","","","","","","","","","","",""
"","S2","","html-keyboard-response","45","109691","0.0-1.0-58.0","0","0","70745","","null","","","null","6","","NaN","","","","","","","","","","","","","",""
"","response","","html-keyboard-response","46","109994","0.0-1.0-59.0-0.0","0","0","70745","","302","","","68","6","","","1","6","training","adjacent","BC","2","3","L.jpg","N.jpg","0","1","0","",""
"","feedback","","html-keyboard-response","47","110996","0.0-1.0-60.0-0.0","0","0","70745","","null","","","null","6","","","","","","","","","","","","","","","",""
"","time_out","","html-keyboard-response","48","112998","0.0-1.0-62.0-0.0","0","0","70745","","null","","","null","6","","","","","","","","","","","","","","","",""
"","ITI","","html-keyboard-response","49","113999","0.0-1.0-63.0","0","0","70745","","null","","","null","6","","","","","","","","","","","","","","","NaN",""
"","S1","","html-keyboard-response","50","114251","0.0-1.0-65.0","0","0","70745","","null","","","null","7","","","","","","","","","","","","","","","",""
"","ISI","","html-keyboard-response","51","116253","0.0-1.0-66.0","0","0","70745","","null","","","null","7","NaN","","","","","","","","","","","","","","",""
"","S2","","html-keyboard-response","52","116505","0.0-1.0-67.0","0","0","70745","","null","","","null","7","","NaN","","","","","","","","","","","","","",""
"","response","","html-keyboard-response","53","116515","0.0-1.0-68.0-0.0","0","0","70745","","8","","","68","7","","","1","7","training","adjacent","GF","7","6","M.jpg","Q.jpg","0","0","1","",""
"","feedback","","html-keyboard-response","54","117518","0.0-1.0-69.0-0.0","0","0","70745","","null","","","null","7","","","","","","","","","","","","","","","",""
"","ITI","","html-keyboard-response","55","118519","0.0-1.0-72.0","0","0","70745","","null","","","null","7","","","","","","","","","","","","","","","NaN",""
"","S1","","html-keyboard-response","56","118771","0.0-1.0-74.0","0","0","70745","","null","","","null","8","","","","","","","","","","","","","","","",""
"","ISI","","html-keyboard-response","57","120772","0.0-1.0-75.0","0","0","70745","","null","","","null","8","NaN","","","","","","","","","","","","","","",""
"","S2","","html-keyboard-response","58","121024","0.0-1.0-76.0","0","0","70745","","null","","","null","8","","NaN","","","","","","","","","","","","","",""
"","response","","html-keyboard-response","59","121132","0.0-1.0-77.0-0.0","0","0","70745","","106","","","75","8","","","1","8","training","adjacent","EF","5","6","P.jpg","Q.jpg","1","1","1","",""
"","feedback","","html-keyboard-response","60","122134","0.0-1.0-78.0-0.0","0","0","70745","","null","","","null","8","","","","","","","","","","","","","","","",""
"","ITI","","html-keyboard-response","61","123136","0.0-1.0-81.0","0","0","70745","","null","","","null","8","","","","","","","","","","","","","","","NaN",""
"","S1","","html-keyboard-response","62","123388","0.0-1.0-83.0","0","0","70745","","null","","","null","9","","","","","","","","","","","","","","","",""
"","ISI","","html-keyboard-response","63","125390","0.0-1.0-84.0","0","0","70745","","null","","","null","9","NaN","","","","","","","","","","","","","","",""
"","S2","","html-keyboard-response","64","125642","0.0-1.0-85.0","0","0","70745","","null","","","null","9","","NaN","","","","","","","","","","","","","",""
"","response","","html-keyboard-response","65","125932","0.0-1.0-86.0-0.0","0","0","70745","","288","","","75","9","","","1","9","training","adjacent","GF","7","6","M.jpg","Q.jpg","1","0","0","",""
"","feedback","","html-keyboard-response","66","126934","0.0-1.0-87.0-0.0","0","0","70745","","null","","","null","9","","","","","","","","","","","","","","","",""
"","time_out","","html-keyboard-response","67","128936","0.0-1.0-89.0-0.0","0","0","70745","","null","","","null","9","","","","","","","","","","","","","","","",""
"","ITI","","html-keyboard-response","68","129939","0.0-1.0-90.0","0","0","70745","","null","","","null","9","","","","","","","","","","","","","","","NaN",""
"","S1","","html-keyboard-response","69","130191","0.0-1.0-92.0","0","0","70745","","null","","","null","10","","","","","","","","","","","","","","","",""
"","ISI","","html-keyboard-response","70","132192","0.0-1.0-93.0","0","0","70745","","870","","","99","10","3numpad","","","","","","","","","","","","","","",""
"","S2","","html-keyboard-response","71","132445","0.0-1.0-94.0","0","0","70745","","null","","","null","10","","NaN","","","","","","","","","","","","","",""
"","response","","html-keyboard-response","72","132501","0.0-1.0-95.0-0.0","0","0","70745","","54","","","68","10","","","1","10","training","adjacent","CB","3","2","N.jpg","L.jpg","0","0","1","",""
"","feedback","","html-keyboard-response","73","133504","0.0-1.0-96.0-0.0","0","0","70745","","null","","","null","10","","","","","","","","","","","","","","","",""
"","ITI","","html-keyboard-response","74","134506","0.0-1.0-99.0","0","0","70745","","null","","","null","10","","","","","","","","","","","","","","","NaN",""
"","S1","","html-keyboard-response","75","134758","0.0-1.0-101.0","0","0","70745","","null","","","null","11","","","","","","","","","","","","","","","",""
"","ISI","","html-keyboard-response","76","136760","0.0-1.0-102.0","0","0","70745","","null","","","null","11","NaN","","","","","","","","","","","","","","",""
"","S2","","html-keyboard-response","77","137012","0.0-1.0-103.0","0","0","70745","","null","","","null","11","","NaN","","","","","","","","","","","","","",""
"","response","","html-keyboard-response","78","137142","0.0-1.0-104.0-0.0","0","0","70745","","128","","","75","11","","","1","11","training","adjacent","BA","2","1","L.jpg","R.jpg","1","0","0","",""
"","feedback","","html-keyboard-response","79","138144","0.0-1.0-105.0-0.0","0","0","70745","","null","","","null","11","","","","","","","","","","","","","","","",""
"","time_out","","html-keyboard-response","80","140145","0.0-1.0-107.0-0.0","0","0","70745","","null","","","null","11","","","","","","","","","","","","","","","",""
"","ITI","","html-keyboard-response","81","141147","0.0-1.0-108.0","0","0","70745","","null","","","null","11","","","","","","","","","","","","","","","NaN",""
"","S1","","html-keyboard-response","82","141411","0.0-1.0-110.0","0","0","70745","","null","","","null","12","","","","","","","","","","","","","","","",""
"","ISI","","html-keyboard-response","83","143413","0.0-1.0-111.0","0","0","70745","","null","","","null","12","NaN","","","","","","","","","","","","","","",""
"","S2","","html-keyboard-response","84","143666","0.0-1.0-112.0","0","0","70745","","null","","","null","12","","NaN","","","","","","","","","","","","","",""
"","response","","html-keyboard-response","85","143846","0.0-1.0-113.0-0.0","0","0","70745","","179","","","75","12","","","1","12","training","adjacent","BA","2","1","L.jpg","R.jpg","1","0","0","",""
"","feedback","","html-keyboard-response","86","144849","0.0-1.0-114.0-0.0","0","0","70745","","null","","","null","12","","","","","","","","","","","","","","","",""
"","time_out","","html-keyboard-response","87","146851","0.0-1.0-116.0-0.0","0","0","70745","","null","","","null","12","","","","","","","","","","","","","","","",""
"","ITI","","html-keyboard-response","88","147852","0.0-1.0-117.0","0","0","70745","","null","","","null","12","","","","","","","","","","","","","","","NaN",""
"","S1","","html-keyboard-response","89","148105","0.0-1.0-119.0","0","0","70745","","null","","","null","13","","","","","","","","","","","","","","","",""
"","ISI","","html-keyboard-response","90","150106","0.0-1.0-120.0","0","0","70745","","null","","","null","13","NaN","","","","","","","","","","","","","","",""
"","S2","","html-keyboard-response","91","150359","0.0-1.0-121.0","0","0","70745","","null","","","null","13","","NaN","","","","","","","","","","","","","",""
"","response","","html-keyboard-response","92","150896","0.0-1.0-122.0-0.0","0","0","70745","","536","","","75","13","","","1","13","training","adjacent","BC","2","3","L.jpg","N.jpg","1","1","1","",""
"","feedback","","html-keyboard-response","93","151899","0.0-1.0-123.0-0.0","0","0","70745","","null","","","null","13","","","","","","","","","","","","","","","",""
"","ITI","","html-keyboard-response","94","152901","0.0-1.0-126.0","0","0","70745","","null","","","null","13","","","","","","","","","","","","","","","NaN",""
"","S1","","html-keyboard-response","95","153153","0.0-1.0-128.0","0","0","70745","","null","","","null","14","","","","","","","","","","","","","","","",""
"","ISI","","html-keyboard-response","96","155156","0.0-1.0-129.0","0","0","70745","","null","","","null","14","NaN","","","","","","","","","","","","","","",""
"","S2","","html-keyboard-response","97","155409","0.0-1.0-130.0","0","0","70745","","null","","","null","14","","NaN","","","","","","","","","","","","","",""
"","response","","html-keyboard-response","98","155441","0.0-1.0-131.0-0.0","0","0","70745","","31","","","68","14","","","1","14","training","adjacent","GF","7","6","M.jpg","Q.jpg","0","0","1","",""
"","feedback","","html-keyboard-response","99","156443","0.0-1.0-132.0-0.0","0","0","70745","","null","","","null","14","","","","","","","","","","","","","","","",""
"","ITI","","html-keyboard-response","100","157444","0.0-1.0-135.0","0","0","70745","","null","","","null","14","","","","","","","","","","","","","","","NaN",""
"","S1","","html-keyboard-response","101","157696","0.0-1.0-137.0","0","0","70745","","null","","","null","15","","","","","","","","","","","","","","","",""
"","ISI","","html-keyboard-response","102","159698","0.0-1.0-138.0","0","0","70745","","null","","","null","15","NaN","","","","","","","","","","","","","","",""
"","S2","","html-keyboard-response","103","159950","0.0-1.0-139.0","0","0","70745","","null","","","null","15","","NaN","","","","","","","","","","","","","",""
"","response","","html-keyboard-response","104","160048","0.0-1.0-140.0-0.0","0","0","70745","","98","","","68","15","","","1","15","training","adjacent","GF","7","6","M.jpg","Q.jpg","0","0","1","",""
"","feedback","","html-keyboard-response","105","161064","0.0-1.0-141.0-0.0","0","0","70745","","null","","","null","15","","","","","","","","","","","","","","","",""
"","ITI","","html-keyboard-response","106","162066","0.0-1.0-144.0","0","0","70745","","null","","","null","15","","","","","","","","","","","","","","","NaN",""
"","S1","","html-keyboard-response","107","162319","0.0-1.0-146.0","0","0","70745","","null","","","null","16","","","","","","","","","","","","","","","",""
"","ISI","","html-keyboard-response","108","164320","0.0-1.0-147.0","0","0","70745","","null","","","null","16","NaN","","","","","","","","","","","","","","",""
"","S2","","html-keyboard-response","109","164573","0.0-1.0-148.0","0","0","70745","","null","","","null","16","","NaN","","","","","","","","","","","","","",""
"","response","","html-keyboard-response","110","164722","0.0-1.0-149.0-0.0","0","0","70745","","148","","","75","16","","","1","16","training","adjacent","ED","5","4","P.jpg","O.jpg","1","0","0","",""
"","feedback","","html-keyboard-response","111","165725","0.0-1.0-150.0-0.0","0","0","70745","","null","","","null","16","","","","","","","","","","","","","","","",""
"","time_out","","html-keyboard-response","112","167727","0.0-1.0-152.0-0.0","0","0","70745","","null","","","null","16","","","","","","","","","","","","","","","",""
"","ITI","","html-keyboard-response","113","168729","0.0-1.0-153.0","0","0","70745","","null","","","null","16","","","","","","","","","","","","","","","NaN",""
"","S1","","html-keyboard-response","114","168991","0.0-1.0-155.0","0","0","70745","","null","","","null","17","","","","","","","","","","","","","","","",""
"","ISI","","html-keyboard-response","115","170993","0.0-1.0-156.0","0","0","70745","","null","","","null","17","NaN","","","","","","","","","","","","","","",""
"","S2","","html-keyboard-response","116","171246","0.0-1.0-157.0","0","0","70745","","null","","","null","17","","NaN","","","","","","","","","","","","","",""
"","response","","html-keyboard-response","117","171322","0.0-1.0-158.0-0.0","0","0","70745","","75","","","75","17","","","1","17","training","adjacent","DE","4","5","O.jpg","P.jpg","1","1","1","",""
"","feedback","","html-keyboard-response","118","172324","0.0-1.0-159.0-0.0","0","0","70745","","null","","","null","17","","","","","","","","","","","","","","","",""
"","ITI","","html-keyboard-response","119","173326","0.0-1.0-162.0","0","0","70745","","null","","","null","17","","","","","","","","","","","","","","","NaN",""
"","S1","","html-keyboard-response","120","173579","0.0-1.0-164.0","0","0","70745","","null","","","null","18","","","","","","","","","","","","","","","",""
"","ISI","","html-keyboard-response","121","175580","0.0-1.0-165.0","0","0","70745","","null","","","null","18","NaN","","","","","","","","","","","","","","",""
"","S2","","html-keyboard-response","122","175832","0.0-1.0-166.0","0","0","70745","","null","","","null","18","","NaN","","","","","","","","","","","","","",""
"","response","","html-keyboard-response","123","175986","0.0-1.0-167.0-0.0","0","0","70745","","154","","","68","18","","","1","18","training","adjacent","CD","3","4","N.jpg","O.jpg","0","1","0","",""
"","feedback","","html-keyboard-response","124","176989","0.0-1.0-168.0-0.0","0","0","70745","","null","","","null","18","","","","","","","","","","","","","","","",""
"","time_out","","html-keyboard-response","125","178991","0.0-1.0-170.0-0.0","0","0","70745","","null","","","null","18","","","","","","","","","","","","","","","",""
"","ITI","","html-keyboard-response","126","179993","0.0-1.0-171.0","0","0","70745","","null","","","null","18","","","","","","","","","","","","","","","NaN",""
"","S1","","html-keyboard-response","127","180244","0.0-1.0-173.0","0","0","70745","","null","","","null","19","","","","","","","","","","","","","","","",""
"","ISI","","html-keyboard-response","128","182246","0.0-1.0-174.0","0","0","70745","","null","","","null","19","NaN","","","","","","","","","","","","","","",""
"","S2","","html-keyboard-response","129","182499","0.0-1.0-175.0","0","0","70745","","null","","","null","19","","NaN","","","","","","","","","","","","","",""
"","response","","html-keyboard-response","130","182636","0.0-1.0-176.0-0.0","0","0","70745","","136","","","68","19","","","1","19","training","adjacent","AB","1","2","R.jpg","L.jpg","0","1","0","",""
"","feedback","","html-keyboard-response","131","183639","0.0-1.0-177.0-0.0","0","0","70745","","null","","","null","19","","","","","","","","","","","","","","","",""
"","time_out","","html-keyboard-response","132","185642","0.0-1.0-179.0-0.0","0","0","70745","","null","","","null","19","","","","","","","","","","","","","","","",""
"","ITI","","html-keyboard-response","133","186644","0.0-1.0-180.0","0","0","70745","","null","","","null","19","","","","","","","","","","","","","","","NaN",""
"","S1","","html-keyboard-response","134","186895","0.0-1.0-182.0","0","0","70745","","null","","","null","20","","","","","","","","","","","","","","","",""
"","ISI","","html-keyboard-response","135","188897","0.0-1.0-183.0","0","0","70745","","null","","","null","20","NaN","","","","","","","","","","","","","","",""
"","S2","","html-keyboard-response","136","189150","0.0-1.0-184.0","0","0","70745","","null","","","null","20","","NaN","","","","","","","","","","","","","",""
"","response","","html-keyboard-response","137","189172","0.0-1.0-185.0-0.0","0","0","70745","","21","","","75","20","","","1","20","training","adjacent","DC","4","3","O.jpg","N.jpg","1","0","0","",""
"","feedback","","html-keyboard-response","138","190174","0.0-1.0-186.0-0.0","0","0","70745","","null","","","null","20","","","","","","","","","","","","","","","",""
"","time_out","","html-keyboard-response","139","192176","0.0-1.0-188.0-0.0","0","0","70745","","null","","","null","20","","","","","","","","","","","","","","","",""
"","ITI","","html-keyboard-response","140","193179","0.0-1.0-189.0","0","0","70745","","null","","","null","20","","","","","","","","","","","","","","","NaN",""
"","S1","","html-keyboard-response","141","193431","0.0-1.0-191.0","0","0","70745","","null","","","null","21","","","","","","","","","","","","","","","",""
"","ISI","","html-keyboard-response","142","195433","0.0-1.0-192.0","0","0","70745","","null","","","null","21","NaN","","","","","","","","","","","","","","",""
"","S2","","html-keyboard-response","143","195685","0.0-1.0-193.0","0","0","70745","","null","","","null","21","","NaN","","","","","","","","","","","","","",""
"","response","","html-keyboard-response","144","195765","0.0-1.0-194.0-0.0","0","0","70745","","78","","","75","21","","","1","21","training","adjacent","BA","2","1","L.jpg","R.jpg","1","0","0","",""
"","feedback","","html-keyboard-response","145","196768","0.0-1.0-195.0-0.0","0","0","70745","","null","","","null","21","","","","","","","","","","","","","","","",""
"","time_out","","html-keyboard-response","146","198769","0.0-1.0-197.0-0.0","0","0","70745","","null","","","null","21","","","","","","","","","","","","","","","",""
"","ITI","","html-keyboard-response","147","199771","0.0-1.0-198.0","0","0","70745","","null","","","null","21","","","","","","","","","","","","","","","NaN",""
"","S1","","html-keyboard-response","148","200023","0.0-1.0-200.0","0","0","70745","","null","","","null","22","","","","","","","","","","","","","","","",""
"","ISI","","html-keyboard-response","149","202025","0.0-1.0-201.0","0","0","70745","","null","","","null","22","NaN","","","","","","","","","","","","","","",""
"","S2","","html-keyboard-response","150","202278","0.0-1.0-202.0","0","0","70745","","null","","","null","22","","NaN","","","","","","","","","","","","","",""
"","response","","html-keyboard-response","151","202374","0.0-1.0-203.0-0.0","0","0","70745","","94","","","75","22","","","1","22","training","adjacent","EF","5","6","P.jpg","Q.jpg","1","1","1","",""
"","feedback","","html-keyboard-response","152","203376","0.0-1.0-204.0-0.0","0","0","70745","","null","","","null","22","","","","","","","","","","","","","","","",""
"","ITI","","html-keyboard-response","153","204377","0.0-1.0-207.0","0","0","70745","","null","","","null","22","","","","","","","","","","","","","","","NaN",""
"","S1","","html-keyboard-response","154","204630","0.0-1.0-209.0","0","0","70745","","null","","","null","23","","","","","","","","","","","","","","","",""
"","ISI","","html-keyboard-response","155","206631","0.0-1.0-210.0","0","0","70745","","null","","","null","23","NaN","","","","","","","","","","","","","","",""
"","S2","","html-keyboard-response","156","206884","0.0-1.0-211.0","0","0","70745","","null","","","null","23","","NaN","","","","","","","","","","","","","",""
"","response","","html-keyboard-response","157","206990","0.0-1.0-212.0-0.0","0","0","70745","","106","","","75","23","","","1","23","training","adjacent","DC","4","3","O.jpg","N.jpg","1","0","0","",""
"","feedback","","html-keyboard-response","158","207992","0.0-1.0-213.0-0.0","0","0","70745","","null","","","null","23","","","","","","","","","","","","","","","",""
"","time_out","","html-keyboard-response","159","209994","0.0-1.0-215.0-0.0","0","0","70745","","null","","","null","23","","","","","","","","","","","","","","","",""
"","ITI","","html-keyboard-response","160","210996","0.0-1.0-216.0","0","0","70745","","null","","","null","23","","","","","","","","","","","","","","","NaN",""
"","S1","","html-keyboard-response","161","211248","0.0-1.0-218.0","0","0","70745","","null","","","null","24","","","","","","","","","","","","","","","",""
"","ISI","","html-keyboard-response","162","213250","0.0-1.0-219.0","0","0","70745","","null","","","null","24","NaN","","","","","","","","","","","","","","",""
"","S2","","html-keyboard-response","163","213502","0.0-1.0-220.0","0","0","70745","","null","","","null","24","","NaN","","","","","","","","","","","","","",""
"","response","","html-keyboard-response","164","213656","0.0-1.0-221.0-0.0","0","0","70745","","152","","","75","24","","","1","24","training","adjacent","FG","6","7","Q.jpg","M.jpg","1","1","1","",""
"","feedback","","html-keyboard-response","165","214658","0.0-1.0-222.0-0.0","0","0","70745","","null","","","null","24","","","","","","","","","","","","","","","",""
"","ITI","","html-keyboard-response","166","215660","0.0-1.0-225.0","0","0","70745","","null","","","null","24","","","","","","","","","","","","","","","NaN",""
"","S1","","html-keyboard-response","167","215913","0.0-1.0-227.0","0","0","70745","","null","","","null","25","","","","","","","","","","","","","","","",""
"","ISI","","html-keyboard-response","168","217914","0.0-1.0-228.0","0","0","70745","","null","","","null","25","NaN","","","","","","","","","","","","","","",""
"","S2","","html-keyboard-response","169","218167","0.0-1.0-229.0","0","0","70745","","null","","","null","25","","NaN","","","","","","","","","","","","","",""
"","response","","html-keyboard-response","170","218344","0.0-1.0-230.0-0.0","0","0","70745","","176","","","68","25","","","1","25","training","adjacent","DE","4","5","O.jpg","P.jpg","0","1","0","",""
"","feedback","","html-keyboard-response","171","219346","0.0-1.0-231.0-0.0","0","0","70745","","null","","","null","25","","","","","","","","","","","","","","","",""
"","time_out","","html-keyboard-response","172","221349","0.0-1.0-233.0-0.0","0","0","70745","","null","","","null","25","","","","","","","","","","","","","","","",""
"","ITI","","html-keyboard-response","173","222351","0.0-1.0-234.0","0","0","70745","","null","","","null","25","","","","","","","","","","","","","","","NaN",""
"","S1","","html-keyboard-response","174","222603","0.0-1.0-236.0","0","0","70745","","null","","","null","26","","","","","","","","","","","","","","","",""
"","ISI","","html-keyboard-response","175","224604","0.0-1.0-237.0","0","0","70745","","null","","","null","26","NaN","","","","","","","","","","","","","","",""
"","S2","","html-keyboard-response","176","224856","0.0-1.0-238.0","0","0","70745","","null","","","null","26","","NaN","","","","","","","","","","","","","",""
"","response","","html-keyboard-response","177","225257","0.0-1.0-239.0-0.0","0","0","70745","","399","","","75","26","","","1","26","training","adjacent","BA","2","1","L.jpg","R.jpg","1","0","0","",""
"","feedback","","html-keyboard-response","178","226259","0.0-1.0-240.0-0.0","0","0","70745","","null","","","null","26","","","","","","","","","","","","","","","",""
"","time_out","","html-keyboard-response","179","228260","0.0-1.0-242.0-0.0","0","0","70745","","null","","","null","26","","","","","","","","","","","","","","","",""
"","ITI","","html-keyboard-response","180","229262","0.0-1.0-243.0","0","0","70745","","null","","","null","26","","","","","","","","","","","","","","","NaN",""
"","S1","","html-keyboard-response","181","229515","0.0-1.0-245.0","0","0","70745","","null","","","null","27","","","","","","","","","","","","","","","",""
"","ISI","","html-keyboard-response","182","231517","0.0-1.0-246.0","0","0","70745","","null","","","null","27","NaN","","","","","","","","","","","","","","",""
"","S2","","html-keyboard-response","183","231769","0.0-1.0-247.0","0","0","70745","","null","","","null","27","","NaN","","","","","","","","","","","","","",""
"","response","","html-keyboard-response","184","231849","0.0-1.0-248.0-0.0","0","0","70745","","79","","","75","27","","","1","27","training","adjacent","FE","6","5","Q.jpg","P.jpg","1","0","0","",""
"","feedback","","html-keyboard-response","185","232851","0.0-1.0-249.0-0.0","0","0","70745","","null","","","null","27","","","","","","","","","","","","","","","",""
"","time_out","","html-keyboard-response","186","234853","0.0-1.0-251.0-0.0","0","0","70745","","null","","","null","27","","","","","","","","","","","","","","","",""
"","ITI","","html-keyboard-response","187","235854","0.0-1.0-252.0","0","0","70745","","null","","","null","27","","","","","","","","","","","","","","","NaN",""
"","S1","","html-keyboard-response","188","236106","0.0-1.0-254.0","0","0","70745","","null","","","null","28","","","","","","","","","","","","","","","",""
"","ISI","","html-keyboard-response","189","238108","0.0-1.0-255.0","0","0","70745","","null","","","null","28","NaN","","","","","","","","","","","","","","",""
"","S2","","html-keyboard-response","190","238360","0.0-1.0-256.0","0","0","70745","","null","","","null","28","","NaN","","","","","","","","","","","","","",""
"","response","","html-keyboard-response","191","238482","0.0-1.0-257.0-0.0","0","0","70745","","121","","","68","28","","","1","28","training","adjacent","DC","4","3","O.jpg","N.jpg","0","0","1","",""
"","feedback","","html-keyboard-response","192","239484","0.0-1.0-258.0-0.0","0","0","70745","","null","","","null","28","","","","","","","","","","","","","","","",""
"","ITI","","html-keyboard-response","193","240486","0.0-1.0-261.0","0","0","70745","","null","","","null","28","","","","","","","","","","","","","","","NaN",""
"","S1","","html-keyboard-response","194","240737","0.0-1.0-263.0","0","0","70745","","null","","","null","29","","","","","","","","","","","","","","","",""
"","ISI","","html-keyboard-response","195","242740","0.0-1.0-264.0","0","0","70745","","null","","","null","29","NaN","","","","","","","","","","","","","","",""
"","S2","","html-keyboard-response","196","242992","0.0-1.0-265.0","0","0","70745","","null","","","null","29","","NaN","","","","","","","","","","","","","",""
"","response","","html-keyboard-response","197","243091","0.0-1.0-266.0-0.0","0","0","70745","","97","","","75","29","","","1","29","training","adjacent","CD","3","4","N.jpg","O.jpg","1","1","1","",""
"","feedback","","html-keyboard-response","198","244097","0.0-1.0-267.0-0.0","0","0","70745","","null","","","null","29","","","","","","","","","","","","","","","",""
"","ITI","","html-keyboard-response","199","245111","0.0-1.0-270.0","0","0","70745","","null","","","null","29","","","","","","","","","","","","","","","NaN",""
"","S1","","html-keyboard-response","200","245364","0.0-1.0-272.0","0","0","70745","","null","","","null","30","","","","","","","","","","","","","","","",""
"","ISI","","html-keyboard-response","201","247365","0.0-1.0-273.0","0","0","70745","","null","","","null","30","NaN","","","","","","","","","","","","","","",""
"","S2","","html-keyboard-response","202","247617","0.0-1.0-274.0","0","0","70745","","null","","","null","30","","NaN","","","","","","","","","","","","","",""
"","response","","html-keyboard-response","203","247748","0.0-1.0-275.0-0.0","0","0","70745","","129","","","75","30","","","1","30","training","adjacent","ED","5","4","P.jpg","O.jpg","1","0","0","",""
"","feedback","","html-keyboard-response","204","248750","0.0-1.0-276.0-0.0","0","0","70745","","null","","","null","30","","","","","","","","","","","","","","","",""
"","time_out","","html-keyboard-response","205","250752","0.0-1.0-278.0-0.0","0","0","70745","","null","","","null","30","","","","","","","","","","","","","","","",""
"","ITI","","html-keyboard-response","206","251754","0.0-1.0-279.0","0","0","70745","","null","","","null","30","","","","","","","","","","","","","","","NaN",""
"","S1","","html-keyboard-response","207","252006","0.0-1.0-281.0","0","0","70745","","null","","","null","31","","","","","","","","","","","","","","","",""
"","ISI","","html-keyboard-response","208","254008","0.0-1.0-282.0","0","0","70745","","null","","","null","31","NaN","","","","","","","","","","","","","","",""
"","S2","","html-keyboard-response","209","254260","0.0-1.0-283.0","0","0","70745","","null","","","null","31","","NaN","","","","","","","","","","","","","",""
"","response","","html-keyboard-response","210","254372","0.0-1.0-284.0-0.0","0","0","70745","","111","","","68","31","","","1","31","training","adjacent","AB","1","2","R.jpg","L.jpg","0","1","0","",""
"","feedback","","html-keyboard-response","211","255374","0.0-1.0-285.0-0.0","0","0","70745","","null","","","null","31","","","","","","","","","","","","","","","",""
"","time_out","","html-keyboard-response","212","257376","0.0-1.0-287.0-0.0","0","0","70745","","null","","","null","31","","","","","","","","","","","","","","","",""
"","ITI","","html-keyboard-response","213","258377","0.0-1.0-288.0","0","0","70745","","null","","","null","31","","","","","","","","","","","","","","","NaN",""
"","S1","","html-keyboard-response","214","258629","0.0-1.0-290.0","0","0","70745","","null","","","null","32","","","","","","","","","","","","","","","",""
"","ISI","","html-keyboard-response","215","260631","0.0-1.0-291.0","0","0","70745","","null","","","null","32","NaN","","","","","","","","","","","","","","",""
"","S2","","html-keyboard-response","216","260883","0.0-1.0-292.0","0","0","70745","","null","","","null","32","","NaN","","","","","","","","","","","","","",""
"","response","","html-keyboard-response","217","260957","0.0-1.0-293.0-0.0","0","0","70745","","72","","","75","32","","","1","32","training","adjacent","EF","5","6","P.jpg","Q.jpg","1","1","1","",""
"","feedback","","html-keyboard-response","218","261959","0.0-1.0-294.0-0.0","0","0","70745","","null","","","null","32","","","","","","","","","","","","","","","",""
"","ITI","","html-keyboard-response","219","262961","0.0-1.0-297.0","0","0","70745","","null","","","null","32","","","","","","","","","","","","","","","NaN",""
"","S1","","html-keyboard-response","220","263212","0.0-1.0-299.0","0","0","70745","","null","","","null","33","","","","","","","","","","","","","","","",""
"","ISI","","html-keyboard-response","221","265214","0.0-1.0-300.0","0","0","70745","","null","","","null","33","NaN","","","","","","","","","","","","","","",""
"","S2","","html-keyboard-response","222","265466","0.0-1.0-301.0","0","0","70745","","null","","","null","33","","NaN","","","","","","","","","","","","","",""
"","response","","html-keyboard-response","223","265501","0.0-1.0-302.0-0.0","0","0","70745","","35","","","68","33","","","1","33","training","adjacent","AB","1","2","R.jpg","L.jpg","0","1","0","",""
"","feedback","","html-keyboard-response","224","266504","0.0-1.0-303.0-0.0","0","0","70745","","null","","","null","33","","","","","","","","","","","","","","","",""
"","time_out","","html-keyboard-response","225","268506","0.0-1.0-305.0-0.0","0","0","70745","","null","","","null","33","","","","","","","","","","","","","","","",""
"","ITI","","html-keyboard-response","226","269509","0.0-1.0-306.0","0","0","70745","","null","","","null","33","","","","","","","","","","","","","","","NaN",""
"","S1","","html-keyboard-response","227","269760","0.0-1.0-308.0","0","0","70745","","null","","","null","34","","","","","","","","","","","","","","","",""
"","ISI","","html-keyboard-response","228","271762","0.0-1.0-309.0","0","0","70745","","null","","","null","34","NaN","","","","","","","","","","","","","","",""
"","S2","","html-keyboard-response","229","272014","0.0-1.0-310.0","0","0","70745","","null","","","null","34","","NaN","","","","","","","","","","","","","",""
"","response","","html-keyboard-response","230","272279","0.0-1.0-311.0-0.0","0","0","70745","","265","","","75","34","","","1","34","training","adjacent","DE","4","5","O.jpg","P.jpg","1","1","1","",""
"","feedback","","html-keyboard-response","231","273282","0.0-1.0-312.0-0.0","0","0","70745","","null","","","null","34","","","","","","","","","","","","","","","",""
"","ITI","","html-keyboard-response","232","274284","0.0-1.0-315.0","0","0","70745","","null","","","null","34","","","","","","","","","","","","","","","NaN",""
"","S1","","html-keyboard-response","233","274535","0.0-1.0-317.0","0","0","70745","","null","","","null","35","","","","","","","","","","","","","","","",""
"","ISI","","html-keyboard-response","234","276538","0.0-1.0-318.0","0","0","70745","","null","","","null","35","NaN","","","","","","","","","","","","","","",""
"","S2","","html-keyboard-response","235","276790","0.0-1.0-319.0","0","0","70745","","null","","","null","35","","NaN","","","","","","","","","","","","","",""
"","response","","html-keyboard-response","236","276879","0.0-1.0-320.0-0.0","0","0","70745","","88","","","68","35","","","1","35","training","adjacent","BC","2","3","L.jpg","N.jpg","0","1","0","",""
"","feedback","","html-keyboard-response","237","277881","0.0-1.0-321.0-0.0","0","0","70745","","null","","","null","35","","","","","","","","","","","","","","","",""
"","time_out","","html-keyboard-response","238","279882","0.0-1.0-323.0-0.0","0","0","70745","","null","","","null","35","","","","","","","","","","","","","","","",""
"","ITI","","html-keyboard-response","239","280884","0.0-1.0-324.0","0","0","70745","","null","","","null","35","","","","","","","","","","","","","","","NaN",""
"","S1","","html-keyboard-response","240","281136","0.0-1.0-326.0","0","0","70745","","null","","","null","36","","","","","","","","","","","","","","","",""
"","ISI","","html-keyboard-response","241","283138","0.0-1.0-327.0","0","0","70745","","null","","","null","36","NaN","","","","","","","","","","","","","","",""
"","S2","","html-keyboard-response","242","283390","0.0-1.0-328.0","0","0","70745","","null","","","null","36","","NaN","","","","","","","","","","","","","",""
"","response","","html-keyboard-response","243","283649","0.0-1.0-329.0-0.0","0","0","70745","","257","","","75","36","","","1","36","training","adjacent","CB","3","2","N.jpg","L.jpg","1","0","0","",""
"","feedback","","html-keyboard-response","244","284651","0.0-1.0-330.0-0.0","0","0","70745","","null","","","null","36","","","","","","","","","","","","","","","",""
"","time_out","","html-keyboard-response","245","286653","0.0-1.0-332.0-0.0","0","0","70745","","null","","","null","36","","","","","","","","","","","","","","","",""
"","ITI","","html-keyboard-response","246","287655","0.0-1.0-333.0","0","0","70745","","null","","","null","36","","","","","","","","","","","","","","","NaN",""
"","S1","","html-keyboard-response","247","287908","0.0-1.0-335.0","0","0","70745","","null","","","null","37","","","","","","","","","","","","","","","",""
"","ISI","","html-keyboard-response","248","289910","0.0-1.0-336.0","0","0","70745","","null","","","null","37","NaN","","","","","","","","","","","","","","",""
"","S2","","html-keyboard-response","249","290162","0.0-1.0-337.0","0","0","70745","","null","","","null","37","","NaN","","","","","","","","","","","","","",""
"","response","","html-keyboard-response","250","290345","0.0-1.0-338.0-0.0","0","0","70745","","182","","","68","37","","","1","37","training","adjacent","DC","4","3","O.jpg","N.jpg","0","0","1","",""
"","feedback","","html-keyboard-response","251","291348","0.0-1.0-339.0-0.0","0","0","70745","","null","","","null","37","","","","","","","","","","","","","","","",""
"","ITI","","html-keyboard-response","252","292350","0.0-1.0-342.0","0","0","70745","","null","","","null","37","","","","","","","","","","","","","","","NaN",""
"","S1","","html-keyboard-response","253","292602","0.0-1.0-344.0","0","0","70745","","null","","","null","38","","","","","","","","","","","","","","","",""
"","ISI","","html-keyboard-response","254","294604","0.0-1.0-345.0","0","0","70745","","null","","","null","38","NaN","","","","","","","","","","","","","","",""
"","S2","","html-keyboard-response","255","294856","0.0-1.0-346.0","0","0","70745","","null","","","null","38","","NaN","","","","","","","","","","","","","",""
"","response","","html-keyboard-response","256","294953","0.0-1.0-347.0-0.0","0","0","70745","","95","","","75","38","","","1","38","training","adjacent","FG","6","7","Q.jpg","M.jpg","1","1","1","",""
"","feedback","","html-keyboard-response","257","295955","0.0-1.0-348.0-0.0","0","0","70745","","null","","","null","38","","","","","","","","","","","","","","","",""
"","ITI","","html-keyboard-response","258","296957","0.0-1.0-351.0","0","0","70745","","null","","","null","38","","","","","","","","","","","","","","","NaN",""
"","S1","","html-keyboard-response","259","297209","0.0-1.0-353.0","0","0","70745","","null","","","null","39","","","","","","","","","","","","","","","",""
"","ISI","","html-keyboard-response","260","299210","0.0-1.0-354.0","0","0","70745","","null","","","null","39","NaN","","","","","","","","","","","","","","",""
"","S2","","html-keyboard-response","261","299462","0.0-1.0-355.0","0","0","70745","","null","","","null","39","","NaN","","","","","","","","","","","","","",""
"","response","","html-keyboard-response","262","299658","0.0-1.0-356.0-0.0","0","0","70745","","194","","","68","39","","","1","39","training","adjacent","EF","5","6","P.jpg","Q.jpg","0","1","0","",""
"","feedback","","html-keyboard-response","263","300661","0.0-1.0-357.0-0.0","0","0","70745","","null","","","null","39","","","","","","","","","","","","","","","",""
"","time_out","","html-keyboard-response","264","302663","0.0-1.0-359.0-0.0","0","0","70745","","null","","","null","39","","","","","","","","","","","","","","","",""
"","ITI","","html-keyboard-response","265","303665","0.0-1.0-360.0","0","0","70745","","null","","","null","39","","","","","","","","","","","","","","","NaN",""
"","S1","","html-keyboard-response","266","303918","0.0-1.0-362.0","0","0","70745","","null","","","null","40","","","","","","","","","","","","","","","",""
"","ISI","","html-keyboard-response","267","305920","0.0-1.0-363.0","0","0","70745","","null","","","null","40","NaN","","","","","","","","","","","","","","",""
"","S2","","html-keyboard-response","268","306172","0.0-1.0-364.0","0","0","70745","","null","","","null","40","","NaN","","","","","","","","","","","","","",""
"","response","","html-keyboard-response","269","306203","0.0-1.0-365.0-0.0","0","0","70745","","29","","","68","40","","","1","40","training","adjacent","AB","1","2","R.jpg","L.jpg","0","1","0","",""
"","feedback","","html-keyboard-response","270","307205","0.0-1.0-366.0-0.0","0","0","70745","","null","","","null","40","","","","","","","","","","","","","","","",""
"","time_out","","html-keyboard-response","271","309207","0.0-1.0-368.0-0.0","0","0","70745","","null","","","null","40","","","","","","","","","","","","","","","",""
"","ITI","","html-keyboard-response","272","310209","0.0-1.0-369.0","0","0","70745","","null","","","null","40","","","","","","","","","","","","","","","NaN",""
"","S1","","html-keyboard-response","273","310462","0.0-1.0-371.0","0","0","70745","","null","","","null","41","","","","","","","","","","","","","","","",""
"","ISI","","html-keyboard-response","274","312463","0.0-1.0-372.0","0","0","70745","","null","","","null","41","NaN","","","","","","","","","","","","","","",""
"","S2","","html-keyboard-response","275","312715","0.0-1.0-373.0","0","0","70745","","null","","","null","41","","NaN","","","","","","","","","","","","","",""
"","response","","html-keyboard-response","276","312763","0.0-1.0-374.0-0.0","0","0","70745","","47","","","75","41","","","1","41","training","adjacent","FG","6","7","Q.jpg","M.jpg","1","1","1","",""
"","feedback","","html-keyboard-response","277","313766","0.0-1.0-375.0-0.0","0","0","70745","","null","","","null","41","","","","","","","","","","","","","","","",""
"","ITI","","html-keyboard-response","278","314768","0.0-1.0-378.0","0","0","70745","","null","","","null","41","","","","","","","","","","","","","","","NaN",""
"","S1","","html-keyboard-response","279","315021","0.0-1.0-380.0","0","0","70745","","null","","","null","42","","","","","","","","","","","","","","","",""
"","ISI","","html-keyboard-response","280","317023","0.0-1.0-381.0","0","0","70745","","null","","","null","42","NaN","","","","","","","","","","","","","","",""
"","S2","","html-keyboard-response","281","317276","0.0-1.0-382.0","0","0","70745","","null","","","null","42","","NaN","","","","","","","","","","","","","",""
"","response","","html-keyboard-response","282","317341","0.0-1.0-383.0-0.0","0","0","70745","","63","","","75","42","","","1","42","training","adjacent","FE","6","5","Q.jpg","P.jpg","1","0","0","",""
"","feedback","","html-keyboard-response","283","318342","0.0-1.0-384.0-0.0","0","0","70745","","null","","","null","42","","","","","","","","","","","","","","","",""
"","time_out","","html-keyboard-response","284","320344","0.0-1.0-386.0-0.0","0","0","70745","","null","","","null","42","","","","","","","","","","","","","","","",""
"","ITI","","html-keyboard-response","285","321346","0.0-1.0-387.0","0","0","70745","","null","","","null","42","","","","","","","","","","","","","","","NaN",""
"","S1","","html-keyboard-response","286","321600","0.0-1.0-389.0","0","0","70745","","null","","","null","43","","","","","","","","","","","","","","","",""
"","ISI","","html-keyboard-response","287","323601","0.0-1.0-390.0","0","0","70745","","null","","","null","43","NaN","","","","","","","","","","","","","","",""
"","S2","","html-keyboard-response","288","323853","0.0-1.0-391.0","0","0","70745","","null","","","null","43","","NaN","","","","","","","","","","","","","",""
"","response","","html-keyboard-response","289","323877","0.0-1.0-392.0-0.0","0","0","70745","","22","","","75","43","","","1","43","training","adjacent","CB","3","2","N.jpg","L.jpg","1","0","0","",""
"","feedback","","html-keyboard-response","290","324879","0.0-1.0-393.0-0.0","0","0","70745","","null","","","null","43","","","","","","","","","","","","","","","",""
"","time_out","","html-keyboard-response","291","326881","0.0-1.0-395.0-0.0","0","0","70745","","null","","","null","43","","","","","","","","","","","","","","","",""
"","ITI","","html-keyboard-response","292","327882","0.0-1.0-396.0","0","0","70745","","null","","","null","43","","","","","","","","","","","","","","","NaN",""
"","S1","","html-keyboard-response","293","328133","0.0-1.0-398.0","0","0","70745","","null","","","null","44","","","","","","","","","","","","","","","",""
"","ISI","","html-keyboard-response","294","330135","0.0-1.0-399.0","0","0","70745","","null","","","null","44","NaN","","","","","","","","","","","","","","",""
"","S2","","html-keyboard-response","295","330387","0.0-1.0-400.0","0","0","70745","","null","","","null","44","","NaN","","","","","","","","","","","","","",""
"","response","","html-keyboard-response","296","330590","0.0-1.0-401.0-0.0","0","0","70745","","201","","","68","44","","","1","44","training","adjacent","ED","5","4","P.jpg","O.jpg","0","0","1","",""
"","feedback","","html-keyboard-response","297","331592","0.0-1.0-402.0-0.0","0","0","70745","","null","","","null","44","","","","","","","","","","","","","","","",""
"","ITI","","html-keyboard-response","298","332595","0.0-1.0-405.0","0","0","70745","","null","","","null","44","","","","","","","","","","","","","","","NaN",""
"","S1","","html-keyboard-response","299","332847","0.0-1.0-407.0","0","0","70745","","null","","","null","45","","","","","","","","","","","","","","","",""
"","ISI","","html-keyboard-response","300","334849","0.0-1.0-408.0","0","0","70745","","null","","","null","45","NaN","","","","","","","","","","","","","","",""
"","S2","","html-keyboard-response","301","335100","0.0-1.0-409.0","0","0","70745","","null","","","null","45","","NaN","","","","","","","","","","","","","",""
"","response","","html-keyboard-response","302","335126","0.0-1.0-410.0-0.0","0","0","70745","","24","","","75","45","","","1","45","training","adjacent","ED","5","4","P.jpg","O.jpg","1","0","0","",""
"","feedback","","html-keyboard-response","303","336136","0.0-1.0-411.0-0.0","0","0","70745","","null","","","null","45","","","","","","","","","","","","","","","",""
"","time_out","","html-keyboard-response","304","338139","0.0-1.0-413.0-0.0","0","0","70745","","null","","","null","45","","","","","","","","","","","","","","","",""
"","ITI","","html-keyboard-response","305","339141","0.0-1.0-414.0","0","0","70745","","null","","","null","45","","","","","","","","","","","","","","","NaN",""
"","S1","","html-keyboard-response","306","339392","0.0-1.0-416.0","0","0","70745","","null","","","null","46","","","","","","","","","","","","","","","",""
"","ISI","","html-keyboard-response","307","341393","0.0-1.0-417.0","0","0","70745","","454","","","75","46","k","","","","","","","","","","","","","","",""
"","S2","","html-keyboard-response","308","341645","0.0-1.0-418.0","0","0","70745","","null","","","null","46","","NaN","","","","","","","","","","","","","",""
"","response","","html-keyboard-response","309","341719","0.0-1.0-419.0-0.0","0","0","70745","","72","","","75","46","","","1","46","training","adjacent","FG","6","7","Q.jpg","M.jpg","1","1","1","",""
"","feedback","","html-keyboard-response","310","342723","0.0-1.0-420.0-0.0","0","0","70745","","null","","","null","46","","","","","","","","","","","","","","","",""
"","ITI","","html-keyboard-response","311","343725","0.0-1.0-423.0","0","0","70745","","null","","","null","46","","","","","","","","","","","","","","","NaN",""
"","S1","","html-keyboard-response","312","343976","0.0-1.0-425.0","0","0","70745","","null","","","null","47","","","","","","","","","","","","","","","",""
"","ISI","","html-keyboard-response","313","345978","0.0-1.0-426.0","0","0","70745","","null","","","null","47","NaN","","","","","","","","","","","","","","",""
"","S2","","html-keyboard-response","314","346231","0.0-1.0-427.0","0","0","70745","","null","","","null","47","","NaN","","","","","","","","","","","","","",""
"","response","","html-keyboard-response","315","346400","0.0-1.0-428.0-0.0","0","0","70745","","168","","","75","47","","","1","47","training","adjacent","CB","3","2","N.jpg","L.jpg","1","0","0","",""
"","feedback","","html-keyboard-response","316","347402","0.0-1.0-429.0-0.0","0","0","70745","","null","","","null","47","","","","","","","","","","","","","","","",""
"","time_out","","html-keyboard-response","317","349404","0.0-1.0-431.0-0.0","0","0","70745","","null","","","null","47","","","","","","","","","","","","","","","",""
"","ITI","","html-keyboard-response","318","350406","0.0-1.0-432.0","0","0","70745","","null","","","null","47","","","","","","","","","","","","","","","NaN",""
"","block_over","","html-keyboard-response","319","354618","0.0-1.0-433.0-0.0","0","0","70745","","4210","","","32","47","","","","","","","","","","","","","","","",""
"","S1","","html-keyboard-response","320","354870","0.0-1.0-434.0","0","0","70745","","null","","","null","48","","","","","","","","","","","","","","","",""
"","ISI","","html-keyboard-response","321","356871","0.0-1.0-435.0","0","0","70745","","435","","","75","48","k","","","","","","","","","","","","","","",""
"","S2","","html-keyboard-response","322","357113","0.0-1.0-436.0","0","0","70745","","240","","","75","48","","k","2","48","training","adjacent","DE","4","5","O.jpg","P.jpg","1","1","1","",""
"","feedback","","html-keyboard-response","323","358115","0.0-1.0-438.0-0.0","0","0","70745","","null","","","null","48","","","","","","","","","","","","","","","",""
"","ITI","","html-keyboard-response","324","359118","0.0-1.0-441.0","0","0","70745","","null","","","null","48","","","","","","","","","","","","","","","NaN",""
"","S1","","html-keyboard-response","325","359369","0.0-1.0-443.0","0","0","70745","","null","","","null","49","","","","","","","","","","","","","","","",""
"","ISI","","html-keyboard-response","326","361371","0.0-1.0-444.0","0","0","70745","","null","","","null","49","NaN","","","","","","","","","","","","","","",""
"","S2","","html-keyboard-response","327","361624","0.0-1.0-445.0","0","0","70745","","null","","","null","49","","NaN","","","","","","","","","","","","","",""
"","response","","html-keyboard-response","328","361993","0.0-1.0-446.0-0.0","0","0","70745","","369","","","75","49","","","2","49","training","adjacent","ED","5","4","P.jpg","O.jpg","1","0","0","",""
"","feedback","","html-keyboard-response","329","362995","0.0-1.0-447.0-0.0","0","0","70745","","null","","","null","49","","","","","","","","","","","","","","","",""
"","time_out","","html-keyboard-response","330","364997","0.0-1.0-449.0-0.0","0","0","70745","","null","","","null","49","","","","","","","","","","","","","","","",""
"","ITI","","html-keyboard-response","331","365999","0.0-1.0-450.0","0","0","70745","","null","","","null","49","","","","","","","","","","","","","","","NaN",""
"","S1","","html-keyboard-response","332","366251","0.0-1.0-452.0","0","0","70745","","null","","","null","50","","","","","","","","","","","","","","","",""
"","ISI","","html-keyboard-response","333","368253","0.0-1.0-453.0","0","0","70745","","null","","","null","50","NaN","","","","","","","","","","","","","","",""
"","S2","","html-keyboard-response","334","368505","0.0-1.0-454.0","0","0","70745","","null","","","null","50","","NaN","","","","","","","","","","","","","",""
"","response","","html-keyboard-response","335","368667","0.0-1.0-455.0-0.0","0","0","70745","","161","","","68","50","","","2","50","training","adjacent","BC","2","3","L.jpg","N.jpg","0","1","0","",""
"","feedback","","html-keyboard-response","336","369670","0.0-1.0-456.0-0.0","0","0","70745","","null","","","null","50","","","","","","","","","","","","","","","",""
"","time_out","","html-keyboard-response","337","371681","0.0-1.0-458.0-0.0","0","0","70745","","null","","","null","50","","","","","","","","","","","","","","","",""
"","ITI","","html-keyboard-response","338","372683","0.0-1.0-459.0","0","0","70745","","null","","","null","50","","","","","","","","","","","","","","","NaN",""
"","S1","","html-keyboard-response","339","372936","0.0-1.0-461.0","0","0","70745","","null","","","null","51","","","","","","","","","","","","","","","",""
"","ISI","","html-keyboard-response","340","374938","0.0-1.0-462.0","0","0","70745","","null","","","null","51","NaN","","","","","","","","","","","","","","",""
"","S2","","html-keyboard-response","341","375202","0.0-1.0-463.0","0","0","70745","","null","","","null","51","","NaN","","","","","","","","","","","","","",""
"","response","","html-keyboard-response","342","376954","0.0-1.0-464.0-0.0","0","0","70745","","null","","","null","51","","","2","51","training","adjacent","DC","4","3","O.jpg","N.jpg","NaN","0","0","",""
"","too_slow_prompt","","html-keyboard-response","343","377956","0.0-1.0-466.0-0.0","1","0","70745","","null","","","null","","","","","","","","","","","","","","","","",""
"","time_out","","html-keyboard-response","344","379957","0.0-1.0-467.0-0.0","0","0","70745","","null","","","null","51","","","","","","","","","","","","","","","",""
"","ITI","","html-keyboard-response","345","380959","0.0-1.0-468.0","0","0","70745","","null","","","null","51","","","","","","","","","","","","","","","NaN",""
"","S1","","html-keyboard-response","346","381212","0.0-1.0-470.0","0","0","70745","","null","","","null","52","","","","","","","","","","","","","","","",""
"","ISI","","html-keyboard-response","347","383214","0.0-1.0-471.0","0","0","70745","","null","","","null","52","NaN","","","","","","","","","","","","","","",""
"","S2","","html-keyboard-response","348","383466","0.0-1.0-472.0","0","0","70745","","null","","","null","52","","NaN","","","","","","","","","","","","","",""
"","response","","html-keyboard-response","349","383604","0.0-1.0-473.0-0.0","0","0","70745","","137","","","75","52","","","2","52","training","adjacent","CB","3","2","N.jpg","L.jpg","1","0","0","",""
"","feedback","","html-keyboard-response","350","384607","0.0-1.0-474.0-0.0","0","0","70745","","null","","","null","52","","","","","","","","","","","","","","","",""
"","time_out","","html-keyboard-response","351","386609","0.0-1.0-476.0-0.0","0","0","70745","","null","","","null","52","","","","","","","","","","","","","","","",""
"","ITI","","html-keyboard-response","352","387611","0.0-1.0-477.0","0","0","70745","","null","","","null","52","","","","","","","","","","","","","","","NaN",""
"","S1","","html-keyboard-response","353","387863","0.0-1.0-479.0","0","0","70745","","null","","","null","53","","","","","","","","","","","","","","","",""
"","ISI","","html-keyboard-response","354","389865","0.0-1.0-480.0","0","0","70745","","null","","","null","53","NaN","","","","","","","","","","","","","","",""
"","S2","","html-keyboard-response","355","390117","0.0-1.0-481.0","0","0","70745","","null","","","null","53","","NaN","","","","","","","","","","","","","",""
"","response","","html-keyboard-response","356","390294","0.0-1.0-482.0-0.0","0","0","70745","","176","","","68","53","","","2","53","training","adjacent","BC","2","3","L.jpg","N.jpg","0","1","0","",""
"","feedback","","html-keyboard-response","357","391297","0.0-1.0-483.0-0.0","0","0","70745","","null","","","null","53","","","","","","","","","","","","","","","",""
"","time_out","","html-keyboard-response","358","393299","0.0-1.0-485.0-0.0","0","0","70745","","null","","","null","53","","","","","","","","","","","","","","","",""
"","ITI","","html-keyboard-response","359","394302","0.0-1.0-486.0","0","0","70745","","null","","","null","53","","","","","","","","","","","","","","","NaN",""
"","S1","","html-keyboard-response","360","394554","0.0-1.0-488.0","0","0","70745","","null","","","null","54","","","","","","","","","","","","","","","",""
"","ISI","","html-keyboard-response","361","396556","0.0-1.0-489.0","0","0","70745","","null","","","null","54","NaN","","","","","","","","","","","","","","",""
"","S2","","html-keyboard-response","362","396809","0.0-1.0-490.0","0","0","70745","","null","","","null","54","","NaN","","","","","","","","","","","","","",""
"","response","","html-keyboard-response","363","396934","0.0-1.0-491.0-0.0","0","0","70745","","124","","","75","54","","","2","54","training","adjacent","CB","3","2","N.jpg","L.jpg","1","0","0","",""
"","feedback","","html-keyboard-response","364","397936","0.0-1.0-492.0-0.0","0","0","70745","","null","","","null","54","","","","","","","","","","","","","","","",""
"","time_out","","html-keyboard-response","365","399937","0.0-1.0-494.0-0.0","0","0","70745","","null","","","null","54","","","","","","","","","","","","","","","",""
"","ITI","","html-keyboard-response","366","400939","0.0-1.0-495.0","0","0","70745","","null","","","null","54","","","","","","","","","","","","","","","NaN",""
"","S1","","html-keyboard-response","367","401191","0.0-1.0-497.0","0","0","70745","","null","","","null","55","","","","","","","","","","","","","","","",""
"","ISI","","html-keyboard-response","368","403193","0.0-1.0-498.0","0","0","70745","","null","","","null","55","NaN","","","","","","","","","","","","","","",""
"","S2","","html-keyboard-response","369","403445","0.0-1.0-499.0","0","0","70745","","null","","","null","55","","NaN","","","","","","","","","","","","","",""
"","response","","html-keyboard-response","370","403527","0.0-1.0-500.0-0.0","0","0","70745","","80","","","75","55","","","2","55","training","adjacent","CD","3","4","N.jpg","O.jpg","1","1","1","",""
"","feedback","","html-keyboard-response","371","404529","0.0-1.0-501.0-0.0","0","0","70745","","null","","","null","55","","","","","","","","","","","","","","","",""
"","ITI","","html-keyboard-response","372","405531","0.0-1.0-504.0","0","0","70745","","null","","","null","55","","","","","","","","","","","","","","","NaN",""
"","S1","","html-keyboard-response","373","405783","0.0-1.0-506.0","0","0","70745","","null","","","null","56","","","","","","","","","","","","","","","",""
"","ISI","","html-keyboard-response","374","407785","0.0-1.0-507.0","0","0","70745","","null","","","null","56","NaN","","","","","","","","","","","","","","",""
"","S2","","html-keyboard-response","375","408037","0.0-1.0-508.0","0","0","70745","","null","","","null","56","","NaN","","","","","","","","","","","","","",""
"","response","","html-keyboard-response","376","408119","0.0-1.0-509.0-0.0","0","0","70745","","82","","","75","56","","","2","56","training","adjacent","CB","3","2","N.jpg","L.jpg","1","0","0","",""
"","feedback","","html-keyboard-response","377","409122","0.0-1.0-510.0-0.0","0","0","70745","","null","","","null","56","","","","","","","","","","","","","","","",""
"","time_out","","html-keyboard-response","378","411124","0.0-1.0-512.0-0.0","0","0","70745","","null","","","null","56","","","","","","","","","","","","","","","",""
"","ITI","","html-keyboard-response","379","412126","0.0-1.0-513.0","0","0","70745","","null","","","null","56","","","","","","","","","","","","","","","NaN",""
"","S1","","html-keyboard-response","380","412379","0.0-1.0-515.0","0","0","70745","","null","","","null","57","","","","","","","","","","","","","","","",""
"","ISI","","html-keyboard-response","381","414381","0.0-1.0-516.0","0","0","70745","","null","","","null","57","NaN","","","","","","","","","","","","","","",""
"","S2","","html-keyboard-response","382","414633","0.0-1.0-517.0","0","0","70745","","null","","","null","57","","NaN","","","","","","","","","","","","","",""
"","response","","html-keyboard-response","383","414704","0.0-1.0-518.0-0.0","0","0","70745","","69","","","68","57","","","2","57","training","adjacent","GF","7","6","M.jpg","Q.jpg","0","0","1","",""
"","feedback","","html-keyboard-response","384","415721","0.0-1.0-519.0-0.0","0","0","70745","","null","","","null","57","","","","","","","","","","","","","","","",""
"","ITI","","html-keyboard-response","385","416722","0.0-1.0-522.0","0","0","70745","","null","","","null","57","","","","","","","","","","","","","","","NaN",""
"","S1","","html-keyboard-response","386","416974","0.0-1.0-524.0","0","0","70745","","null","","","null","58","","","","","","","","","","","","","","","",""
"","ISI","","html-keyboard-response","387","418976","0.0-1.0-525.0","0","0","70745","","null","","","null","58","NaN","","","","","","","","","","","","","","",""
"","S2","","html-keyboard-response","388","419228","0.0-1.0-526.0","0","0","70745","","null","","","null","58","","NaN","","","","","","","","","","","","","",""
"","response","","html-keyboard-response","389","419329","0.0-1.0-527.0-0.0","0","0","70745","","99","","","68","58","","","2","58","training","adjacent","GF","7","6","M.jpg","Q.jpg","0","0","1","",""
"","feedback","","html-keyboard-response","390","420332","0.0-1.0-528.0-0.0","0","0","70745","","null","","","null","58","","","","","","","","","","","","","","","",""
"","ITI","","html-keyboard-response","391","421335","0.0-1.0-531.0","0","0","70745","","null","","","null","58","","","","","","","","","","","","","","","NaN",""
"","S1","","html-keyboard-response","392","421587","0.0-1.0-533.0","0","0","70745","","null","","","null","59","","","","","","","","","","","","","","","",""
"","ISI","","html-keyboard-response","393","423590","0.0-1.0-534.0","0","0","70745","","null","","","null","59","NaN","","","","","","","","","","","","","","",""
"","S2","","html-keyboard-response","394","423842","0.0-1.0-535.0","0","0","70745","","null","","","null","59","","NaN","","","","","","","","","","","","","",""
"","response","","html-keyboard-response","395","424073","0.0-1.0-536.0-0.0","0","0","70745","","229","","","68","59","","","2","59","training","adjacent","DC","4","3","O.jpg","N.jpg","0","0","1","",""
"","feedback","","html-keyboard-response","396","425076","0.0-1.0-537.0-0.0","0","0","70745","","null","","","null","59","","","","","","","","","","","","","","","",""
"","ITI","","html-keyboard-response","397","426077","0.0-1.0-540.0","0","0","70745","","null","","","null","59","","","","","","","","","","","","","","","NaN",""
"","S1","","html-keyboard-response","398","426330","0.0-1.0-542.0","0","0","70745","","null","","","null","60","","","","","","","","","","","","","","","",""
"","ISI","","html-keyboard-response","399","428333","0.0-1.0-543.0","0","0","70745","","null","","","null","60","NaN","","","","","","","","","","","","","","",""
"","S2","","html-keyboard-response","400","428586","0.0-1.0-544.0","0","0","70745","","null","","","null","60","","NaN","","","","","","","","","","","","","",""
"","response","","html-keyboard-response","401","428771","0.0-1.0-545.0-0.0","0","0","70745","","184","","","68","60","","","2","60","training","adjacent","EF","5","6","P.jpg","Q.jpg","0","1","0","",""
"","feedback","","html-keyboard-response","402","429773","0.0-1.0-546.0-0.0","0","0","70745","","null","","","null","60","","","","","","","","","","","","","","","",""
"","time_out","","html-keyboard-response","403","431775","0.0-1.0-548.0-0.0","0","0","70745","","null","","","null","60","","","","","","","","","","","","","","","",""
"","ITI","","html-keyboard-response","404","432777","0.0-1.0-549.0","0","0","70745","","null","","","null","60","","","","","","","","","","","","","","","NaN",""
"","S1","","html-keyboard-response","405","433029","0.0-1.0-551.0","0","0","70745","","null","","","null","61","","","","","","","","","","","","","","","",""
"","ISI","","html-keyboard-response","406","435032","0.0-1.0-552.0","0","0","70745","","null","","","null","61","NaN","","","","","","","","","","","","","","",""
"","S2","","html-keyboard-response","407","435285","0.0-1.0-553.0","0","0","70745","","null","","","null","61","","NaN","","","","","","","","","","","","","",""
"","response","","html-keyboard-response","408","435483","0.0-1.0-554.0-0.0","0","0","70745","","196","","","68","61","","","2","61","training","adjacent","ED","5","4","P.jpg","O.jpg","0","0","1","",""
"","feedback","","html-keyboard-response","409","436485","0.0-1.0-555.0-0.0","0","0","70745","","null","","","null","61","","","","","","","","","","","","","","","",""
"","ITI","","html-keyboard-response","410","437486","0.0-1.0-558.0","0","0","70745","","null","","","null","61","","","","","","","","","","","","","","","NaN",""
"","S1","","html-keyboard-response","411","437739","0.0-1.0-560.0","0","0","70745","","null","","","null","62","","","","","","","","","","","","","","","",""
"","ISI","","html-keyboard-response","412","439741","0.0-1.0-561.0","0","0","70745","","null","","","null","62","NaN","","","","","","","","","","","","","","",""
"","S2","","html-keyboard-response","413","439993","0.0-1.0-562.0","0","0","70745","","null","","","null","62","","NaN","","","","","","","","","","","","","",""
"","response","","html-keyboard-response","414","440051","0.0-1.0-563.0-0.0","0","0","70745","","56","","","75","62","","","2","62","training","adjacent","FG","6","7","Q.jpg","M.jpg","1","1","1","",""
"","feedback","","html-keyboard-response","415","441054","0.0-1.0-564.0-0.0","0","0","70745","","null","","","null","62","","","","","","","","","","","","","","","",""
"","ITI","","html-keyboard-response","416","442055","0.0-1.0-567.0","0","0","70745","","null","","","null","62","","","","","","","","","","","","","","","NaN",""
"","S1","","html-keyboard-response","417","442308","0.0-1.0-569.0","0","0","70745","","null","","","null","63","","","","","","","","","","","","","","","",""
"","ISI","","html-keyboard-response","418","444310","0.0-1.0-570.0","0","0","70745","","null","","","null","63","NaN","","","","","","","","","","","","","","",""
"","S2","","html-keyboard-response","419","444562","0.0-1.0-571.0","0","0","70745","","null","","","null","63","","NaN","","","","","","","","","","","","","",""
"","response","","html-keyboard-response","420","444597","0.0-1.0-572.0-0.0","0","0","70745","","34","","","75","63","","","2","63","training","adjacent","FG","6","7","Q.jpg","M.jpg","1","1","1","",""
"","feedback","","html-keyboard-response","421","445598","0.0-1.0-573.0-0.0","0","0","70745","","null","","","null","63","","","","","","","","","","","","","","","",""
"","ITI","","html-keyboard-response","422","446601","0.0-1.0-576.0","0","0","70745","","null","","","null","63","","","","","","","","","","","","","","","NaN",""
"","S1","","html-keyboard-response","423","446853","0.0-1.0-578.0","0","0","70745","","null","","","null","64","","","","","","","","","","","","","","","",""
"","ISI","","html-keyboard-response","424","448855","0.0-1.0-579.0","0","0","70745","","null","","","null","64","NaN","","","","","","","","","","","","","","",""
"","S2","","html-keyboard-response","425","449106","0.0-1.0-580.0","0","0","70745","","null","","","null","64","","NaN","","","","","","","","","","","","","",""
"","response","","html-keyboard-response","426","449220","0.0-1.0-581.0-0.0","0","0","70745","","113","","","68","64","","","2","64","training","adjacent","BC","2","3","L.jpg","N.jpg","0","1","0","",""
"","feedback","","html-keyboard-response","427","450222","0.0-1.0-582.0-0.0","0","0","70745","","null","","","null","64","","","","","","","","","","","","","","","",""
"","time_out","","html-keyboard-response","428","452224","0.0-1.0-584.0-0.0","0","0","70745","","null","","","null","64","","","","","","","","","","","","","","","",""
"","ITI","","html-keyboard-response","429","453226","0.0-1.0-585.0","0","0","70745","","null","","","null","64","","","","","","","","","","","","","","","NaN",""
"","S1","","html-keyboard-response","430","453478","0.0-1.0-587.0","0","0","70745","","null","","","null","65","","","","","","","","","","","","","","","",""
"","ISI","","html-keyboard-response","431","455480","0.0-1.0-588.0","0","0","70745","","null","","","null","65","NaN","","","","","","","","","","","","","","",""
"","S2","","html-keyboard-response","432","455733","0.0-1.0-589.0","0","0","70745","","null","","","null","65","","NaN","","","","","","","","","","","","","",""
"","response","","html-keyboard-response","433","455845","0.0-1.0-590.0-0.0","0","0","70745","","111","","","68","65","","","2","65","training","adjacent","ED","5","4","P.jpg","O.jpg","0","0","1","",""
"","feedback","","html-keyboard-response","434","456847","0.0-1.0-591.0-0.0","0","0","70745","","null","","","null","65","","","","","","","","","","","","","","","",""
"","ITI","","html-keyboard-response","435","457849","0.0-1.0-594.0","0","0","70745","","null","","","null","65","","","","","","","","","","","","","","","NaN",""
"","S1","","html-keyboard-response","436","458106","0.0-1.0-596.0","0","0","70745","","null","","","null","66","","","","","","","","","","","","","","","",""
"","ISI","","html-keyboard-response","437","460108","0.0-1.0-597.0","0","0","70745","","null","","","null","66","NaN","","","","","","","","","","","","","","",""
"","S2","","html-keyboard-response","438","460361","0.0-1.0-598.0","0","0","70745","","null","","","null","66","","NaN","","","","","","","","","","","","","",""
"","response","","html-keyboard-response","439","460542","0.0-1.0-599.0-0.0","0","0","70745","","180","","","68","66","","","2","66","training","adjacent","EF","5","6","P.jpg","Q.jpg","0","1","0","",""
"","feedback","","html-keyboard-response","440","461544","0.0-1.0-600.0-0.0","0","0","70745","","null","","","null","66","","","","","","","","","","","","","","","",""
"","time_out","","html-keyboard-response","441","463546","0.0-1.0-602.0-0.0","0","0","70745","","null","","","null","66","","","","","","","","","","","","","","","",""
"","ITI","","html-keyboard-response","442","464548","0.0-1.0-603.0","0","0","70745","","null","","","null","66","","","","","","","","","","","","","","","NaN",""
"","S1","","html-keyboard-response","443","464800","0.0-1.0-605.0","0","0","70745","","null","","","null","67","","","","","","","","","","","","","","","",""
"","ISI","","html-keyboard-response","444","466802","0.0-1.0-606.0","0","0","70745","","null","","","null","67","NaN","","","","","","","","","","","","","","",""
"","S2","","html-keyboard-response","445","467055","0.0-1.0-607.0","0","0","70745","","null","","","null","67","","NaN","","","","","","","","","","","","","",""
"","response","","html-keyboard-response","446","467238","0.0-1.0-608.0-0.0","0","0","70745","","182","","","68","67","","","2","67","training","adjacent","FE","6","5","Q.jpg","P.jpg","0","0","1","",""
"","feedback","","html-keyboard-response","447","468241","0.0-1.0-609.0-0.0","0","0","70745","","null","","","null","67","","","","","","","","","","","","","","","",""
"","ITI","","html-keyboard-response","448","469243","0.0-1.0-612.0","0","0","70745","","null","","","null","67","","","","","","","","","","","","","","","NaN",""
"","S1","","html-keyboard-response","449","469496","0.0-1.0-614.0","0","0","70745","","null","","","null","68","","","","","","","","","","","","","","","",""
"","ISI","","html-keyboard-response","450","471498","0.0-1.0-615.0","0","0","70745","","null","","","null","68","NaN","","","","","","","","","","","","","","",""
"","S2","","html-keyboard-response","451","471749","0.0-1.0-616.0","0","0","70745","","null","","","null","68","","NaN","","","","","","","","","","","","","",""
"","response","","html-keyboard-response","452","471935","0.0-1.0-617.0-0.0","0","0","70745","","184","","","68","68","","","2","68","training","adjacent","AB","1","2","R.jpg","L.jpg","0","1","0","",""
"","feedback","","html-keyboard-response","453","472937","0.0-1.0-618.0-0.0","0","0","70745","","null","","","null","68","","","","","","","","","","","","","","","",""
"","time_out","","html-keyboard-response","454","474940","0.0-1.0-620.0-0.0","0","0","70745","","null","","","null","68","","","","","","","","","","","","","","","",""
"","ITI","","html-keyboard-response","455","475942","0.0-1.0-621.0","0","0","70745","","null","","","null","68","","","","","","","","","","","","","","","NaN",""
"","S1","","html-keyboard-response","456","476194","0.0-1.0-623.0","0","0","70745","","null","","","null","69","","","","","","","","","","","","","","","",""
"","ISI","","html-keyboard-response","457","478197","0.0-1.0-624.0","0","0","70745","","null","","","null","69","NaN","","","","","","","","","","","","","","",""
"","S2","","html-keyboard-response","458","478450","0.0-1.0-625.0","0","0","70745","","null","","","null","69","","NaN","","","","","","","","","","","","","",""
"","response","","html-keyboard-response","459","478561","0.0-1.0-626.0-0.0","0","0","70745","","110","","","68","69","","","2","69","training","adjacent","BA","2","1","L.jpg","R.jpg","0","0","1","",""
"","feedback","","html-keyboard-response","460","479563","0.0-1.0-627.0-0.0","0","0","70745","","null","","","null","69","","","","","","","","","","","","","","","",""
"","ITI","","html-keyboard-response","461","480565","0.0-1.0-630.0","0","0","70745","","null","","","null","69","","","","","","","","","","","","","","","NaN",""
"","S1","","html-keyboard-response","462","480818","0.0-1.0-632.0","0","0","70745","","null","","","null","70","","","","","","","","","","","","","","","",""
"","ISI","","html-keyboard-response","463","482820","0.0-1.0-633.0","0","0","70745","","null","","","null","70","NaN","","","","","","","","","","","","","","",""
"","S2","","html-keyboard-response","464","483072","0.0-1.0-634.0","0","0","70745","","null","","","null","70","","NaN","","","","","","","","","","","","","",""
"","response","","html-keyboard-response","465","483169","0.0-1.0-635.0-0.0","0","0","70745","","95","","","68","70","","","2","70","training","adjacent","GF","7","6","M.jpg","Q.jpg","0","0","1","",""
"","feedback","","html-keyboard-response","466","484171","0.0-1.0-636.0-0.0","0","0","70745","","null","","","null","70","","","","","","","","","","","","","","","",""
"","ITI","","html-keyboard-response","467","485173","0.0-1.0-639.0","0","0","70745","","null","","","null","70","","","","","","","","","","","","","","","NaN",""
"","S1","","html-keyboard-response","468","485425","0.0-1.0-641.0","0","0","70745","","null","","","null","71","","","","","","","","","","","","","","","",""
"","ISI","","html-keyboard-response","469","487427","0.0-1.0-642.0","0","0","70745","","null","","","null","71","NaN","","","","","","","","","","","","","","",""
"","S2","","html-keyboard-response","470","487679","0.0-1.0-643.0","0","0","70745","","null","","","null","71","","NaN","","","","","","","","","","","","","",""
"","response","","html-keyboard-response","471","487817","0.0-1.0-644.0-0.0","0","0","70745","","137","","","68","71","","","2","71","training","adjacent","GF","7","6","M.jpg","Q.jpg","0","0","1","",""
"","feedback","","html-keyboard-response","472","488820","0.0-1.0-645.0-0.0","0","0","70745","","null","","","null","71","","","","","","","","","","","","","","","",""
"","ITI","","html-keyboard-response","473","489822","0.0-1.0-648.0","0","0","70745","","null","","","null","71","","","","","","","","","","","","","","","NaN",""
"","S1","","html-keyboard-response","474","490074","0.0-1.0-650.0","0","0","70745","","null","","","null","72","","","","","","","","","","","","","","","",""
"","ISI","","html-keyboard-response","475","492077","0.0-1.0-651.0","0","0","70745","","null","","","null","72","NaN","","","","","","","","","","","","","","",""
"","S2","","html-keyboard-response","476","492330","0.0-1.0-652.0","0","0","70745","","null","","","null","72","","NaN","","","","","","","","","","","","","",""
"","response","","html-keyboard-response","477","492411","0.0-1.0-653.0-0.0","0","0","70745","","80","","","75","72","","","2","72","training","adjacent","AB","1","2","R.jpg","L.jpg","1","1","1","",""
"","feedback","","html-keyboard-response","478","493413","0.0-1.0-654.0-0.0","0","0","70745","","null","","","null","72","","","","","","","","","","","","","","","",""
"","ITI","","html-keyboard-response","479","494416","0.0-1.0-657.0","0","0","70745","","null","","","null","72","","","","","","","","","","","","","","","NaN",""
"","S1","","html-keyboard-response","480","494668","0.0-1.0-659.0","0","0","70745","","null","","","null","73","","","","","","","","","","","","","","","",""
"","ISI","","html-keyboard-response","481","496670","0.0-1.0-660.0","0","0","70745","","null","","","null","73","NaN","","","","","","","","","","","","","","",""
"","S2","","html-keyboard-response","482","496925","0.0-1.0-661.0","0","0","70745","","null","","","null","73","","NaN","","","","","","","","","","","","","",""
"","response","","html-keyboard-response","483","497155","0.0-1.0-662.0-0.0","0","0","70745","","229","","","75","73","","","2","73","training","adjacent","EF","5","6","P.jpg","Q.jpg","1","1","1","",""
"","feedback","","html-keyboard-response","484","498157","0.0-1.0-663.0-0.0","0","0","70745","","null","","","null","73","","","","","","","","","","","","","","","",""
"","ITI","","html-keyboard-response","485","499159","0.0-1.0-666.0","0","0","70745","","null","","","null","73","","","","","","","","","","","","","","","NaN",""
"","S1","","html-keyboard-response","486","499412","0.0-1.0-668.0","0","0","70745","","null","","","null","74","","","","","","","","","","","","","","","",""
"","ISI","","html-keyboard-response","487","501414","0.0-1.0-669.0","0","0","70745","","null","","","null","74","NaN","","","","","","","","","","","","","","",""
"","S2","","html-keyboard-response","488","501666","0.0-1.0-670.0","0","0","70745","","null","","","null","74","","NaN","","","","","","","","","","","","","",""
"","response","","html-keyboard-response","489","501811","0.0-1.0-671.0-0.0","0","0","70745","","144","","","75","74","","","2","74","training","adjacent","CD","3","4","N.jpg","O.jpg","1","1","1","",""
"","feedback","","html-keyboard-response","490","502813","0.0-1.0-672.0-0.0","0","0","70745","","null","","","null","74","","","","","","","","","","","","","","","",""
"","ITI","","html-keyboard-response","491","503814","0.0-1.0-675.0","0","0","70745","","null","","","null","74","","","","","","","","","","","","","","","NaN",""
"","S1","","html-keyboard-response","492","504068","0.0-1.0-677.0","0","0","70745","","null","","","null","75","","","","","","","","","","","","","","","",""
"","ISI","","html-keyboard-response","493","506070","0.0-1.0-678.0","0","0","70745","","null","","","null","75","NaN","","","","","","","","","","","","","","",""
"","S2","","html-keyboard-response","494","506323","0.0-1.0-679.0","0","0","70745","","null","","","null","75","","NaN","","","","","","","","","","","","","",""
"","response","","html-keyboard-response","495","506412","0.0-1.0-680.0-0.0","0","0","70745","","87","","","75","75","","","2","75","training","adjacent","FE","6","5","Q.jpg","P.jpg","1","0","0","",""
"","feedback","","html-keyboard-response","496","507428","0.0-1.0-681.0-0.0","0","0","70745","","null","","","null","75","","","","","","","","","","","","","","","",""
"","time_out","","html-keyboard-response","497","509430","0.0-1.0-683.0-0.0","0","0","70745","","null","","","null","75","","","","","","","","","","","","","","","",""
"","ITI","","html-keyboard-response","498","510433","0.0-1.0-684.0","0","0","70745","","null","","","null","75","","","","","","","","","","","","","","","NaN",""
"","S1","","html-keyboard-response","499","510685","0.0-1.0-686.0","0","0","70745","","null","","","null","76","","","","","","","","","","","","","","","",""
"","ISI","","html-keyboard-response","500","512687","0.0-1.0-687.0","0","0","70745","","null","","","null","76","NaN","","","","","","","","","","","","","","",""
"","S2","","html-keyboard-response","501","512939","0.0-1.0-688.0","0","0","70745","","null","","","null","76","","NaN","","","","","","","","","","","","","",""
"","response","","html-keyboard-response","502","513204","0.0-1.0-689.0-0.0","0","0","70745","","265","","","68","76","","","2","76","training","adjacent","BA","2","1","L.jpg","R.jpg","0","0","1","",""
"","feedback","","html-keyboard-response","503","514207","0.0-1.0-690.0-0.0","0","0","70745","","null","","","null","76","","","","","","","","","","","","","","","",""
"","ITI","","html-keyboard-response","504","515222","0.0-1.0-693.0","0","0","70745","","null","","","null","76","","","","","","","","","","","","","","","NaN",""
"","S1","","html-keyboard-response","505","515475","0.0-1.0-695.0","0","0","70745","","null","","","null","77","","","","","","","","","","","","","","","",""
"","ISI","","html-keyboard-response","506","517477","0.0-1.0-696.0","0","0","70745","","null","","","null","77","NaN","","","","","","","","","","","","","","",""
"","S2","","html-keyboard-response","507","517730","0.0-1.0-697.0","0","0","70745","","null","","","null","77","","NaN","","","","","","","","","","","","","",""
"","response","","html-keyboard-response","508","517893","0.0-1.0-698.0-0.0","0","0","70745","","162","","","75","77","","","2","77","training","adjacent","DC","4","3","O.jpg","N.jpg","1","0","0","",""
"","feedback","","html-keyboard-response","509","518895","0.0-1.0-699.0-0.0","0","0","70745","","null","","","null","77","","","","","","","","","","","","","","","",""
"","time_out","","html-keyboard-response","510","520897","0.0-1.0-701.0-0.0","0","0","70745","","null","","","null","77","","","","","","","","","","","","","","","",""
"","ITI","","html-keyboard-response","511","521899","0.0-1.0-702.0","0","0","70745","","null","","","null","77","","","","","","","","","","","","","","","NaN",""
"","S1","","html-keyboard-response","512","522151","0.0-1.0-704.0","0","0","70745","","null","","","null","78","","","","","","","","","","","","","","","",""
"","ISI","","html-keyboard-response","513","524153","0.0-1.0-705.0","0","0","70745","","null","","","null","78","NaN","","","","","","","","","","","","","","",""
"","S2","","html-keyboard-response","514","524406","0.0-1.0-706.0","0","0","70745","","null","","","null","78","","NaN","","","","","","","","","","","","","",""
"","response","","html-keyboard-response","515","524542","0.0-1.0-707.0-0.0","0","0","70745","","135","","","68","78","","","2","78","training","adjacent","ED","5","4","P.jpg","O.jpg","0","0","1","",""
"","feedback","","html-keyboard-response","516","525544","0.0-1.0-708.0-0.0","0","0","70745","","null","","","null","78","","","","","","","","","","","","","","","",""
"","ITI","","html-keyboard-response","517","526547","0.0-1.0-711.0","0","0","70745","","null","","","null","78","","","","","","","","","","","","","","","NaN",""
"","S1","","html-keyboard-response","518","526799","0.0-1.0-713.0","0","0","70745","","null","","","null","79","","","","","","","","","","","","","","","",""
"","ISI","","html-keyboard-response","519","528801","0.0-1.0-714.0","0","0","70745","","null","","","null","79","NaN","","","","","","","","","","","","","","",""
"","S2","","html-keyboard-response","520","529053","0.0-1.0-715.0","0","0","70745","","null","","","null","79","","NaN","","","","","","","","","","","","","",""
"","response","","html-keyboard-response","521","529174","0.0-1.0-716.0-0.0","0","0","70745","","119","","","75","79","","","2","79","training","adjacent","AB","1","2","R.jpg","L.jpg","1","1","1","",""
"","feedback","","html-keyboard-response","522","530177","0.0-1.0-717.0-0.0","0","0","70745","","null","","","null","79","","","","","","","","","","","","","","","",""
"","ITI","","html-keyboard-response","523","531179","0.0-1.0-720.0","0","0","70745","","null","","","null","79","","","","","","","","","","","","","","","NaN",""
"","S1","","html-keyboard-response","524","531431","0.0-1.0-722.0","0","0","70745","","null","","","null","80","","","","","","","","","","","","","","","",""
"","ISI","","html-keyboard-response","525","533434","0.0-1.0-723.0","0","0","70745","","null","","","null","80","NaN","","","","","","","","","","","","","","",""
"","S2","","html-keyboard-response","526","533687","0.0-1.0-724.0","0","0","70745","","null","","","null","80","","NaN","","","","","","","","","","","","","",""
"","response","","html-keyboard-response","527","533839","0.0-1.0-725.0-0.0","0","0","70745","","150","","","75","80","","","2","80","training","adjacent","AB","1","2","R.jpg","L.jpg","1","1","1","",""
"","feedback","","html-keyboard-response","528","534841","0.0-1.0-726.0-0.0","0","0","70745","","null","","","null","80","","","","","","","","","","","","","","","",""
"","ITI","","html-keyboard-response","529","535843","0.0-1.0-729.0","0","0","70745","","null","","","null","80","","","","","","","","","","","","","","","NaN",""
"","S1","","html-keyboard-response","530","536095","0.0-1.0-731.0","0","0","70745","","null","","","null","81","","","","","","","","","","","","","","","",""
"","ISI","","html-keyboard-response","531","538096","0.0-1.0-732.0","0","0","70745","","null","","","null","81","NaN","","","","","","","","","","","","","","",""
"","S2","","html-keyboard-response","532","538348","0.0-1.0-733.0","0","0","70745","","null","","","null","81","","NaN","","","","","","","","","","","","","",""
"","response","","html-keyboard-response","533","538488","0.0-1.0-734.0-0.0","0","0","70745","","138","","","75","81","","","2","81","training","adjacent","DE","4","5","O.jpg","P.jpg","1","1","1","",""
"","feedback","","html-keyboard-response","534","539490","0.0-1.0-735.0-0.0","0","0","70745","","null","","","null","81","","","","","","","","","","","","","","","",""
"","ITI","","html-keyboard-response","535","540493","0.0-1.0-738.0","0","0","70745","","null","","","null","81","","","","","","","","","","","","","","","NaN",""
"","S1","","html-keyboard-response","536","540745","0.0-1.0-740.0","0","0","70745","","null","","","null","82","","","","","","","","","","","","","","","",""
"","ISI","","html-keyboard-response","537","542754","0.0-1.0-741.0","0","0","70745","","null","","","null","82","NaN","","","","","","","","","","","","","","",""
"","S2","","html-keyboard-response","538","543007","0.0-1.0-742.0","0","0","70745","","null","","","null","82","","NaN","","","","","","","","","","","","","",""
"","response","","html-keyboard-response","539","543368","0.0-1.0-743.0-0.0","0","0","70745","","360","","","75","82","","","2","82","training","adjacent","DE","4","5","O.jpg","P.jpg","1","1","1","",""
"","feedback","","html-keyboard-response","540","544370","0.0-1.0-744.0-0.0","0","0","70745","","null","","","null","82","","","","","","","","","","","","","","","",""
"","ITI","","html-keyboard-response","541","545372","0.0-1.0-747.0","0","0","70745","","null","","","null","82","","","","","","","","","","","","","","","NaN",""
"","S1","","html-keyboard-response","542","545625","0.0-1.0-749.0","0","0","70745","","null","","","null","83","","","","","","","","","","","","","","","",""
"","ISI","","html-keyboard-response","543","547626","0.0-1.0-750.0","0","0","70745","","null","","","null","83","NaN","","","","","","","","","","","","","","",""
"","S2","","html-keyboard-response","544","547878","0.0-1.0-751.0","0","0","70745","","null","","","null","83","","NaN","","","","","","","","","","","","","",""
"","response","","html-keyboard-response","545","548137","0.0-1.0-752.0-0.0","0","0","70745","","258","","","75","83","","","2","83","training","adjacent","DE","4","5","O.jpg","P.jpg","1","1","1","",""
"","feedback","","html-keyboard-response","546","549140","0.0-1.0-753.0-0.0","0","0","70745","","null","","","null","83","","","","","","","","","","","","","","","",""
"","ITI","","html-keyboard-response","547","550142","0.0-1.0-756.0","0","0","70745","","null","","","null","83","","","","","","","","","","","","","","","NaN",""
"","S1","","html-keyboard-response","548","550394","0.0-1.0-758.0","0","0","70745","","null","","","null","84","","","","","","","","","","","","","","","",""
"","ISI","","html-keyboard-response","549","552396","0.0-1.0-759.0","0","0","70745","","null","","","null","84","NaN","","","","","","","","","","","","","","",""
"","S2","","html-keyboard-response","550","552648","0.0-1.0-760.0","0","0","70745","","null","","","null","84","","NaN","","","","","","","","","","","","","",""
"","response","","html-keyboard-response","551","552682","0.0-1.0-761.0-0.0","0","0","70745","","32","","","68","84","","","2","84","training","adjacent","BA","2","1","L.jpg","R.jpg","0","0","1","",""
"","feedback","","html-keyboard-response","552","553684","0.0-1.0-762.0-0.0","0","0","70745","","null","","","null","84","","","","","","","","","","","","","","","",""
"","ITI","","html-keyboard-response","553","554686","0.0-1.0-765.0","0","0","70745","","null","","","null","84","","","","","","","","","","","","","","","NaN",""
"","S1","","html-keyboard-response","554","554939","0.0-1.0-767.0","0","0","70745","","null","","","null","85","","","","","","","","","","","","","","","",""
"","ISI","","html-keyboard-response","555","556941","0.0-1.0-768.0","0","0","70745","","null","","","null","85","NaN","","","","","","","","","","","","","","",""
"","S2","","html-keyboard-response","556","557194","0.0-1.0-769.0","0","0","70745","","null","","","null","85","","NaN","","","","","","","","","","","","","",""
"","response","","html-keyboard-response","557","557434","0.0-1.0-770.0-0.0","0","0","70745","","238","","","68","85","","","2","85","training","adjacent","DC","4","3","O.jpg","N.jpg","0","0","1","",""
"","feedback","","html-keyboard-response","558","558436","0.0-1.0-771.0-0.0","0","0","70745","","null","","","null","85","","","","","","","","","","","","","","","",""
"","ITI","","html-keyboard-response","559","559438","0.0-1.0-774.0","0","0","70745","","null","","","null","85","","","","","","","","","","","","","","","NaN",""
"","S1","","html-keyboard-response","560","559691","0.0-1.0-776.0","0","0","70745","","null","","","null","86","","","","","","","","","","","","","","","",""
"","ISI","","html-keyboard-response","561","561698","0.0-1.0-777.0","0","0","70745","","null","","","null","86","NaN","","","","","","","","","","","","","","",""
"","S2","","html-keyboard-response","562","561951","0.0-1.0-778.0","0","0","70745","","null","","","null","86","","NaN","","","","","","","","","","","","","",""
"","response","","html-keyboard-response","563","562235","0.0-1.0-779.0-0.0","0","0","70745","","282","","","68","86","","","2","86","training","adjacent","EF","5","6","P.jpg","Q.jpg","0","1","0","",""
"","feedback","","html-keyboard-response","564","563238","0.0-1.0-780.0-0.0","0","0","70745","","null","","","null","86","","","","","","","","","","","","","","","",""
"","time_out","","html-keyboard-response","565","565239","0.0-1.0-782.0-0.0","0","0","70745","","null","","","null","86","","","","","","","","","","","","","","","",""
"","ITI","","html-keyboard-response","566","566242","0.0-1.0-783.0","0","0","70745","","null","","","null","86","","","","","","","","","","","","","","","NaN",""
"","S1","","html-keyboard-response","567","566494","0.0-1.0-785.0","0","0","70745","","null","","","null","87","","","","","","","","","","","","","","","",""
"","ISI","","html-keyboard-response","568","568497","0.0-1.0-786.0","0","0","70745","","null","","","null","87","NaN","","","","","","","","","","","","","","",""
"","S2","","html-keyboard-response","569","568750","0.0-1.0-787.0","0","0","70745","","null","","","null","87","","NaN","","","","","","","","","","","","","",""
"","response","","html-keyboard-response","570","568875","0.0-1.0-788.0-0.0","0","0","70745","","124","","","75","87","","","2","87","training","adjacent","CB","3","2","N.jpg","L.jpg","1","0","0","",""
"","feedback","","html-keyboard-response","571","569877","0.0-1.0-789.0-0.0","0","0","70745","","null","","","null","87","","","","","","","","","","","","","","","",""
"","time_out","","html-keyboard-response","572","571879","0.0-1.0-791.0-0.0","0","0","70745","","null","","","null","87","","","","","","","","","","","","","","","",""
"","ITI","","html-keyboard-response","573","572880","0.0-1.0-792.0","0","0","70745","","null","","","null","87","","","","","","","","","","","","","","","NaN",""
"","S1","","html-keyboard-response","574","573132","0.0-1.0-794.0","0","0","70745","","null","","","null","88","","","","","","","","","","","","","","","",""
"","ISI","","html-keyboard-response","575","575134","0.0-1.0-795.0","0","0","70745","","null","","","null","88","NaN","","","","","","","","","","","","","","",""
"","S2","","html-keyboard-response","576","575388","0.0-1.0-796.0","0","0","70745","","null","","","null","88","","NaN","","","","","","","","","","","","","",""
"","response","","html-keyboard-response","577","575492","0.0-1.0-797.0-0.0","0","0","70745","","102","","","75","88","","","2","88","training","adjacent","FE","6","5","Q.jpg","P.jpg","1","0","0","",""
"","feedback","","html-keyboard-response","578","576494","0.0-1.0-798.0-0.0","0","0","70745","","null","","","null","88","","","","","","","","","","","","","","","",""
"","time_out","","html-keyboard-response","579","578497","0.0-1.0-800.0-0.0","0","0","70745","","null","","","null","88","","","","","","","","","","","","","","","",""
"","ITI","","html-keyboard-response","580","579499","0.0-1.0-801.0","0","0","70745","","null","","","null","88","","","","","","","","","","","","","","","NaN",""
"","S1","","html-keyboard-response","581","579752","0.0-1.0-803.0","0","0","70745","","null","","","null","89","","","","","","","","","","","","","","","",""
"","ISI","","html-keyboard-response","582","581755","0.0-1.0-804.0","0","0","70745","","null","","","null","89","NaN","","","","","","","","","","","","","","",""
"","S2","","html-keyboard-response","583","582007","0.0-1.0-805.0","0","0","70745","","null","","","null","89","","NaN","","","","","","","","","","","","","",""
