"success","ttype","start_time","trial_type","trial_index","time_elapsed","internal_node_id","warning","missed_checkup","PID","view_history","rt","responses","repeat_instructions","key_press","index","keypress_isi","keypress_S2","block","trial_num","phase","group_type","pair_type","S1_stim","S2_stim","S1_img","S2_img","S1_chosen","S1_higher","accuracy","keypress_iti","total_bonus_tally"
"true","full_screen","d03082023hr0344","fullscreen","0","16767","0.0-0.0","0","0","42762","","","","","","","","","","","","","","","","","","","","","",""
"","instructions","","instructions","1","74559","0.0-1.0-0.0-0.0","0","0","42762","[{""page_index"":0,""viewing_time"":9873},{""page_index"":1,""viewing_time"":38161},{""page_index"":2,""viewing_time"":5448},{""page_index"":3,""viewing_time"":4305}]","57788","","","","","","","","","","","","","","","","","","","",""
"","comprehension_check","","survey-multi-choice","2","114227","0.0-1.0-0.0-1.0","0","0","42762","","39662","{""Q0"":""True"",""Q1"":""D"",""Q2"":""Only when the screen 'MAKE A CHOICE' is shown"",""Q3"":""Green mark"",""Q4"":""either D or K""}","1","","","","","","","","","","","","","","","","","",""
"","missed_instruction_checkup","","html-keyboard-response","3","116868","0.0-1.0-0.0-2.0-0.0","0","1","42762","","2637","","","32","","","","","","","","","","","","","","","","",""
"","instructions","","instructions","4","134125","0.0-1.0-0.1-0.1","0","0","42762","[{""page_index"":0,""viewing_time"":5959},{""page_index"":1,""viewing_time"":8619},{""page_index"":2,""viewing_time"":1401},{""page_index"":3,""viewing_time"":1276}]","17255","","","","","","","","","","","","","","","","","","","",""
"","comprehension_check","","survey-multi-choice","5","146501","0.0-1.0-0.1-1.1","0","0","42762","","12372","{""Q0"":""True"",""Q1"":""D"",""Q2"":""Once the second image appears and while the screen 'MAKE A CHOICE' is shown"",""Q3"":""Green mark"",""Q4"":""either D or K""}","0","","","","","","","","","","","","","","","","","",""
"","start_exp","","html-keyboard-response","6","149242","0.0-1.0-1.0","0","0","42762","","2739","","","32","","","","","","","","","","","","","","","","",""
"","S1","","html-keyboard-response","7","149496","0.0-1.0-2.0","0","0","42762","","null","","","null","0","","","","","","","","","","","","","","","",""
"","ISI","","html-keyboard-response","8","150511","0.0-1.0-3.0","0","0","42762","","null","","","null","0","NaN","","","","","","","","","","","","","","",""
"","S2","","html-keyboard-response","9","150771","0.0-1.0-4.0","0","0","42762","","null","","","null","0","","NaN","","","","","","","","","","","","","",""
"","response","","html-keyboard-response","10","152528","0.0-1.0-5.0-0.0","0","0","42762","","1756","","","68","0","","","1","0","training","adjacent","CD","3","4","Q.jpg","O.jpg","1","1","1","",""
"","feedback","","html-keyboard-response","11","153547","0.0-1.0-6.0-0.0","0","0","42762","","null","","","null","0","","","","","","","","","","","","","","","",""
"","ITI","","html-keyboard-response","12","154551","0.0-1.0-9.0","0","0","42762","","null","","","null","0","","","","","","","","","","","","","","","NaN",""
"","S1","","html-keyboard-response","13","154807","0.0-1.0-11.0","0","0","42762","","null","","","null","1","","","","","","","","","","","","","","","",""
"","ISI","","html-keyboard-response","14","155814","0.0-1.0-12.0","0","0","42762","","null","","","null","1","NaN","","","","","","","","","","","","","","",""
"","S2","","html-keyboard-response","15","156071","0.0-1.0-13.0","0","0","42762","","null","","","null","1","","NaN","","","","","","","","","","","","","",""
"","response","","html-keyboard-response","16","157501","0.0-1.0-14.0-0.0","0","0","42762","","1427","","","68","1","","","1","1","training","adjacent","FE","6","5","R.jpg","M.jpg","1","0","0","",""
"","feedback","","html-keyboard-response","17","158513","0.0-1.0-15.0-0.0","0","0","42762","","null","","","null","1","","","","","","","","","","","","","","","",""
"","time_out","","html-keyboard-response","18","160520","0.0-1.0-17.0-0.0","0","0","42762","","null","","","null","1","","","","","","","","","","","","","","","",""
"","ITI","","html-keyboard-response","19","161529","0.0-1.0-18.0","0","0","42762","","null","","","null","1","","","","","","","","","","","","","","","NaN",""
"","S1","","html-keyboard-response","20","161784","0.0-1.0-20.0","0","0","42762","","null","","","null","2","","","","","","","","","","","","","","","",""
"","ISI","","html-keyboard-response","21","162791","0.0-1.0-21.0","0","0","42762","","null","","","null","2","NaN","","","","","","","","","","","","","","",""
"","S2","","html-keyboard-response","22","163046","0.0-1.0-22.0","0","0","42762","","null","","","null","2","","NaN","","","","","","","","","","","","","",""
"","response","","html-keyboard-response","23","164069","0.0-1.0-23.0-0.0","0","0","42762","","1020","","","75","2","","","1","2","training","adjacent","GF","7","6","P.jpg","R.jpg","0","0","1","",""
"","feedback","","html-keyboard-response","24","165081","0.0-1.0-24.0-0.0","0","0","42762","","null","","","null","2","","","","","","","","","","","","","","","",""
"","ITI","","html-keyboard-response","25","166086","0.0-1.0-27.0","0","0","42762","","null","","","null","2","","","","","","","","","","","","","","","NaN",""
"","S1","","html-keyboard-response","26","166340","0.0-1.0-29.0","0","0","42762","","null","","","null","3","","","","","","","","","","","","","","","",""
"","ISI","","html-keyboard-response","27","167346","0.0-1.0-30.0","0","0","42762","","null","","","null","3","NaN","","","","","","","","","","","","","","",""
"","S2","","html-keyboard-response","28","167604","0.0-1.0-31.0","0","0","42762","","null","","","null","3","","NaN","","","","","","","","","","","","","",""
"","response","","html-keyboard-response","29","168293","0.0-1.0-32.0-0.0","0","0","42762","","686","","","68","3","","","1","3","training","adjacent","FG","6","7","R.jpg","P.jpg","1","1","1","",""
"","feedback","","html-keyboard-response","30","169296","0.0-1.0-33.0-0.0","0","0","42762","","null","","","null","3","","","","","","","","","","","","","","","",""
"","ITI","","html-keyboard-response","31","170302","0.0-1.0-36.0","0","0","42762","","null","","","null","3","","","","","","","","","","","","","","","NaN",""
"","S1","","html-keyboard-response","32","170562","0.0-1.0-38.0","0","0","42762","","null","","","null","4","","","","","","","","","","","","","","","",""
"","ISI","","html-keyboard-response","33","171569","0.0-1.0-39.0","0","0","42762","","null","","","null","4","NaN","","","","","","","","","","","","","","",""
"","S2","","html-keyboard-response","34","171822","0.0-1.0-40.0","0","0","42762","","null","","","null","4","","NaN","","","","","","","","","","","","","",""
"","response","","html-keyboard-response","35","172944","0.0-1.0-41.0-0.0","0","0","42762","","1120","","","68","4","","","1","4","training","adjacent","AB","1","2","N.jpg","L.jpg","1","1","1","",""
"","feedback","","html-keyboard-response","36","173955","0.0-1.0-42.0-0.0","0","0","42762","","null","","","null","4","","","","","","","","","","","","","","","",""
"","ITI","","html-keyboard-response","37","174959","0.0-1.0-45.0","0","0","42762","","null","","","null","4","","","","","","","","","","","","","","","NaN",""
"","S1","","html-keyboard-response","38","175215","0.0-1.0-47.0","0","0","42762","","null","","","null","5","","","","","","","","","","","","","","","",""
"","ISI","","html-keyboard-response","39","176219","0.0-1.0-48.0","0","0","42762","","null","","","null","5","NaN","","","","","","","","","","","","","","",""
"","S2","","html-keyboard-response","40","176476","0.0-1.0-49.0","0","0","42762","","null","","","null","5","","NaN","","","","","","","","","","","","","",""
"","response","","html-keyboard-response","41","177068","0.0-1.0-50.0-0.0","0","0","42762","","590","","","75","5","","","1","5","training","adjacent","AB","1","2","N.jpg","L.jpg","0","1","0","",""
"","feedback","","html-keyboard-response","42","178078","0.0-1.0-51.0-0.0","0","0","42762","","null","","","null","5","","","","","","","","","","","","","","","",""
"","time_out","","html-keyboard-response","43","180086","0.0-1.0-53.0-0.0","0","0","42762","","null","","","null","5","","","","","","","","","","","","","","","",""
"","ITI","","html-keyboard-response","44","181091","0.0-1.0-54.0","0","0","42762","","null","","","null","5","","","","","","","","","","","","","","","NaN",""
"","S1","","html-keyboard-response","45","181352","0.0-1.0-56.0","0","0","42762","","null","","","null","6","","","","","","","","","","","","","","","",""
"","ISI","","html-keyboard-response","46","182361","0.0-1.0-57.0","0","0","42762","","null","","","null","6","NaN","","","","","","","","","","","","","","",""
"","S2","","html-keyboard-response","47","182616","0.0-1.0-58.0","0","0","42762","","null","","","null","6","","NaN","","","","","","","","","","","","","",""
"","response","","html-keyboard-response","48","183064","0.0-1.0-59.0-0.0","0","0","42762","","446","","","68","6","","","1","6","training","adjacent","FE","6","5","R.jpg","M.jpg","1","0","0","",""
"","feedback","","html-keyboard-response","49","184078","0.0-1.0-60.0-0.0","0","0","42762","","null","","","null","6","","","","","","","","","","","","","","","",""
"","time_out","","html-keyboard-response","50","186084","0.0-1.0-62.0-0.0","0","0","42762","","null","","","null","6","","","","","","","","","","","","","","","",""
"","ITI","","html-keyboard-response","51","187093","0.0-1.0-63.0","0","0","42762","","null","","","null","6","","","","","","","","","","","","","","","NaN",""
"","S1","","html-keyboard-response","52","187347","0.0-1.0-65.0","0","0","42762","","null","","","null","7","","","","","","","","","","","","","","","",""
"","ISI","","html-keyboard-response","53","188353","0.0-1.0-66.0","0","0","42762","","null","","","null","7","NaN","","","","","","","","","","","","","","",""
"","S2","","html-keyboard-response","54","188607","0.0-1.0-67.0","0","0","42762","","null","","","null","7","","NaN","","","","","","","","","","","","","",""
"","response","","html-keyboard-response","55","188901","0.0-1.0-68.0-0.0","0","0","42762","","291","","","75","7","","","1","7","training","adjacent","DC","4","3","O.jpg","Q.jpg","0","0","1","",""
"","feedback","","html-keyboard-response","56","189905","0.0-1.0-69.0-0.0","0","0","42762","","null","","","null","7","","","","","","","","","","","","","","","",""
"","ITI","","html-keyboard-response","57","190910","0.0-1.0-72.0","0","0","42762","","null","","","null","7","","","","","","","","","","","","","","","NaN",""
"","S1","","html-keyboard-response","58","191167","0.0-1.0-74.0","0","0","42762","","null","","","null","8","","","","","","","","","","","","","","","",""
"","ISI","","html-keyboard-response","59","192173","0.0-1.0-75.0","0","0","42762","","null","","","null","8","NaN","","","","","","","","","","","","","","",""
"","S2","","html-keyboard-response","60","192429","0.0-1.0-76.0","0","0","42762","","null","","","null","8","","NaN","","","","","","","","","","","","","",""
"","response","","html-keyboard-response","61","192826","0.0-1.0-77.0-0.0","0","0","42762","","395","","","75","8","","","1","8","training","adjacent","AB","1","2","N.jpg","L.jpg","0","1","0","",""
"","feedback","","html-keyboard-response","62","193835","0.0-1.0-78.0-0.0","0","0","42762","","null","","","null","8","","","","","","","","","","","","","","","",""
"","time_out","","html-keyboard-response","63","195851","0.0-1.0-80.0-0.0","0","0","42762","","null","","","null","8","","","","","","","","","","","","","","","",""
"","ITI","","html-keyboard-response","64","196862","0.0-1.0-81.0","0","0","42762","","null","","","null","8","","","","","","","","","","","","","","","NaN",""
"","S1","","html-keyboard-response","65","197118","0.0-1.0-83.0","0","0","42762","","null","","","null","9","","","","","","","","","","","","","","","",""
"","ISI","","html-keyboard-response","66","198127","0.0-1.0-84.0","0","0","42762","","null","","","null","9","NaN","","","","","","","","","","","","","","",""
"","S2","","html-keyboard-response","67","198388","0.0-1.0-85.0","0","0","42762","","null","","","null","9","","NaN","","","","","","","","","","","","","",""
"","response","","html-keyboard-response","68","198650","0.0-1.0-86.0-0.0","0","0","42762","","259","","","68","9","","","1","9","training","adjacent","CB","3","2","Q.jpg","L.jpg","1","0","0","",""
"","feedback","","html-keyboard-response","69","199657","0.0-1.0-87.0-0.0","0","0","42762","","null","","","null","9","","","","","","","","","","","","","","","",""
"","time_out","","html-keyboard-response","70","201662","0.0-1.0-89.0-0.0","0","0","42762","","null","","","null","9","","","","","","","","","","","","","","","",""
"","ITI","","html-keyboard-response","71","202670","0.0-1.0-90.0","0","0","42762","","null","","","null","9","","","","","","","","","","","","","","","NaN",""
"","S1","","html-keyboard-response","72","202926","0.0-1.0-92.0","0","0","42762","","null","","","null","10","","","","","","","","","","","","","","","",""
"","ISI","","html-keyboard-response","73","203931","0.0-1.0-93.0","0","0","42762","","null","","","null","10","NaN","","","","","","","","","","","","","","",""
"","S2","","html-keyboard-response","74","204188","0.0-1.0-94.0","0","0","42762","","null","","","null","10","","NaN","","","","","","","","","","","","","",""
"","response","","html-keyboard-response","75","204490","0.0-1.0-95.0-0.0","0","0","42762","","300","","","75","10","","","1","10","training","adjacent","DE","4","5","O.jpg","M.jpg","0","1","0","",""
"","feedback","","html-keyboard-response","76","205497","0.0-1.0-96.0-0.0","0","0","42762","","null","","","null","10","","","","","","","","","","","","","","","",""
"","time_out","","html-keyboard-response","77","207502","0.0-1.0-98.0-0.0","0","0","42762","","null","","","null","10","","","","","","","","","","","","","","","",""
"","ITI","","html-keyboard-response","78","208513","0.0-1.0-99.0","0","0","42762","","null","","","null","10","","","","","","","","","","","","","","","NaN",""
"","S1","","html-keyboard-response","79","208774","0.0-1.0-101.0","0","0","42762","","null","","","null","11","","","","","","","","","","","","","","","",""
"","ISI","","html-keyboard-response","80","209781","0.0-1.0-102.0","0","0","42762","","null","","","null","11","NaN","","","","","","","","","","","","","","",""
"","S2","","html-keyboard-response","81","210038","0.0-1.0-103.0","0","0","42762","","null","","","null","11","","NaN","","","","","","","","","","","","","",""
"","response","","html-keyboard-response","82","210798","0.0-1.0-104.0-0.0","0","0","42762","","757","","","68","11","","","1","11","training","adjacent","ED","5","4","M.jpg","O.jpg","1","0","0","",""
"","feedback","","html-keyboard-response","83","211809","0.0-1.0-105.0-0.0","0","0","42762","","null","","","null","11","","","","","","","","","","","","","","","",""
"","time_out","","html-keyboard-response","84","213813","0.0-1.0-107.0-0.0","0","0","42762","","null","","","null","11","","","","","","","","","","","","","","","",""
"","ITI","","html-keyboard-response","85","214816","0.0-1.0-108.0","0","0","42762","","null","","","null","11","","","","","","","","","","","","","","","NaN",""
"","S1","","html-keyboard-response","86","215077","0.0-1.0-110.0","0","0","42762","","null","","","null","12","","","","","","","","","","","","","","","",""
"","ISI","","html-keyboard-response","87","216084","0.0-1.0-111.0","0","0","42762","","null","","","null","12","NaN","","","","","","","","","","","","","","",""
"","S2","","html-keyboard-response","88","216339","0.0-1.0-112.0","0","0","42762","","null","","","null","12","","NaN","","","","","","","","","","","","","",""
"","response","","html-keyboard-response","89","216654","0.0-1.0-113.0-0.0","0","0","42762","","312","","","75","12","","","1","12","training","adjacent","DE","4","5","O.jpg","M.jpg","0","1","0","",""
"","feedback","","html-keyboard-response","90","217660","0.0-1.0-114.0-0.0","0","0","42762","","null","","","null","12","","","","","","","","","","","","","","","",""
"","time_out","","html-keyboard-response","91","219671","0.0-1.0-116.0-0.0","0","0","42762","","null","","","null","12","","","","","","","","","","","","","","","",""
"","ITI","","html-keyboard-response","92","220681","0.0-1.0-117.0","0","0","42762","","null","","","null","12","","","","","","","","","","","","","","","NaN",""
"","S1","","html-keyboard-response","93","220937","0.0-1.0-119.0","0","0","42762","","null","","","null","13","","","","","","","","","","","","","","","",""
"","ISI","","html-keyboard-response","94","221947","0.0-1.0-120.0","0","0","42762","","null","","","null","13","NaN","","","","","","","","","","","","","","",""
"","S2","","html-keyboard-response","95","222204","0.0-1.0-121.0","0","0","42762","","null","","","null","13","","NaN","","","","","","","","","","","","","",""
"","response","","html-keyboard-response","96","222737","0.0-1.0-122.0-0.0","0","0","42762","","530","","","68","13","","","1","13","training","adjacent","BA","2","1","L.jpg","N.jpg","1","0","0","",""
"","feedback","","html-keyboard-response","97","223752","0.0-1.0-123.0-0.0","0","0","42762","","null","","","null","13","","","","","","","","","","","","","","","",""
"","time_out","","html-keyboard-response","98","225756","0.0-1.0-125.0-0.0","0","0","42762","","null","","","null","13","","","","","","","","","","","","","","","",""
"","ITI","","html-keyboard-response","99","226764","0.0-1.0-126.0","0","0","42762","","null","","","null","13","","","","","","","","","","","","","","","NaN",""
"","S1","","html-keyboard-response","100","227019","0.0-1.0-128.0","0","0","42762","","null","","","null","14","","","","","","","","","","","","","","","",""
"","ISI","","html-keyboard-response","101","228029","0.0-1.0-129.0","0","0","42762","","null","","","null","14","NaN","","","","","","","","","","","","","","",""
"","S2","","html-keyboard-response","102","228288","0.0-1.0-130.0","0","0","42762","","null","","","null","14","","NaN","","","","","","","","","","","","","",""
"","response","","html-keyboard-response","103","228467","0.0-1.0-131.0-0.0","0","0","42762","","176","","","75","14","","","1","14","training","adjacent","FG","6","7","R.jpg","P.jpg","0","1","0","",""
"","feedback","","html-keyboard-response","104","229474","0.0-1.0-132.0-0.0","0","0","42762","","null","","","null","14","","","","","","","","","","","","","","","",""
"","time_out","","html-keyboard-response","105","231482","0.0-1.0-134.0-0.0","0","0","42762","","null","","","null","14","","","","","","","","","","","","","","","",""
"","ITI","","html-keyboard-response","106","232484","0.0-1.0-135.0","0","0","42762","","null","","","null","14","","","","","","","","","","","","","","","NaN",""
"","S1","","html-keyboard-response","107","232743","0.0-1.0-137.0","0","0","42762","","null","","","null","15","","","","","","","","","","","","","","","",""
"","ISI","","html-keyboard-response","108","233746","0.0-1.0-138.0","0","0","42762","","null","","","null","15","NaN","","","","","","","","","","","","","","",""
"","S2","","html-keyboard-response","109","234002","0.0-1.0-139.0","0","0","42762","","null","","","null","15","","NaN","","","","","","","","","","","","","",""
"","response","","html-keyboard-response","110","234192","0.0-1.0-140.0-0.0","0","0","42762","","188","","","68","15","","","1","15","training","adjacent","BC","2","3","L.jpg","Q.jpg","1","1","1","",""
"","feedback","","html-keyboard-response","111","235199","0.0-1.0-141.0-0.0","0","0","42762","","null","","","null","15","","","","","","","","","","","","","","","",""
"","ITI","","html-keyboard-response","112","236208","0.0-1.0-144.0","0","0","42762","","null","","","null","15","","","","","","","","","","","","","","","NaN",""
"","S1","","html-keyboard-response","113","236466","0.0-1.0-146.0","0","0","42762","","null","","","null","16","","","","","","","","","","","","","","","",""
"","ISI","","html-keyboard-response","114","237475","0.0-1.0-147.0","0","0","42762","","null","","","null","16","NaN","","","","","","","","","","","","","","",""
"","S2","","html-keyboard-response","115","237731","0.0-1.0-148.0","0","0","42762","","null","","","null","16","","NaN","","","","","","","","","","","","","",""
"","response","","html-keyboard-response","116","239493","0.0-1.0-149.0-0.0","0","0","42762","","null","","","null","16","","","1","16","training","adjacent","BA","2","1","L.jpg","N.jpg","NaN","0","0","",""
"","too_slow_prompt","","html-keyboard-response","117","240499","0.0-1.0-151.0-0.0","1","0","42762","","null","","","null","","","","","","","","","","","","","","","","",""
"","time_out","","html-keyboard-response","118","242505","0.0-1.0-152.0-0.0","0","0","42762","","null","","","null","16","","","","","","","","","","","","","","","",""
"","ITI","","html-keyboard-response","119","243508","0.0-1.0-153.0","0","0","42762","","null","","","null","16","","","","","","","","","","","","","","","NaN",""
"","S1","","html-keyboard-response","120","243761","0.0-1.0-155.0","0","0","42762","","null","","","null","17","","","","","","","","","","","","","","","",""
"","ISI","","html-keyboard-response","121","244769","0.0-1.0-156.0","0","0","42762","","null","","","null","17","NaN","","","","","","","","","","","","","","",""
"","S2","","html-keyboard-response","122","245025","0.0-1.0-157.0","0","0","42762","","null","","","null","17","","NaN","","","","","","","","","","","","","",""
"","response","","html-keyboard-response","123","246674","0.0-1.0-158.0-0.0","0","0","42762","","1647","","","75","17","","","1","17","training","adjacent","DC","4","3","O.jpg","Q.jpg","0","0","1","",""
"","feedback","","html-keyboard-response","124","247685","0.0-1.0-159.0-0.0","0","0","42762","","null","","","null","17","","","","","","","","","","","","","","","",""
"","ITI","","html-keyboard-response","125","248700","0.0-1.0-162.0","0","0","42762","","null","","","null","17","","","","","","","","","","","","","","","NaN",""
"","S1","","html-keyboard-response","126","248957","0.0-1.0-164.0","0","0","42762","","null","","","null","18","","","","","","","","","","","","","","","",""
"","ISI","","html-keyboard-response","127","249960","0.0-1.0-165.0","0","0","42762","","null","","","null","18","NaN","","","","","","","","","","","","","","",""
"","S2","","html-keyboard-response","128","250218","0.0-1.0-166.0","0","0","42762","","null","","","null","18","","NaN","","","","","","","","","","","","","",""
"","response","","html-keyboard-response","129","251151","0.0-1.0-167.0-0.0","0","0","42762","","930","","","68","18","","","1","18","training","adjacent","GF","7","6","P.jpg","R.jpg","1","0","0","",""
"","feedback","","html-keyboard-response","130","252155","0.0-1.0-168.0-0.0","0","0","42762","","null","","","null","18","","","","","","","","","","","","","","","",""
"","time_out","","html-keyboard-response","131","254159","0.0-1.0-170.0-0.0","0","0","42762","","null","","","null","18","","","","","","","","","","","","","","","",""
"","ITI","","html-keyboard-response","132","255165","0.0-1.0-171.0","0","0","42762","","null","","","null","18","","","","","","","","","","","","","","","NaN",""
"","S1","","html-keyboard-response","133","255423","0.0-1.0-173.0","0","0","42762","","null","","","null","19","","","","","","","","","","","","","","","",""
"","ISI","","html-keyboard-response","134","256433","0.0-1.0-174.0","0","0","42762","","null","","","null","19","NaN","","","","","","","","","","","","","","",""
"","S2","","html-keyboard-response","135","256691","0.0-1.0-175.0","0","0","42762","","null","","","null","19","","NaN","","","","","","","","","","","","","",""
"","response","","html-keyboard-response","136","257375","0.0-1.0-176.0-0.0","0","0","42762","","681","","","75","19","","","1","19","training","adjacent","FG","6","7","R.jpg","P.jpg","0","1","0","",""
"","feedback","","html-keyboard-response","137","258382","0.0-1.0-177.0-0.0","0","0","42762","","null","","","null","19","","","","","","","","","","","","","","","",""
"","time_out","","html-keyboard-response","138","260389","0.0-1.0-179.0-0.0","0","0","42762","","null","","","null","19","","","","","","","","","","","","","","","",""
"","ITI","","html-keyboard-response","139","261401","0.0-1.0-180.0","0","0","42762","","null","","","null","19","","","","","","","","","","","","","","","NaN",""
"","S1","","html-keyboard-response","140","261657","0.0-1.0-182.0","0","0","42762","","null","","","null","20","","","","","","","","","","","","","","","",""
"","ISI","","html-keyboard-response","141","262665","0.0-1.0-183.0","0","0","42762","","null","","","null","20","NaN","","","","","","","","","","","","","","",""
"","S2","","html-keyboard-response","142","262923","0.0-1.0-184.0","0","0","42762","","null","","","null","20","","NaN","","","","","","","","","","","","","",""
"","response","","html-keyboard-response","143","263235","0.0-1.0-185.0-0.0","0","0","42762","","311","","","68","20","","","1","20","training","adjacent","CD","3","4","Q.jpg","O.jpg","1","1","1","",""
"","feedback","","html-keyboard-response","144","264248","0.0-1.0-186.0-0.0","0","0","42762","","null","","","null","20","","","","","","","","","","","","","","","",""
"","ITI","","html-keyboard-response","145","265258","0.0-1.0-189.0","0","0","42762","","null","","","null","20","","","","","","","","","","","","","","","NaN",""
"","S1","","html-keyboard-response","146","265517","0.0-1.0-191.0","0","0","42762","","null","","","null","21","","","","","","","","","","","","","","","",""
"","ISI","","html-keyboard-response","147","266525","0.0-1.0-192.0","0","0","42762","","null","","","null","21","NaN","","","","","","","","","","","","","","",""
"","S2","","html-keyboard-response","148","266785","0.0-1.0-193.0","0","0","42762","","null","","","null","21","","NaN","","","","","","","","","","","","","",""
"","response","","html-keyboard-response","149","267161","0.0-1.0-194.0-0.0","0","0","42762","","374","","","75","21","","","1","21","training","adjacent","ED","5","4","M.jpg","O.jpg","0","0","1","",""
"","feedback","","html-keyboard-response","150","268168","0.0-1.0-195.0-0.0","0","0","42762","","null","","","null","21","","","","","","","","","","","","","","","",""
"","ITI","","html-keyboard-response","151","269175","0.0-1.0-198.0","0","0","42762","","null","","","null","21","","","","","","","","","","","","","","","NaN",""
"","S1","","html-keyboard-response","152","269430","0.0-1.0-200.0","0","0","42762","","null","","","null","22","","","","","","","","","","","","","","","",""
"","ISI","","html-keyboard-response","153","270444","0.0-1.0-201.0","0","0","42762","","null","","","null","22","NaN","","","","","","","","","","","","","","",""
"","S2","","html-keyboard-response","154","270703","0.0-1.0-202.0","0","0","42762","","null","","","null","22","","NaN","","","","","","","","","","","","","",""
"","response","","html-keyboard-response","155","270869","0.0-1.0-203.0-0.0","0","0","42762","","163","","","68","22","","","1","22","training","adjacent","FE","6","5","R.jpg","M.jpg","1","0","0","",""
"","feedback","","html-keyboard-response","156","271876","0.0-1.0-204.0-0.0","0","0","42762","","null","","","null","22","","","","","","","","","","","","","","","",""
"","time_out","","html-keyboard-response","157","273890","0.0-1.0-206.0-0.0","0","0","42762","","null","","","null","22","","","","","","","","","","","","","","","",""
"","ITI","","html-keyboard-response","158","274900","0.0-1.0-207.0","0","0","42762","","null","","","null","22","","","","","","","","","","","","","","","NaN",""
"","S1","","html-keyboard-response","159","275154","0.0-1.0-209.0","0","0","42762","","null","","","null","23","","","","","","","","","","","","","","","",""
"","ISI","","html-keyboard-response","160","276164","0.0-1.0-210.0","0","0","42762","","null","","","null","23","NaN","","","","","","","","","","","","","","",""
"","S2","","html-keyboard-response","161","276413","0.0-1.0-211.0","0","0","42762","","246","","","75","23","","k","1","23","training","adjacent","BC","2","3","L.jpg","Q.jpg","0","1","0","",""
"","feedback","","html-keyboard-response","162","277424","0.0-1.0-213.0-0.0","0","0","42762","","null","","","null","23","","","","","","","","","","","","","","","",""
"","time_out","","html-keyboard-response","163","279430","0.0-1.0-215.0-0.0","0","0","42762","","null","","","null","23","","","","","","","","","","","","","","","",""
"","ITI","","html-keyboard-response","164","280440","0.0-1.0-216.0","0","0","42762","","null","","","null","23","","","","","","","","","","","","","","","NaN",""
"","S1","","html-keyboard-response","165","280697","0.0-1.0-218.0","0","0","42762","","null","","","null","24","","","","","","","","","","","","","","","",""
"","ISI","","html-keyboard-response","166","281702","0.0-1.0-219.0","0","0","42762","","null","","","null","24","NaN","","","","","","","","","","","","","","",""
"","S2","","html-keyboard-response","167","281917","0.0-1.0-220.0","0","0","42762","","212","","","68","24","","d","1","24","training","adjacent","DC","4","3","O.jpg","Q.jpg","1","0","0","",""
"","feedback","","html-keyboard-response","168","282923","0.0-1.0-222.0-0.0","0","0","42762","","null","","","null","24","","","","","","","","","","","","","","","",""
"","time_out","","html-keyboard-response","169","284932","0.0-1.0-224.0-0.0","0","0","42762","","null","","","null","24","","","","","","","","","","","","","","","",""
"","ITI","","html-keyboard-response","170","285941","0.0-1.0-225.0","0","0","42762","","null","","","null","24","","","","","","","","","","","","","","","NaN",""
"","S1","","html-keyboard-response","171","286197","0.0-1.0-227.0","0","0","42762","","null","","","null","25","","","","","","","","","","","","","","","",""
"","ISI","","html-keyboard-response","172","287207","0.0-1.0-228.0","0","0","42762","","null","","","null","25","NaN","","","","","","","","","","","","","","",""
"","S2","","html-keyboard-response","173","287463","0.0-1.0-229.0","0","0","42762","","null","","","null","25","","NaN","","","","","","","","","","","","","",""
"","response","","html-keyboard-response","174","287509","0.0-1.0-230.0-0.0","0","0","42762","","44","","","75","25","","","1","25","training","adjacent","DE","4","5","O.jpg","M.jpg","0","1","0","",""
"","feedback","","html-keyboard-response","175","288528","0.0-1.0-231.0-0.0","0","0","42762","","null","","","null","25","","","","","","","","","","","","","","","",""
"","time_out","","html-keyboard-response","176","290532","0.0-1.0-233.0-0.0","0","0","42762","","null","","","null","25","","","","","","","","","","","","","","","",""
"","ITI","","html-keyboard-response","177","291535","0.0-1.0-234.0","0","0","42762","","null","","","null","25","","","","","","","","","","","","","","","NaN",""
"","S1","","html-keyboard-response","178","291793","0.0-1.0-236.0","0","0","42762","","null","","","null","26","","","","","","","","","","","","","","","",""
"","ISI","","html-keyboard-response","179","292802","0.0-1.0-237.0","0","0","42762","","null","","","null","26","NaN","","","","","","","","","","","","","","",""
"","S2","","html-keyboard-response","180","293061","0.0-1.0-238.0","0","0","42762","","null","","","null","26","","NaN","","","","","","","","","","","","","",""
"","response","","html-keyboard-response","181","293265","0.0-1.0-239.0-0.0","0","0","42762","","202","","","68","26","","","1","26","training","adjacent","BA","2","1","L.jpg","N.jpg","1","0","0","",""
"","feedback","","html-keyboard-response","182","294272","0.0-1.0-240.0-0.0","0","0","42762","","null","","","null","26","","","","","","","","","","","","","","","",""
"","time_out","","html-keyboard-response","183","296281","0.0-1.0-242.0-0.0","0","0","42762","","null","","","null","26","","","","","","","","","","","","","","","",""
"","ITI","","html-keyboard-response","184","297286","0.0-1.0-243.0","0","0","42762","","null","","","null","26","","","","","","","","","","","","","","","NaN",""
"","S1","","html-keyboard-response","185","297545","0.0-1.0-245.0","0","0","42762","","null","","","null","27","","","","","","","","","","","","","","","",""
"","ISI","","html-keyboard-response","186","298553","0.0-1.0-246.0","0","0","42762","","null","","","null","27","NaN","","","","","","","","","","","","","","",""
"","S2","","html-keyboard-response","187","298746","0.0-1.0-247.0","0","0","42762","","190","","","75","27","","k","1","27","training","adjacent","EF","5","6","M.jpg","R.jpg","0","1","0","",""
"","feedback","","html-keyboard-response","188","299751","0.0-1.0-249.0-0.0","0","0","42762","","null","","","null","27","","","","","","","","","","","","","","","",""
"","time_out","","html-keyboard-response","189","301758","0.0-1.0-251.0-0.0","0","0","42762","","null","","","null","27","","","","","","","","","","","","","","","",""
"","ITI","","html-keyboard-response","190","302764","0.0-1.0-252.0","0","0","42762","","null","","","null","27","","","","","","","","","","","","","","","NaN",""
"","S1","","html-keyboard-response","191","303020","0.0-1.0-254.0","0","0","42762","","null","","","null","28","","","","","","","","","","","","","","","",""
"","ISI","","html-keyboard-response","192","304024","0.0-1.0-255.0","0","0","42762","","null","","","null","28","NaN","","","","","","","","","","","","","","",""
"","S2","","html-keyboard-response","193","304280","0.0-1.0-256.0","0","0","42762","","null","","","null","28","","NaN","","","","","","","","","","","","","",""
"","response","","html-keyboard-response","194","304290","0.0-1.0-257.0-0.0","0","0","42762","","7","","","68","28","","","1","28","training","adjacent","DE","4","5","O.jpg","M.jpg","1","1","1","",""
"","feedback","","html-keyboard-response","195","305304","0.0-1.0-258.0-0.0","0","0","42762","","null","","","null","28","","","","","","","","","","","","","","","",""
"","ITI","","html-keyboard-response","196","306311","0.0-1.0-261.0","0","0","42762","","null","","","null","28","","","","","","","","","","","","","","","NaN",""
"","S1","","html-keyboard-response","197","306569","0.0-1.0-263.0","0","0","42762","","null","","","null","29","","","","","","","","","","","","","","","",""
"","ISI","","html-keyboard-response","198","307581","0.0-1.0-264.0","0","0","42762","","null","","","null","29","NaN","","","","","","","","","","","","","","",""
"","S2","","html-keyboard-response","199","307839","0.0-1.0-265.0","0","0","42762","","null","","","null","29","","NaN","","","","","","","","","","","","","",""
"","response","","html-keyboard-response","200","308059","0.0-1.0-266.0-0.0","0","0","42762","","219","","","75","29","","","1","29","training","adjacent","BC","2","3","L.jpg","Q.jpg","0","1","0","",""
"","feedback","","html-keyboard-response","201","309067","0.0-1.0-267.0-0.0","0","0","42762","","null","","","null","29","","","","","","","","","","","","","","","",""
"","time_out","","html-keyboard-response","202","311073","0.0-1.0-269.0-0.0","0","0","42762","","null","","","null","29","","","","","","","","","","","","","","","",""
"","ITI","","html-keyboard-response","203","312077","0.0-1.0-270.0","0","0","42762","","null","","","null","29","","","","","","","","","","","","","","","NaN",""
"","S1","","html-keyboard-response","204","312335","0.0-1.0-272.0","0","0","42762","","null","","","null","30","","","","","","","","","","","","","","","",""
"","ISI","","html-keyboard-response","205","313338","0.0-1.0-273.0","0","0","42762","","null","","","null","30","NaN","","","","","","","","","","","","","","",""
"","S2","","html-keyboard-response","206","313591","0.0-1.0-274.0","0","0","42762","","null","","","null","30","","NaN","","","","","","","","","","","","","",""
"","response","","html-keyboard-response","207","313599","0.0-1.0-275.0-0.0","0","0","42762","","5","","","68","30","","","1","30","training","adjacent","CD","3","4","Q.jpg","O.jpg","1","1","1","",""
"","feedback","","html-keyboard-response","208","314616","0.0-1.0-276.0-0.0","0","0","42762","","null","","","null","30","","","","","","","","","","","","","","","",""
"","ITI","","html-keyboard-response","209","315622","0.0-1.0-279.0","0","0","42762","","null","","","null","30","","","","","","","","","","","","","","","NaN",""
"","S1","","html-keyboard-response","210","315880","0.0-1.0-281.0","0","0","42762","","null","","","null","31","","","","","","","","","","","","","","","",""
"","ISI","","html-keyboard-response","211","316888","0.0-1.0-282.0","0","0","42762","","null","","","null","31","NaN","","","","","","","","","","","","","","",""
"","S2","","html-keyboard-response","212","317146","0.0-1.0-283.0","0","0","42762","","null","","","null","31","","NaN","","","","","","","","","","","","","",""
"","response","","html-keyboard-response","213","317299","0.0-1.0-284.0-0.0","0","0","42762","","152","","","68","31","","","1","31","training","adjacent","CD","3","4","Q.jpg","O.jpg","1","1","1","",""
"","feedback","","html-keyboard-response","214","318311","0.0-1.0-285.0-0.0","0","0","42762","","null","","","null","31","","","","","","","","","","","","","","","",""
"","ITI","","html-keyboard-response","215","319319","0.0-1.0-288.0","0","0","42762","","null","","","null","31","","","","","","","","","","","","","","","NaN",""
"","S1","","html-keyboard-response","216","319576","0.0-1.0-290.0","0","0","42762","","null","","","null","32","","","","","","","","","","","","","","","",""
"","ISI","","html-keyboard-response","217","320578","0.0-1.0-291.0","0","0","42762","","null","","","null","32","NaN","","","","","","","","","","","","","","",""
"","S2","","html-keyboard-response","218","320834","0.0-1.0-292.0","0","0","42762","","null","","","null","32","","NaN","","","","","","","","","","","","","",""
"","response","","html-keyboard-response","219","321460","0.0-1.0-293.0-0.0","0","0","42762","","624","","","68","32","","","1","32","training","adjacent","GF","7","6","P.jpg","R.jpg","1","0","0","",""
"","feedback","","html-keyboard-response","220","322465","0.0-1.0-294.0-0.0","0","0","42762","","null","","","null","32","","","","","","","","","","","","","","","",""
"","time_out","","html-keyboard-response","221","324474","0.0-1.0-296.0-0.0","0","0","42762","","null","","","null","32","","","","","","","","","","","","","","","",""
"","ITI","","html-keyboard-response","222","325482","0.0-1.0-297.0","0","0","42762","","null","","","null","32","","","","","","","","","","","","","","","NaN",""
"","S1","","html-keyboard-response","223","325736","0.0-1.0-299.0","0","0","42762","","null","","","null","33","","","","","","","","","","","","","","","",""
"","ISI","","html-keyboard-response","224","326744","0.0-1.0-300.0","0","0","42762","","null","","","null","33","NaN","","","","","","","","","","","","","","",""
"","S2","","html-keyboard-response","225","327004","0.0-1.0-301.0","0","0","42762","","252","","","75","33","","k","1","33","training","adjacent","DC","4","3","O.jpg","Q.jpg","0","0","1","",""
"","feedback","","html-keyboard-response","226","328014","0.0-1.0-303.0-0.0","0","0","42762","","null","","","null","33","","","","","","","","","","","","","","","",""
"","ITI","","html-keyboard-response","227","329020","0.0-1.0-306.0","0","0","42762","","null","","","null","33","","","","","","","","","","","","","","","NaN",""
"","S1","","html-keyboard-response","228","329274","0.0-1.0-308.0","0","0","42762","","null","","","null","34","","","","","","","","","","","","","","","",""
"","ISI","","html-keyboard-response","229","330282","0.0-1.0-309.0","0","0","42762","","null","","","null","34","NaN","","","","","","","","","","","","","","",""
"","S2","","html-keyboard-response","230","330535","0.0-1.0-310.0","0","0","42762","","null","","","null","34","","NaN","","","","","","","","","","","","","",""
"","response","","html-keyboard-response","231","330846","0.0-1.0-311.0-0.0","0","0","42762","","309","","","68","34","","","1","34","training","adjacent","EF","5","6","M.jpg","R.jpg","1","1","1","",""
"","feedback","","html-keyboard-response","232","331859","0.0-1.0-312.0-0.0","0","0","42762","","null","","","null","34","","","","","","","","","","","","","","","",""
"","ITI","","html-keyboard-response","233","332864","0.0-1.0-315.0","0","0","42762","","null","","","null","34","","","","","","","","","","","","","","","NaN",""
"","S1","","html-keyboard-response","234","333119","0.0-1.0-317.0","0","0","42762","","null","","","null","35","","","","","","","","","","","","","","","",""
"","ISI","","html-keyboard-response","235","334131","0.0-1.0-318.0","0","0","42762","","null","","","null","35","NaN","","","","","","","","","","","","","","",""
"","S2","","html-keyboard-response","236","334389","0.0-1.0-319.0","0","0","42762","","null","","","null","35","","NaN","","","","","","","","","","","","","",""
"","response","","html-keyboard-response","237","334559","0.0-1.0-320.0-0.0","0","0","42762","","168","","","75","35","","","1","35","training","adjacent","CB","3","2","Q.jpg","L.jpg","0","0","1","",""
"","feedback","","html-keyboard-response","238","335567","0.0-1.0-321.0-0.0","0","0","42762","","null","","","null","35","","","","","","","","","","","","","","","",""
"","ITI","","html-keyboard-response","239","336572","0.0-1.0-324.0","0","0","42762","","null","","","null","35","","","","","","","","","","","","","","","NaN",""
"","S1","","html-keyboard-response","240","336831","0.0-1.0-326.0","0","0","42762","","null","","","null","36","","","","","","","","","","","","","","","",""
"","ISI","","html-keyboard-response","241","337836","0.0-1.0-327.0","0","0","42762","","null","","","null","36","NaN","","","","","","","","","","","","","","",""
"","S2","","html-keyboard-response","242","338091","0.0-1.0-328.0","0","0","42762","","null","","","null","36","","NaN","","","","","","","","","","","","","",""
"","response","","html-keyboard-response","243","338134","0.0-1.0-329.0-0.0","0","0","42762","","40","","","68","36","","","1","36","training","adjacent","ED","5","4","M.jpg","O.jpg","1","0","0","",""
"","feedback","","html-keyboard-response","244","339146","0.0-1.0-330.0-0.0","0","0","42762","","null","","","null","36","","","","","","","","","","","","","","","",""
"","time_out","","html-keyboard-response","245","341150","0.0-1.0-332.0-0.0","0","0","42762","","null","","","null","36","","","","","","","","","","","","","","","",""
"","ITI","","html-keyboard-response","246","342159","0.0-1.0-333.0","0","0","42762","","null","","","null","36","","","","","","","","","","","","","","","NaN",""
"","S1","","html-keyboard-response","247","342420","0.0-1.0-335.0","0","0","42762","","null","","","null","37","","","","","","","","","","","","","","","",""
"","ISI","","html-keyboard-response","248","343436","0.0-1.0-336.0","0","0","42762","","103","","","75","37","k","","","","","","","","","","","","","","",""
"","S2","","html-keyboard-response","249","343694","0.0-1.0-337.0","0","0","42762","","null","","","null","37","","NaN","","","","","","","","","","","","","",""
"","response","","html-keyboard-response","250","343750","0.0-1.0-338.0-0.0","0","0","42762","","53","","","75","37","","","1","37","training","adjacent","ED","5","4","M.jpg","O.jpg","0","0","1","",""
"","feedback","","html-keyboard-response","251","344761","0.0-1.0-339.0-0.0","0","0","42762","","null","","","null","37","","","","","","","","","","","","","","","",""
"","ITI","","html-keyboard-response","252","345769","0.0-1.0-342.0","0","0","42762","","null","","","null","37","","","","","","","","","","","","","","","NaN",""
"","S1","","html-keyboard-response","253","346023","0.0-1.0-344.0","0","0","42762","","null","","","null","38","","","","","","","","","","","","","","","",""
"","ISI","","html-keyboard-response","254","347039","0.0-1.0-345.0","0","0","42762","","null","","","null","38","NaN","","","","","","","","","","","","","","",""
"","S2","","html-keyboard-response","255","347303","0.0-1.0-346.0","0","0","42762","","null","","","null","38","","NaN","","","","","","","","","","","","","",""
"","response","","html-keyboard-response","256","347323","0.0-1.0-347.0-0.0","0","0","42762","","18","","","68","38","","","1","38","training","adjacent","AB","1","2","N.jpg","L.jpg","1","1","1","",""
"","feedback","","html-keyboard-response","257","348330","0.0-1.0-348.0-0.0","0","0","42762","","null","","","null","38","","","","","","","","","","","","","","","",""
"","ITI","","html-keyboard-response","258","349334","0.0-1.0-351.0","0","0","42762","","null","","","null","38","","","","","","","","","","","","","","","NaN",""
"","S1","","html-keyboard-response","259","349591","0.0-1.0-353.0","0","0","42762","","null","","","null","39","","","","","","","","","","","","","","","",""
"","ISI","","html-keyboard-response","260","350602","0.0-1.0-354.0","0","0","42762","","null","","","null","39","NaN","","","","","","","","","","","","","","",""
"","S2","","html-keyboard-response","261","350842","0.0-1.0-355.0","0","0","42762","","237","","","68","39","","d","1","39","training","adjacent","CB","3","2","Q.jpg","L.jpg","1","0","0","",""
"","feedback","","html-keyboard-response","262","351852","0.0-1.0-357.0-0.0","0","0","42762","","null","","","null","39","","","","","","","","","","","","","","","",""
"","time_out","","html-keyboard-response","263","353857","0.0-1.0-359.0-0.0","0","0","42762","","null","","","null","39","","","","","","","","","","","","","","","",""
"","ITI","","html-keyboard-response","264","354862","0.0-1.0-360.0","0","0","42762","","null","","","null","39","","","","","","","","","","","","","","","NaN",""
"","S1","","html-keyboard-response","265","355116","0.0-1.0-362.0","0","0","42762","","null","","","null","40","","","","","","","","","","","","","","","",""
"","ISI","","html-keyboard-response","266","356120","0.0-1.0-363.0","0","0","42762","","null","","","null","40","NaN","","","","","","","","","","","","","","",""
"","S2","","html-keyboard-response","267","356373","0.0-1.0-364.0","0","0","42762","","251","","","75","40","","k","1","40","training","adjacent","FG","6","7","R.jpg","P.jpg","0","1","0","",""
"","feedback","","html-keyboard-response","268","357385","0.0-1.0-366.0-0.0","0","0","42762","","null","","","null","40","","","","","","","","","","","","","","","",""
"","time_out","","html-keyboard-response","269","359394","0.0-1.0-368.0-0.0","0","0","42762","","null","","","null","40","","","","","","","","","","","","","","","",""
"","ITI","","html-keyboard-response","270","360398","0.0-1.0-369.0","0","0","42762","","null","","","null","40","","","","","","","","","","","","","","","NaN",""
"","S1","","html-keyboard-response","271","360655","0.0-1.0-371.0","0","0","42762","","null","","","null","41","","","","","","","","","","","","","","","",""
"","ISI","","html-keyboard-response","272","361664","0.0-1.0-372.0","0","0","42762","","null","","","null","41","NaN","","","","","","","","","","","","","","",""
"","S2","","html-keyboard-response","273","361908","0.0-1.0-373.0","0","0","42762","","241","","","68","41","","d","1","41","training","adjacent","BA","2","1","L.jpg","N.jpg","1","0","0","",""
"","feedback","","html-keyboard-response","274","362918","0.0-1.0-375.0-0.0","0","0","42762","","null","","","null","41","","","","","","","","","","","","","","","",""
"","time_out","","html-keyboard-response","275","364928","0.0-1.0-377.0-0.0","0","0","42762","","null","","","null","41","","","","","","","","","","","","","","","",""
"","ITI","","html-keyboard-response","276","365932","0.0-1.0-378.0","0","0","42762","","null","","","null","41","","","","","","","","","","","","","","","NaN",""
"","S1","","html-keyboard-response","277","366189","0.0-1.0-380.0","0","0","42762","","null","","","null","42","","","","","","","","","","","","","","","",""
"","ISI","","html-keyboard-response","278","367198","0.0-1.0-381.0","0","0","42762","","null","","","null","42","NaN","","","","","","","","","","","","","","",""
"","S2","","html-keyboard-response","279","367452","0.0-1.0-382.0","0","0","42762","","null","","","null","42","","NaN","","","","","","","","","","","","","",""
"","response","","html-keyboard-response","280","367882","0.0-1.0-383.0-0.0","0","0","42762","","427","","","68","42","","","1","42","training","adjacent","GF","7","6","P.jpg","R.jpg","1","0","0","",""
"","feedback","","html-keyboard-response","281","368888","0.0-1.0-384.0-0.0","0","0","42762","","null","","","null","42","","","","","","","","","","","","","","","",""
"","time_out","","html-keyboard-response","282","370895","0.0-1.0-386.0-0.0","0","0","42762","","null","","","null","42","","","","","","","","","","","","","","","",""
"","ITI","","html-keyboard-response","283","371903","0.0-1.0-387.0","0","0","42762","","null","","","null","42","","","","","","","","","","","","","","","NaN",""
"","S1","","html-keyboard-response","284","372158","0.0-1.0-389.0","0","0","42762","","null","","","null","43","","","","","","","","","","","","","","","",""
"","ISI","","html-keyboard-response","285","373169","0.0-1.0-390.0","0","0","42762","","212","","","75","43","k","","","","","","","","","","","","","","",""
"","S2","","html-keyboard-response","286","373422","0.0-1.0-391.0","0","0","42762","","null","","","null","43","","NaN","","","","","","","","","","","","","",""
"","response","","html-keyboard-response","287","373464","0.0-1.0-392.0-0.0","0","0","42762","","39","","","75","43","","","1","43","training","adjacent","CB","3","2","Q.jpg","L.jpg","0","0","1","",""
"","feedback","","html-keyboard-response","288","374474","0.0-1.0-393.0-0.0","0","0","42762","","null","","","null","43","","","","","","","","","","","","","","","",""
"","ITI","","html-keyboard-response","289","375479","0.0-1.0-396.0","0","0","42762","","null","","","null","43","","","","","","","","","","","","","","","NaN",""
"","S1","","html-keyboard-response","290","375734","0.0-1.0-398.0","0","0","42762","","null","","","null","44","","","","","","","","","","","","","","","",""
"","ISI","","html-keyboard-response","291","376745","0.0-1.0-399.0","0","0","42762","","null","","","null","44","NaN","","","","","","","","","","","","","","",""
"","S2","","html-keyboard-response","292","377000","0.0-1.0-400.0","0","0","42762","","null","","","null","44","","NaN","","","","","","","","","","","","","",""
"","response","","html-keyboard-response","293","378757","0.0-1.0-401.0-0.0","0","0","42762","","null","","","null","44","","","1","44","training","adjacent","EF","5","6","M.jpg","R.jpg","NaN","1","0","",""
"","too_slow_prompt","","html-keyboard-response","294","379767","0.0-1.0-403.0-0.0","1","0","42762","","null","","","null","","","","","","","","","","","","","","","","",""
"","time_out","","html-keyboard-response","295","381780","0.0-1.0-404.0-0.0","0","0","42762","","null","","","null","44","","","","","","","","","","","","","","","",""
"","ITI","","html-keyboard-response","296","382789","0.0-1.0-405.0","0","0","42762","","null","","","null","44","","","","","","","","","","","","","","","NaN",""
"","S1","","html-keyboard-response","297","383047","0.0-1.0-407.0","0","0","42762","","null","","","null","45","","","","","","","","","","","","","","","",""
"","ISI","","html-keyboard-response","298","384055","0.0-1.0-408.0","0","0","42762","","null","","","null","45","NaN","","","","","","","","","","","","","","",""
"","S2","","html-keyboard-response","299","384318","0.0-1.0-409.0","0","0","42762","","null","","","null","45","","NaN","","","","","","","","","","","","","",""
"","response","","html-keyboard-response","300","384854","0.0-1.0-410.0-0.0","0","0","42762","","535","","","68","45","","","1","45","training","adjacent","BC","2","3","L.jpg","Q.jpg","1","1","1","",""
"","feedback","","html-keyboard-response","301","385859","0.0-1.0-411.0-0.0","0","0","42762","","null","","","null","45","","","","","","","","","","","","","","","",""
"","ITI","","html-keyboard-response","302","386869","0.0-1.0-414.0","0","0","42762","","null","","","null","45","","","","","","","","","","","","","","","NaN",""
"","S1","","html-keyboard-response","303","387128","0.0-1.0-416.0","0","0","42762","","null","","","null","46","","","","","","","","","","","","","","","",""
"","ISI","","html-keyboard-response","304","388136","0.0-1.0-417.0","0","0","42762","","null","","","null","46","NaN","","","","","","","","","","","","","","",""
"","S2","","html-keyboard-response","305","388390","0.0-1.0-418.0","0","0","42762","","null","","","null","46","","NaN","","","","","","","","","","","","","",""
"","response","","html-keyboard-response","306","390143","0.0-1.0-419.0-0.0","0","0","42762","","null","","","null","46","","","1","46","training","adjacent","EF","5","6","M.jpg","R.jpg","NaN","1","0","",""
"","too_slow_prompt","","html-keyboard-response","307","391146","0.0-1.0-421.0-0.0","1","0","42762","","null","","","null","","","","","","","","","","","","","","","","",""
"","time_out","","html-keyboard-response","308","393155","0.0-1.0-422.0-0.0","0","0","42762","","null","","","null","46","","","","","","","","","","","","","","","",""
"","ITI","","html-keyboard-response","309","394159","0.0-1.0-423.0","0","0","42762","","null","","","null","46","","","","","","","","","","","","","","","NaN",""
"","S1","","html-keyboard-response","310","394413","0.0-1.0-425.0","0","0","42762","","null","","","null","47","","","","","","","","","","","","","","","",""
"","ISI","","html-keyboard-response","311","395420","0.0-1.0-426.0","0","0","42762","","null","","","null","47","NaN","","","","","","","","","","","","","","",""
"","S2","","html-keyboard-response","312","395676","0.0-1.0-427.0","0","0","42762","","null","","","null","47","","NaN","","","","","","","","","","","","","",""
"","response","","html-keyboard-response","313","395975","0.0-1.0-428.0-0.0","0","0","42762","","297","","","68","47","","","1","47","training","adjacent","FE","6","5","R.jpg","M.jpg","1","0","0","",""
"","feedback","","html-keyboard-response","314","396985","0.0-1.0-429.0-0.0","0","0","42762","","null","","","null","47","","","","","","","","","","","","","","","",""
"","time_out","","html-keyboard-response","315","398994","0.0-1.0-431.0-0.0","0","0","42762","","null","","","null","47","","","","","","","","","","","","","","","",""
"","ITI","","html-keyboard-response","316","400001","0.0-1.0-432.0","0","0","42762","","null","","","null","47","","","","","","","","","","","","","","","NaN",""
"","block_over","","html-keyboard-response","317","410218","0.0-1.0-433.0-0.0","0","0","42762","","10213","","","32","47","","","","","","","","","","","","","","","",""
"","S1","","html-keyboard-response","318","410477","0.0-1.0-434.0","0","0","42762","","null","","","null","48","","","","","","","","","","","","","","","",""
"","ISI","","html-keyboard-response","319","411485","0.0-1.0-435.0","0","0","42762","","null","","","null","48","NaN","","","","","","","","","","","","","","",""
"","S2","","html-keyboard-response","320","411741","0.0-1.0-436.0","0","0","42762","","null","","","null","48","","NaN","","","","","","","","","","","","","",""
"","response","","html-keyboard-response","321","412555","0.0-1.0-437.0-0.0","0","0","42762","","811","","","75","48","","","2","48","training","adjacent","CD","3","4","Q.jpg","O.jpg","0","1","0","",""
"","feedback","","html-keyboard-response","322","413565","0.0-1.0-438.0-0.0","0","0","42762","","null","","","null","48","","","","","","","","","","","","","","","",""
"","time_out","","html-keyboard-response","323","415572","0.0-1.0-440.0-0.0","0","0","42762","","null","","","null","48","","","","","","","","","","","","","","","",""
"","ITI","","html-keyboard-response","324","416582","0.0-1.0-441.0","0","0","42762","","null","","","null","48","","","","","","","","","","","","","","","NaN",""
"","S1","","html-keyboard-response","325","416839","0.0-1.0-443.0","0","0","42762","","null","","","null","49","","","","","","","","","","","","","","","",""
"","ISI","","html-keyboard-response","326","417849","0.0-1.0-444.0","0","0","42762","","null","","","null","49","NaN","","","","","","","","","","","","","","",""
"","S2","","html-keyboard-response","327","418104","0.0-1.0-445.0","0","0","42762","","null","","","null","49","","NaN","","","","","","","","","","","","","",""
"","response","","html-keyboard-response","328","418413","0.0-1.0-446.0-0.0","0","0","42762","","307","","","68","49","","","2","49","training","adjacent","FG","6","7","R.jpg","P.jpg","1","1","1","",""
"","feedback","","html-keyboard-response","329","419421","0.0-1.0-447.0-0.0","0","0","42762","","null","","","null","49","","","","","","","","","","","","","","","",""
"","ITI","","html-keyboard-response","330","420438","0.0-1.0-450.0","0","0","42762","","null","","","null","49","","","","","","","","","","","","","","","NaN",""
"","S1","","html-keyboard-response","331","420696","0.0-1.0-452.0","0","0","42762","","null","","","null","50","","","","","","","","","","","","","","","",""
"","ISI","","html-keyboard-response","332","421702","0.0-1.0-453.0","0","0","42762","","null","","","null","50","NaN","","","","","","","","","","","","","","",""
"","S2","","html-keyboard-response","333","421967","0.0-1.0-454.0","0","0","42762","","null","","","null","50","","NaN","","","","","","","","","","","","","",""
"","response","","html-keyboard-response","334","422101","0.0-1.0-455.0-0.0","0","0","42762","","131","","","75","50","","","2","50","training","adjacent","FG","6","7","R.jpg","P.jpg","0","1","0","",""
"","feedback","","html-keyboard-response","335","423109","0.0-1.0-456.0-0.0","0","0","42762","","null","","","null","50","","","","","","","","","","","","","","","",""
"","time_out","","html-keyboard-response","336","425114","0.0-1.0-458.0-0.0","0","0","42762","","null","","","null","50","","","","","","","","","","","","","","","",""
"","ITI","","html-keyboard-response","337","426126","0.0-1.0-459.0","0","0","42762","","null","","","null","50","","","","","","","","","","","","","","","NaN",""
"","S1","","html-keyboard-response","338","426379","0.0-1.0-461.0","0","0","42762","","null","","","null","51","","","","","","","","","","","","","","","",""
"","ISI","","html-keyboard-response","339","427386","0.0-1.0-462.0","0","0","42762","","null","","","null","51","NaN","","","","","","","","","","","","","","",""
"","S2","","html-keyboard-response","340","427644","0.0-1.0-463.0","0","0","42762","","null","","","null","51","","NaN","","","","","","","","","","","","","",""
"","response","","html-keyboard-response","341","427714","0.0-1.0-464.0-0.0","0","0","42762","","68","","","68","51","","","2","51","training","adjacent","EF","5","6","M.jpg","R.jpg","1","1","1","",""
"","feedback","","html-keyboard-response","342","428721","0.0-1.0-465.0-0.0","0","0","42762","","null","","","null","51","","","","","","","","","","","","","","","",""
"","ITI","","html-keyboard-response","343","429726","0.0-1.0-468.0","0","0","42762","","null","","","null","51","","","","","","","","","","","","","","","NaN",""
"","S1","","html-keyboard-response","344","429986","0.0-1.0-470.0","0","0","42762","","null","","","null","52","","","","","","","","","","","","","","","",""
"","ISI","","html-keyboard-response","345","430996","0.0-1.0-471.0","0","0","42762","","null","","","null","52","NaN","","","","","","","","","","","","","","",""
"","S2","","html-keyboard-response","346","431254","0.0-1.0-472.0","0","0","42762","","null","","","null","52","","NaN","","","","","","","","","","","","","",""
"","response","","html-keyboard-response","347","431564","0.0-1.0-473.0-0.0","0","0","42762","","307","","","68","52","","","2","52","training","adjacent","BA","2","1","L.jpg","N.jpg","1","0","0","",""
"","feedback","","html-keyboard-response","348","432575","0.0-1.0-474.0-0.0","0","0","42762","","null","","","null","52","","","","","","","","","","","","","","","",""
"","time_out","","html-keyboard-response","349","434586","0.0-1.0-476.0-0.0","0","0","42762","","null","","","null","52","","","","","","","","","","","","","","","",""
"","ITI","","html-keyboard-response","350","435591","0.0-1.0-477.0","0","0","42762","","null","","","null","52","","","","","","","","","","","","","","","NaN",""
"","S1","","html-keyboard-response","351","435851","0.0-1.0-479.0","0","0","42762","","null","","","null","53","","","","","","","","","","","","","","","",""
"","ISI","","html-keyboard-response","352","436854","0.0-1.0-480.0","0","0","42762","","142","","","75","53","k","","","","","","","","","","","","","","",""
"","S2","","html-keyboard-response","353","437112","0.0-1.0-481.0","0","0","42762","","null","","","null","53","","NaN","","","","","","","","","","","","","",""
"","response","","html-keyboard-response","354","437154","0.0-1.0-482.0-0.0","0","0","42762","","39","","","75","53","","","2","53","training","adjacent","ED","5","4","M.jpg","O.jpg","0","0","1","",""
"","feedback","","html-keyboard-response","355","438159","0.0-1.0-483.0-0.0","0","0","42762","","null","","","null","53","","","","","","","","","","","","","","","",""
"","ITI","","html-keyboard-response","356","439166","0.0-1.0-486.0","0","0","42762","","null","","","null","53","","","","","","","","","","","","","","","NaN",""
"","S1","","html-keyboard-response","357","439425","0.0-1.0-488.0","0","0","42762","","null","","","null","54","","","","","","","","","","","","","","","",""
"","ISI","","html-keyboard-response","358","440440","0.0-1.0-489.0","0","0","42762","","null","","","null","54","NaN","","","","","","","","","","","","","","",""
"","S2","","html-keyboard-response","359","440697","0.0-1.0-490.0","0","0","42762","","null","","","null","54","","NaN","","","","","","","","","","","","","",""
"","response","","html-keyboard-response","360","441760","0.0-1.0-491.0-0.0","0","0","42762","","1061","","","68","54","","","2","54","training","adjacent","BC","2","3","L.jpg","Q.jpg","1","1","1","",""
"","feedback","","html-keyboard-response","361","442770","0.0-1.0-492.0-0.0","0","0","42762","","null","","","null","54","","","","","","","","","","","","","","","",""
"","ITI","","html-keyboard-response","362","443773","0.0-1.0-495.0","0","0","42762","","null","","","null","54","","","","","","","","","","","","","","","NaN",""
"","S1","","html-keyboard-response","363","444030","0.0-1.0-497.0","0","0","42762","","null","","","null","55","","","","","","","","","","","","","","","",""
"","ISI","","html-keyboard-response","364","445040","0.0-1.0-498.0","0","0","42762","","null","","","null","55","NaN","","","","","","","","","","","","","","",""
"","S2","","html-keyboard-response","365","445297","0.0-1.0-499.0","0","0","42762","","null","","","null","55","","NaN","","","","","","","","","","","","","",""
"","response","","html-keyboard-response","366","445805","0.0-1.0-500.0-0.0","0","0","42762","","505","","","68","55","","","2","55","training","adjacent","BC","2","3","L.jpg","Q.jpg","1","1","1","",""
"","feedback","","html-keyboard-response","367","446810","0.0-1.0-501.0-0.0","0","0","42762","","null","","","null","55","","","","","","","","","","","","","","","",""
"","ITI","","html-keyboard-response","368","447817","0.0-1.0-504.0","0","0","42762","","null","","","null","55","","","","","","","","","","","","","","","NaN",""
"","S1","","html-keyboard-response","369","448072","0.0-1.0-506.0","0","0","42762","","null","","","null","56","","","","","","","","","","","","","","","",""
"","ISI","","html-keyboard-response","370","449079","0.0-1.0-507.0","0","0","42762","","466","","","68","56","d","","","","","","","","","","","","","","",""
"","S2","","html-keyboard-response","371","449335","0.0-1.0-508.0","0","0","42762","","null","","","null","56","","NaN","","","","","","","","","","","","","",""
"","response","","html-keyboard-response","372","449398","0.0-1.0-509.0-0.0","0","0","42762","","61","","","68","56","","","2","56","training","adjacent","ED","5","4","M.jpg","O.jpg","1","0","0","",""
"","feedback","","html-keyboard-response","373","450409","0.0-1.0-510.0-0.0","0","0","42762","","null","","","null","56","","","","","","","","","","","","","","","",""
"","time_out","","html-keyboard-response","374","452417","0.0-1.0-512.0-0.0","0","0","42762","","null","","","null","56","","","","","","","","","","","","","","","",""
"","ITI","","html-keyboard-response","375","453425","0.0-1.0-513.0","0","0","42762","","null","","","null","56","","","","","","","","","","","","","","","NaN",""
"","S1","","html-keyboard-response","376","453681","0.0-1.0-515.0","0","0","42762","","null","","","null","57","","","","","","","","","","","","","","","",""
"","ISI","","html-keyboard-response","377","454683","0.0-1.0-516.0","0","0","42762","","null","","","null","57","NaN","","","","","","","","","","","","","","",""
"","S2","","html-keyboard-response","378","454937","0.0-1.0-517.0","0","0","42762","","null","","","null","57","","NaN","","","","","","","","","","","","","",""
"","response","","html-keyboard-response","379","455151","0.0-1.0-518.0-0.0","0","0","42762","","212","","","75","57","","","2","57","training","adjacent","DE","4","5","O.jpg","M.jpg","0","1","0","",""
"","feedback","","html-keyboard-response","380","456153","0.0-1.0-519.0-0.0","0","0","42762","","null","","","null","57","","","","","","","","","","","","","","","",""
"","time_out","","html-keyboard-response","381","458162","0.0-1.0-521.0-0.0","0","0","42762","","null","","","null","57","","","","","","","","","","","","","","","",""
"","ITI","","html-keyboard-response","382","459167","0.0-1.0-522.0","0","0","42762","","null","","","null","57","","","","","","","","","","","","","","","NaN",""
"","S1","","html-keyboard-response","383","459422","0.0-1.0-524.0","0","0","42762","","null","","","null","58","","","","","","","","","","","","","","","",""
"","ISI","","html-keyboard-response","384","460425","0.0-1.0-525.0","0","0","42762","","null","","","null","58","NaN","","","","","","","","","","","","","","",""
"","S2","","html-keyboard-response","385","460617","0.0-1.0-526.0","0","0","42762","","190","","","68","58","","d","2","58","training","adjacent","DC","4","3","O.jpg","Q.jpg","1","0","0","",""
"","feedback","","html-keyboard-response","386","461629","0.0-1.0-528.0-0.0","0","0","42762","","null","","","null","58","","","","","","","","","","","","","","","",""
"","time_out","","html-keyboard-response","387","463641","0.0-1.0-530.0-0.0","0","0","42762","","null","","","null","58","","","","","","","","","","","","","","","",""
"","ITI","","html-keyboard-response","388","464648","0.0-1.0-531.0","0","0","42762","","null","","","null","58","","","","","","","","","","","","","","","NaN",""
"","S1","","html-keyboard-response","389","464909","0.0-1.0-533.0","0","0","42762","","null","","","null","59","","","","","","","","","","","","","","","",""
"","ISI","","html-keyboard-response","390","465915","0.0-1.0-534.0","0","0","42762","","null","","","null","59","NaN","","","","","","","","","","","","","","",""
"","S2","","html-keyboard-response","391","466171","0.0-1.0-535.0","0","0","42762","","null","","","null","59","","NaN","","","","","","","","","","","","","",""
"","response","","html-keyboard-response","392","466200","0.0-1.0-536.0-0.0","0","0","42762","","27","","","75","59","","","2","59","training","adjacent","FE","6","5","R.jpg","M.jpg","0","0","1","",""
"","feedback","","html-keyboard-response","393","467206","0.0-1.0-537.0-0.0","0","0","42762","","null","","","null","59","","","","","","","","","","","","","","","",""
"","ITI","","html-keyboard-response","394","468212","0.0-1.0-540.0","0","0","42762","","null","","","null","59","","","","","","","","","","","","","","","NaN",""
"","S1","","html-keyboard-response","395","468478","0.0-1.0-542.0","0","0","42762","","null","","","null","60","","","","","","","","","","","","","","","",""
"","ISI","","html-keyboard-response","396","469484","0.0-1.0-543.0","0","0","42762","","null","","","null","60","NaN","","","","","","","","","","","","","","",""
"","S2","","html-keyboard-response","397","469742","0.0-1.0-544.0","0","0","42762","","null","","","null","60","","NaN","","","","","","","","","","","","","",""
"","response","","html-keyboard-response","398","469823","0.0-1.0-545.0-0.0","0","0","42762","","78","","","68","60","","","2","60","training","adjacent","GF","7","6","P.jpg","R.jpg","1","0","0","",""
"","feedback","","html-keyboard-response","399","470829","0.0-1.0-546.0-0.0","0","0","42762","","null","","","null","60","","","","","","","","","","","","","","","",""
"","time_out","","html-keyboard-response","400","472840","0.0-1.0-548.0-0.0","0","0","42762","","null","","","null","60","","","","","","","","","","","","","","","",""
"","ITI","","html-keyboard-response","401","473849","0.0-1.0-549.0","0","0","42762","","null","","","null","60","","","","","","","","","","","","","","","NaN",""
"","S1","","html-keyboard-response","402","474107","0.0-1.0-551.0","0","0","42762","","null","","","null","61","","","","","","","","","","","","","","","",""
"","ISI","","html-keyboard-response","403","475114","0.0-1.0-552.0","0","0","42762","","null","","","null","61","NaN","","","","","","","","","","","","","","",""
"","S2","","html-keyboard-response","404","475379","0.0-1.0-553.0","0","0","42762","","null","","","null","61","","NaN","","","","","","","","","","","","","",""
"","response","","html-keyboard-response","405","475423","0.0-1.0-554.0-0.0","0","0","42762","","42","","","75","61","","","2","61","training","adjacent","FE","6","5","R.jpg","M.jpg","0","0","1","",""
"","feedback","","html-keyboard-response","406","476427","0.0-1.0-555.0-0.0","0","0","42762","","null","","","null","61","","","","","","","","","","","","","","","",""
"","ITI","","html-keyboard-response","407","477435","0.0-1.0-558.0","0","0","42762","","null","","","null","61","","","","","","","","","","","","","","","NaN",""
"","S1","","html-keyboard-response","408","477693","0.0-1.0-560.0","0","0","42762","","null","","","null","62","","","","","","","","","","","","","","","",""
"","ISI","","html-keyboard-response","409","478702","0.0-1.0-561.0","0","0","42762","","null","","","null","62","NaN","","","","","","","","","","","","","","",""
"","S2","","html-keyboard-response","410","478956","0.0-1.0-562.0","0","0","42762","","null","","","null","62","","NaN","","","","","","","","","","","","","",""
"","response","","html-keyboard-response","411","479120","0.0-1.0-563.0-0.0","0","0","42762","","161","","","68","62","","","2","62","training","adjacent","AB","1","2","N.jpg","L.jpg","1","1","1","",""
"","feedback","","html-keyboard-response","412","480129","0.0-1.0-564.0-0.0","0","0","42762","","null","","","null","62","","","","","","","","","","","","","","","",""
"","ITI","","html-keyboard-response","413","481159","0.0-1.0-567.0","0","0","42762","","null","","","null","62","","","","","","","","","","","","","","","NaN",""
"","S1","","html-keyboard-response","414","481417","0.0-1.0-569.0","0","0","42762","","null","","","null","63","","","","","","","","","","","","","","","",""
"","ISI","","html-keyboard-response","415","482422","0.0-1.0-570.0","0","0","42762","","null","","","null","63","NaN","","","","","","","","","","","","","","",""
"","S2","","html-keyboard-response","416","482678","0.0-1.0-571.0","0","0","42762","","null","","","null","63","","NaN","","","","","","","","","","","","","",""
"","response","","html-keyboard-response","417","483051","0.0-1.0-572.0-0.0","0","0","42762","","370","","","75","63","","","2","63","training","adjacent","BA","2","1","L.jpg","N.jpg","0","0","1","",""
"","feedback","","html-keyboard-response","418","484055","0.0-1.0-573.0-0.0","0","0","42762","","null","","","null","63","","","","","","","","","","","","","","","",""
"","ITI","","html-keyboard-response","419","485058","0.0-1.0-576.0","0","0","42762","","null","","","null","63","","","","","","","","","","","","","","","NaN",""
"","S1","","html-keyboard-response","420","485312","0.0-1.0-578.0","0","0","42762","","null","","","null","64","","","","","","","","","","","","","","","",""
"","ISI","","html-keyboard-response","421","486322","0.0-1.0-579.0","0","0","42762","","null","","","null","64","NaN","","","","","","","","","","","","","","",""
"","S2","","html-keyboard-response","422","486579","0.0-1.0-580.0","0","0","42762","","null","","","null","64","","NaN","","","","","","","","","","","","","",""
"","response","","html-keyboard-response","423","486719","0.0-1.0-581.0-0.0","0","0","42762","","137","","","68","64","","","2","64","training","adjacent","BC","2","3","L.jpg","Q.jpg","1","1","1","",""
"","feedback","","html-keyboard-response","424","487723","0.0-1.0-582.0-0.0","0","0","42762","","null","","","null","64","","","","","","","","","","","","","","","",""
"","ITI","","html-keyboard-response","425","488733","0.0-1.0-585.0","0","0","42762","","null","","","null","64","","","","","","","","","","","","","","","NaN",""
"","S1","","html-keyboard-response","426","488999","0.0-1.0-587.0","0","0","42762","","null","","","null","65","","","","","","","","","","","","","","","",""
"","ISI","","html-keyboard-response","427","490006","0.0-1.0-588.0","0","0","42762","","null","","","null","65","NaN","","","","","","","","","","","","","","",""
"","S2","","html-keyboard-response","428","490263","0.0-1.0-589.0","0","0","42762","","null","","","null","65","","NaN","","","","","","","","","","","","","",""
"","response","","html-keyboard-response","429","490572","0.0-1.0-590.0-0.0","0","0","42762","","306","","","75","65","","","2","65","training","adjacent","ED","5","4","M.jpg","O.jpg","0","0","1","",""
"","feedback","","html-keyboard-response","430","491591","0.0-1.0-591.0-0.0","0","0","42762","","null","","","null","65","","","","","","","","","","","","","","","",""
"","ITI","","html-keyboard-response","431","492595","0.0-1.0-594.0","0","0","42762","","null","","","null","65","","","","","","","","","","","","","","","NaN",""
"","S1","","html-keyboard-response","432","492849","0.0-1.0-596.0","0","0","42762","","null","","","null","66","","","","","","","","","","","","","","","",""
"","ISI","","html-keyboard-response","433","493854","0.0-1.0-597.0","0","0","42762","","null","","","null","66","NaN","","","","","","","","","","","","","","",""
"","S2","","html-keyboard-response","434","494111","0.0-1.0-598.0","0","0","42762","","null","","","null","66","","NaN","","","","","","","","","","","","","",""
"","response","","html-keyboard-response","435","494298","0.0-1.0-599.0-0.0","0","0","42762","","184","","","75","66","","","2","66","training","adjacent","EF","5","6","M.jpg","R.jpg","0","1","0","",""
"","feedback","","html-keyboard-response","436","495305","0.0-1.0-600.0-0.0","0","0","42762","","null","","","null","66","","","","","","","","","","","","","","","",""
"","time_out","","html-keyboard-response","437","497314","0.0-1.0-602.0-0.0","0","0","42762","","null","","","null","66","","","","","","","","","","","","","","","",""
"","ITI","","html-keyboard-response","438","498323","0.0-1.0-603.0","0","0","42762","","null","","","null","66","","","","","","","","","","","","","","","NaN",""
"","S1","","html-keyboard-response","439","498580","0.0-1.0-605.0","0","0","42762","","null","","","null","67","","","","","","","","","","","","","","","",""
"","ISI","","html-keyboard-response","440","499589","0.0-1.0-606.0","0","0","42762","","null","","","null","67","NaN","","","","","","","","","","","","","","",""
"","S2","","html-keyboard-response","441","499846","0.0-1.0-607.0","0","0","42762","","null","","","null","67","","NaN","","","","","","","","","","","","","",""
"","response","","html-keyboard-response","442","500202","0.0-1.0-608.0-0.0","0","0","42762","","354","","","75","67","","","2","67","training","adjacent","DE","4","5","O.jpg","M.jpg","0","1","0","",""
"","feedback","","html-keyboard-response","443","501205","0.0-1.0-609.0-0.0","0","0","42762","","null","","","null","67","","","","","","","","","","","","","","","",""
"","time_out","","html-keyboard-response","444","503223","0.0-1.0-611.0-0.0","0","0","42762","","null","","","null","67","","","","","","","","","","","","","","","",""
"","ITI","","html-keyboard-response","445","504227","0.0-1.0-612.0","0","0","42762","","null","","","null","67","","","","","","","","","","","","","","","NaN",""
"","S1","","html-keyboard-response","446","504484","0.0-1.0-614.0","0","0","42762","","null","","","null","68","","","","","","","","","","","","","","","",""
"","ISI","","html-keyboard-response","447","505494","0.0-1.0-615.0","0","0","42762","","null","","","null","68","NaN","","","","","","","","","","","","","","",""
"","S2","","html-keyboard-response","448","505713","0.0-1.0-616.0","0","0","42762","","217","","","68","68","","d","2","68","training","adjacent","DC","4","3","O.jpg","Q.jpg","1","0","0","",""
"","feedback","","html-keyboard-response","449","506716","0.0-1.0-618.0-0.0","0","0","42762","","null","","","null","68","","","","","","","","","","","","","","","",""
"","time_out","","html-keyboard-response","450","508729","0.0-1.0-620.0-0.0","0","0","42762","","null","","","null","68","","","","","","","","","","","","","","","",""
"","ITI","","html-keyboard-response","451","509736","0.0-1.0-621.0","0","0","42762","","null","","","null","68","","","","","","","","","","","","","","","NaN",""
"","S1","","html-keyboard-response","452","509994","0.0-1.0-623.0","0","0","42762","","null","","","null","69","","","","","","","","","","","","","","","",""
"","ISI","","html-keyboard-response","453","510998","0.0-1.0-624.0","0","0","42762","","null","","","null","69","NaN","","","","","","","","","","","","","","",""
"","S2","","html-keyboard-response","454","511167","0.0-1.0-625.0","0","0","42762","","166","","","75","69","","k","2","69","training","adjacent","FG","6","7","R.jpg","P.jpg","0","1","0","",""
"","feedback","","html-keyboard-response","455","512172","0.0-1.0-627.0-0.0","0","0","42762","","null","","","null","69","","","","","","","","","","","","","","","",""
"","time_out","","html-keyboard-response","456","514177","0.0-1.0-629.0-0.0","0","0","42762","","null","","","null","69","","","","","","","","","","","","","","","",""
"","ITI","","html-keyboard-response","457","515181","0.0-1.0-630.0","0","0","42762","","null","","","null","69","","","","","","","","","","","","","","","NaN",""
"","S1","","html-keyboard-response","458","515439","0.0-1.0-632.0","0","0","42762","","null","","","null","70","","","","","","","","","","","","","","","",""
"","ISI","","html-keyboard-response","459","516445","0.0-1.0-633.0","0","0","42762","","null","","","null","70","NaN","","","","","","","","","","","","","","",""
"","S2","","html-keyboard-response","460","516685","0.0-1.0-634.0","0","0","42762","","236","","","68","70","","d","2","70","training","adjacent","DE","4","5","O.jpg","M.jpg","1","1","1","",""
"","feedback","","html-keyboard-response","461","517696","0.0-1.0-636.0-0.0","0","0","42762","","null","","","null","70","","","","","","","","","","","","","","","",""
"","ITI","","html-keyboard-response","462","518704","0.0-1.0-639.0","0","0","42762","","null","","","null","70","","","","","","","","","","","","","","","NaN",""
"","S1","","html-keyboard-response","463","518962","0.0-1.0-641.0","0","0","42762","","null","","","null","71","","","","","","","","","","","","","","","",""
"","ISI","","html-keyboard-response","464","519979","0.0-1.0-642.0","0","0","42762","","null","","","null","71","NaN","","","","","","","","","","","","","","",""
"","S2","","html-keyboard-response","465","520037","0.0-1.0-643.0","0","0","42762","","55","","","75","71","","k","2","71","training","adjacent","EF","5","6","M.jpg","R.jpg","0","1","0","",""
"","feedback","","html-keyboard-response","466","521045","0.0-1.0-645.0-0.0","0","0","42762","","null","","","null","71","","","","","","","","","","","","","","","",""
"","time_out","","html-keyboard-response","467","523050","0.0-1.0-647.0-0.0","0","0","42762","","null","","","null","71","","","","","","","","","","","","","","","",""
"","ITI","","html-keyboard-response","468","524054","0.0-1.0-648.0","0","0","42762","","null","","","null","71","","","","","","","","","","","","","","","NaN",""
"","S1","","html-keyboard-response","469","524311","0.0-1.0-650.0","0","0","42762","","null","","","null","72","","","","","","","","","","","","","","","",""
"","ISI","","html-keyboard-response","470","525320","0.0-1.0-651.0","0","0","42762","","null","","","null","72","NaN","","","","","","","","","","","","","","",""
"","S2","","html-keyboard-response","471","525579","0.0-1.0-652.0","0","0","42762","","null","","","null","72","","NaN","","","","","","","","","","","","","",""
"","response","","html-keyboard-response","472","525681","0.0-1.0-653.0-0.0","0","0","42762","","101","","","68","72","","","2","72","training","adjacent","DE","4","5","O.jpg","M.jpg","1","1","1","",""
"","feedback","","html-keyboard-response","473","526691","0.0-1.0-654.0-0.0","0","0","42762","","null","","","null","72","","","","","","","","","","","","","","","",""
"","ITI","","html-keyboard-response","474","527700","0.0-1.0-657.0","0","0","42762","","null","","","null","72","","","","","","","","","","","","","","","NaN",""
"","S1","","html-keyboard-response","475","527957","0.0-1.0-659.0","0","0","42762","","null","","","null","73","","","","","","","","","","","","","","","",""
"","ISI","","html-keyboard-response","476","528966","0.0-1.0-660.0","0","0","42762","","null","","","null","73","NaN","","","","","","","","","","","","","","",""
"","S2","","html-keyboard-response","477","529222","0.0-1.0-661.0","0","0","42762","","null","","","null","73","","NaN","","","","","","","","","","","","","",""
"","response","","html-keyboard-response","478","529440","0.0-1.0-662.0-0.0","0","0","42762","","216","","","68","73","","","2","73","training","adjacent","BA","2","1","L.jpg","N.jpg","1","0","0","",""
"","feedback","","html-keyboard-response","479","530446","0.0-1.0-663.0-0.0","0","0","42762","","null","","","null","73","","","","","","","","","","","","","","","",""
"","time_out","","html-keyboard-response","480","532454","0.0-1.0-665.0-0.0","0","0","42762","","null","","","null","73","","","","","","","","","","","","","","","",""
"","ITI","","html-keyboard-response","481","533457","0.0-1.0-666.0","0","0","42762","","null","","","null","73","","","","","","","","","","","","","","","NaN",""
"","S1","","html-keyboard-response","482","533713","0.0-1.0-668.0","0","0","42762","","null","","","null","74","","","","","","","","","","","","","","","",""
"","ISI","","html-keyboard-response","483","534721","0.0-1.0-669.0","0","0","42762","","null","","","null","74","NaN","","","","","","","","","","","","","","",""
"","S2","","html-keyboard-response","484","534930","0.0-1.0-670.0","0","0","42762","","207","","","75","74","","k","2","74","training","adjacent","CB","3","2","Q.jpg","L.jpg","0","0","1","",""
"","feedback","","html-keyboard-response","485","535939","0.0-1.0-672.0-0.0","0","0","42762","","null","","","null","74","","","","","","","","","","","","","","","",""
"","ITI","","html-keyboard-response","486","536945","0.0-1.0-675.0","0","0","42762","","null","","","null","74","","","","","","","","","","","","","","","NaN",""
"","S1","","html-keyboard-response","487","537205","0.0-1.0-677.0","0","0","42762","","null","","","null","75","","","","","","","","","","","","","","","",""
"","ISI","","html-keyboard-response","488","538208","0.0-1.0-678.0","0","0","42762","","null","","","null","75","NaN","","","","","","","","","","","","","","",""
"","S2","","html-keyboard-response","489","538445","0.0-1.0-679.0","0","0","42762","","233","","","68","75","","d","2","75","training","adjacent","CD","3","4","Q.jpg","O.jpg","1","1","1","",""
"","feedback","","html-keyboard-response","490","539453","0.0-1.0-681.0-0.0","0","0","42762","","null","","","null","75","","","","","","","","","","","","","","","",""
"","ITI","","html-keyboard-response","491","540461","0.0-1.0-684.0","0","0","42762","","null","","","null","75","","","","","","","","","","","","","","","NaN",""
"","S1","","html-keyboard-response","492","540718","0.0-1.0-686.0","0","0","42762","","null","","","null","76","","","","","","","","","","","","","","","",""
"","ISI","","html-keyboard-response","493","541726","0.0-1.0-687.0","0","0","42762","","null","","","null","76","NaN","","","","","","","","","","","","","","",""
"","S2","","html-keyboard-response","494","541946","0.0-1.0-688.0","0","0","42762","","217","","","75","76","","k","2","76","training","adjacent","CB","3","2","Q.jpg","L.jpg","0","0","1","",""
"","feedback","","html-keyboard-response","495","542956","0.0-1.0-690.0-0.0","0","0","42762","","null","","","null","76","","","","","","","","","","","","","","","",""
"","ITI","","html-keyboard-response","496","543959","0.0-1.0-693.0","0","0","42762","","null","","","null","76","","","","","","","","","","","","","","","NaN",""
"","S1","","html-keyboard-response","497","544216","0.0-1.0-695.0","0","0","42762","","null","","","null","77","","","","","","","","","","","","","","","",""
"","ISI","","html-keyboard-response","498","545222","0.0-1.0-696.0","0","0","42762","","null","","","null","77","NaN","","","","","","","","","","","","","","",""
"","S2","","html-keyboard-response","499","545388","0.0-1.0-697.0","0","0","42762","","163","","","75","77","","k","2","77","training","adjacent","GF","7","6","P.jpg","R.jpg","0","0","1","",""
"","feedback","","html-keyboard-response","500","546393","0.0-1.0-699.0-0.0","0","0","42762","","null","","","null","77","","","","","","","","","","","","","","","",""
"","ITI","","html-keyboard-response","501","547398","0.0-1.0-702.0","0","0","42762","","null","","","null","77","","","","","","","","","","","","","","","NaN",""
"","S1","","html-keyboard-response","502","547655","0.0-1.0-704.0","0","0","42762","","null","","","null","78","","","","","","","","","","","","","","","",""
"","ISI","","html-keyboard-response","503","548661","0.0-1.0-705.0","0","0","42762","","null","","","null","78","NaN","","","","","","","","","","","","","","",""
"","S2","","html-keyboard-response","504","548885","0.0-1.0-706.0","0","0","42762","","222","","","75","78","","k","2","78","training","adjacent","EF","5","6","M.jpg","R.jpg","0","1","0","",""
"","feedback","","html-keyboard-response","505","549893","0.0-1.0-708.0-0.0","0","0","42762","","null","","","null","78","","","","","","","","","","","","","","","",""
"","time_out","","html-keyboard-response","506","551899","0.0-1.0-710.0-0.0","0","0","42762","","null","","","null","78","","","","","","","","","","","","","","","",""
"","ITI","","html-keyboard-response","507","552906","0.0-1.0-711.0","0","0","42762","","null","","","null","78","","","","","","","","","","","","","","","NaN",""
"","S1","","html-keyboard-response","508","553164","0.0-1.0-713.0","0","0","42762","","null","","","null","79","","","","","","","","","","","","","","","",""
"","ISI","","html-keyboard-response","509","554173","0.0-1.0-714.0","0","0","42762","","963","","","68","79","d","","","","","","","","","","","","","","",""
"","S2","","html-keyboard-response","510","554428","0.0-1.0-715.0","0","0","42762","","null","","","null","79","","NaN","","","","","","","","","","","","","",""
"","response","","html-keyboard-response","511","554578","0.0-1.0-716.0-0.0","0","0","42762","","147","","","68","79","","","2","79","training","adjacent","FE","6","5","R.jpg","M.jpg","1","0","0","",""
"","feedback","","html-keyboard-response","512","555584","0.0-1.0-717.0-0.0","0","0","42762","","null","","","null","79","","","","","","","","","","","","","","","",""
"","time_out","","html-keyboard-response","513","557590","0.0-1.0-719.0-0.0","0","0","42762","","null","","","null","79","","","","","","","","","","","","","","","",""
"","ITI","","html-keyboard-response","514","558596","0.0-1.0-720.0","0","0","42762","","null","","","null","79","","","","","","","","","","","","","","","NaN",""
"","S1","","html-keyboard-response","515","558852","0.0-1.0-722.0","0","0","42762","","null","","","null","80","","","","","","","","","","","","","","","",""
"","ISI","","html-keyboard-response","516","559861","0.0-1.0-723.0","0","0","42762","","null","","","null","80","NaN","","","","","","","","","","","","","","",""
"","S2","","html-keyboard-response","517","560078","0.0-1.0-724.0","0","0","42762","","214","","","75","80","","k","2","80","training","adjacent","FG","6","7","R.jpg","P.jpg","0","1","0","",""
"","feedback","","html-keyboard-response","518","561087","0.0-1.0-726.0-0.0","0","0","42762","","null","","","null","80","","","","","","","","","","","","","","","",""
"","time_out","","html-keyboard-response","519","563097","0.0-1.0-728.0-0.0","0","0","42762","","null","","","null","80","","","","","","","","","","","","","","","",""
"","ITI","","html-keyboard-response","520","564103","0.0-1.0-729.0","0","0","42762","","null","","","null","80","","","","","","","","","","","","","","","NaN",""
"","S1","","html-keyboard-response","521","564359","0.0-1.0-731.0","0","0","42762","","null","","","null","81","","","","","","","","","","","","","","","",""
"","ISI","","html-keyboard-response","522","565362","0.0-1.0-732.0","0","0","42762","","null","","","null","81","NaN","","","","","","","","","","","","","","",""
"","S2","","html-keyboard-response","523","565542","0.0-1.0-733.0","0","0","42762","","178","","","68","81","","d","2","81","training","adjacent","ED","5","4","M.jpg","O.jpg","1","0","0","",""
"","feedback","","html-keyboard-response","524","566548","0.0-1.0-735.0-0.0","0","0","42762","","null","","","null","81","","","","","","","","","","","","","","","",""
"","time_out","","html-keyboard-response","525","568555","0.0-1.0-737.0-0.0","0","0","42762","","null","","","null","81","","","","","","","","","","","","","","","",""
"","ITI","","html-keyboard-response","526","569559","0.0-1.0-738.0","0","0","42762","","null","","","null","81","","","","","","","","","","","","","","","NaN",""
"","S1","","html-keyboard-response","527","569816","0.0-1.0-740.0","0","0","42762","","null","","","null","82","","","","","","","","","","","","","","","",""
"","ISI","","html-keyboard-response","528","570826","0.0-1.0-741.0","0","0","42762","","null","","","null","82","NaN","","","","","","","","","","","","","","",""
"","S2","","html-keyboard-response","529","570868","0.0-1.0-742.0","0","0","42762","","40","","","75","82","","k","2","82","training","adjacent","CD","3","4","Q.jpg","O.jpg","0","1","0","",""
"","feedback","","html-keyboard-response","530","571873","0.0-1.0-744.0-0.0","0","0","42762","","null","","","null","82","","","","","","","","","","","","","","","",""
"","time_out","","html-keyboard-response","531","573878","0.0-1.0-746.0-0.0","0","0","42762","","null","","","null","82","","","","","","","","","","","","","","","",""
"","ITI","","html-keyboard-response","532","574886","0.0-1.0-747.0","0","0","42762","","null","","","null","82","","","","","","","","","","","","","","","NaN",""
"","S1","","html-keyboard-response","533","575144","0.0-1.0-749.0","0","0","42762","","null","","","null","83","","","","","","","","","","","","","","","",""
"","ISI","","html-keyboard-response","534","576147","0.0-1.0-750.0","0","0","42762","","null","","","null","83","NaN","","","","","","","","","","","","","","",""
"","S2","","html-keyboard-response","535","576197","0.0-1.0-751.0","0","0","42762","","47","","","68","83","","d","2","83","training","adjacent","DC","4","3","O.jpg","Q.jpg","1","0","0","",""
"","feedback","","html-keyboard-response","536","577205","0.0-1.0-753.0-0.0","0","0","42762","","null","","","null","83","","","","","","","","","","","","","","","",""
"","time_out","","html-keyboard-response","537","579211","0.0-1.0-755.0-0.0","0","0","42762","","null","","","null","83","","","","","","","","","","","","","","","",""
"","ITI","","html-keyboard-response","538","580217","0.0-1.0-756.0","0","0","42762","","null","","","null","83","","","","","","","","","","","","","","","NaN",""
"","S1","","html-keyboard-response","539","580474","0.0-1.0-758.0","0","0","42762","","null","","","null","84","","","","","","","","","","","","","","","",""
"","ISI","","html-keyboard-response","540","581482","0.0-1.0-759.0","0","0","42762","","null","","","null","84","NaN","","","","","","","","","","","","","","",""
"","S2","","html-keyboard-response","541","581647","0.0-1.0-760.0","0","0","42762","","162","","","75","84","","k","2","84","training","adjacent","AB","1","2","N.jpg","L.jpg","0","1","0","",""
"","feedback","","html-keyboard-response","542","582652","0.0-1.0-762.0-0.0","0","0","42762","","null","","","null","84","","","","","","","","","","","","","","","",""
"","time_out","","html-keyboard-response","543","584658","0.0-1.0-764.0-0.0","0","0","42762","","null","","","null","84","","","","","","","","","","","","","","","",""
"","ITI","","html-keyboard-response","544","585663","0.0-1.0-765.0","0","0","42762","","null","","","null","84","","","","","","","","","","","","","","","NaN",""
"","S1","","html-keyboard-response","545","585919","0.0-1.0-767.0","0","0","42762","","null","","","null","85","","","","","","","","","","","","","","","",""
"","ISI","","html-keyboard-response","546","586928","0.0-1.0-768.0","0","0","42762","","null","","","null","85","NaN","","","","","","","","","","","","","","",""
"","S2","","html-keyboard-response","547","587050","0.0-1.0-769.0","0","0","42762","","120","","","75","85","","k","2","85","training","adjacent","FE","6","5","R.jpg","M.jpg","0","0","1","",""
"","feedback","","html-keyboard-response","548","588058","0.0-1.0-771.0-0.0","0","0","42762","","null","","","null","85","","","","","","","","","","","","","","","",""
"","ITI","","html-keyboard-response","549","589064","0.0-1.0-774.0","0","0","42762","","null","","","null","85","","","","","","","","","","","","","","","NaN",""
"","S1","","html-keyboard-response","550","589322","0.0-1.0-776.0","0","0","42762","","null","","","null","86","","","","","","","","","","","","","","","",""
"","ISI","","html-keyboard-response","551","590331","0.0-1.0-777.0","0","0","42762","","null","","","null","86","NaN","","","","","","","","","","","","","","",""
"","S2","","html-keyboard-response","552","590585","0.0-1.0-778.0","0","0","42762","","null","","","null","86","","NaN","","","","","","","","","","","","","",""
"","response","","html-keyboard-response","553","590592","0.0-1.0-779.0-0.0","0","0","42762","","4","","","75","86","","","2","86","training","adjacent","BC","2","3","L.jpg","Q.jpg","0","1","0","",""
"","feedback","","html-keyboard-response","554","591600","0.0-1.0-780.0-0.0","0","0","42762","","null","","","null","86","","","","","","","","","","","","","","","",""
"","time_out","","html-keyboard-response","555","593606","0.0-1.0-782.0-0.0","0","0","42762","","null","","","null","86","","","","","","","","","","","","","","","",""
"","ITI","","html-keyboard-response","556","594614","0.0-1.0-783.0","0","0","42762","","null","","","null","86","","","","","","","","","","","","","","","NaN",""
"","S1","","html-keyboard-response","557","594872","0.0-1.0-785.0","0","0","42762","","null","","","null","87","","","","","","","","","","","","","","","",""
"","ISI","","html-keyboard-response","558","595877","0.0-1.0-786.0","0","0","42762","","null","","","null","87","NaN","","","","","","","","","","","","","","",""
"","S2","","html-keyboard-response","559","596133","0.0-1.0-787.0","0","0","42762","","null","","","null","87","","NaN","","","","","","","","","","","","","",""
"","response","","html-keyboard-response","560","596294","0.0-1.0-788.0-0.0","0","0","42762","","159","","","75","87","","","2","87","training","adjacent","CD","3","4","Q.jpg","O.jpg","0","1","0","",""
"","feedback","","html-keyboard-response","561","597305","0.0-1.0-789.0-0.0","0","0","42762","","null","","","null","87","","","","","","","","","","","","","","","",""
"","time_out","","html-keyboard-response","562","599313","0.0-1.0-791.0-0.0","0","0","42762","","null","","","null","87","","","","","","","","","","","","","","","",""
"","ITI","","html-keyboard-response","563","600315","0.0-1.0-792.0","0","0","42762","","null","","","null","87","","","","","","","","","","","","","","","NaN",""
"","S1","","html-keyboard-response","564","600573","0.0-1.0-794.0","0","0","42762","","null","","","null","88","","","","","","","","","","","","","","","",""
"","ISI","","html-keyboard-response","565","601578","0.0-1.0-795.0","0","0","42762","","null","","","null","88","NaN","","","","","","","","","","","","","","",""
"","S2","","html-keyboard-response","566","601839","0.0-1.0-796.0","0","0","42762","","null","","","null","88","","NaN","","","","","","","","","","","","","",""
"","response","","html-keyboard-response","567","601965","0.0-1.0-797.0-0.0","0","0","42762","","124","","","68","88","","","2","88","training","adjacent","AB","1","2","N.jpg","L.jpg","1","1","1","",""
"","feedback","","html-keyboard-response","568","602974","0.0-1.0-798.0-0.0","0","0","42762","","null","","","null","88","","","","","","","","","","","","","","","",""
"","ITI","","html-keyboard-response","569","603984","0.0-1.0-801.0","0","0","42762","","null","","","null","88","","","","","","","","","","","","","","","NaN",""
"","S1","","html-keyboard-response","570","604246","0.0-1.0-803.0","0","0","42762","","null","","","null","89","","","","","","","","","","","","","","","",""
"","ISI","","html-keyboard-response","571","605258","0.0-1.0-804.0","0","0","42762","","null","","","null","89","NaN","","","","","","","","","","","","","","",""
"","S2","","html-keyboard-response","572","605515","0.0-1.0-805.0","0","0","42762","","null","","","null","89","","NaN","","","","","","","","","","","","","",""
"","response","","html-keyboard-response","573","605657","0.0-1.0-806.0-0.0","0","0","42762","","140","","","68","89","","","2","89","training","adjacent","BA","2","1","L.jpg","N.jpg","1","0","0","",""
"","feedback","","html-keyboard-response","574","606666","0.0-1.0-807.0-0.0","0","0","42762","","null","","","null","89","","","","","","","","","","","","","","","",""
"","time_out","","html-keyboard-response","575","608676","0.0-1.0-809.0-0.0","0","0","42762","","null","","","null","89","","","","","","","","","","","","","","","",""
"","ITI","","html-keyboard-response","576","609679","0.0-1.0-810.0","0","0","42762","","null","","","null","89","","","","","","","","","","","","","","","NaN",""
"","S1","","html-keyboard-response","577","609934","0.0-1.0-812.0","0","0","42762","","null","","","null","90","","","","","","","","","","","","","","","",""
"","ISI","","html-keyboard-response","578","610953","0.0-1.0-813.0","0","0","42762","","null","","","null","90","NaN","","","","","","","","","","","","","","",""
"","S2","","html-keyboard-response","579","611183","0.0-1.0-814.0","0","0","42762","","227","","","68","90","","d","2","90","training","adjacent","DC","4","3","O.jpg","Q.jpg","1","0","0","",""
"","feedback","","html-keyboard-response","580","612188","0.0-1.0-816.0-0.0","0","0","42762","","null","","","null","90","","","","","","","","","","","","","","","",""
"","time_out","","html-keyboard-response","581","614196","0.0-1.0-818.0-0.0","0","0","42762","","null","","","null","90","","","","","","","","","","","","","","","",""
