"success","ttype","start_time","trial_type","trial_index","time_elapsed","internal_node_id","warning","missed_checkup","PID","view_history","rt","responses","repeat_instructions","key_press","index","keypress_isi","keypress_S2","block","trial_num","phase","group_type","pair_type","S1_stim","S2_stim","S1_img","S2_img","S1_chosen","S1_higher","accuracy","keypress_iti","total_bonus_tally"
"true","full_screen","d04132023hr1517","fullscreen","0","8716","0.0-0.0","0","0","92944","","","","","","","","","","","","","","","","","","","","","",""
"","instructions","","instructions","1","397397","0.0-1.0-0.0-0.0","0","0","92944","[{""page_index"":0,""viewing_time"":5159},{""page_index"":1,""viewing_time"":372516},{""page_index"":2,""viewing_time"":9817},{""page_index"":3,""viewing_time"":1183}]","388677","","","","","","","","","","","","","","","","","","","",""
"","comprehension_check","","survey-multi-choice","2","422361","0.0-1.0-0.0-1.0","0","0","92944","","24957","{""Q0"":""True"",""Q1"":""D"",""Q2"":""Once the second image appears and while the screen 'MAKE A CHOICE' is shown"",""Q3"":""Green mark"",""Q4"":""either D or K""}","0","","","","","","","","","","","","","","","","","",""
"","start_exp","","html-keyboard-response","3","424898","0.0-1.0-1.0","0","0","92944","","2533","","","32","","","","","","","","","","","","","","","","",""
"","S1","","html-keyboard-response","4","425162","0.0-1.0-2.0","0","0","92944","","null","","","null","0","","","","","","","","","","","","","","","",""
"","ISI","","html-keyboard-response","5","426169","0.0-1.0-3.0","0","0","92944","","null","","","null","0","NaN","","","","","","","","","","","","","","",""
"","S2","","html-keyboard-response","6","426432","0.0-1.0-4.0","0","0","92944","","null","","","null","0","","NaN","","","","","","","","","","","","","",""
"","response","","html-keyboard-response","7","428195","0.0-1.0-5.0-0.0","0","0","92944","","null","","","null","0","","","1","0","training","adjacent","DE","4","5","L.jpg","N.jpg","NaN","1","0","",""
"","too_slow_prompt","","html-keyboard-response","8","429211","0.0-1.0-7.0-0.0","1","0","92944","","null","","","null","","","","","","","","","","","","","","","","",""
"","time_out","","html-keyboard-response","9","431228","0.0-1.0-8.0-0.0","0","0","92944","","null","","","null","0","","","","","","","","","","","","","","","",""
"","ITI","","html-keyboard-response","10","432241","0.0-1.0-9.0","0","0","92944","","null","","","null","0","","","","","","","","","","","","","","","NaN",""
"","S1","","html-keyboard-response","11","432507","0.0-1.0-11.0","0","0","92944","","null","","","null","1","","","","","","","","","","","","","","","",""
"","ISI","","html-keyboard-response","12","433523","0.0-1.0-12.0","0","0","92944","","null","","","null","1","NaN","","","","","","","","","","","","","","",""
"","S2","","html-keyboard-response","13","433786","0.0-1.0-13.0","0","0","92944","","null","","","null","1","","NaN","","","","","","","","","","","","","",""
"","response","","html-keyboard-response","14","434108","0.0-1.0-14.0-0.0","0","0","92944","","317","","","68","1","","","1","1","training","adjacent","AB","1","2","P.jpg","Q.jpg","1","1","1","",""
"","feedback","","html-keyboard-response","15","435120","0.0-1.0-15.0-0.0","0","0","92944","","null","","","null","1","","","","","","","","","","","","","","","",""
"","ITI","","html-keyboard-response","16","436129","0.0-1.0-18.0","0","0","92944","","null","","","null","1","","","","","","","","","","","","","","","NaN",""
"","S1","","html-keyboard-response","17","436396","0.0-1.0-20.0","0","0","92944","","null","","","null","2","","","","","","","","","","","","","","","",""
"","ISI","","html-keyboard-response","18","437410","0.0-1.0-21.0","0","0","92944","","null","","","null","2","NaN","","","","","","","","","","","","","","",""
"","S2","","html-keyboard-response","19","437673","0.0-1.0-22.0","0","0","92944","","null","","","null","2","","NaN","","","","","","","","","","","","","",""
"","response","","html-keyboard-response","20","438000","0.0-1.0-23.0-0.0","0","0","92944","","322","","","68","2","","","1","2","training","adjacent","FG","6","7","M.jpg","O.jpg","1","1","1","",""
"","feedback","","html-keyboard-response","21","439007","0.0-1.0-24.0-0.0","0","0","92944","","null","","","null","2","","","","","","","","","","","","","","","",""
"","ITI","","html-keyboard-response","22","440018","0.0-1.0-27.0","0","0","92944","","null","","","null","2","","","","","","","","","","","","","","","NaN",""
"","S1","","html-keyboard-response","23","440282","0.0-1.0-29.0","0","0","92944","","null","","","null","3","","","","","","","","","","","","","","","",""
"","ISI","","html-keyboard-response","24","441290","0.0-1.0-30.0","0","0","92944","","null","","","null","3","NaN","","","","","","","","","","","","","","",""
"","S2","","html-keyboard-response","25","441555","0.0-1.0-31.0","0","0","92944","","null","","","null","3","","NaN","","","","","","","","","","","","","",""
"","response","","html-keyboard-response","26","441626","0.0-1.0-32.0-0.0","0","0","92944","","66","","","68","3","","","1","3","training","adjacent","CB","3","2","R.jpg","Q.jpg","1","0","0","",""
"","feedback","","html-keyboard-response","27","442634","0.0-1.0-33.0-0.0","0","0","92944","","null","","","null","3","","","","","","","","","","","","","","","",""
"","time_out","","html-keyboard-response","28","444642","0.0-1.0-35.0-0.0","0","0","92944","","null","","","null","3","","","","","","","","","","","","","","","",""
"","ITI","","html-keyboard-response","29","445658","0.0-1.0-36.0","0","0","92944","","null","","","null","3","","","","","","","","","","","","","","","NaN",""
"","S1","","html-keyboard-response","30","445923","0.0-1.0-38.0","0","0","92944","","null","","","null","4","","","","","","","","","","","","","","","",""
"","ISI","","html-keyboard-response","31","446939","0.0-1.0-39.0","0","0","92944","","null","","","null","4","NaN","","","","","","","","","","","","","","",""
"","S2","","html-keyboard-response","32","447203","0.0-1.0-40.0","0","0","92944","","null","","","null","4","","NaN","","","","","","","","","","","","","",""
"","response","","html-keyboard-response","33","447326","0.0-1.0-41.0-0.0","0","0","92944","","118","","","75","4","","","1","4","training","adjacent","GF","7","6","O.jpg","M.jpg","0","0","1","",""
"","feedback","","html-keyboard-response","34","448339","0.0-1.0-42.0-0.0","0","0","92944","","null","","","null","4","","","","","","","","","","","","","","","",""
"","ITI","","html-keyboard-response","35","449356","0.0-1.0-45.0","0","0","92944","","null","","","null","4","","","","","","","","","","","","","","","NaN",""
"","S1","","html-keyboard-response","36","449618","0.0-1.0-47.0","0","0","92944","","null","","","null","5","","","","","","","","","","","","","","","",""
"","ISI","","html-keyboard-response","37","450623","0.0-1.0-48.0","0","0","92944","","null","","","null","5","NaN","","","","","","","","","","","","","","",""
"","S2","","html-keyboard-response","38","450881","0.0-1.0-49.0","0","0","92944","","null","","","null","5","","NaN","","","","","","","","","","","","","",""
"","response","","html-keyboard-response","39","451178","0.0-1.0-50.0-0.0","0","0","92944","","293","","","68","5","","","1","5","training","adjacent","FE","6","5","M.jpg","N.jpg","1","0","0","",""
"","feedback","","html-keyboard-response","40","452194","0.0-1.0-51.0-0.0","0","0","92944","","null","","","null","5","","","","","","","","","","","","","","","",""
"","time_out","","html-keyboard-response","41","454204","0.0-1.0-53.0-0.0","0","0","92944","","null","","","null","5","","","","","","","","","","","","","","","",""
"","ITI","","html-keyboard-response","42","455216","0.0-1.0-54.0","0","0","92944","","null","","","null","5","","","","","","","","","","","","","","","NaN",""
"","S1","","html-keyboard-response","43","455475","0.0-1.0-56.0","0","0","92944","","null","","","null","6","","","","","","","","","","","","","","","",""
"","ISI","","html-keyboard-response","44","456491","0.0-1.0-57.0","0","0","92944","","null","","","null","6","NaN","","","","","","","","","","","","","","",""
"","S2","","html-keyboard-response","45","456757","0.0-1.0-58.0","0","0","92944","","null","","","null","6","","NaN","","","","","","","","","","","","","",""
"","response","","html-keyboard-response","46","456905","0.0-1.0-59.0-0.0","0","0","92944","","143","","","75","6","","","1","6","training","adjacent","GF","7","6","O.jpg","M.jpg","0","0","1","",""
"","feedback","","html-keyboard-response","47","457915","0.0-1.0-60.0-0.0","0","0","92944","","null","","","null","6","","","","","","","","","","","","","","","",""
"","ITI","","html-keyboard-response","48","458927","0.0-1.0-63.0","0","0","92944","","null","","","null","6","","","","","","","","","","","","","","","NaN",""
"","S1","","html-keyboard-response","49","459184","0.0-1.0-65.0","0","0","92944","","null","","","null","7","","","","","","","","","","","","","","","",""
"","ISI","","html-keyboard-response","50","460194","0.0-1.0-66.0","0","0","92944","","null","","","null","7","NaN","","","","","","","","","","","","","","",""
"","S2","","html-keyboard-response","51","460457","0.0-1.0-67.0","0","0","92944","","null","","","null","7","","NaN","","","","","","","","","","","","","",""
"","response","","html-keyboard-response","52","460563","0.0-1.0-68.0-0.0","0","0","92944","","101","","","75","7","","","1","7","training","adjacent","FG","6","7","M.jpg","O.jpg","0","1","0","",""
"","feedback","","html-keyboard-response","53","461578","0.0-1.0-69.0-0.0","0","0","92944","","null","","","null","7","","","","","","","","","","","","","","","",""
"","time_out","","html-keyboard-response","54","463587","0.0-1.0-71.0-0.0","0","0","92944","","null","","","null","7","","","","","","","","","","","","","","","",""
"","ITI","","html-keyboard-response","55","464604","0.0-1.0-72.0","0","0","92944","","null","","","null","7","","","","","","","","","","","","","","","NaN",""
"","S1","","html-keyboard-response","56","464863","0.0-1.0-74.0","0","0","92944","","null","","","null","8","","","","","","","","","","","","","","","",""
"","ISI","","html-keyboard-response","57","465874","0.0-1.0-75.0","0","0","92944","","null","","","null","8","NaN","","","","","","","","","","","","","","",""
"","S2","","html-keyboard-response","58","466139","0.0-1.0-76.0","0","0","92944","","null","","","null","8","","NaN","","","","","","","","","","","","","",""
"","response","","html-keyboard-response","59","466165","0.0-1.0-77.0-0.0","0","0","92944","","22","","","68","8","","","1","8","training","adjacent","DC","4","3","L.jpg","R.jpg","1","0","0","",""
"","feedback","","html-keyboard-response","60","467178","0.0-1.0-78.0-0.0","0","0","92944","","null","","","null","8","","","","","","","","","","","","","","","",""
"","time_out","","html-keyboard-response","61","469185","0.0-1.0-80.0-0.0","0","0","92944","","null","","","null","8","","","","","","","","","","","","","","","",""
"","ITI","","html-keyboard-response","62","470194","0.0-1.0-81.0","0","0","92944","","null","","","null","8","","","","","","","","","","","","","","","NaN",""
"","S1","","html-keyboard-response","63","470457","0.0-1.0-83.0","0","0","92944","","null","","","null","9","","","","","","","","","","","","","","","",""
"","ISI","","html-keyboard-response","64","471465","0.0-1.0-84.0","0","0","92944","","null","","","null","9","NaN","","","","","","","","","","","","","","",""
"","S2","","html-keyboard-response","65","471730","0.0-1.0-85.0","0","0","92944","","null","","","null","9","","NaN","","","","","","","","","","","","","",""
"","response","","html-keyboard-response","66","472817","0.0-1.0-86.0-0.0","0","0","92944","","1082","","","68","9","","","1","9","training","adjacent","ED","5","4","N.jpg","L.jpg","1","0","0","",""
"","feedback","","html-keyboard-response","67","473825","0.0-1.0-87.0-0.0","0","0","92944","","null","","","null","9","","","","","","","","","","","","","","","",""
"","time_out","","html-keyboard-response","68","475833","0.0-1.0-89.0-0.0","0","0","92944","","null","","","null","9","","","","","","","","","","","","","","","",""
"","ITI","","html-keyboard-response","69","476844","0.0-1.0-90.0","0","0","92944","","null","","","null","9","","","","","","","","","","","","","","","NaN",""
"","S1","","html-keyboard-response","70","477108","0.0-1.0-92.0","0","0","92944","","null","","","null","10","","","","","","","","","","","","","","","",""
"","ISI","","html-keyboard-response","71","478122","0.0-1.0-93.0","0","0","92944","","null","","","null","10","NaN","","","","","","","","","","","","","","",""
"","S2","","html-keyboard-response","72","478387","0.0-1.0-94.0","0","0","92944","","null","","","null","10","","NaN","","","","","","","","","","","","","",""
"","response","","html-keyboard-response","73","478591","0.0-1.0-95.0-0.0","0","0","92944","","201","","","75","10","","","1","10","training","adjacent","EF","5","6","N.jpg","M.jpg","0","1","0","",""
"","feedback","","html-keyboard-response","74","479603","0.0-1.0-96.0-0.0","0","0","92944","","null","","","null","10","","","","","","","","","","","","","","","",""
"","time_out","","html-keyboard-response","75","481616","0.0-1.0-98.0-0.0","0","0","92944","","null","","","null","10","","","","","","","","","","","","","","","",""
"","ITI","","html-keyboard-response","76","482627","0.0-1.0-99.0","0","0","92944","","null","","","null","10","","","","","","","","","","","","","","","NaN",""
"","S1","","html-keyboard-response","77","482889","0.0-1.0-101.0","0","0","92944","","null","","","null","11","","","","","","","","","","","","","","","",""
"","ISI","","html-keyboard-response","78","483898","0.0-1.0-102.0","0","0","92944","","null","","","null","11","NaN","","","","","","","","","","","","","","",""
"","S2","","html-keyboard-response","79","484161","0.0-1.0-103.0","0","0","92944","","null","","","null","11","","NaN","","","","","","","","","","","","","",""
"","response","","html-keyboard-response","80","484768","0.0-1.0-104.0-0.0","0","0","92944","","603","","","68","11","","","1","11","training","adjacent","AB","1","2","P.jpg","Q.jpg","1","1","1","",""
"","feedback","","html-keyboard-response","81","485780","0.0-1.0-105.0-0.0","0","0","92944","","null","","","null","11","","","","","","","","","","","","","","","",""
"","ITI","","html-keyboard-response","82","486795","0.0-1.0-108.0","0","0","92944","","null","","","null","11","","","","","","","","","","","","","","","NaN",""
"","S1","","html-keyboard-response","83","487056","0.0-1.0-110.0","0","0","92944","","null","","","null","12","","","","","","","","","","","","","","","",""
"","ISI","","html-keyboard-response","84","488064","0.0-1.0-111.0","0","0","92944","","null","","","null","12","NaN","","","","","","","","","","","","","","",""
"","S2","","html-keyboard-response","85","488329","0.0-1.0-112.0","0","0","92944","","null","","","null","12","","NaN","","","","","","","","","","","","","",""
"","response","","html-keyboard-response","86","488963","0.0-1.0-113.0-0.0","0","0","92944","","630","","","68","12","","","1","12","training","adjacent","CB","3","2","R.jpg","Q.jpg","1","0","0","",""
"","feedback","","html-keyboard-response","87","489977","0.0-1.0-114.0-0.0","0","0","92944","","null","","","null","12","","","","","","","","","","","","","","","",""
"","time_out","","html-keyboard-response","88","491985","0.0-1.0-116.0-0.0","0","0","92944","","null","","","null","12","","","","","","","","","","","","","","","",""
"","ITI","","html-keyboard-response","89","492994","0.0-1.0-117.0","0","0","92944","","null","","","null","12","","","","","","","","","","","","","","","NaN",""
"","S1","","html-keyboard-response","90","493259","0.0-1.0-119.0","0","0","92944","","null","","","null","13","","","","","","","","","","","","","","","",""
"","ISI","","html-keyboard-response","91","494274","0.0-1.0-120.0","0","0","92944","","null","","","null","13","NaN","","","","","","","","","","","","","","",""
"","S2","","html-keyboard-response","92","494539","0.0-1.0-121.0","0","0","92944","","null","","","null","13","","NaN","","","","","","","","","","","","","",""
"","response","","html-keyboard-response","93","495195","0.0-1.0-122.0-0.0","0","0","92944","","652","","","68","13","","","1","13","training","adjacent","DC","4","3","L.jpg","R.jpg","1","0","0","",""
"","feedback","","html-keyboard-response","94","496209","0.0-1.0-123.0-0.0","0","0","92944","","null","","","null","13","","","","","","","","","","","","","","","",""
"","time_out","","html-keyboard-response","95","498219","0.0-1.0-125.0-0.0","0","0","92944","","null","","","null","13","","","","","","","","","","","","","","","",""
"","ITI","","html-keyboard-response","96","499235","0.0-1.0-126.0","0","0","92944","","null","","","null","13","","","","","","","","","","","","","","","NaN",""
"","S1","","html-keyboard-response","97","499497","0.0-1.0-128.0","0","0","92944","","null","","","null","14","","","","","","","","","","","","","","","",""
"","ISI","","html-keyboard-response","98","500508","0.0-1.0-129.0","0","0","92944","","null","","","null","14","NaN","","","","","","","","","","","","","","",""
"","S2","","html-keyboard-response","99","500764","0.0-1.0-130.0","0","0","92944","","252","","","75","14","","k","1","14","training","adjacent","BA","2","1","Q.jpg","P.jpg","0","0","1","",""
"","feedback","","html-keyboard-response","100","501776","0.0-1.0-132.0-0.0","0","0","92944","","null","","","null","14","","","","","","","","","","","","","","","",""
"","ITI","","html-keyboard-response","101","502784","0.0-1.0-135.0","0","0","92944","","null","","","null","14","","","","","","","","","","","","","","","NaN",""
"","S1","","html-keyboard-response","102","503047","0.0-1.0-137.0","0","0","92944","","null","","","null","15","","","","","","","","","","","","","","","",""
"","ISI","","html-keyboard-response","103","504060","0.0-1.0-138.0","0","0","92944","","null","","","null","15","NaN","","","","","","","","","","","","","","",""
"","S2","","html-keyboard-response","104","504324","0.0-1.0-139.0","0","0","92944","","null","","","null","15","","NaN","","","","","","","","","","","","","",""
"","response","","html-keyboard-response","105","504447","0.0-1.0-140.0-0.0","0","0","92944","","118","","","75","15","","","1","15","training","adjacent","DE","4","5","L.jpg","N.jpg","0","1","0","",""
"","feedback","","html-keyboard-response","106","505458","0.0-1.0-141.0-0.0","0","0","92944","","null","","","null","15","","","","","","","","","","","","","","","",""
"","time_out","","html-keyboard-response","107","507475","0.0-1.0-143.0-0.0","0","0","92944","","null","","","null","15","","","","","","","","","","","","","","","",""
"","ITI","","html-keyboard-response","108","508490","0.0-1.0-144.0","0","0","92944","","null","","","null","15","","","","","","","","","","","","","","","NaN",""
"","S1","","html-keyboard-response","109","508756","0.0-1.0-146.0","0","0","92944","","null","","","null","16","","","","","","","","","","","","","","","",""
"","ISI","","html-keyboard-response","110","509770","0.0-1.0-147.0","0","0","92944","","null","","","null","16","NaN","","","","","","","","","","","","","","",""
"","S2","","html-keyboard-response","111","510032","0.0-1.0-148.0","0","0","92944","","null","","","null","16","","NaN","","","","","","","","","","","","","",""
"","response","","html-keyboard-response","112","510181","0.0-1.0-149.0-0.0","0","0","92944","","145","","","75","16","","","1","16","training","adjacent","EF","5","6","N.jpg","M.jpg","0","1","0","",""
"","feedback","","html-keyboard-response","113","511193","0.0-1.0-150.0-0.0","0","0","92944","","null","","","null","16","","","","","","","","","","","","","","","",""
"","time_out","","html-keyboard-response","114","513202","0.0-1.0-152.0-0.0","0","0","92944","","null","","","null","16","","","","","","","","","","","","","","","",""
"","ITI","","html-keyboard-response","115","514210","0.0-1.0-153.0","0","0","92944","","null","","","null","16","","","","","","","","","","","","","","","NaN",""
"","S1","","html-keyboard-response","116","514475","0.0-1.0-155.0","0","0","92944","","null","","","null","17","","","","","","","","","","","","","","","",""
"","ISI","","html-keyboard-response","117","515491","0.0-1.0-156.0","0","0","92944","","null","","","null","17","NaN","","","","","","","","","","","","","","",""
"","S2","","html-keyboard-response","118","515755","0.0-1.0-157.0","0","0","92944","","null","","","null","17","","NaN","","","","","","","","","","","","","",""
"","response","","html-keyboard-response","119","516199","0.0-1.0-158.0-0.0","0","0","92944","","439","","","75","17","","","1","17","training","adjacent","EF","5","6","N.jpg","M.jpg","0","1","0","",""
"","feedback","","html-keyboard-response","120","517210","0.0-1.0-159.0-0.0","0","0","92944","","null","","","null","17","","","","","","","","","","","","","","","",""
"","time_out","","html-keyboard-response","121","519225","0.0-1.0-161.0-0.0","0","0","92944","","null","","","null","17","","","","","","","","","","","","","","","",""
"","ITI","","html-keyboard-response","122","520234","0.0-1.0-162.0","0","0","92944","","null","","","null","17","","","","","","","","","","","","","","","NaN",""
"","S1","","html-keyboard-response","123","520499","0.0-1.0-164.0","0","0","92944","","null","","","null","18","","","","","","","","","","","","","","","",""
"","ISI","","html-keyboard-response","124","521514","0.0-1.0-165.0","0","0","92944","","null","","","null","18","NaN","","","","","","","","","","","","","","",""
"","S2","","html-keyboard-response","125","521776","0.0-1.0-166.0","0","0","92944","","null","","","null","18","","NaN","","","","","","","","","","","","","",""
"","response","","html-keyboard-response","126","521894","0.0-1.0-167.0-0.0","0","0","92944","","113","","","75","18","","","1","18","training","adjacent","ED","5","4","N.jpg","L.jpg","0","0","1","",""
"","feedback","","html-keyboard-response","127","522908","0.0-1.0-168.0-0.0","0","0","92944","","null","","","null","18","","","","","","","","","","","","","","","",""
"","ITI","","html-keyboard-response","128","523923","0.0-1.0-171.0","0","0","92944","","null","","","null","18","","","","","","","","","","","","","","","NaN",""
"","S1","","html-keyboard-response","129","524186","0.0-1.0-173.0","0","0","92944","","null","","","null","19","","","","","","","","","","","","","","","",""
"","ISI","","html-keyboard-response","130","525195","0.0-1.0-174.0","0","0","92944","","null","","","null","19","NaN","","","","","","","","","","","","","","",""
"","S2","","html-keyboard-response","131","525458","0.0-1.0-175.0","0","0","92944","","null","","","null","19","","NaN","","","","","","","","","","","","","",""
"","response","","html-keyboard-response","132","525970","0.0-1.0-176.0-0.0","0","0","92944","","509","","","68","19","","","1","19","training","adjacent","DC","4","3","L.jpg","R.jpg","1","0","0","",""
"","feedback","","html-keyboard-response","133","526987","0.0-1.0-177.0-0.0","0","0","92944","","null","","","null","19","","","","","","","","","","","","","","","",""
"","time_out","","html-keyboard-response","134","529003","0.0-1.0-179.0-0.0","0","0","92944","","null","","","null","19","","","","","","","","","","","","","","","",""
"","ITI","","html-keyboard-response","135","530018","0.0-1.0-180.0","0","0","92944","","null","","","null","19","","","","","","","","","","","","","","","NaN",""
"","S1","","html-keyboard-response","136","530282","0.0-1.0-182.0","0","0","92944","","null","","","null","20","","","","","","","","","","","","","","","",""
"","ISI","","html-keyboard-response","137","531289","0.0-1.0-183.0","0","0","92944","","null","","","null","20","NaN","","","","","","","","","","","","","","",""
"","S2","","html-keyboard-response","138","531554","0.0-1.0-184.0","0","0","92944","","null","","","null","20","","NaN","","","","","","","","","","","","","",""
"","response","","html-keyboard-response","139","532055","0.0-1.0-185.0-0.0","0","0","92944","","496","","","68","20","","","1","20","training","adjacent","DE","4","5","L.jpg","N.jpg","1","1","1","",""
"","feedback","","html-keyboard-response","140","533064","0.0-1.0-186.0-0.0","0","0","92944","","null","","","null","20","","","","","","","","","","","","","","","",""
"","ITI","","html-keyboard-response","141","534074","0.0-1.0-189.0","0","0","92944","","null","","","null","20","","","","","","","","","","","","","","","NaN",""
"","S1","","html-keyboard-response","142","534339","0.0-1.0-191.0","0","0","92944","","null","","","null","21","","","","","","","","","","","","","","","",""
"","ISI","","html-keyboard-response","143","535353","0.0-1.0-192.0","0","0","92944","","null","","","null","21","NaN","","","","","","","","","","","","","","",""
"","S2","","html-keyboard-response","144","535616","0.0-1.0-193.0","0","0","92944","","null","","","null","21","","NaN","","","","","","","","","","","","","",""
"","response","","html-keyboard-response","145","536082","0.0-1.0-194.0-0.0","0","0","92944","","461","","","75","21","","","1","21","training","adjacent","EF","5","6","N.jpg","M.jpg","0","1","0","",""
"","feedback","","html-keyboard-response","146","537087","0.0-1.0-195.0-0.0","0","0","92944","","null","","","null","21","","","","","","","","","","","","","","","",""
"","time_out","","html-keyboard-response","147","539097","0.0-1.0-197.0-0.0","0","0","92944","","null","","","null","21","","","","","","","","","","","","","","","",""
"","ITI","","html-keyboard-response","148","540107","0.0-1.0-198.0","0","0","92944","","null","","","null","21","","","","","","","","","","","","","","","NaN",""
"","S1","","html-keyboard-response","149","540366","0.0-1.0-200.0","0","0","92944","","null","","","null","22","","","","","","","","","","","","","","","",""
"","ISI","","html-keyboard-response","150","541379","0.0-1.0-201.0","0","0","92944","","null","","","null","22","NaN","","","","","","","","","","","","","","",""
"","S2","","html-keyboard-response","151","541644","0.0-1.0-202.0","0","0","92944","","null","","","null","22","","NaN","","","","","","","","","","","","","",""
"","response","","html-keyboard-response","152","542186","0.0-1.0-203.0-0.0","0","0","92944","","538","","","68","22","","","1","22","training","adjacent","CB","3","2","R.jpg","Q.jpg","1","0","0","",""
"","feedback","","html-keyboard-response","153","543204","0.0-1.0-204.0-0.0","0","0","92944","","null","","","null","22","","","","","","","","","","","","","","","",""
"","time_out","","html-keyboard-response","154","545216","0.0-1.0-206.0-0.0","0","0","92944","","null","","","null","22","","","","","","","","","","","","","","","",""
"","ITI","","html-keyboard-response","155","546227","0.0-1.0-207.0","0","0","92944","","null","","","null","22","","","","","","","","","","","","","","","NaN",""
"","S1","","html-keyboard-response","156","546490","0.0-1.0-209.0","0","0","92944","","null","","","null","23","","","","","","","","","","","","","","","",""
"","ISI","","html-keyboard-response","157","547495","0.0-1.0-210.0","0","0","92944","","null","","","null","23","NaN","","","","","","","","","","","","","","",""
"","S2","","html-keyboard-response","158","547756","0.0-1.0-211.0","0","0","92944","","null","","","null","23","","NaN","","","","","","","","","","","","","",""
"","response","","html-keyboard-response","159","548146","0.0-1.0-212.0-0.0","0","0","92944","","385","","","75","23","","","1","23","training","adjacent","ED","5","4","N.jpg","L.jpg","0","0","1","",""
"","feedback","","html-keyboard-response","160","549163","0.0-1.0-213.0-0.0","0","0","92944","","null","","","null","23","","","","","","","","","","","","","","","",""
"","ITI","","html-keyboard-response","161","550176","0.0-1.0-216.0","0","0","92944","","null","","","null","23","","","","","","","","","","","","","","","NaN",""
"","S1","","html-keyboard-response","162","550442","0.0-1.0-218.0","0","0","92944","","null","","","null","24","","","","","","","","","","","","","","","",""
"","ISI","","html-keyboard-response","163","551450","0.0-1.0-219.0","0","0","92944","","null","","","null","24","NaN","","","","","","","","","","","","","","",""
"","S2","","html-keyboard-response","164","551714","0.0-1.0-220.0","0","0","92944","","null","","","null","24","","NaN","","","","","","","","","","","","","",""
"","response","","html-keyboard-response","165","552518","0.0-1.0-221.0-0.0","0","0","92944","","799","","","68","24","","","1","24","training","adjacent","FE","6","5","M.jpg","N.jpg","1","0","0","",""
"","feedback","","html-keyboard-response","166","553529","0.0-1.0-222.0-0.0","0","0","92944","","null","","","null","24","","","","","","","","","","","","","","","",""
"","time_out","","html-keyboard-response","167","555536","0.0-1.0-224.0-0.0","0","0","92944","","null","","","null","24","","","","","","","","","","","","","","","",""
"","ITI","","html-keyboard-response","168","556548","0.0-1.0-225.0","0","0","92944","","null","","","null","24","","","","","","","","","","","","","","","NaN",""
"","S1","","html-keyboard-response","169","556810","0.0-1.0-227.0","0","0","92944","","null","","","null","25","","","","","","","","","","","","","","","",""
"","ISI","","html-keyboard-response","170","557818","0.0-1.0-228.0","0","0","92944","","null","","","null","25","NaN","","","","","","","","","","","","","","",""
"","S2","","html-keyboard-response","171","558079","0.0-1.0-229.0","0","0","92944","","null","","","null","25","","NaN","","","","","","","","","","","","","",""
"","response","","html-keyboard-response","172","558579","0.0-1.0-230.0-0.0","0","0","92944","","496","","","75","25","","","1","25","training","adjacent","BC","2","3","Q.jpg","R.jpg","0","1","0","",""
"","feedback","","html-keyboard-response","173","559591","0.0-1.0-231.0-0.0","0","0","92944","","null","","","null","25","","","","","","","","","","","","","","","",""
"","time_out","","html-keyboard-response","174","561595","0.0-1.0-233.0-0.0","0","0","92944","","null","","","null","25","","","","","","","","","","","","","","","",""
"","ITI","","html-keyboard-response","175","562609","0.0-1.0-234.0","0","0","92944","","null","","","null","25","","","","","","","","","","","","","","","NaN",""
"","S1","","html-keyboard-response","176","562875","0.0-1.0-236.0","0","0","92944","","null","","","null","26","","","","","","","","","","","","","","","",""
"","ISI","","html-keyboard-response","177","563891","0.0-1.0-237.0","0","0","92944","","null","","","null","26","NaN","","","","","","","","","","","","","","",""
"","S2","","html-keyboard-response","178","564155","0.0-1.0-238.0","0","0","92944","","null","","","null","26","","NaN","","","","","","","","","","","","","",""
"","response","","html-keyboard-response","179","564464","0.0-1.0-239.0-0.0","0","0","92944","","305","","","75","26","","","1","26","training","adjacent","GF","7","6","O.jpg","M.jpg","0","0","1","",""
"","feedback","","html-keyboard-response","180","565474","0.0-1.0-240.0-0.0","0","0","92944","","null","","","null","26","","","","","","","","","","","","","","","",""
"","ITI","","html-keyboard-response","181","566490","0.0-1.0-243.0","0","0","92944","","null","","","null","26","","","","","","","","","","","","","","","NaN",""
"","S1","","html-keyboard-response","182","566755","0.0-1.0-245.0","0","0","92944","","null","","","null","27","","","","","","","","","","","","","","","",""
"","ISI","","html-keyboard-response","183","567769","0.0-1.0-246.0","0","0","92944","","null","","","null","27","NaN","","","","","","","","","","","","","","",""
"","S2","","html-keyboard-response","184","568036","0.0-1.0-247.0","0","0","92944","","null","","","null","27","","NaN","","","","","","","","","","","","","",""
"","response","","html-keyboard-response","185","568516","0.0-1.0-248.0-0.0","0","0","92944","","476","","","75","27","","","1","27","training","adjacent","AB","1","2","P.jpg","Q.jpg","0","1","0","",""
"","feedback","","html-keyboard-response","186","569530","0.0-1.0-249.0-0.0","0","0","92944","","null","","","null","27","","","","","","","","","","","","","","","",""
"","time_out","","html-keyboard-response","187","571539","0.0-1.0-251.0-0.0","0","0","92944","","null","","","null","27","","","","","","","","","","","","","","","",""
"","ITI","","html-keyboard-response","188","572555","0.0-1.0-252.0","0","0","92944","","null","","","null","27","","","","","","","","","","","","","","","NaN",""
"","S1","","html-keyboard-response","189","572820","0.0-1.0-254.0","0","0","92944","","null","","","null","28","","","","","","","","","","","","","","","",""
"","ISI","","html-keyboard-response","190","573834","0.0-1.0-255.0","0","0","92944","","null","","","null","28","NaN","","","","","","","","","","","","","","",""
"","S2","","html-keyboard-response","191","574095","0.0-1.0-256.0","0","0","92944","","null","","","null","28","","NaN","","","","","","","","","","","","","",""
"","response","","html-keyboard-response","192","574585","0.0-1.0-257.0-0.0","0","0","92944","","485","","","68","28","","","1","28","training","adjacent","FG","6","7","M.jpg","O.jpg","1","1","1","",""
"","feedback","","html-keyboard-response","193","575592","0.0-1.0-258.0-0.0","0","0","92944","","null","","","null","28","","","","","","","","","","","","","","","",""
"","ITI","","html-keyboard-response","194","576598","0.0-1.0-261.0","0","0","92944","","null","","","null","28","","","","","","","","","","","","","","","NaN",""
"","S1","","html-keyboard-response","195","576859","0.0-1.0-263.0","0","0","92944","","null","","","null","29","","","","","","","","","","","","","","","",""
"","ISI","","html-keyboard-response","196","577872","0.0-1.0-264.0","0","0","92944","","null","","","null","29","NaN","","","","","","","","","","","","","","",""
"","S2","","html-keyboard-response","197","578138","0.0-1.0-265.0","0","0","92944","","null","","","null","29","","NaN","","","","","","","","","","","","","",""
"","response","","html-keyboard-response","198","578555","0.0-1.0-266.0-0.0","0","0","92944","","413","","","75","29","","","1","29","training","adjacent","BA","2","1","Q.jpg","P.jpg","0","0","1","",""
"","feedback","","html-keyboard-response","199","579566","0.0-1.0-267.0-0.0","0","0","92944","","null","","","null","29","","","","","","","","","","","","","","","",""
"","ITI","","html-keyboard-response","200","580578","0.0-1.0-270.0","0","0","92944","","null","","","null","29","","","","","","","","","","","","","","","NaN",""
"","S1","","html-keyboard-response","201","580841","0.0-1.0-272.0","0","0","92944","","null","","","null","30","","","","","","","","","","","","","","","",""
"","ISI","","html-keyboard-response","202","581850","0.0-1.0-273.0","0","0","92944","","null","","","null","30","NaN","","","","","","","","","","","","","","",""
"","S2","","html-keyboard-response","203","582114","0.0-1.0-274.0","0","0","92944","","null","","","null","30","","NaN","","","","","","","","","","","","","",""
"","response","","html-keyboard-response","204","582627","0.0-1.0-275.0-0.0","0","0","92944","","509","","","75","30","","","1","30","training","adjacent","FE","6","5","M.jpg","N.jpg","0","0","1","",""
"","feedback","","html-keyboard-response","205","583643","0.0-1.0-276.0-0.0","0","0","92944","","null","","","null","30","","","","","","","","","","","","","","","",""
"","ITI","","html-keyboard-response","206","584656","0.0-1.0-279.0","0","0","92944","","null","","","null","30","","","","","","","","","","","","","","","NaN",""
"","S1","","html-keyboard-response","207","584914","0.0-1.0-281.0","0","0","92944","","null","","","null","31","","","","","","","","","","","","","","","",""
"","ISI","","html-keyboard-response","208","585923","0.0-1.0-282.0","0","0","92944","","null","","","null","31","NaN","","","","","","","","","","","","","","",""
"","S2","","html-keyboard-response","209","586186","0.0-1.0-283.0","0","0","92944","","null","","","null","31","","NaN","","","","","","","","","","","","","",""
"","response","","html-keyboard-response","210","586650","0.0-1.0-284.0-0.0","0","0","92944","","459","","","75","31","","","1","31","training","adjacent","GF","7","6","O.jpg","M.jpg","0","0","1","",""
"","feedback","","html-keyboard-response","211","587667","0.0-1.0-285.0-0.0","0","0","92944","","null","","","null","31","","","","","","","","","","","","","","","",""
"","ITI","","html-keyboard-response","212","588681","0.0-1.0-288.0","0","0","92944","","null","","","null","31","","","","","","","","","","","","","","","NaN",""
"","S1","","html-keyboard-response","213","588947","0.0-1.0-290.0","0","0","92944","","null","","","null","32","","","","","","","","","","","","","","","",""
"","ISI","","html-keyboard-response","214","589962","0.0-1.0-291.0","0","0","92944","","null","","","null","32","NaN","","","","","","","","","","","","","","",""
"","S2","","html-keyboard-response","215","590225","0.0-1.0-292.0","0","0","92944","","null","","","null","32","","NaN","","","","","","","","","","","","","",""
"","response","","html-keyboard-response","216","590921","0.0-1.0-293.0-0.0","0","0","92944","","689","","","75","32","","","1","32","training","adjacent","CD","3","4","R.jpg","L.jpg","0","1","0","",""
"","feedback","","html-keyboard-response","217","591928","0.0-1.0-294.0-0.0","0","0","92944","","null","","","null","32","","","","","","","","","","","","","","","",""
"","time_out","","html-keyboard-response","218","593939","0.0-1.0-296.0-0.0","0","0","92944","","null","","","null","32","","","","","","","","","","","","","","","",""
"","ITI","","html-keyboard-response","219","594955","0.0-1.0-297.0","0","0","92944","","null","","","null","32","","","","","","","","","","","","","","","NaN",""
"","S1","","html-keyboard-response","220","595219","0.0-1.0-299.0","0","0","92944","","null","","","null","33","","","","","","","","","","","","","","","",""
"","ISI","","html-keyboard-response","221","596233","0.0-1.0-300.0","0","0","92944","","null","","","null","33","NaN","","","","","","","","","","","","","","",""
"","S2","","html-keyboard-response","222","596499","0.0-1.0-301.0","0","0","92944","","null","","","null","33","","NaN","","","","","","","","","","","","","",""
"","response","","html-keyboard-response","223","597098","0.0-1.0-302.0-0.0","0","0","92944","","594","","","68","33","","","1","33","training","adjacent","FG","6","7","M.jpg","O.jpg","1","1","1","",""
"","feedback","","html-keyboard-response","224","598114","0.0-1.0-303.0-0.0","0","0","92944","","null","","","null","33","","","","","","","","","","","","","","","",""
"","ITI","","html-keyboard-response","225","599129","0.0-1.0-306.0","0","0","92944","","null","","","null","33","","","","","","","","","","","","","","","NaN",""
"","S1","","html-keyboard-response","226","599394","0.0-1.0-308.0","0","0","92944","","null","","","null","34","","","","","","","","","","","","","","","",""
"","ISI","","html-keyboard-response","227","600404","0.0-1.0-309.0","0","0","92944","","null","","","null","34","NaN","","","","","","","","","","","","","","",""
"","S2","","html-keyboard-response","228","600665","0.0-1.0-310.0","0","0","92944","","null","","","null","34","","NaN","","","","","","","","","","","","","",""
"","response","","html-keyboard-response","229","601251","0.0-1.0-311.0-0.0","0","0","92944","","582","","","68","34","","","1","34","training","adjacent","FE","6","5","M.jpg","N.jpg","1","0","0","",""
"","feedback","","html-keyboard-response","230","602265","0.0-1.0-312.0-0.0","0","0","92944","","null","","","null","34","","","","","","","","","","","","","","","",""
"","time_out","","html-keyboard-response","231","604275","0.0-1.0-314.0-0.0","0","0","92944","","null","","","null","34","","","","","","","","","","","","","","","",""
"","ITI","","html-keyboard-response","232","605291","0.0-1.0-315.0","0","0","92944","","null","","","null","34","","","","","","","","","","","","","","","NaN",""
"","S1","","html-keyboard-response","233","605555","0.0-1.0-317.0","0","0","92944","","null","","","null","35","","","","","","","","","","","","","","","",""
"","ISI","","html-keyboard-response","234","606568","0.0-1.0-318.0","0","0","92944","","null","","","null","35","NaN","","","","","","","","","","","","","","",""
"","S2","","html-keyboard-response","235","606832","0.0-1.0-319.0","0","0","92944","","null","","","null","35","","NaN","","","","","","","","","","","","","",""
"","response","","html-keyboard-response","236","607499","0.0-1.0-320.0-0.0","0","0","92944","","662","","","75","35","","","1","35","training","adjacent","AB","1","2","P.jpg","Q.jpg","0","1","0","",""
"","feedback","","html-keyboard-response","237","608515","0.0-1.0-321.0-0.0","0","0","92944","","null","","","null","35","","","","","","","","","","","","","","","",""
"","time_out","","html-keyboard-response","238","610532","0.0-1.0-323.0-0.0","0","0","92944","","null","","","null","35","","","","","","","","","","","","","","","",""
"","ITI","","html-keyboard-response","239","611548","0.0-1.0-324.0","0","0","92944","","null","","","null","35","","","","","","","","","","","","","","","NaN",""
"","S1","","html-keyboard-response","240","611811","0.0-1.0-326.0","0","0","92944","","null","","","null","36","","","","","","","","","","","","","","","",""
"","ISI","","html-keyboard-response","241","612827","0.0-1.0-327.0","0","0","92944","","null","","","null","36","NaN","","","","","","","","","","","","","","",""
"","S2","","html-keyboard-response","242","613092","0.0-1.0-328.0","0","0","92944","","null","","","null","36","","NaN","","","","","","","","","","","","","",""
"","response","","html-keyboard-response","243","613435","0.0-1.0-329.0-0.0","0","0","92944","","339","","","75","36","","","1","36","training","adjacent","BA","2","1","Q.jpg","P.jpg","0","0","1","",""
"","feedback","","html-keyboard-response","244","614450","0.0-1.0-330.0-0.0","0","0","92944","","null","","","null","36","","","","","","","","","","","","","","","",""
"","ITI","","html-keyboard-response","245","615465","0.0-1.0-333.0","0","0","92944","","null","","","null","36","","","","","","","","","","","","","","","NaN",""
"","S1","","html-keyboard-response","246","615730","0.0-1.0-335.0","0","0","92944","","null","","","null","37","","","","","","","","","","","","","","","",""
"","ISI","","html-keyboard-response","247","616738","0.0-1.0-336.0","0","0","92944","","null","","","null","37","NaN","","","","","","","","","","","","","","",""
"","S2","","html-keyboard-response","248","617004","0.0-1.0-337.0","0","0","92944","","null","","","null","37","","NaN","","","","","","","","","","","","","",""
"","response","","html-keyboard-response","249","617748","0.0-1.0-338.0-0.0","0","0","92944","","740","","","68","37","","","1","37","training","adjacent","CD","3","4","R.jpg","L.jpg","1","1","1","",""
"","feedback","","html-keyboard-response","250","618761","0.0-1.0-339.0-0.0","0","0","92944","","null","","","null","37","","","","","","","","","","","","","","","",""
"","ITI","","html-keyboard-response","251","619768","0.0-1.0-342.0","0","0","92944","","null","","","null","37","","","","","","","","","","","","","","","NaN",""
"","S1","","html-keyboard-response","252","620036","0.0-1.0-344.0","0","0","92944","","null","","","null","38","","","","","","","","","","","","","","","",""
"","ISI","","html-keyboard-response","253","621050","0.0-1.0-345.0","0","0","92944","","null","","","null","38","NaN","","","","","","","","","","","","","","",""
"","S2","","html-keyboard-response","254","621313","0.0-1.0-346.0","0","0","92944","","null","","","null","38","","NaN","","","","","","","","","","","","","",""
"","response","","html-keyboard-response","255","621460","0.0-1.0-347.0-0.0","0","0","92944","","142","","","75","38","","","1","38","training","adjacent","ED","5","4","N.jpg","L.jpg","0","0","1","",""
"","feedback","","html-keyboard-response","256","622475","0.0-1.0-348.0-0.0","0","0","92944","","null","","","null","38","","","","","","","","","","","","","","","",""
"","ITI","","html-keyboard-response","257","623490","0.0-1.0-351.0","0","0","92944","","null","","","null","38","","","","","","","","","","","","","","","NaN",""
"","S1","","html-keyboard-response","258","623755","0.0-1.0-353.0","0","0","92944","","null","","","null","39","","","","","","","","","","","","","","","",""
"","ISI","","html-keyboard-response","259","624768","0.0-1.0-354.0","0","0","92944","","null","","","null","39","NaN","","","","","","","","","","","","","","",""
"","S2","","html-keyboard-response","260","625035","0.0-1.0-355.0","0","0","92944","","null","","","null","39","","NaN","","","","","","","","","","","","","",""
"","response","","html-keyboard-response","261","625082","0.0-1.0-356.0-0.0","0","0","92944","","43","","","75","39","","","1","39","training","adjacent","BC","2","3","Q.jpg","R.jpg","0","1","0","",""
"","feedback","","html-keyboard-response","262","626095","0.0-1.0-357.0-0.0","0","0","92944","","null","","","null","39","","","","","","","","","","","","","","","",""
"","time_out","","html-keyboard-response","263","628108","0.0-1.0-359.0-0.0","0","0","92944","","null","","","null","39","","","","","","","","","","","","","","","",""
"","ITI","","html-keyboard-response","264","629123","0.0-1.0-360.0","0","0","92944","","null","","","null","39","","","","","","","","","","","","","","","NaN",""
"","S1","","html-keyboard-response","265","629386","0.0-1.0-362.0","0","0","92944","","null","","","null","40","","","","","","","","","","","","","","","",""
"","ISI","","html-keyboard-response","266","630394","0.0-1.0-363.0","0","0","92944","","null","","","null","40","NaN","","","","","","","","","","","","","","",""
"","S2","","html-keyboard-response","267","630658","0.0-1.0-364.0","0","0","92944","","null","","","null","40","","NaN","","","","","","","","","","","","","",""
"","response","","html-keyboard-response","268","631216","0.0-1.0-365.0-0.0","0","0","92944","","553","","","68","40","","","1","40","training","adjacent","CB","3","2","R.jpg","Q.jpg","1","0","0","",""
"","feedback","","html-keyboard-response","269","632221","0.0-1.0-366.0-0.0","0","0","92944","","null","","","null","40","","","","","","","","","","","","","","","",""
"","time_out","","html-keyboard-response","270","634234","0.0-1.0-368.0-0.0","0","0","92944","","null","","","null","40","","","","","","","","","","","","","","","",""
"","ITI","","html-keyboard-response","271","635250","0.0-1.0-369.0","0","0","92944","","null","","","null","40","","","","","","","","","","","","","","","NaN",""
"","S1","","html-keyboard-response","272","635515","0.0-1.0-371.0","0","0","92944","","null","","","null","41","","","","","","","","","","","","","","","",""
"","ISI","","html-keyboard-response","273","636529","0.0-1.0-372.0","0","0","92944","","null","","","null","41","NaN","","","","","","","","","","","","","","",""
"","S2","","html-keyboard-response","274","636794","0.0-1.0-373.0","0","0","92944","","null","","","null","41","","NaN","","","","","","","","","","","","","",""
"","response","","html-keyboard-response","275","637227","0.0-1.0-374.0-0.0","0","0","92944","","428","","","75","41","","","1","41","training","adjacent","BC","2","3","Q.jpg","R.jpg","0","1","0","",""
"","feedback","","html-keyboard-response","276","638244","0.0-1.0-375.0-0.0","0","0","92944","","null","","","null","41","","","","","","","","","","","","","","","",""
"","time_out","","html-keyboard-response","277","640259","0.0-1.0-377.0-0.0","0","0","92944","","null","","","null","41","","","","","","","","","","","","","","","",""
"","ITI","","html-keyboard-response","278","641275","0.0-1.0-378.0","0","0","92944","","null","","","null","41","","","","","","","","","","","","","","","NaN",""
"","S1","","html-keyboard-response","279","641539","0.0-1.0-380.0","0","0","92944","","null","","","null","42","","","","","","","","","","","","","","","",""
"","ISI","","html-keyboard-response","280","642555","0.0-1.0-381.0","0","0","92944","","null","","","null","42","NaN","","","","","","","","","","","","","","",""
"","S2","","html-keyboard-response","281","642817","0.0-1.0-382.0","0","0","92944","","null","","","null","42","","NaN","","","","","","","","","","","","","",""
"","response","","html-keyboard-response","282","643354","0.0-1.0-383.0-0.0","0","0","92944","","533","","","68","42","","","1","42","training","adjacent","DE","4","5","L.jpg","N.jpg","1","1","1","",""
"","feedback","","html-keyboard-response","283","644365","0.0-1.0-384.0-0.0","0","0","92944","","null","","","null","42","","","","","","","","","","","","","","","",""
"","ITI","","html-keyboard-response","284","645376","0.0-1.0-387.0","0","0","92944","","null","","","null","42","","","","","","","","","","","","","","","NaN",""
"","S1","","html-keyboard-response","285","645642","0.0-1.0-389.0","0","0","92944","","null","","","null","43","","","","","","","","","","","","","","","",""
"","ISI","","html-keyboard-response","286","646656","0.0-1.0-390.0","0","0","92944","","null","","","null","43","NaN","","","","","","","","","","","","","","",""
"","S2","","html-keyboard-response","287","646921","0.0-1.0-391.0","0","0","92944","","null","","","null","43","","NaN","","","","","","","","","","","","","",""
"","response","","html-keyboard-response","288","647526","0.0-1.0-392.0-0.0","0","0","92944","","600","","","75","43","","","1","43","training","adjacent","BC","2","3","Q.jpg","R.jpg","0","1","0","",""
"","feedback","","html-keyboard-response","289","648539","0.0-1.0-393.0-0.0","0","0","92944","","null","","","null","43","","","","","","","","","","","","","","","",""
"","time_out","","html-keyboard-response","290","650554","0.0-1.0-395.0-0.0","0","0","92944","","null","","","null","43","","","","","","","","","","","","","","","",""
"","ITI","","html-keyboard-response","291","651568","0.0-1.0-396.0","0","0","92944","","null","","","null","43","","","","","","","","","","","","","","","NaN",""
"","S1","","html-keyboard-response","292","651833","0.0-1.0-398.0","0","0","92944","","null","","","null","44","","","","","","","","","","","","","","","",""
"","ISI","","html-keyboard-response","293","652841","0.0-1.0-399.0","0","0","92944","","null","","","null","44","NaN","","","","","","","","","","","","","","",""
"","S2","","html-keyboard-response","294","653106","0.0-1.0-400.0","0","0","92944","","null","","","null","44","","NaN","","","","","","","","","","","","","",""
"","response","","html-keyboard-response","295","653655","0.0-1.0-401.0-0.0","0","0","92944","","545","","","75","44","","","1","44","training","adjacent","CD","3","4","R.jpg","L.jpg","0","1","0","",""
"","feedback","","html-keyboard-response","296","654664","0.0-1.0-402.0-0.0","0","0","92944","","null","","","null","44","","","","","","","","","","","","","","","",""
"","time_out","","html-keyboard-response","297","656675","0.0-1.0-404.0-0.0","0","0","92944","","null","","","null","44","","","","","","","","","","","","","","","",""
"","ITI","","html-keyboard-response","298","657688","0.0-1.0-405.0","0","0","92944","","null","","","null","44","","","","","","","","","","","","","","","NaN",""
"","S1","","html-keyboard-response","299","657945","0.0-1.0-407.0","0","0","92944","","null","","","null","45","","","","","","","","","","","","","","","",""
"","ISI","","html-keyboard-response","300","658955","0.0-1.0-408.0","0","0","92944","","null","","","null","45","NaN","","","","","","","","","","","","","","",""
"","S2","","html-keyboard-response","301","659216","0.0-1.0-409.0","0","0","92944","","null","","","null","45","","NaN","","","","","","","","","","","","","",""
"","response","","html-keyboard-response","302","659774","0.0-1.0-410.0-0.0","0","0","92944","","554","","","75","45","","","1","45","training","adjacent","BA","2","1","Q.jpg","P.jpg","0","0","1","",""
"","feedback","","html-keyboard-response","303","660784","0.0-1.0-411.0-0.0","0","0","92944","","null","","","null","45","","","","","","","","","","","","","","","",""
"","ITI","","html-keyboard-response","304","661793","0.0-1.0-414.0","0","0","92944","","null","","","null","45","","","","","","","","","","","","","","","NaN",""
"","S1","","html-keyboard-response","305","662057","0.0-1.0-416.0","0","0","92944","","null","","","null","46","","","","","","","","","","","","","","","",""
"","ISI","","html-keyboard-response","306","663065","0.0-1.0-417.0","0","0","92944","","null","","","null","46","NaN","","","","","","","","","","","","","","",""
"","S2","","html-keyboard-response","307","663323","0.0-1.0-418.0","0","0","92944","","null","","","null","46","","NaN","","","","","","","","","","","","","",""
"","response","","html-keyboard-response","308","663821","0.0-1.0-419.0-0.0","0","0","92944","","494","","","68","46","","","1","46","training","adjacent","DC","4","3","L.jpg","R.jpg","1","0","0","",""
"","feedback","","html-keyboard-response","309","664831","0.0-1.0-420.0-0.0","0","0","92944","","null","","","null","46","","","","","","","","","","","","","","","",""
"","time_out","","html-keyboard-response","310","666842","0.0-1.0-422.0-0.0","0","0","92944","","null","","","null","46","","","","","","","","","","","","","","","",""
"","ITI","","html-keyboard-response","311","667858","0.0-1.0-423.0","0","0","92944","","null","","","null","46","","","","","","","","","","","","","","","NaN",""
"","S1","","html-keyboard-response","312","668123","0.0-1.0-425.0","0","0","92944","","null","","","null","47","","","","","","","","","","","","","","","",""
"","ISI","","html-keyboard-response","313","669139","0.0-1.0-426.0","0","0","92944","","null","","","null","47","NaN","","","","","","","","","","","","","","",""
"","S2","","html-keyboard-response","314","669404","0.0-1.0-427.0","0","0","92944","","null","","","null","47","","NaN","","","","","","","","","","","","","",""
"","response","","html-keyboard-response","315","669827","0.0-1.0-428.0-0.0","0","0","92944","","419","","","68","47","","","1","47","training","adjacent","CD","3","4","R.jpg","L.jpg","1","1","1","",""
"","feedback","","html-keyboard-response","316","670842","0.0-1.0-429.0-0.0","0","0","92944","","null","","","null","47","","","","","","","","","","","","","","","",""
"","ITI","","html-keyboard-response","317","671856","0.0-1.0-432.0","0","0","92944","","null","","","null","47","","","","","","","","","","","","","","","NaN",""
"","block_over","","html-keyboard-response","318","678075","0.0-1.0-433.0-0.0","0","0","92944","","6215","","","32","47","","","","","","","","","","","","","","","",""
"","S1","","html-keyboard-response","319","678338","0.0-1.0-434.0","0","0","92944","","null","","","null","48","","","","","","","","","","","","","","","",""
"","ISI","","html-keyboard-response","320","679355","0.0-1.0-435.0","0","0","92944","","null","","","null","48","NaN","","","","","","","","","","","","","","",""
"","S2","","html-keyboard-response","321","679619","0.0-1.0-436.0","0","0","92944","","null","","","null","48","","NaN","","","","","","","","","","","","","",""
"","response","","html-keyboard-response","322","680363","0.0-1.0-437.0-0.0","0","0","92944","","740","","","68","48","","","2","48","training","adjacent","BA","2","1","Q.jpg","P.jpg","1","0","0","",""
"","feedback","","html-keyboard-response","323","681375","0.0-1.0-438.0-0.0","0","0","92944","","null","","","null","48","","","","","","","","","","","","","","","",""
"","time_out","","html-keyboard-response","324","683385","0.0-1.0-440.0-0.0","0","0","92944","","null","","","null","48","","","","","","","","","","","","","","","",""
"","ITI","","html-keyboard-response","325","684394","0.0-1.0-441.0","0","0","92944","","null","","","null","48","","","","","","","","","","","","","","","NaN",""
"","S1","","html-keyboard-response","326","684657","0.0-1.0-443.0","0","0","92944","","null","","","null","49","","","","","","","","","","","","","","","",""
"","ISI","","html-keyboard-response","327","685662","0.0-1.0-444.0","0","0","92944","","null","","","null","49","NaN","","","","","","","","","","","","","","",""
"","S2","","html-keyboard-response","328","685921","0.0-1.0-445.0","0","0","92944","","null","","","null","49","","NaN","","","","","","","","","","","","","",""
"","response","","html-keyboard-response","329","686000","0.0-1.0-446.0-0.0","0","0","92944","","75","","","75","49","","","2","49","training","adjacent","EF","5","6","N.jpg","M.jpg","0","1","0","",""
"","feedback","","html-keyboard-response","330","687008","0.0-1.0-447.0-0.0","0","0","92944","","null","","","null","49","","","","","","","","","","","","","","","",""
"","time_out","","html-keyboard-response","331","689017","0.0-1.0-449.0-0.0","0","0","92944","","null","","","null","49","","","","","","","","","","","","","","","",""
"","ITI","","html-keyboard-response","332","690025","0.0-1.0-450.0","0","0","92944","","null","","","null","49","","","","","","","","","","","","","","","NaN",""
"","S1","","html-keyboard-response","333","690290","0.0-1.0-452.0","0","0","92944","","null","","","null","50","","","","","","","","","","","","","","","",""
"","ISI","","html-keyboard-response","334","691306","0.0-1.0-453.0","0","0","92944","","null","","","null","50","NaN","","","","","","","","","","","","","","",""
"","S2","","html-keyboard-response","335","691570","0.0-1.0-454.0","0","0","92944","","null","","","null","50","","NaN","","","","","","","","","","","","","",""
"","response","","html-keyboard-response","336","691938","0.0-1.0-455.0-0.0","0","0","92944","","364","","","68","50","","","2","50","training","adjacent","AB","1","2","P.jpg","Q.jpg","1","1","1","",""
"","feedback","","html-keyboard-response","337","692955","0.0-1.0-456.0-0.0","0","0","92944","","null","","","null","50","","","","","","","","","","","","","","","",""
"","ITI","","html-keyboard-response","338","693968","0.0-1.0-459.0","0","0","92944","","null","","","null","50","","","","","","","","","","","","","","","NaN",""
"","S1","","html-keyboard-response","339","694234","0.0-1.0-461.0","0","0","92944","","null","","","null","51","","","","","","","","","","","","","","","",""
"","ISI","","html-keyboard-response","340","695242","0.0-1.0-462.0","0","0","92944","","null","","","null","51","NaN","","","","","","","","","","","","","","",""
"","S2","","html-keyboard-response","341","695506","0.0-1.0-463.0","0","0","92944","","null","","","null","51","","NaN","","","","","","","","","","","","","",""
"","response","","html-keyboard-response","342","696016","0.0-1.0-464.0-0.0","0","0","92944","","504","","","68","51","","","2","51","training","adjacent","CB","3","2","R.jpg","Q.jpg","1","0","0","",""
"","feedback","","html-keyboard-response","343","697025","0.0-1.0-465.0-0.0","0","0","92944","","null","","","null","51","","","","","","","","","","","","","","","",""
"","time_out","","html-keyboard-response","344","699030","0.0-1.0-467.0-0.0","0","0","92944","","null","","","null","51","","","","","","","","","","","","","","","",""
"","ITI","","html-keyboard-response","345","700042","0.0-1.0-468.0","0","0","92944","","null","","","null","51","","","","","","","","","","","","","","","NaN",""
"","S1","","html-keyboard-response","346","700307","0.0-1.0-470.0","0","0","92944","","null","","","null","52","","","","","","","","","","","","","","","",""
"","ISI","","html-keyboard-response","347","701322","0.0-1.0-471.0","0","0","92944","","null","","","null","52","NaN","","","","","","","","","","","","","","",""
"","S2","","html-keyboard-response","348","701584","0.0-1.0-472.0","0","0","92944","","null","","","null","52","","NaN","","","","","","","","","","","","","",""
"","response","","html-keyboard-response","349","702074","0.0-1.0-473.0-0.0","0","0","92944","","485","","","75","52","","","2","52","training","adjacent","GF","7","6","O.jpg","M.jpg","0","0","1","",""
"","feedback","","html-keyboard-response","350","703088","0.0-1.0-474.0-0.0","0","0","92944","","null","","","null","52","","","","","","","","","","","","","","","",""
"","ITI","","html-keyboard-response","351","704097","0.0-1.0-477.0","0","0","92944","","null","","","null","52","","","","","","","","","","","","","","","NaN",""
"","S1","","html-keyboard-response","352","704361","0.0-1.0-479.0","0","0","92944","","null","","","null","53","","","","","","","","","","","","","","","",""
"","ISI","","html-keyboard-response","353","705370","0.0-1.0-480.0","0","0","92944","","null","","","null","53","NaN","","","","","","","","","","","","","","",""
"","S2","","html-keyboard-response","354","705632","0.0-1.0-481.0","0","0","92944","","null","","","null","53","","NaN","","","","","","","","","","","","","",""
"","response","","html-keyboard-response","355","706013","0.0-1.0-482.0-0.0","0","0","92944","","377","","","75","53","","","2","53","training","adjacent","EF","5","6","N.jpg","M.jpg","0","1","0","",""
"","feedback","","html-keyboard-response","356","707026","0.0-1.0-483.0-0.0","0","0","92944","","null","","","null","53","","","","","","","","","","","","","","","",""
"","time_out","","html-keyboard-response","357","709041","0.0-1.0-485.0-0.0","0","0","92944","","null","","","null","53","","","","","","","","","","","","","","","",""
"","ITI","","html-keyboard-response","358","710051","0.0-1.0-486.0","0","0","92944","","null","","","null","53","","","","","","","","","","","","","","","NaN",""
"","S1","","html-keyboard-response","359","710314","0.0-1.0-488.0","0","0","92944","","null","","","null","54","","","","","","","","","","","","","","","",""
"","ISI","","html-keyboard-response","360","711322","0.0-1.0-489.0","0","0","92944","","null","","","null","54","NaN","","","","","","","","","","","","","","",""
"","S2","","html-keyboard-response","361","711587","0.0-1.0-490.0","0","0","92944","","null","","","null","54","","NaN","","","","","","","","","","","","","",""
"","response","","html-keyboard-response","362","711997","0.0-1.0-491.0-0.0","0","0","92944","","407","","","75","54","","","2","54","training","adjacent","CD","3","4","R.jpg","L.jpg","0","1","0","",""
"","feedback","","html-keyboard-response","363","713006","0.0-1.0-492.0-0.0","0","0","92944","","null","","","null","54","","","","","","","","","","","","","","","",""
"","time_out","","html-keyboard-response","364","715018","0.0-1.0-494.0-0.0","0","0","92944","","null","","","null","54","","","","","","","","","","","","","","","",""
"","ITI","","html-keyboard-response","365","716035","0.0-1.0-495.0","0","0","92944","","null","","","null","54","","","","","","","","","","","","","","","NaN",""
"","S1","","html-keyboard-response","366","716297","0.0-1.0-497.0","0","0","92944","","null","","","null","55","","","","","","","","","","","","","","","",""
"","ISI","","html-keyboard-response","367","717307","0.0-1.0-498.0","0","0","92944","","null","","","null","55","NaN","","","","","","","","","","","","","","",""
"","S2","","html-keyboard-response","368","717566","0.0-1.0-499.0","0","0","92944","","null","","","null","55","","NaN","","","","","","","","","","","","","",""
"","response","","html-keyboard-response","369","717922","0.0-1.0-500.0-0.0","0","0","92944","","351","","","68","55","","","2","55","training","adjacent","CB","3","2","R.jpg","Q.jpg","1","0","0","",""
"","feedback","","html-keyboard-response","370","718939","0.0-1.0-501.0-0.0","0","0","92944","","null","","","null","55","","","","","","","","","","","","","","","",""
"","time_out","","html-keyboard-response","371","720954","0.0-1.0-503.0-0.0","0","0","92944","","null","","","null","55","","","","","","","","","","","","","","","",""
"","ITI","","html-keyboard-response","372","721971","0.0-1.0-504.0","0","0","92944","","null","","","null","55","","","","","","","","","","","","","","","NaN",""
"","S1","","html-keyboard-response","373","722233","0.0-1.0-506.0","0","0","92944","","null","","","null","56","","","","","","","","","","","","","","","",""
"","ISI","","html-keyboard-response","374","723240","0.0-1.0-507.0","0","0","92944","","null","","","null","56","NaN","","","","","","","","","","","","","","",""
"","S2","","html-keyboard-response","375","723507","0.0-1.0-508.0","0","0","92944","","null","","","null","56","","NaN","","","","","","","","","","","","","",""
"","response","","html-keyboard-response","376","723746","0.0-1.0-509.0-0.0","0","0","92944","","234","","","75","56","","","2","56","training","adjacent","FG","6","7","M.jpg","O.jpg","0","1","0","",""
"","feedback","","html-keyboard-response","377","724761","0.0-1.0-510.0-0.0","0","0","92944","","null","","","null","56","","","","","","","","","","","","","","","",""
"","time_out","","html-keyboard-response","378","726768","0.0-1.0-512.0-0.0","0","0","92944","","null","","","null","56","","","","","","","","","","","","","","","",""
"","ITI","","html-keyboard-response","379","727776","0.0-1.0-513.0","0","0","92944","","null","","","null","56","","","","","","","","","","","","","","","NaN",""
"","S1","","html-keyboard-response","380","728042","0.0-1.0-515.0","0","0","92944","","null","","","null","57","","","","","","","","","","","","","","","",""
"","ISI","","html-keyboard-response","381","729057","0.0-1.0-516.0","0","0","92944","","null","","","null","57","NaN","","","","","","","","","","","","","","",""
"","S2","","html-keyboard-response","382","729322","0.0-1.0-517.0","0","0","92944","","null","","","null","57","","NaN","","","","","","","","","","","","","",""
"","response","","html-keyboard-response","383","729672","0.0-1.0-518.0-0.0","0","0","92944","","345","","","68","57","","","2","57","training","adjacent","FG","6","7","M.jpg","O.jpg","1","1","1","",""
"","feedback","","html-keyboard-response","384","730682","0.0-1.0-519.0-0.0","0","0","92944","","null","","","null","57","","","","","","","","","","","","","","","",""
"","ITI","","html-keyboard-response","385","731699","0.0-1.0-522.0","0","0","92944","","null","","","null","57","","","","","","","","","","","","","","","NaN",""
"","S1","","html-keyboard-response","386","731961","0.0-1.0-524.0","0","0","92944","","null","","","null","58","","","","","","","","","","","","","","","",""
"","ISI","","html-keyboard-response","387","732968","0.0-1.0-525.0","0","0","92944","","null","","","null","58","NaN","","","","","","","","","","","","","","",""
"","S2","","html-keyboard-response","388","733229","0.0-1.0-526.0","0","0","92944","","null","","","null","58","","NaN","","","","","","","","","","","","","",""
"","response","","html-keyboard-response","389","733720","0.0-1.0-527.0-0.0","0","0","92944","","488","","","75","58","","","2","58","training","adjacent","AB","1","2","P.jpg","Q.jpg","0","1","0","",""
"","feedback","","html-keyboard-response","390","734729","0.0-1.0-528.0-0.0","0","0","92944","","null","","","null","58","","","","","","","","","","","","","","","",""
"","time_out","","html-keyboard-response","391","736739","0.0-1.0-530.0-0.0","0","0","92944","","null","","","null","58","","","","","","","","","","","","","","","",""
"","ITI","","html-keyboard-response","392","737754","0.0-1.0-531.0","0","0","92944","","null","","","null","58","","","","","","","","","","","","","","","NaN",""
"","S1","","html-keyboard-response","393","738018","0.0-1.0-533.0","0","0","92944","","null","","","null","59","","","","","","","","","","","","","","","",""
"","ISI","","html-keyboard-response","394","739033","0.0-1.0-534.0","0","0","92944","","null","","","null","59","NaN","","","","","","","","","","","","","","",""
"","S2","","html-keyboard-response","395","739295","0.0-1.0-535.0","0","0","92944","","null","","","null","59","","NaN","","","","","","","","","","","","","",""
"","response","","html-keyboard-response","396","739883","0.0-1.0-536.0-0.0","0","0","92944","","584","","","75","59","","","2","59","training","adjacent","DC","4","3","L.jpg","R.jpg","0","0","1","",""
"","feedback","","html-keyboard-response","397","740895","0.0-1.0-537.0-0.0","0","0","92944","","null","","","null","59","","","","","","","","","","","","","","","",""
"","ITI","","html-keyboard-response","398","741905","0.0-1.0-540.0","0","0","92944","","null","","","null","59","","","","","","","","","","","","","","","NaN",""
"","S1","","html-keyboard-response","399","742168","0.0-1.0-542.0","0","0","92944","","null","","","null","60","","","","","","","","","","","","","","","",""
"","ISI","","html-keyboard-response","400","743177","0.0-1.0-543.0","0","0","92944","","null","","","null","60","NaN","","","","","","","","","","","","","","",""
"","S2","","html-keyboard-response","401","743443","0.0-1.0-544.0","0","0","92944","","null","","","null","60","","NaN","","","","","","","","","","","","","",""
"","response","","html-keyboard-response","402","743768","0.0-1.0-545.0-0.0","0","0","92944","","320","","","75","60","","","2","60","training","adjacent","BC","2","3","Q.jpg","R.jpg","0","1","0","",""
"","feedback","","html-keyboard-response","403","744777","0.0-1.0-546.0-0.0","0","0","92944","","null","","","null","60","","","","","","","","","","","","","","","",""
"","time_out","","html-keyboard-response","404","746794","0.0-1.0-548.0-0.0","0","0","92944","","null","","","null","60","","","","","","","","","","","","","","","",""
"","ITI","","html-keyboard-response","405","747810","0.0-1.0-549.0","0","0","92944","","null","","","null","60","","","","","","","","","","","","","","","NaN",""
"","S1","","html-keyboard-response","406","748073","0.0-1.0-551.0","0","0","92944","","null","","","null","61","","","","","","","","","","","","","","","",""
"","ISI","","html-keyboard-response","407","749080","0.0-1.0-552.0","0","0","92944","","null","","","null","61","NaN","","","","","","","","","","","","","","",""
"","S2","","html-keyboard-response","408","749344","0.0-1.0-553.0","0","0","92944","","null","","","null","61","","NaN","","","","","","","","","","","","","",""
"","response","","html-keyboard-response","409","749784","0.0-1.0-554.0-0.0","0","0","92944","","435","","","68","61","","","2","61","training","adjacent","ED","5","4","N.jpg","L.jpg","1","0","0","",""
"","feedback","","html-keyboard-response","410","750794","0.0-1.0-555.0-0.0","0","0","92944","","null","","","null","61","","","","","","","","","","","","","","","",""
"","time_out","","html-keyboard-response","411","752809","0.0-1.0-557.0-0.0","0","0","92944","","null","","","null","61","","","","","","","","","","","","","","","",""
"","ITI","","html-keyboard-response","412","753817","0.0-1.0-558.0","0","0","92944","","null","","","null","61","","","","","","","","","","","","","","","NaN",""
"","S1","","html-keyboard-response","413","754083","0.0-1.0-560.0","0","0","92944","","null","","","null","62","","","","","","","","","","","","","","","",""
"","ISI","","html-keyboard-response","414","755097","0.0-1.0-561.0","0","0","92944","","null","","","null","62","NaN","","","","","","","","","","","","","","",""
"","S2","","html-keyboard-response","415","755358","0.0-1.0-562.0","0","0","92944","","null","","","null","62","","NaN","","","","","","","","","","","","","",""
"","response","","html-keyboard-response","416","755771","0.0-1.0-563.0-0.0","0","0","92944","","409","","","68","62","","","2","62","training","adjacent","CB","3","2","R.jpg","Q.jpg","1","0","0","",""
"","feedback","","html-keyboard-response","417","756786","0.0-1.0-564.0-0.0","0","0","92944","","null","","","null","62","","","","","","","","","","","","","","","",""
"","time_out","","html-keyboard-response","418","758803","0.0-1.0-566.0-0.0","0","0","92944","","null","","","null","62","","","","","","","","","","","","","","","",""
"","ITI","","html-keyboard-response","419","759818","0.0-1.0-567.0","0","0","92944","","null","","","null","62","","","","","","","","","","","","","","","NaN",""
"","S1","","html-keyboard-response","420","760082","0.0-1.0-569.0","0","0","92944","","null","","","null","63","","","","","","","","","","","","","","","",""
"","ISI","","html-keyboard-response","421","761096","0.0-1.0-570.0","0","0","92944","","null","","","null","63","NaN","","","","","","","","","","","","","","",""
"","S2","","html-keyboard-response","422","761358","0.0-1.0-571.0","0","0","92944","","null","","","null","63","","NaN","","","","","","","","","","","","","",""
"","response","","html-keyboard-response","423","761605","0.0-1.0-572.0-0.0","0","0","92944","","242","","","75","63","","","2","63","training","adjacent","BC","2","3","Q.jpg","R.jpg","0","1","0","",""
"","feedback","","html-keyboard-response","424","762618","0.0-1.0-573.0-0.0","0","0","92944","","null","","","null","63","","","","","","","","","","","","","","","",""
"","time_out","","html-keyboard-response","425","764634","0.0-1.0-575.0-0.0","0","0","92944","","null","","","null","63","","","","","","","","","","","","","","","",""
"","ITI","","html-keyboard-response","426","765649","0.0-1.0-576.0","0","0","92944","","null","","","null","63","","","","","","","","","","","","","","","NaN",""
"","S1","","html-keyboard-response","427","765913","0.0-1.0-578.0","0","0","92944","","null","","","null","64","","","","","","","","","","","","","","","",""
"","ISI","","html-keyboard-response","428","766920","0.0-1.0-579.0","0","0","92944","","null","","","null","64","NaN","","","","","","","","","","","","","","",""
"","S2","","html-keyboard-response","429","767187","0.0-1.0-580.0","0","0","92944","","null","","","null","64","","NaN","","","","","","","","","","","","","",""
"","response","","html-keyboard-response","430","767449","0.0-1.0-581.0-0.0","0","0","92944","","260","","","68","64","","","2","64","training","adjacent","DC","4","3","L.jpg","R.jpg","1","0","0","",""
"","feedback","","html-keyboard-response","431","768457","0.0-1.0-582.0-0.0","0","0","92944","","null","","","null","64","","","","","","","","","","","","","","","",""
"","time_out","","html-keyboard-response","432","770466","0.0-1.0-584.0-0.0","0","0","92944","","null","","","null","64","","","","","","","","","","","","","","","",""
"","ITI","","html-keyboard-response","433","771478","0.0-1.0-585.0","0","0","92944","","null","","","null","64","","","","","","","","","","","","","","","NaN",""
"","S1","","html-keyboard-response","434","771736","0.0-1.0-587.0","0","0","92944","","null","","","null","65","","","","","","","","","","","","","","","",""
"","ISI","","html-keyboard-response","435","772746","0.0-1.0-588.0","0","0","92944","","null","","","null","65","NaN","","","","","","","","","","","","","","",""
"","S2","","html-keyboard-response","436","773009","0.0-1.0-589.0","0","0","92944","","null","","","null","65","","NaN","","","","","","","","","","","","","",""
"","response","","html-keyboard-response","437","773303","0.0-1.0-590.0-0.0","0","0","92944","","288","","","68","65","","","2","65","training","adjacent","AB","1","2","P.jpg","Q.jpg","1","1","1","",""
"","feedback","","html-keyboard-response","438","774313","0.0-1.0-591.0-0.0","0","0","92944","","null","","","null","65","","","","","","","","","","","","","","","",""
"","ITI","","html-keyboard-response","439","775328","0.0-1.0-594.0","0","0","92944","","null","","","null","65","","","","","","","","","","","","","","","NaN",""
"","S1","","html-keyboard-response","440","775594","0.0-1.0-596.0","0","0","92944","","null","","","null","66","","","","","","","","","","","","","","","",""
"","ISI","","html-keyboard-response","441","776609","0.0-1.0-597.0","0","0","92944","","null","","","null","66","NaN","","","","","","","","","","","","","","",""
"","S2","","html-keyboard-response","442","776875","0.0-1.0-598.0","0","0","92944","","null","","","null","66","","NaN","","","","","","","","","","","","","",""
"","response","","html-keyboard-response","443","777269","0.0-1.0-599.0-0.0","0","0","92944","","390","","","68","66","","","2","66","training","adjacent","CD","3","4","R.jpg","L.jpg","1","1","1","",""
"","feedback","","html-keyboard-response","444","778282","0.0-1.0-600.0-0.0","0","0","92944","","null","","","null","66","","","","","","","","","","","","","","","",""
"","ITI","","html-keyboard-response","445","779294","0.0-1.0-603.0","0","0","92944","","null","","","null","66","","","","","","","","","","","","","","","NaN",""
"","S1","","html-keyboard-response","446","779551","0.0-1.0-605.0","0","0","92944","","null","","","null","67","","","","","","","","","","","","","","","",""
"","ISI","","html-keyboard-response","447","780558","0.0-1.0-606.0","0","0","92944","","null","","","null","67","NaN","","","","","","","","","","","","","","",""
"","S2","","html-keyboard-response","448","780818","0.0-1.0-607.0","0","0","92944","","null","","","null","67","","NaN","","","","","","","","","","","","","",""
"","response","","html-keyboard-response","449","781227","0.0-1.0-608.0-0.0","0","0","92944","","405","","","68","67","","","2","67","training","adjacent","BC","2","3","Q.jpg","R.jpg","1","1","1","",""
"","feedback","","html-keyboard-response","450","782243","0.0-1.0-609.0-0.0","0","0","92944","","null","","","null","67","","","","","","","","","","","","","","","",""
"","ITI","","html-keyboard-response","451","783256","0.0-1.0-612.0","0","0","92944","","null","","","null","67","","","","","","","","","","","","","","","NaN",""
"","S1","","html-keyboard-response","452","783520","0.0-1.0-614.0","0","0","92944","","null","","","null","68","","","","","","","","","","","","","","","",""
"","ISI","","html-keyboard-response","453","784531","0.0-1.0-615.0","0","0","92944","","null","","","null","68","NaN","","","","","","","","","","","","","","",""
"","S2","","html-keyboard-response","454","784795","0.0-1.0-616.0","0","0","92944","","null","","","null","68","","NaN","","","","","","","","","","","","","",""
"","response","","html-keyboard-response","455","785261","0.0-1.0-617.0-0.0","0","0","92944","","462","","","75","68","","","2","68","training","adjacent","ED","5","4","N.jpg","L.jpg","0","0","1","",""
"","feedback","","html-keyboard-response","456","786274","0.0-1.0-618.0-0.0","0","0","92944","","null","","","null","68","","","","","","","","","","","","","","","",""
"","ITI","","html-keyboard-response","457","787287","0.0-1.0-621.0","0","0","92944","","null","","","null","68","","","","","","","","","","","","","","","NaN",""
"","S1","","html-keyboard-response","458","787552","0.0-1.0-623.0","0","0","92944","","null","","","null","69","","","","","","","","","","","","","","","",""
"","ISI","","html-keyboard-response","459","788562","0.0-1.0-624.0","0","0","92944","","null","","","null","69","NaN","","","","","","","","","","","","","","",""
"","S2","","html-keyboard-response","460","788824","0.0-1.0-625.0","0","0","92944","","null","","","null","69","","NaN","","","","","","","","","","","","","",""
"","response","","html-keyboard-response","461","789129","0.0-1.0-626.0-0.0","0","0","92944","","301","","","75","69","","","2","69","training","adjacent","FG","6","7","M.jpg","O.jpg","0","1","0","",""
"","feedback","","html-keyboard-response","462","790147","0.0-1.0-627.0-0.0","0","0","92944","","null","","","null","69","","","","","","","","","","","","","","","",""
"","time_out","","html-keyboard-response","463","792162","0.0-1.0-629.0-0.0","0","0","92944","","null","","","null","69","","","","","","","","","","","","","","","",""
"","ITI","","html-keyboard-response","464","793179","0.0-1.0-630.0","0","0","92944","","null","","","null","69","","","","","","","","","","","","","","","NaN",""
"","S1","","html-keyboard-response","465","793443","0.0-1.0-632.0","0","0","92944","","null","","","null","70","","","","","","","","","","","","","","","",""
"","ISI","","html-keyboard-response","466","794456","0.0-1.0-633.0","0","0","92944","","null","","","null","70","NaN","","","","","","","","","","","","","","",""
"","S2","","html-keyboard-response","467","794723","0.0-1.0-634.0","0","0","92944","","null","","","null","70","","NaN","","","","","","","","","","","","","",""
"","response","","html-keyboard-response","468","794959","0.0-1.0-635.0-0.0","0","0","92944","","231","","","75","70","","","2","70","training","adjacent","FE","6","5","M.jpg","N.jpg","0","0","1","",""
"","feedback","","html-keyboard-response","469","795971","0.0-1.0-636.0-0.0","0","0","92944","","null","","","null","70","","","","","","","","","","","","","","","",""
"","ITI","","html-keyboard-response","470","796985","0.0-1.0-639.0","0","0","92944","","null","","","null","70","","","","","","","","","","","","","","","NaN",""
"","S1","","html-keyboard-response","471","797248","0.0-1.0-641.0","0","0","92944","","null","","","null","71","","","","","","","","","","","","","","","",""
"","ISI","","html-keyboard-response","472","798254","0.0-1.0-642.0","0","0","92944","","null","","","null","71","NaN","","","","","","","","","","","","","","",""
"","S2","","html-keyboard-response","473","798513","0.0-1.0-643.0","0","0","92944","","null","","","null","71","","NaN","","","","","","","","","","","","","",""
"","response","","html-keyboard-response","474","798698","0.0-1.0-644.0-0.0","0","0","92944","","181","","","75","71","","","2","71","training","adjacent","ED","5","4","N.jpg","L.jpg","0","0","1","",""
"","feedback","","html-keyboard-response","475","799713","0.0-1.0-645.0-0.0","0","0","92944","","null","","","null","71","","","","","","","","","","","","","","","",""
"","ITI","","html-keyboard-response","476","800728","0.0-1.0-648.0","0","0","92944","","null","","","null","71","","","","","","","","","","","","","","","NaN",""
"","S1","","html-keyboard-response","477","800994","0.0-1.0-650.0","0","0","92944","","null","","","null","72","","","","","","","","","","","","","","","",""
"","ISI","","html-keyboard-response","478","802010","0.0-1.0-651.0","0","0","92944","","null","","","null","72","NaN","","","","","","","","","","","","","","",""
"","S2","","html-keyboard-response","479","802272","0.0-1.0-652.0","0","0","92944","","null","","","null","72","","NaN","","","","","","","","","","","","","",""
"","response","","html-keyboard-response","480","802581","0.0-1.0-653.0-0.0","0","0","92944","","304","","","68","72","","","2","72","training","adjacent","GF","7","6","O.jpg","M.jpg","1","0","0","",""
"","feedback","","html-keyboard-response","481","803594","0.0-1.0-654.0-0.0","0","0","92944","","null","","","null","72","","","","","","","","","","","","","","","",""
"","time_out","","html-keyboard-response","482","805611","0.0-1.0-656.0-0.0","0","0","92944","","null","","","null","72","","","","","","","","","","","","","","","",""
"","ITI","","html-keyboard-response","483","806626","0.0-1.0-657.0","0","0","92944","","null","","","null","72","","","","","","","","","","","","","","","NaN",""
"","S1","","html-keyboard-response","484","806890","0.0-1.0-659.0","0","0","92944","","null","","","null","73","","","","","","","","","","","","","","","",""
"","ISI","","html-keyboard-response","485","807905","0.0-1.0-660.0","0","0","92944","","null","","","null","73","NaN","","","","","","","","","","","","","","",""
"","S2","","html-keyboard-response","486","808169","0.0-1.0-661.0","0","0","92944","","null","","","null","73","","NaN","","","","","","","","","","","","","",""
"","response","","html-keyboard-response","487","808575","0.0-1.0-662.0-0.0","0","0","92944","","401","","","75","73","","","2","73","training","adjacent","FE","6","5","M.jpg","N.jpg","0","0","1","",""
"","feedback","","html-keyboard-response","488","809584","0.0-1.0-663.0-0.0","0","0","92944","","null","","","null","73","","","","","","","","","","","","","","","",""
"","ITI","","html-keyboard-response","489","810593","0.0-1.0-666.0","0","0","92944","","null","","","null","73","","","","","","","","","","","","","","","NaN",""
"","S1","","html-keyboard-response","490","810856","0.0-1.0-668.0","0","0","92944","","null","","","null","74","","","","","","","","","","","","","","","",""
"","ISI","","html-keyboard-response","491","811866","0.0-1.0-669.0","0","0","92944","","null","","","null","74","NaN","","","","","","","","","","","","","","",""
"","S2","","html-keyboard-response","492","812127","0.0-1.0-670.0","0","0","92944","","null","","","null","74","","NaN","","","","","","","","","","","","","",""
"","response","","html-keyboard-response","493","812221","0.0-1.0-671.0-0.0","0","0","92944","","89","","","75","74","","","2","74","training","adjacent","CB","3","2","R.jpg","Q.jpg","0","0","1","",""
"","feedback","","html-keyboard-response","494","813231","0.0-1.0-672.0-0.0","0","0","92944","","null","","","null","74","","","","","","","","","","","","","","","",""
"","ITI","","html-keyboard-response","495","814243","0.0-1.0-675.0","0","0","92944","","null","","","null","74","","","","","","","","","","","","","","","NaN",""
"","S1","","html-keyboard-response","496","814505","0.0-1.0-677.0","0","0","92944","","null","","","null","75","","","","","","","","","","","","","","","",""
"","ISI","","html-keyboard-response","497","815514","0.0-1.0-678.0","0","0","92944","","null","","","null","75","NaN","","","","","","","","","","","","","","",""
"","S2","","html-keyboard-response","498","815776","0.0-1.0-679.0","0","0","92944","","null","","","null","75","","NaN","","","","","","","","","","","","","",""
"","response","","html-keyboard-response","499","815815","0.0-1.0-680.0-0.0","0","0","92944","","34","","","75","75","","","2","75","training","adjacent","CD","3","4","R.jpg","L.jpg","0","1","0","",""
"","feedback","","html-keyboard-response","500","816826","0.0-1.0-681.0-0.0","0","0","92944","","null","","","null","75","","","","","","","","","","","","","","","",""
"","time_out","","html-keyboard-response","501","818843","0.0-1.0-683.0-0.0","0","0","92944","","null","","","null","75","","","","","","","","","","","","","","","",""
"","ITI","","html-keyboard-response","502","819857","0.0-1.0-684.0","0","0","92944","","null","","","null","75","","","","","","","","","","","","","","","NaN",""
"","S1","","html-keyboard-response","503","820121","0.0-1.0-686.0","0","0","92944","","null","","","null","76","","","","","","","","","","","","","","","",""
"","ISI","","html-keyboard-response","504","821129","0.0-1.0-687.0","0","0","92944","","null","","","null","76","NaN","","","","","","","","","","","","","","",""
"","S2","","html-keyboard-response","505","821393","0.0-1.0-688.0","0","0","92944","","null","","","null","76","","NaN","","","","","","","","","","","","","",""
"","response","","html-keyboard-response","506","821799","0.0-1.0-689.0-0.0","0","0","92944","","402","","","75","76","","","2","76","training","adjacent","DE","4","5","L.jpg","N.jpg","0","1","0","",""
"","feedback","","html-keyboard-response","507","822810","0.0-1.0-690.0-0.0","0","0","92944","","null","","","null","76","","","","","","","","","","","","","","","",""
"","time_out","","html-keyboard-response","508","824826","0.0-1.0-692.0-0.0","0","0","92944","","null","","","null","76","","","","","","","","","","","","","","","",""
"","ITI","","html-keyboard-response","509","825843","0.0-1.0-693.0","0","0","92944","","null","","","null","76","","","","","","","","","","","","","","","NaN",""
"","S1","","html-keyboard-response","510","826102","0.0-1.0-695.0","0","0","92944","","null","","","null","77","","","","","","","","","","","","","","","",""
"","ISI","","html-keyboard-response","511","827113","0.0-1.0-696.0","0","0","92944","","null","","","null","77","NaN","","","","","","","","","","","","","","",""
"","S2","","html-keyboard-response","512","827378","0.0-1.0-697.0","0","0","92944","","null","","","null","77","","NaN","","","","","","","","","","","","","",""
"","response","","html-keyboard-response","513","827918","0.0-1.0-698.0-0.0","0","0","92944","","535","","","75","77","","","2","77","training","adjacent","GF","7","6","O.jpg","M.jpg","0","0","1","",""
"","feedback","","html-keyboard-response","514","828927","0.0-1.0-699.0-0.0","0","0","92944","","null","","","null","77","","","","","","","","","","","","","","","",""
"","ITI","","html-keyboard-response","515","829938","0.0-1.0-702.0","0","0","92944","","null","","","null","77","","","","","","","","","","","","","","","NaN",""
"","S1","","html-keyboard-response","516","830203","0.0-1.0-704.0","0","0","92944","","null","","","null","78","","","","","","","","","","","","","","","",""
"","ISI","","html-keyboard-response","517","831213","0.0-1.0-705.0","0","0","92944","","null","","","null","78","NaN","","","","","","","","","","","","","","",""
"","S2","","html-keyboard-response","518","831469","0.0-1.0-706.0","0","0","92944","","null","","","null","78","","NaN","","","","","","","","","","","","","",""
"","response","","html-keyboard-response","519","831930","0.0-1.0-707.0-0.0","0","0","92944","","458","","","68","78","","","2","78","training","adjacent","FE","6","5","M.jpg","N.jpg","1","0","0","",""
"","feedback","","html-keyboard-response","520","832946","0.0-1.0-708.0-0.0","0","0","92944","","null","","","null","78","","","","","","","","","","","","","","","",""
"","time_out","","html-keyboard-response","521","834960","0.0-1.0-710.0-0.0","0","0","92944","","null","","","null","78","","","","","","","","","","","","","","","",""
"","ITI","","html-keyboard-response","522","835971","0.0-1.0-711.0","0","0","92944","","null","","","null","78","","","","","","","","","","","","","","","NaN",""
"","S1","","html-keyboard-response","523","836233","0.0-1.0-713.0","0","0","92944","","null","","","null","79","","","","","","","","","","","","","","","",""
"","ISI","","html-keyboard-response","524","837241","0.0-1.0-714.0","0","0","92944","","null","","","null","79","NaN","","","","","","","","","","","","","","",""
"","S2","","html-keyboard-response","525","837505","0.0-1.0-715.0","0","0","92944","","null","","","null","79","","NaN","","","","","","","","","","","","","",""
"","response","","html-keyboard-response","526","838148","0.0-1.0-716.0-0.0","0","0","92944","","637","","","68","79","","","2","79","training","adjacent","DC","4","3","L.jpg","R.jpg","1","0","0","",""
"","feedback","","html-keyboard-response","527","839160","0.0-1.0-717.0-0.0","0","0","92944","","null","","","null","79","","","","","","","","","","","","","","","",""
"","time_out","","html-keyboard-response","528","841166","0.0-1.0-719.0-0.0","0","0","92944","","null","","","null","79","","","","","","","","","","","","","","","",""
"","ITI","","html-keyboard-response","529","842177","0.0-1.0-720.0","0","0","92944","","null","","","null","79","","","","","","","","","","","","","","","NaN",""
"","S1","","html-keyboard-response","530","842441","0.0-1.0-722.0","0","0","92944","","null","","","null","80","","","","","","","","","","","","","","","",""
"","ISI","","html-keyboard-response","531","843449","0.0-1.0-723.0","0","0","92944","","null","","","null","80","NaN","","","","","","","","","","","","","","",""
"","S2","","html-keyboard-response","532","843713","0.0-1.0-724.0","0","0","92944","","null","","","null","80","","NaN","","","","","","","","","","","","","",""
"","response","","html-keyboard-response","533","844079","0.0-1.0-725.0-0.0","0","0","92944","","361","","","75","80","","","2","80","training","adjacent","BA","2","1","Q.jpg","P.jpg","0","0","1","",""
"","feedback","","html-keyboard-response","534","845087","0.0-1.0-726.0-0.0","0","0","92944","","null","","","null","80","","","","","","","","","","","","","","","",""
"","ITI","","html-keyboard-response","535","846097","0.0-1.0-729.0","0","0","92944","","null","","","null","80","","","","","","","","","","","","","","","NaN",""
"","S1","","html-keyboard-response","536","846362","0.0-1.0-731.0","0","0","92944","","null","","","null","81","","","","","","","","","","","","","","","",""
"","ISI","","html-keyboard-response","537","847376","0.0-1.0-732.0","0","0","92944","","null","","","null","81","NaN","","","","","","","","","","","","","","",""
"","S2","","html-keyboard-response","538","847642","0.0-1.0-733.0","0","0","92944","","null","","","null","81","","NaN","","","","","","","","","","","","","",""
"","response","","html-keyboard-response","539","847796","0.0-1.0-734.0-0.0","0","0","92944","","149","","","75","81","","","2","81","training","adjacent","BC","2","3","Q.jpg","R.jpg","0","1","0","",""
"","feedback","","html-keyboard-response","540","848810","0.0-1.0-735.0-0.0","0","0","92944","","null","","","null","81","","","","","","","","","","","","","","","",""
"","time_out","","html-keyboard-response","541","850826","0.0-1.0-737.0-0.0","0","0","92944","","null","","","null","81","","","","","","","","","","","","","","","",""
"","ITI","","html-keyboard-response","542","851842","0.0-1.0-738.0","0","0","92944","","null","","","null","81","","","","","","","","","","","","","","","NaN",""
"","S1","","html-keyboard-response","543","852106","0.0-1.0-740.0","0","0","92944","","null","","","null","82","","","","","","","","","","","","","","","",""
"","ISI","","html-keyboard-response","544","853121","0.0-1.0-741.0","0","0","92944","","null","","","null","82","NaN","","","","","","","","","","","","","","",""
"","S2","","html-keyboard-response","545","853385","0.0-1.0-742.0","0","0","92944","","null","","","null","82","","NaN","","","","","","","","","","","","","",""
"","response","","html-keyboard-response","546","853981","0.0-1.0-743.0-0.0","0","0","92944","","591","","","75","82","","","2","82","training","adjacent","FE","6","5","M.jpg","N.jpg","0","0","1","",""
"","feedback","","html-keyboard-response","547","854993","0.0-1.0-744.0-0.0","0","0","92944","","null","","","null","82","","","","","","","","","","","","","","","",""
"","ITI","","html-keyboard-response","548","856010","0.0-1.0-747.0","0","0","92944","","null","","","null","82","","","","","","","","","","","","","","","NaN",""
"","S1","","html-keyboard-response","549","856274","0.0-1.0-749.0","0","0","92944","","null","","","null","83","","","","","","","","","","","","","","","",""
"","ISI","","html-keyboard-response","550","857290","0.0-1.0-750.0","0","0","92944","","null","","","null","83","NaN","","","","","","","","","","","","","","",""
"","S2","","html-keyboard-response","551","857554","0.0-1.0-751.0","0","0","92944","","null","","","null","83","","NaN","","","","","","","","","","","","","",""
"","response","","html-keyboard-response","552","858024","0.0-1.0-752.0-0.0","0","0","92944","","466","","","75","83","","","2","83","training","adjacent","FG","6","7","M.jpg","O.jpg","0","1","0","",""
"","feedback","","html-keyboard-response","553","859043","0.0-1.0-753.0-0.0","0","0","92944","","null","","","null","83","","","","","","","","","","","","","","","",""
"","time_out","","html-keyboard-response","554","861056","0.0-1.0-755.0-0.0","0","0","92944","","null","","","null","83","","","","","","","","","","","","","","","",""
"","ITI","","html-keyboard-response","555","862067","0.0-1.0-756.0","0","0","92944","","null","","","null","83","","","","","","","","","","","","","","","NaN",""
"","S1","","html-keyboard-response","556","862328","0.0-1.0-758.0","0","0","92944","","null","","","null","84","","","","","","","","","","","","","","","",""
"","ISI","","html-keyboard-response","557","863338","0.0-1.0-759.0","0","0","92944","","null","","","null","84","NaN","","","","","","","","","","","","","","",""
"","S2","","html-keyboard-response","558","863603","0.0-1.0-760.0","0","0","92944","","null","","","null","84","","NaN","","","","","","","","","","","","","",""
"","response","","html-keyboard-response","559","864098","0.0-1.0-761.0-0.0","0","0","92944","","489","","","75","84","","","2","84","training","adjacent","GF","7","6","O.jpg","M.jpg","0","0","1","",""
"","feedback","","html-keyboard-response","560","865113","0.0-1.0-762.0-0.0","0","0","92944","","null","","","null","84","","","","","","","","","","","","","","","",""
"","ITI","","html-keyboard-response","561","866127","0.0-1.0-765.0","0","0","92944","","null","","","null","84","","","","","","","","","","","","","","","NaN",""
"","S1","","html-keyboard-response","562","866393","0.0-1.0-767.0","0","0","92944","","null","","","null","85","","","","","","","","","","","","","","","",""
"","ISI","","html-keyboard-response","563","867403","0.0-1.0-768.0","0","0","92944","","null","","","null","85","NaN","","","","","","","","","","","","","","",""
"","S2","","html-keyboard-response","564","867666","0.0-1.0-769.0","0","0","92944","","null","","","null","85","","NaN","","","","","","","","","","","","","",""
"","response","","html-keyboard-response","565","868005","0.0-1.0-770.0-0.0","0","0","92944","","336","","","75","85","","","2","85","training","adjacent","DE","4","5","L.jpg","N.jpg","0","1","0","",""
"","feedback","","html-keyboard-response","566","869018","0.0-1.0-771.0-0.0","0","0","92944","","null","","","null","85","","","","","","","","","","","","","","","",""
"","time_out","","html-keyboard-response","567","871033","0.0-1.0-773.0-0.0","0","0","92944","","null","","","null","85","","","","","","","","","","","","","","","",""
"","ITI","","html-keyboard-response","568","872038","0.0-1.0-774.0","0","0","92944","","null","","","null","85","","","","","","","","","","","","","","","NaN",""
"","S1","","html-keyboard-response","569","872299","0.0-1.0-776.0","0","0","92944","","null","","","null","86","","","","","","","","","","","","","","","",""
"","ISI","","html-keyboard-response","570","873313","0.0-1.0-777.0","0","0","92944","","null","","","null","86","NaN","","","","","","","","","","","","","","",""
"","S2","","html-keyboard-response","571","873579","0.0-1.0-778.0","0","0","92944","","null","","","null","86","","NaN","","","","","","","","","","","","","",""
"","response","","html-keyboard-response","572","873938","0.0-1.0-779.0-0.0","0","0","92944","","354","","","68","86","","","2","86","training","adjacent","AB","1","2","P.jpg","Q.jpg","1","1","1","",""
"","feedback","","html-keyboard-response","573","874954","0.0-1.0-780.0-0.0","0","0","92944","","null","","","null","86","","","","","","","","","","","","","","","",""
"","ITI","","html-keyboard-response","574","875968","0.0-1.0-783.0","0","0","92944","","null","","","null","86","","","","","","","","","","","","","","","NaN",""
"","S1","","html-keyboard-response","575","876233","0.0-1.0-785.0","0","0","92944","","null","","","null","87","","","","","","","","","","","","","","","",""
"","ISI","","html-keyboard-response","576","877241","0.0-1.0-786.0","0","0","92944","","null","","","null","87","NaN","","","","","","","","","","","","","","",""
"","S2","","html-keyboard-response","577","877502","0.0-1.0-787.0","0","0","92944","","null","","","null","87","","NaN","","","","","","","","","","","","","",""
"","response","","html-keyboard-response","578","878061","0.0-1.0-788.0-0.0","0","0","92944","","556","","","68","87","","","2","87","training","adjacent","CD","3","4","R.jpg","L.jpg","1","1","1","",""
"","feedback","","html-keyboard-response","579","879071","0.0-1.0-789.0-0.0","0","0","92944","","null","","","null","87","","","","","","","","","","","","","","","",""
"","ITI","","html-keyboard-response","580","880079","0.0-1.0-792.0","0","0","92944","","null","","","null","87","","","","","","","","","","","","","","","NaN",""
"","S1","","html-keyboard-response","581","880338","0.0-1.0-794.0","0","0","92944","","null","","","null","88","","","","","","","","","","","","","","","",""
"","ISI","","html-keyboard-response","582","881354","0.0-1.0-795.0","0","0","92944","","null","","","null","88","NaN","","","","","","","","","","","","","","",""
