"success","ttype","start_time","trial_type","trial_index","time_elapsed","internal_node_id","warning","missed_checkup","PID","view_history","rt","responses","repeat_instructions","key_press","index","keypress_isi","keypress_S2","block","trial_num","phase","group_type","pair_type","S1_stim","S2_stim","S1_img","S2_img","S1_chosen","S1_higher","accuracy","keypress_iti","total_bonus_tally"
"true","full_screen","d04142023hr1250","fullscreen","0","9600","0.0-0.0","0","0","74847","","","","","","","","","","","","","","","","","","","","","",""
"","instructions","","instructions","1","67935","0.0-1.0-0.0-0.0","0","0","74847","[{""page_index"":0,""viewing_time"":8101},{""page_index"":1,""viewing_time"":37311},{""page_index"":2,""viewing_time"":10792},{""page_index"":3,""viewing_time"":2128}]","58333","","","","","","","","","","","","","","","","","","","",""
"","comprehension_check","","survey-multi-choice","2","88384","0.0-1.0-0.0-1.0","0","0","74847","","20443","{""Q0"":""True"",""Q1"":""K"",""Q2"":""Once the second image appears and while the screen 'MAKE A CHOICE' is shown"",""Q3"":""Green mark"",""Q4"":""either D or K""}","0","","","","","","","","","","","","","","","","","",""
"","start_exp","","html-keyboard-response","3","99146","0.0-1.0-1.0","0","0","74847","","10758","","","32","","","","","","","","","","","","","","","","",""
"","S1","","html-keyboard-response","4","99401","0.0-1.0-2.0","0","0","74847","","null","","","null","0","","","","","","","","","","","","","","","",""
"","ISI","","html-keyboard-response","5","100402","0.0-1.0-3.0","0","0","74847","","null","","","null","0","NaN","","","","","","","","","","","","","","",""
"","S2","","html-keyboard-response","6","100655","0.0-1.0-4.0","0","0","74847","","null","","","null","0","","NaN","","","","","","","","","","","","","",""
"","response","","html-keyboard-response","7","102075","0.0-1.0-5.0-0.0","0","0","74847","","1417","","","68","0","","","1","0","training","adjacent","FE","6","5","M.jpg","N.jpg","0","0","1","",""
"","feedback","","html-keyboard-response","8","103077","0.0-1.0-6.0-0.0","0","0","74847","","null","","","null","0","","","","","","","","","","","","","","","",""
"","ITI","","html-keyboard-response","9","104080","0.0-1.0-9.0","0","0","74847","","null","","","null","0","","","","","","","","","","","","","","","NaN",""
"","S1","","html-keyboard-response","10","104333","0.0-1.0-11.0","0","0","74847","","null","","","null","1","","","","","","","","","","","","","","","",""
"","ISI","","html-keyboard-response","11","105335","0.0-1.0-12.0","0","0","74847","","null","","","null","1","NaN","","","","","","","","","","","","","","",""
"","S2","","html-keyboard-response","12","105589","0.0-1.0-13.0","0","0","74847","","null","","","null","1","","NaN","","","","","","","","","","","","","",""
"","response","","html-keyboard-response","13","107110","0.0-1.0-14.0-0.0","0","0","74847","","1519","","","68","1","","","1","1","training","adjacent","AB","1","2","Q.jpg","R.jpg","0","1","0","",""
"","feedback","","html-keyboard-response","14","108113","0.0-1.0-15.0-0.0","0","0","74847","","null","","","null","1","","","","","","","","","","","","","","","",""
"","time_out","","html-keyboard-response","15","110116","0.0-1.0-17.0-0.0","0","0","74847","","null","","","null","1","","","","","","","","","","","","","","","",""
"","ITI","","html-keyboard-response","16","111118","0.0-1.0-18.0","0","0","74847","","null","","","null","1","","","","","","","","","","","","","","","NaN",""
"","S1","","html-keyboard-response","17","111370","0.0-1.0-20.0","0","0","74847","","null","","","null","2","","","","","","","","","","","","","","","",""
"","ISI","","html-keyboard-response","18","112373","0.0-1.0-21.0","0","0","74847","","null","","","null","2","NaN","","","","","","","","","","","","","","",""
"","S2","","html-keyboard-response","19","112626","0.0-1.0-22.0","0","0","74847","","null","","","null","2","","NaN","","","","","","","","","","","","","",""
"","response","","html-keyboard-response","20","114016","0.0-1.0-23.0-0.0","0","0","74847","","1388","","","75","2","","","1","2","training","adjacent","BC","2","3","R.jpg","L.jpg","1","1","1","",""
"","feedback","","html-keyboard-response","21","115019","0.0-1.0-24.0-0.0","0","0","74847","","null","","","null","2","","","","","","","","","","","","","","","",""
"","ITI","","html-keyboard-response","22","116021","0.0-1.0-27.0","0","0","74847","","null","","","null","2","","","","","","","","","","","","","","","NaN",""
"","S1","","html-keyboard-response","23","116273","0.0-1.0-29.0","0","0","74847","","null","","","null","3","","","","","","","","","","","","","","","",""
"","ISI","","html-keyboard-response","24","117276","0.0-1.0-30.0","0","0","74847","","null","","","null","3","NaN","","","","","","","","","","","","","","",""
"","S2","","html-keyboard-response","25","117529","0.0-1.0-31.0","0","0","74847","","null","","","null","3","","NaN","","","","","","","","","","","","","",""
"","response","","html-keyboard-response","26","119253","0.0-1.0-32.0-0.0","0","0","74847","","1723","","","68","3","","","1","3","training","adjacent","EF","5","6","N.jpg","M.jpg","0","1","0","",""
"","feedback","","html-keyboard-response","27","120256","0.0-1.0-33.0-0.0","0","0","74847","","null","","","null","3","","","","","","","","","","","","","","","",""
"","time_out","","html-keyboard-response","28","122258","0.0-1.0-35.0-0.0","0","0","74847","","null","","","null","3","","","","","","","","","","","","","","","",""
"","ITI","","html-keyboard-response","29","123260","0.0-1.0-36.0","0","0","74847","","null","","","null","3","","","","","","","","","","","","","","","NaN",""
"","S1","","html-keyboard-response","30","123513","0.0-1.0-38.0","0","0","74847","","null","","","null","4","","","","","","","","","","","","","","","",""
"","ISI","","html-keyboard-response","31","124516","0.0-1.0-39.0","0","0","74847","","null","","","null","4","NaN","","","","","","","","","","","","","","",""
"","S2","","html-keyboard-response","32","124769","0.0-1.0-40.0","0","0","74847","","null","","","null","4","","NaN","","","","","","","","","","","","","",""
"","response","","html-keyboard-response","33","125278","0.0-1.0-41.0-0.0","0","0","74847","","507","","","75","4","","","1","4","training","adjacent","DC","4","3","O.jpg","L.jpg","1","0","0","",""
"","feedback","","html-keyboard-response","34","126282","0.0-1.0-42.0-0.0","0","0","74847","","null","","","null","4","","","","","","","","","","","","","","","",""
"","time_out","","html-keyboard-response","35","128284","0.0-1.0-44.0-0.0","0","0","74847","","null","","","null","4","","","","","","","","","","","","","","","",""
"","ITI","","html-keyboard-response","36","129287","0.0-1.0-45.0","0","0","74847","","null","","","null","4","","","","","","","","","","","","","","","NaN",""
"","S1","","html-keyboard-response","37","129539","0.0-1.0-47.0","0","0","74847","","null","","","null","5","","","","","","","","","","","","","","","",""
"","ISI","","html-keyboard-response","38","130542","0.0-1.0-48.0","0","0","74847","","null","","","null","5","NaN","","","","","","","","","","","","","","",""
"","S2","","html-keyboard-response","39","130795","0.0-1.0-49.0","0","0","74847","","null","","","null","5","","NaN","","","","","","","","","","","","","",""
"","response","","html-keyboard-response","40","132239","0.0-1.0-50.0-0.0","0","0","74847","","1442","","","68","5","","","1","5","training","adjacent","CB","3","2","L.jpg","R.jpg","0","0","1","",""
"","feedback","","html-keyboard-response","41","133243","0.0-1.0-51.0-0.0","0","0","74847","","null","","","null","5","","","","","","","","","","","","","","","",""
"","ITI","","html-keyboard-response","42","134246","0.0-1.0-54.0","0","0","74847","","null","","","null","5","","","","","","","","","","","","","","","NaN",""
"","S1","","html-keyboard-response","43","134499","0.0-1.0-56.0","0","0","74847","","null","","","null","6","","","","","","","","","","","","","","","",""
"","ISI","","html-keyboard-response","44","135502","0.0-1.0-57.0","0","0","74847","","null","","","null","6","NaN","","","","","","","","","","","","","","",""
"","S2","","html-keyboard-response","45","135755","0.0-1.0-58.0","0","0","74847","","null","","","null","6","","NaN","","","","","","","","","","","","","",""
"","response","","html-keyboard-response","46","136943","0.0-1.0-59.0-0.0","0","0","74847","","1186","","","75","6","","","1","6","training","adjacent","DC","4","3","O.jpg","L.jpg","1","0","0","",""
"","feedback","","html-keyboard-response","47","137946","0.0-1.0-60.0-0.0","0","0","74847","","null","","","null","6","","","","","","","","","","","","","","","",""
"","time_out","","html-keyboard-response","48","139948","0.0-1.0-62.0-0.0","0","0","74847","","null","","","null","6","","","","","","","","","","","","","","","",""
"","ITI","","html-keyboard-response","49","140950","0.0-1.0-63.0","0","0","74847","","null","","","null","6","","","","","","","","","","","","","","","NaN",""
"","S1","","html-keyboard-response","50","141203","0.0-1.0-65.0","0","0","74847","","null","","","null","7","","","","","","","","","","","","","","","",""
"","ISI","","html-keyboard-response","51","142207","0.0-1.0-66.0","0","0","74847","","null","","","null","7","NaN","","","","","","","","","","","","","","",""
"","S2","","html-keyboard-response","52","142459","0.0-1.0-67.0","0","0","74847","","null","","","null","7","","NaN","","","","","","","","","","","","","",""
"","response","","html-keyboard-response","53","143233","0.0-1.0-68.0-0.0","0","0","74847","","772","","","75","7","","","1","7","training","adjacent","GF","7","6","P.jpg","M.jpg","1","0","0","",""
"","feedback","","html-keyboard-response","54","144235","0.0-1.0-69.0-0.0","0","0","74847","","null","","","null","7","","","","","","","","","","","","","","","",""
"","time_out","","html-keyboard-response","55","146238","0.0-1.0-71.0-0.0","0","0","74847","","null","","","null","7","","","","","","","","","","","","","","","",""
"","ITI","","html-keyboard-response","56","147239","0.0-1.0-72.0","0","0","74847","","null","","","null","7","","","","","","","","","","","","","","","NaN",""
"","S1","","html-keyboard-response","57","147501","0.0-1.0-74.0","0","0","74847","","null","","","null","8","","","","","","","","","","","","","","","",""
"","ISI","","html-keyboard-response","58","148503","0.0-1.0-75.0","0","0","74847","","null","","","null","8","NaN","","","","","","","","","","","","","","",""
"","S2","","html-keyboard-response","59","148756","0.0-1.0-76.0","0","0","74847","","null","","","null","8","","NaN","","","","","","","","","","","","","",""
"","response","","html-keyboard-response","60","149243","0.0-1.0-77.0-0.0","0","0","74847","","485","","","68","8","","","1","8","training","adjacent","FG","6","7","M.jpg","P.jpg","0","1","0","",""
"","feedback","","html-keyboard-response","61","150245","0.0-1.0-78.0-0.0","0","0","74847","","null","","","null","8","","","","","","","","","","","","","","","",""
"","time_out","","html-keyboard-response","62","152247","0.0-1.0-80.0-0.0","0","0","74847","","null","","","null","8","","","","","","","","","","","","","","","",""
"","ITI","","html-keyboard-response","63","153249","0.0-1.0-81.0","0","0","74847","","null","","","null","8","","","","","","","","","","","","","","","NaN",""
"","S1","","html-keyboard-response","64","153504","0.0-1.0-83.0","0","0","74847","","null","","","null","9","","","","","","","","","","","","","","","",""
"","ISI","","html-keyboard-response","65","154506","0.0-1.0-84.0","0","0","74847","","null","","","null","9","NaN","","","","","","","","","","","","","","",""
"","S2","","html-keyboard-response","66","154760","0.0-1.0-85.0","0","0","74847","","null","","","null","9","","NaN","","","","","","","","","","","","","",""
"","response","","html-keyboard-response","67","155454","0.0-1.0-86.0-0.0","0","0","74847","","693","","","68","9","","","1","9","training","adjacent","ED","5","4","N.jpg","O.jpg","0","0","1","",""
"","feedback","","html-keyboard-response","68","156457","0.0-1.0-87.0-0.0","0","0","74847","","null","","","null","9","","","","","","","","","","","","","","","",""
"","ITI","","html-keyboard-response","69","157459","0.0-1.0-90.0","0","0","74847","","null","","","null","9","","","","","","","","","","","","","","","NaN",""
"","S1","","html-keyboard-response","70","157714","0.0-1.0-92.0","0","0","74847","","null","","","null","10","","","","","","","","","","","","","","","",""
"","ISI","","html-keyboard-response","71","158717","0.0-1.0-93.0","0","0","74847","","null","","","null","10","NaN","","","","","","","","","","","","","","",""
"","S2","","html-keyboard-response","72","158970","0.0-1.0-94.0","0","0","74847","","null","","","null","10","","NaN","","","","","","","","","","","","","",""
"","response","","html-keyboard-response","73","159960","0.0-1.0-95.0-0.0","0","0","74847","","988","","","75","10","","","1","10","training","adjacent","FE","6","5","M.jpg","N.jpg","1","0","0","",""
"","feedback","","html-keyboard-response","74","160963","0.0-1.0-96.0-0.0","0","0","74847","","null","","","null","10","","","","","","","","","","","","","","","",""
"","time_out","","html-keyboard-response","75","162966","0.0-1.0-98.0-0.0","0","0","74847","","null","","","null","10","","","","","","","","","","","","","","","",""
"","ITI","","html-keyboard-response","76","163968","0.0-1.0-99.0","0","0","74847","","null","","","null","10","","","","","","","","","","","","","","","NaN",""
"","S1","","html-keyboard-response","77","164221","0.0-1.0-101.0","0","0","74847","","null","","","null","11","","","","","","","","","","","","","","","",""
"","ISI","","html-keyboard-response","78","165223","0.0-1.0-102.0","0","0","74847","","null","","","null","11","NaN","","","","","","","","","","","","","","",""
"","S2","","html-keyboard-response","79","165476","0.0-1.0-103.0","0","0","74847","","null","","","null","11","","NaN","","","","","","","","","","","","","",""
"","response","","html-keyboard-response","80","166117","0.0-1.0-104.0-0.0","0","0","74847","","639","","","68","11","","","1","11","training","adjacent","ED","5","4","N.jpg","O.jpg","0","0","1","",""
"","feedback","","html-keyboard-response","81","167120","0.0-1.0-105.0-0.0","0","0","74847","","null","","","null","11","","","","","","","","","","","","","","","",""
"","ITI","","html-keyboard-response","82","168123","0.0-1.0-108.0","0","0","74847","","null","","","null","11","","","","","","","","","","","","","","","NaN",""
"","S1","","html-keyboard-response","83","168379","0.0-1.0-110.0","0","0","74847","","null","","","null","12","","","","","","","","","","","","","","","",""
"","ISI","","html-keyboard-response","84","169381","0.0-1.0-111.0","0","0","74847","","null","","","null","12","NaN","","","","","","","","","","","","","","",""
"","S2","","html-keyboard-response","85","169634","0.0-1.0-112.0","0","0","74847","","null","","","null","12","","NaN","","","","","","","","","","","","","",""
"","response","","html-keyboard-response","86","170089","0.0-1.0-113.0-0.0","0","0","74847","","452","","","68","12","","","1","12","training","adjacent","CD","3","4","L.jpg","O.jpg","0","1","0","",""
"","feedback","","html-keyboard-response","87","171093","0.0-1.0-114.0-0.0","0","0","74847","","null","","","null","12","","","","","","","","","","","","","","","",""
"","time_out","","html-keyboard-response","88","173095","0.0-1.0-116.0-0.0","0","0","74847","","null","","","null","12","","","","","","","","","","","","","","","",""
"","ITI","","html-keyboard-response","89","174097","0.0-1.0-117.0","0","0","74847","","null","","","null","12","","","","","","","","","","","","","","","NaN",""
"","S1","","html-keyboard-response","90","174349","0.0-1.0-119.0","0","0","74847","","null","","","null","13","","","","","","","","","","","","","","","",""
"","ISI","","html-keyboard-response","91","175351","0.0-1.0-120.0","0","0","74847","","null","","","null","13","NaN","","","","","","","","","","","","","","",""
"","S2","","html-keyboard-response","92","175605","0.0-1.0-121.0","0","0","74847","","null","","","null","13","","NaN","","","","","","","","","","","","","",""
"","response","","html-keyboard-response","93","175897","0.0-1.0-122.0-0.0","0","0","74847","","290","","","75","13","","","1","13","training","adjacent","CD","3","4","L.jpg","O.jpg","1","1","1","",""
"","feedback","","html-keyboard-response","94","176900","0.0-1.0-123.0-0.0","0","0","74847","","null","","","null","13","","","","","","","","","","","","","","","",""
"","ITI","","html-keyboard-response","95","177903","0.0-1.0-126.0","0","0","74847","","null","","","null","13","","","","","","","","","","","","","","","NaN",""
"","S1","","html-keyboard-response","96","178156","0.0-1.0-128.0","0","0","74847","","null","","","null","14","","","","","","","","","","","","","","","",""
"","ISI","","html-keyboard-response","97","179158","0.0-1.0-129.0","0","0","74847","","null","","","null","14","NaN","","","","","","","","","","","","","","",""
"","S2","","html-keyboard-response","98","179411","0.0-1.0-130.0","0","0","74847","","null","","","null","14","","NaN","","","","","","","","","","","","","",""
"","response","","html-keyboard-response","99","179650","0.0-1.0-131.0-0.0","0","0","74847","","236","","","75","14","","","1","14","training","adjacent","AB","1","2","Q.jpg","R.jpg","1","1","1","",""
"","feedback","","html-keyboard-response","100","180653","0.0-1.0-132.0-0.0","0","0","74847","","null","","","null","14","","","","","","","","","","","","","","","",""
"","ITI","","html-keyboard-response","101","181655","0.0-1.0-135.0","0","0","74847","","null","","","null","14","","","","","","","","","","","","","","","NaN",""
"","S1","","html-keyboard-response","102","181908","0.0-1.0-137.0","0","0","74847","","null","","","null","15","","","","","","","","","","","","","","","",""
"","ISI","","html-keyboard-response","103","182909","0.0-1.0-138.0","0","0","74847","","null","","","null","15","NaN","","","","","","","","","","","","","","",""
"","S2","","html-keyboard-response","104","183162","0.0-1.0-139.0","0","0","74847","","null","","","null","15","","NaN","","","","","","","","","","","","","",""
"","response","","html-keyboard-response","105","183966","0.0-1.0-140.0-0.0","0","0","74847","","802","","","68","15","","","1","15","training","adjacent","DC","4","3","O.jpg","L.jpg","0","0","1","",""
"","feedback","","html-keyboard-response","106","184969","0.0-1.0-141.0-0.0","0","0","74847","","null","","","null","15","","","","","","","","","","","","","","","",""
"","ITI","","html-keyboard-response","107","185972","0.0-1.0-144.0","0","0","74847","","null","","","null","15","","","","","","","","","","","","","","","NaN",""
"","S1","","html-keyboard-response","108","186224","0.0-1.0-146.0","0","0","74847","","null","","","null","16","","","","","","","","","","","","","","","",""
"","ISI","","html-keyboard-response","109","187226","0.0-1.0-147.0","0","0","74847","","null","","","null","16","NaN","","","","","","","","","","","","","","",""
"","S2","","html-keyboard-response","110","187478","0.0-1.0-148.0","0","0","74847","","null","","","null","16","","NaN","","","","","","","","","","","","","",""
"","response","","html-keyboard-response","111","188114","0.0-1.0-149.0-0.0","0","0","74847","","634","","","68","16","","","1","16","training","adjacent","FG","6","7","M.jpg","P.jpg","0","1","0","",""
"","feedback","","html-keyboard-response","112","189117","0.0-1.0-150.0-0.0","0","0","74847","","null","","","null","16","","","","","","","","","","","","","","","",""
"","time_out","","html-keyboard-response","113","191119","0.0-1.0-152.0-0.0","0","0","74847","","null","","","null","16","","","","","","","","","","","","","","","",""
"","ITI","","html-keyboard-response","114","192121","0.0-1.0-153.0","0","0","74847","","null","","","null","16","","","","","","","","","","","","","","","NaN",""
"","S1","","html-keyboard-response","115","192373","0.0-1.0-155.0","0","0","74847","","null","","","null","17","","","","","","","","","","","","","","","",""
"","ISI","","html-keyboard-response","116","193375","0.0-1.0-156.0","0","0","74847","","null","","","null","17","NaN","","","","","","","","","","","","","","",""
"","S2","","html-keyboard-response","117","193628","0.0-1.0-157.0","0","0","74847","","null","","","null","17","","NaN","","","","","","","","","","","","","",""
"","response","","html-keyboard-response","118","194075","0.0-1.0-158.0-0.0","0","0","74847","","445","","","68","17","","","1","17","training","adjacent","FG","6","7","M.jpg","P.jpg","0","1","0","",""
"","feedback","","html-keyboard-response","119","195078","0.0-1.0-159.0-0.0","0","0","74847","","null","","","null","17","","","","","","","","","","","","","","","",""
"","time_out","","html-keyboard-response","120","197080","0.0-1.0-161.0-0.0","0","0","74847","","null","","","null","17","","","","","","","","","","","","","","","",""
"","ITI","","html-keyboard-response","121","198083","0.0-1.0-162.0","0","0","74847","","null","","","null","17","","","","","","","","","","","","","","","NaN",""
"","S1","","html-keyboard-response","122","198335","0.0-1.0-164.0","0","0","74847","","null","","","null","18","","","","","","","","","","","","","","","",""
"","ISI","","html-keyboard-response","123","199336","0.0-1.0-165.0","0","0","74847","","null","","","null","18","NaN","","","","","","","","","","","","","","",""
"","S2","","html-keyboard-response","124","199590","0.0-1.0-166.0","0","0","74847","","null","","","null","18","","NaN","","","","","","","","","","","","","",""
"","response","","html-keyboard-response","125","200423","0.0-1.0-167.0-0.0","0","0","74847","","831","","","75","18","","","1","18","training","adjacent","ED","5","4","N.jpg","O.jpg","1","0","0","",""
"","feedback","","html-keyboard-response","126","201426","0.0-1.0-168.0-0.0","0","0","74847","","null","","","null","18","","","","","","","","","","","","","","","",""
"","time_out","","html-keyboard-response","127","203428","0.0-1.0-170.0-0.0","0","0","74847","","null","","","null","18","","","","","","","","","","","","","","","",""
"","ITI","","html-keyboard-response","128","204430","0.0-1.0-171.0","0","0","74847","","null","","","null","18","","","","","","","","","","","","","","","NaN",""
"","S1","","html-keyboard-response","129","204682","0.0-1.0-173.0","0","0","74847","","null","","","null","19","","","","","","","","","","","","","","","",""
"","ISI","","html-keyboard-response","130","205684","0.0-1.0-174.0","0","0","74847","","null","","","null","19","NaN","","","","","","","","","","","","","","",""
"","S2","","html-keyboard-response","131","205938","0.0-1.0-175.0","0","0","74847","","null","","","null","19","","NaN","","","","","","","","","","","","","",""
"","response","","html-keyboard-response","132","206175","0.0-1.0-176.0-0.0","0","0","74847","","235","","","75","19","","","1","19","training","adjacent","BA","2","1","R.jpg","Q.jpg","1","0","0","",""
"","feedback","","html-keyboard-response","133","207178","0.0-1.0-177.0-0.0","0","0","74847","","null","","","null","19","","","","","","","","","","","","","","","",""
"","time_out","","html-keyboard-response","134","209181","0.0-1.0-179.0-0.0","0","0","74847","","null","","","null","19","","","","","","","","","","","","","","","",""
"","ITI","","html-keyboard-response","135","210182","0.0-1.0-180.0","0","0","74847","","null","","","null","19","","","","","","","","","","","","","","","NaN",""
"","S1","","html-keyboard-response","136","210434","0.0-1.0-182.0","0","0","74847","","null","","","null","20","","","","","","","","","","","","","","","",""
"","ISI","","html-keyboard-response","137","211437","0.0-1.0-183.0","0","0","74847","","null","","","null","20","NaN","","","","","","","","","","","","","","",""
"","S2","","html-keyboard-response","138","211689","0.0-1.0-184.0","0","0","74847","","null","","","null","20","","NaN","","","","","","","","","","","","","",""
"","response","","html-keyboard-response","139","212230","0.0-1.0-185.0-0.0","0","0","74847","","539","","","75","20","","","1","20","training","adjacent","DE","4","5","O.jpg","N.jpg","1","1","1","",""
"","feedback","","html-keyboard-response","140","213234","0.0-1.0-186.0-0.0","0","0","74847","","null","","","null","20","","","","","","","","","","","","","","","",""
"","ITI","","html-keyboard-response","141","214236","0.0-1.0-189.0","0","0","74847","","null","","","null","20","","","","","","","","","","","","","","","NaN",""
"","S1","","html-keyboard-response","142","214488","0.0-1.0-191.0","0","0","74847","","null","","","null","21","","","","","","","","","","","","","","","",""
"","ISI","","html-keyboard-response","143","215490","0.0-1.0-192.0","0","0","74847","","null","","","null","21","NaN","","","","","","","","","","","","","","",""
"","S2","","html-keyboard-response","144","215743","0.0-1.0-193.0","0","0","74847","","null","","","null","21","","NaN","","","","","","","","","","","","","",""
"","response","","html-keyboard-response","145","216244","0.0-1.0-194.0-0.0","0","0","74847","","499","","","68","21","","","1","21","training","adjacent","GF","7","6","P.jpg","M.jpg","0","0","1","",""
"","feedback","","html-keyboard-response","146","217246","0.0-1.0-195.0-0.0","0","0","74847","","null","","","null","21","","","","","","","","","","","","","","","",""
"","ITI","","html-keyboard-response","147","218248","0.0-1.0-198.0","0","0","74847","","null","","","null","21","","","","","","","","","","","","","","","NaN",""
"","S1","","html-keyboard-response","148","218501","0.0-1.0-200.0","0","0","74847","","null","","","null","22","","","","","","","","","","","","","","","",""
"","ISI","","html-keyboard-response","149","219503","0.0-1.0-201.0","0","0","74847","","null","","","null","22","NaN","","","","","","","","","","","","","","",""
"","S2","","html-keyboard-response","150","219757","0.0-1.0-202.0","0","0","74847","","null","","","null","22","","NaN","","","","","","","","","","","","","",""
"","response","","html-keyboard-response","151","220138","0.0-1.0-203.0-0.0","0","0","74847","","378","","","68","22","","","1","22","training","adjacent","FE","6","5","M.jpg","N.jpg","0","0","1","",""
"","feedback","","html-keyboard-response","152","221140","0.0-1.0-204.0-0.0","0","0","74847","","null","","","null","22","","","","","","","","","","","","","","","",""
"","ITI","","html-keyboard-response","153","222143","0.0-1.0-207.0","0","0","74847","","null","","","null","22","","","","","","","","","","","","","","","NaN",""
"","S1","","html-keyboard-response","154","222396","0.0-1.0-209.0","0","0","74847","","null","","","null","23","","","","","","","","","","","","","","","",""
"","ISI","","html-keyboard-response","155","223398","0.0-1.0-210.0","0","0","74847","","null","","","null","23","NaN","","","","","","","","","","","","","","",""
"","S2","","html-keyboard-response","156","223651","0.0-1.0-211.0","0","0","74847","","null","","","null","23","","NaN","","","","","","","","","","","","","",""
"","response","","html-keyboard-response","157","224489","0.0-1.0-212.0-0.0","0","0","74847","","836","","","75","23","","","1","23","training","adjacent","CD","3","4","L.jpg","O.jpg","1","1","1","",""
"","feedback","","html-keyboard-response","158","225491","0.0-1.0-213.0-0.0","0","0","74847","","null","","","null","23","","","","","","","","","","","","","","","",""
"","ITI","","html-keyboard-response","159","226494","0.0-1.0-216.0","0","0","74847","","null","","","null","23","","","","","","","","","","","","","","","NaN",""
"","S1","","html-keyboard-response","160","226746","0.0-1.0-218.0","0","0","74847","","null","","","null","24","","","","","","","","","","","","","","","",""
"","ISI","","html-keyboard-response","161","227748","0.0-1.0-219.0","0","0","74847","","null","","","null","24","NaN","","","","","","","","","","","","","","",""
"","S2","","html-keyboard-response","162","228015","0.0-1.0-220.0","0","0","74847","","null","","","null","24","","NaN","","","","","","","","","","","","","",""
"","response","","html-keyboard-response","163","229036","0.0-1.0-221.0-0.0","0","0","74847","","1019","","","68","24","","","1","24","training","adjacent","CB","3","2","L.jpg","R.jpg","0","0","1","",""
"","feedback","","html-keyboard-response","164","230039","0.0-1.0-222.0-0.0","0","0","74847","","null","","","null","24","","","","","","","","","","","","","","","",""
"","ITI","","html-keyboard-response","165","231042","0.0-1.0-225.0","0","0","74847","","null","","","null","24","","","","","","","","","","","","","","","NaN",""
"","S1","","html-keyboard-response","166","231294","0.0-1.0-227.0","0","0","74847","","null","","","null","25","","","","","","","","","","","","","","","",""
"","ISI","","html-keyboard-response","167","232296","0.0-1.0-228.0","0","0","74847","","null","","","null","25","NaN","","","","","","","","","","","","","","",""
"","S2","","html-keyboard-response","168","232549","0.0-1.0-229.0","0","0","74847","","null","","","null","25","","NaN","","","","","","","","","","","","","",""
"","response","","html-keyboard-response","169","233190","0.0-1.0-230.0-0.0","0","0","74847","","639","","","75","25","","","1","25","training","adjacent","DE","4","5","O.jpg","N.jpg","1","1","1","",""
"","feedback","","html-keyboard-response","170","234193","0.0-1.0-231.0-0.0","0","0","74847","","null","","","null","25","","","","","","","","","","","","","","","",""
"","ITI","","html-keyboard-response","171","235195","0.0-1.0-234.0","0","0","74847","","null","","","null","25","","","","","","","","","","","","","","","NaN",""
"","S1","","html-keyboard-response","172","235448","0.0-1.0-236.0","0","0","74847","","null","","","null","26","","","","","","","","","","","","","","","",""
"","ISI","","html-keyboard-response","173","236450","0.0-1.0-237.0","0","0","74847","","null","","","null","26","NaN","","","","","","","","","","","","","","",""
"","S2","","html-keyboard-response","174","236704","0.0-1.0-238.0","0","0","74847","","null","","","null","26","","NaN","","","","","","","","","","","","","",""
"","response","","html-keyboard-response","175","237044","0.0-1.0-239.0-0.0","0","0","74847","","338","","","75","26","","","1","26","training","adjacent","AB","1","2","Q.jpg","R.jpg","1","1","1","",""
"","feedback","","html-keyboard-response","176","238046","0.0-1.0-240.0-0.0","0","0","74847","","null","","","null","26","","","","","","","","","","","","","","","",""
"","ITI","","html-keyboard-response","177","239049","0.0-1.0-243.0","0","0","74847","","null","","","null","26","","","","","","","","","","","","","","","NaN",""
"","S1","","html-keyboard-response","178","239301","0.0-1.0-245.0","0","0","74847","","null","","","null","27","","","","","","","","","","","","","","","",""
"","ISI","","html-keyboard-response","179","240304","0.0-1.0-246.0","0","0","74847","","null","","","null","27","NaN","","","","","","","","","","","","","","",""
"","S2","","html-keyboard-response","180","240557","0.0-1.0-247.0","0","0","74847","","null","","","null","27","","NaN","","","","","","","","","","","","","",""
"","response","","html-keyboard-response","181","241642","0.0-1.0-248.0-0.0","0","0","74847","","1084","","","75","27","","","1","27","training","adjacent","EF","5","6","N.jpg","M.jpg","1","1","1","",""
"","feedback","","html-keyboard-response","182","242645","0.0-1.0-249.0-0.0","0","0","74847","","null","","","null","27","","","","","","","","","","","","","","","",""
"","ITI","","html-keyboard-response","183","243648","0.0-1.0-252.0","0","0","74847","","null","","","null","27","","","","","","","","","","","","","","","NaN",""
"","S1","","html-keyboard-response","184","243900","0.0-1.0-254.0","0","0","74847","","null","","","null","28","","","","","","","","","","","","","","","",""
"","ISI","","html-keyboard-response","185","244903","0.0-1.0-255.0","0","0","74847","","null","","","null","28","NaN","","","","","","","","","","","","","","",""
"","S2","","html-keyboard-response","186","245156","0.0-1.0-256.0","0","0","74847","","null","","","null","28","","NaN","","","","","","","","","","","","","",""
"","response","","html-keyboard-response","187","245517","0.0-1.0-257.0-0.0","0","0","74847","","359","","","68","28","","","1","28","training","adjacent","GF","7","6","P.jpg","M.jpg","0","0","1","",""
"","feedback","","html-keyboard-response","188","246520","0.0-1.0-258.0-0.0","0","0","74847","","null","","","null","28","","","","","","","","","","","","","","","",""
"","ITI","","html-keyboard-response","189","247523","0.0-1.0-261.0","0","0","74847","","null","","","null","28","","","","","","","","","","","","","","","NaN",""
"","S1","","html-keyboard-response","190","247775","0.0-1.0-263.0","0","0","74847","","null","","","null","29","","","","","","","","","","","","","","","",""
"","ISI","","html-keyboard-response","191","248778","0.0-1.0-264.0","0","0","74847","","null","","","null","29","NaN","","","","","","","","","","","","","","",""
"","S2","","html-keyboard-response","192","249031","0.0-1.0-265.0","0","0","74847","","null","","","null","29","","NaN","","","","","","","","","","","","","",""
"","response","","html-keyboard-response","193","249383","0.0-1.0-266.0-0.0","0","0","74847","","349","","","75","29","","","1","29","training","adjacent","DE","4","5","O.jpg","N.jpg","1","1","1","",""
"","feedback","","html-keyboard-response","194","250386","0.0-1.0-267.0-0.0","0","0","74847","","null","","","null","29","","","","","","","","","","","","","","","",""
"","ITI","","html-keyboard-response","195","251388","0.0-1.0-270.0","0","0","74847","","null","","","null","29","","","","","","","","","","","","","","","NaN",""
"","S1","","html-keyboard-response","196","251640","0.0-1.0-272.0","0","0","74847","","null","","","null","30","","","","","","","","","","","","","","","",""
"","ISI","","html-keyboard-response","197","252643","0.0-1.0-273.0","0","0","74847","","null","","","null","30","NaN","","","","","","","","","","","","","","",""
"","S2","","html-keyboard-response","198","252896","0.0-1.0-274.0","0","0","74847","","null","","","null","30","","NaN","","","","","","","","","","","","","",""
"","response","","html-keyboard-response","199","253624","0.0-1.0-275.0-0.0","0","0","74847","","727","","","75","30","","","1","30","training","adjacent","BA","2","1","R.jpg","Q.jpg","1","0","0","",""
"","feedback","","html-keyboard-response","200","254626","0.0-1.0-276.0-0.0","0","0","74847","","null","","","null","30","","","","","","","","","","","","","","","",""
"","time_out","","html-keyboard-response","201","256629","0.0-1.0-278.0-0.0","0","0","74847","","null","","","null","30","","","","","","","","","","","","","","","",""
"","ITI","","html-keyboard-response","202","257632","0.0-1.0-279.0","0","0","74847","","null","","","null","30","","","","","","","","","","","","","","","NaN",""
"","S1","","html-keyboard-response","203","257885","0.0-1.0-281.0","0","0","74847","","null","","","null","31","","","","","","","","","","","","","","","",""
"","ISI","","html-keyboard-response","204","258887","0.0-1.0-282.0","0","0","74847","","null","","","null","31","NaN","","","","","","","","","","","","","","",""
"","S2","","html-keyboard-response","205","259140","0.0-1.0-283.0","0","0","74847","","null","","","null","31","","NaN","","","","","","","","","","","","","",""
"","response","","html-keyboard-response","206","259647","0.0-1.0-284.0-0.0","0","0","74847","","505","","","75","31","","","1","31","training","adjacent","CB","3","2","L.jpg","R.jpg","1","0","0","",""
"","feedback","","html-keyboard-response","207","260650","0.0-1.0-285.0-0.0","0","0","74847","","null","","","null","31","","","","","","","","","","","","","","","",""
"","time_out","","html-keyboard-response","208","262653","0.0-1.0-287.0-0.0","0","0","74847","","null","","","null","31","","","","","","","","","","","","","","","",""
"","ITI","","html-keyboard-response","209","263656","0.0-1.0-288.0","0","0","74847","","null","","","null","31","","","","","","","","","","","","","","","NaN",""
"","S1","","html-keyboard-response","210","263908","0.0-1.0-290.0","0","0","74847","","null","","","null","32","","","","","","","","","","","","","","","",""
"","ISI","","html-keyboard-response","211","264911","0.0-1.0-291.0","0","0","74847","","null","","","null","32","NaN","","","","","","","","","","","","","","",""
"","S2","","html-keyboard-response","212","265164","0.0-1.0-292.0","0","0","74847","","null","","","null","32","","NaN","","","","","","","","","","","","","",""
"","response","","html-keyboard-response","213","265574","0.0-1.0-293.0-0.0","0","0","74847","","408","","","68","32","","","1","32","training","adjacent","CD","3","4","L.jpg","O.jpg","0","1","0","",""
"","feedback","","html-keyboard-response","214","266577","0.0-1.0-294.0-0.0","0","0","74847","","null","","","null","32","","","","","","","","","","","","","","","",""
"","time_out","","html-keyboard-response","215","268579","0.0-1.0-296.0-0.0","0","0","74847","","null","","","null","32","","","","","","","","","","","","","","","",""
"","ITI","","html-keyboard-response","216","269581","0.0-1.0-297.0","0","0","74847","","null","","","null","32","","","","","","","","","","","","","","","NaN",""
"","S1","","html-keyboard-response","217","269834","0.0-1.0-299.0","0","0","74847","","null","","","null","33","","","","","","","","","","","","","","","",""
"","ISI","","html-keyboard-response","218","270836","0.0-1.0-300.0","0","0","74847","","null","","","null","33","NaN","","","","","","","","","","","","","","",""
"","S2","","html-keyboard-response","219","271089","0.0-1.0-301.0","0","0","74847","","null","","","null","33","","NaN","","","","","","","","","","","","","",""
"","response","","html-keyboard-response","220","271164","0.0-1.0-302.0-0.0","0","0","74847","","73","","","68","33","","","1","33","training","adjacent","BC","2","3","R.jpg","L.jpg","0","1","0","",""
"","feedback","","html-keyboard-response","221","272166","0.0-1.0-303.0-0.0","0","0","74847","","null","","","null","33","","","","","","","","","","","","","","","",""
"","time_out","","html-keyboard-response","222","274170","0.0-1.0-305.0-0.0","0","0","74847","","null","","","null","33","","","","","","","","","","","","","","","",""
"","ITI","","html-keyboard-response","223","275172","0.0-1.0-306.0","0","0","74847","","null","","","null","33","","","","","","","","","","","","","","","NaN",""
"","S1","","html-keyboard-response","224","275424","0.0-1.0-308.0","0","0","74847","","null","","","null","34","","","","","","","","","","","","","","","",""
"","ISI","","html-keyboard-response","225","276427","0.0-1.0-309.0","0","0","74847","","null","","","null","34","NaN","","","","","","","","","","","","","","",""
"","S2","","html-keyboard-response","226","276680","0.0-1.0-310.0","0","0","74847","","null","","","null","34","","NaN","","","","","","","","","","","","","",""
"","response","","html-keyboard-response","227","277167","0.0-1.0-311.0-0.0","0","0","74847","","484","","","68","34","","","1","34","training","adjacent","AB","1","2","Q.jpg","R.jpg","0","1","0","",""
"","feedback","","html-keyboard-response","228","278170","0.0-1.0-312.0-0.0","0","0","74847","","null","","","null","34","","","","","","","","","","","","","","","",""
"","time_out","","html-keyboard-response","229","280173","0.0-1.0-314.0-0.0","0","0","74847","","null","","","null","34","","","","","","","","","","","","","","","",""
"","ITI","","html-keyboard-response","230","281175","0.0-1.0-315.0","0","0","74847","","null","","","null","34","","","","","","","","","","","","","","","NaN",""
"","S1","","html-keyboard-response","231","281428","0.0-1.0-317.0","0","0","74847","","null","","","null","35","","","","","","","","","","","","","","","",""
"","ISI","","html-keyboard-response","232","282431","0.0-1.0-318.0","0","0","74847","","null","","","null","35","NaN","","","","","","","","","","","","","","",""
"","S2","","html-keyboard-response","233","282683","0.0-1.0-319.0","0","0","74847","","null","","","null","35","","NaN","","","","","","","","","","","","","",""
"","response","","html-keyboard-response","234","283029","0.0-1.0-320.0-0.0","0","0","74847","","343","","","68","35","","","1","35","training","adjacent","DC","4","3","O.jpg","L.jpg","0","0","1","",""
"","feedback","","html-keyboard-response","235","284031","0.0-1.0-321.0-0.0","0","0","74847","","null","","","null","35","","","","","","","","","","","","","","","",""
"","ITI","","html-keyboard-response","236","285033","0.0-1.0-324.0","0","0","74847","","null","","","null","35","","","","","","","","","","","","","","","NaN",""
"","S1","","html-keyboard-response","237","285286","0.0-1.0-326.0","0","0","74847","","null","","","null","36","","","","","","","","","","","","","","","",""
"","ISI","","html-keyboard-response","238","286288","0.0-1.0-327.0","0","0","74847","","null","","","null","36","NaN","","","","","","","","","","","","","","",""
"","S2","","html-keyboard-response","239","286541","0.0-1.0-328.0","0","0","74847","","null","","","null","36","","NaN","","","","","","","","","","","","","",""
"","response","","html-keyboard-response","240","287059","0.0-1.0-329.0-0.0","0","0","74847","","517","","","75","36","","","1","36","training","adjacent","FE","6","5","M.jpg","N.jpg","1","0","0","",""
"","feedback","","html-keyboard-response","241","288063","0.0-1.0-330.0-0.0","0","0","74847","","null","","","null","36","","","","","","","","","","","","","","","",""
"","time_out","","html-keyboard-response","242","290065","0.0-1.0-332.0-0.0","0","0","74847","","null","","","null","36","","","","","","","","","","","","","","","",""
"","ITI","","html-keyboard-response","243","291068","0.0-1.0-333.0","0","0","74847","","null","","","null","36","","","","","","","","","","","","","","","NaN",""
"","S1","","html-keyboard-response","244","291320","0.0-1.0-335.0","0","0","74847","","null","","","null","37","","","","","","","","","","","","","","","",""
"","ISI","","html-keyboard-response","245","292323","0.0-1.0-336.0","0","0","74847","","null","","","null","37","NaN","","","","","","","","","","","","","","",""
"","S2","","html-keyboard-response","246","292576","0.0-1.0-337.0","0","0","74847","","null","","","null","37","","NaN","","","","","","","","","","","","","",""
"","response","","html-keyboard-response","247","292702","0.0-1.0-338.0-0.0","0","0","74847","","124","","","75","37","","","1","37","training","adjacent","EF","5","6","N.jpg","M.jpg","1","1","1","",""
"","feedback","","html-keyboard-response","248","293704","0.0-1.0-339.0-0.0","0","0","74847","","null","","","null","37","","","","","","","","","","","","","","","",""
"","ITI","","html-keyboard-response","249","294706","0.0-1.0-342.0","0","0","74847","","null","","","null","37","","","","","","","","","","","","","","","NaN",""
"","S1","","html-keyboard-response","250","294959","0.0-1.0-344.0","0","0","74847","","null","","","null","38","","","","","","","","","","","","","","","",""
"","ISI","","html-keyboard-response","251","295962","0.0-1.0-345.0","0","0","74847","","null","","","null","38","NaN","","","","","","","","","","","","","","",""
"","S2","","html-keyboard-response","252","296216","0.0-1.0-346.0","0","0","74847","","null","","","null","38","","NaN","","","","","","","","","","","","","",""
"","response","","html-keyboard-response","253","296488","0.0-1.0-347.0-0.0","0","0","74847","","270","","","68","38","","","1","38","training","adjacent","FG","6","7","M.jpg","P.jpg","0","1","0","",""
"","feedback","","html-keyboard-response","254","297491","0.0-1.0-348.0-0.0","0","0","74847","","null","","","null","38","","","","","","","","","","","","","","","",""
"","time_out","","html-keyboard-response","255","299493","0.0-1.0-350.0-0.0","0","0","74847","","null","","","null","38","","","","","","","","","","","","","","","",""
"","ITI","","html-keyboard-response","256","300496","0.0-1.0-351.0","0","0","74847","","null","","","null","38","","","","","","","","","","","","","","","NaN",""
"","S1","","html-keyboard-response","257","300749","0.0-1.0-353.0","0","0","74847","","null","","","null","39","","","","","","","","","","","","","","","",""
"","ISI","","html-keyboard-response","258","301751","0.0-1.0-354.0","0","0","74847","","null","","","null","39","NaN","","","","","","","","","","","","","","",""
"","S2","","html-keyboard-response","259","302004","0.0-1.0-355.0","0","0","74847","","null","","","null","39","","NaN","","","","","","","","","","","","","",""
"","response","","html-keyboard-response","260","302524","0.0-1.0-356.0-0.0","0","0","74847","","518","","","68","39","","","1","39","training","adjacent","BA","2","1","R.jpg","Q.jpg","0","0","1","",""
"","feedback","","html-keyboard-response","261","303527","0.0-1.0-357.0-0.0","0","0","74847","","null","","","null","39","","","","","","","","","","","","","","","",""
"","ITI","","html-keyboard-response","262","304528","0.0-1.0-360.0","0","0","74847","","null","","","null","39","","","","","","","","","","","","","","","NaN",""
"","S1","","html-keyboard-response","263","304780","0.0-1.0-362.0","0","0","74847","","null","","","null","40","","","","","","","","","","","","","","","",""
"","ISI","","html-keyboard-response","264","305783","0.0-1.0-363.0","0","0","74847","","null","","","null","40","NaN","","","","","","","","","","","","","","",""
"","S2","","html-keyboard-response","265","306036","0.0-1.0-364.0","0","0","74847","","null","","","null","40","","NaN","","","","","","","","","","","","","",""
"","response","","html-keyboard-response","266","306441","0.0-1.0-365.0-0.0","0","0","74847","","404","","","68","40","","","1","40","training","adjacent","ED","5","4","N.jpg","O.jpg","0","0","1","",""
"","feedback","","html-keyboard-response","267","307443","0.0-1.0-366.0-0.0","0","0","74847","","null","","","null","40","","","","","","","","","","","","","","","",""
"","ITI","","html-keyboard-response","268","308445","0.0-1.0-369.0","0","0","74847","","null","","","null","40","","","","","","","","","","","","","","","NaN",""
"","S1","","html-keyboard-response","269","308698","0.0-1.0-371.0","0","0","74847","","null","","","null","41","","","","","","","","","","","","","","","",""
"","ISI","","html-keyboard-response","270","309700","0.0-1.0-372.0","0","0","74847","","null","","","null","41","NaN","","","","","","","","","","","","","","",""
"","S2","","html-keyboard-response","271","309953","0.0-1.0-373.0","0","0","74847","","null","","","null","41","","NaN","","","","","","","","","","","","","",""
"","response","","html-keyboard-response","272","310144","0.0-1.0-374.0-0.0","0","0","74847","","189","","","75","41","","","1","41","training","adjacent","CB","3","2","L.jpg","R.jpg","1","0","0","",""
"","feedback","","html-keyboard-response","273","311149","0.0-1.0-375.0-0.0","0","0","74847","","null","","","null","41","","","","","","","","","","","","","","","",""
"","time_out","","html-keyboard-response","274","313151","0.0-1.0-377.0-0.0","0","0","74847","","null","","","null","41","","","","","","","","","","","","","","","",""
"","ITI","","html-keyboard-response","275","314154","0.0-1.0-378.0","0","0","74847","","null","","","null","41","","","","","","","","","","","","","","","NaN",""
"","S1","","html-keyboard-response","276","314405","0.0-1.0-380.0","0","0","74847","","null","","","null","42","","","","","","","","","","","","","","","",""
"","ISI","","html-keyboard-response","277","315408","0.0-1.0-381.0","0","0","74847","","null","","","null","42","NaN","","","","","","","","","","","","","","",""
"","S2","","html-keyboard-response","278","315661","0.0-1.0-382.0","0","0","74847","","null","","","null","42","","NaN","","","","","","","","","","","","","",""
"","response","","html-keyboard-response","279","315842","0.0-1.0-383.0-0.0","0","0","74847","","179","","","75","42","","","1","42","training","adjacent","GF","7","6","P.jpg","M.jpg","1","0","0","",""
"","feedback","","html-keyboard-response","280","316844","0.0-1.0-384.0-0.0","0","0","74847","","null","","","null","42","","","","","","","","","","","","","","","",""
"","time_out","","html-keyboard-response","281","318847","0.0-1.0-386.0-0.0","0","0","74847","","null","","","null","42","","","","","","","","","","","","","","","",""
"","ITI","","html-keyboard-response","282","319849","0.0-1.0-387.0","0","0","74847","","null","","","null","42","","","","","","","","","","","","","","","NaN",""
"","S1","","html-keyboard-response","283","320101","0.0-1.0-389.0","0","0","74847","","null","","","null","43","","","","","","","","","","","","","","","",""
"","ISI","","html-keyboard-response","284","321104","0.0-1.0-390.0","0","0","74847","","null","","","null","43","NaN","","","","","","","","","","","","","","",""
"","S2","","html-keyboard-response","285","321356","0.0-1.0-391.0","0","0","74847","","null","","","null","43","","NaN","","","","","","","","","","","","","",""
"","response","","html-keyboard-response","286","321957","0.0-1.0-392.0-0.0","0","0","74847","","599","","","68","43","","","1","43","training","adjacent","BA","2","1","R.jpg","Q.jpg","0","0","1","",""
"","feedback","","html-keyboard-response","287","322960","0.0-1.0-393.0-0.0","0","0","74847","","null","","","null","43","","","","","","","","","","","","","","","",""
"","ITI","","html-keyboard-response","288","323963","0.0-1.0-396.0","0","0","74847","","null","","","null","43","","","","","","","","","","","","","","","NaN",""
"","S1","","html-keyboard-response","289","324216","0.0-1.0-398.0","0","0","74847","","null","","","null","44","","","","","","","","","","","","","","","",""
"","ISI","","html-keyboard-response","290","325218","0.0-1.0-399.0","0","0","74847","","null","","","null","44","NaN","","","","","","","","","","","","","","",""
"","S2","","html-keyboard-response","291","325471","0.0-1.0-400.0","0","0","74847","","null","","","null","44","","NaN","","","","","","","","","","","","","",""
"","response","","html-keyboard-response","292","326128","0.0-1.0-401.0-0.0","0","0","74847","","655","","","68","44","","","1","44","training","adjacent","BC","2","3","R.jpg","L.jpg","0","1","0","",""
"","feedback","","html-keyboard-response","293","327131","0.0-1.0-402.0-0.0","0","0","74847","","null","","","null","44","","","","","","","","","","","","","","","",""
"","time_out","","html-keyboard-response","294","329134","0.0-1.0-404.0-0.0","0","0","74847","","null","","","null","44","","","","","","","","","","","","","","","",""
"","ITI","","html-keyboard-response","295","330137","0.0-1.0-405.0","0","0","74847","","null","","","null","44","","","","","","","","","","","","","","","NaN",""
"","S1","","html-keyboard-response","296","330389","0.0-1.0-407.0","0","0","74847","","null","","","null","45","","","","","","","","","","","","","","","",""
"","ISI","","html-keyboard-response","297","331391","0.0-1.0-408.0","0","0","74847","","null","","","null","45","NaN","","","","","","","","","","","","","","",""
"","S2","","html-keyboard-response","298","331644","0.0-1.0-409.0","0","0","74847","","null","","","null","45","","NaN","","","","","","","","","","","","","",""
"","response","","html-keyboard-response","299","331935","0.0-1.0-410.0-0.0","0","0","74847","","288","","","75","45","","","1","45","training","adjacent","DE","4","5","O.jpg","N.jpg","1","1","1","",""
"","feedback","","html-keyboard-response","300","332938","0.0-1.0-411.0-0.0","0","0","74847","","null","","","null","45","","","","","","","","","","","","","","","",""
"","ITI","","html-keyboard-response","301","333940","0.0-1.0-414.0","0","0","74847","","null","","","null","45","","","","","","","","","","","","","","","NaN",""
"","S1","","html-keyboard-response","302","334192","0.0-1.0-416.0","0","0","74847","","null","","","null","46","","","","","","","","","","","","","","","",""
"","ISI","","html-keyboard-response","303","335194","0.0-1.0-417.0","0","0","74847","","null","","","null","46","NaN","","","","","","","","","","","","","","",""
"","S2","","html-keyboard-response","304","335446","0.0-1.0-418.0","0","0","74847","","null","","","null","46","","NaN","","","","","","","","","","","","","",""
"","response","","html-keyboard-response","305","335834","0.0-1.0-419.0-0.0","0","0","74847","","386","","","75","46","","","1","46","training","adjacent","EF","5","6","N.jpg","M.jpg","1","1","1","",""
"","feedback","","html-keyboard-response","306","336837","0.0-1.0-420.0-0.0","0","0","74847","","null","","","null","46","","","","","","","","","","","","","","","",""
"","ITI","","html-keyboard-response","307","337839","0.0-1.0-423.0","0","0","74847","","null","","","null","46","","","","","","","","","","","","","","","NaN",""
"","S1","","html-keyboard-response","308","338092","0.0-1.0-425.0","0","0","74847","","null","","","null","47","","","","","","","","","","","","","","","",""
"","ISI","","html-keyboard-response","309","339094","0.0-1.0-426.0","0","0","74847","","null","","","null","47","NaN","","","","","","","","","","","","","","",""
"","S2","","html-keyboard-response","310","339348","0.0-1.0-427.0","0","0","74847","","null","","","null","47","","NaN","","","","","","","","","","","","","",""
"","response","","html-keyboard-response","311","339718","0.0-1.0-428.0-0.0","0","0","74847","","367","","","68","47","","","1","47","training","adjacent","BC","2","3","R.jpg","L.jpg","0","1","0","",""
"","feedback","","html-keyboard-response","312","340721","0.0-1.0-429.0-0.0","0","0","74847","","null","","","null","47","","","","","","","","","","","","","","","",""
"","time_out","","html-keyboard-response","313","342724","0.0-1.0-431.0-0.0","0","0","74847","","null","","","null","47","","","","","","","","","","","","","","","",""
"","ITI","","html-keyboard-response","314","343727","0.0-1.0-432.0","0","0","74847","","null","","","null","47","","","","","","","","","","","","","","","NaN",""
"","block_over","","html-keyboard-response","315","351422","0.0-1.0-433.0-0.0","0","0","74847","","7692","","","32","47","","","","","","","","","","","","","","","",""
"","S1","","html-keyboard-response","316","351675","0.0-1.0-434.0","0","0","74847","","null","","","null","48","","","","","","","","","","","","","","","",""
"","ISI","","html-keyboard-response","317","352676","0.0-1.0-435.0","0","0","74847","","null","","","null","48","NaN","","","","","","","","","","","","","","",""
"","S2","","html-keyboard-response","318","352930","0.0-1.0-436.0","0","0","74847","","null","","","null","48","","NaN","","","","","","","","","","","","","",""
"","response","","html-keyboard-response","319","353400","0.0-1.0-437.0-0.0","0","0","74847","","468","","","75","48","","","2","48","training","adjacent","CD","3","4","L.jpg","O.jpg","1","1","1","",""
"","feedback","","html-keyboard-response","320","354403","0.0-1.0-438.0-0.0","0","0","74847","","null","","","null","48","","","","","","","","","","","","","","","",""
"","ITI","","html-keyboard-response","321","355406","0.0-1.0-441.0","0","0","74847","","null","","","null","48","","","","","","","","","","","","","","","NaN",""
"","S1","","html-keyboard-response","322","355659","0.0-1.0-443.0","0","0","74847","","null","","","null","49","","","","","","","","","","","","","","","",""
"","ISI","","html-keyboard-response","323","356661","0.0-1.0-444.0","0","0","74847","","null","","","null","49","NaN","","","","","","","","","","","","","","",""
"","S2","","html-keyboard-response","324","356913","0.0-1.0-445.0","0","0","74847","","null","","","null","49","","NaN","","","","","","","","","","","","","",""
"","response","","html-keyboard-response","325","357138","0.0-1.0-446.0-0.0","0","0","74847","","223","","","75","49","","","2","49","training","adjacent","AB","1","2","Q.jpg","R.jpg","1","1","1","",""
"","feedback","","html-keyboard-response","326","358140","0.0-1.0-447.0-0.0","0","0","74847","","null","","","null","49","","","","","","","","","","","","","","","",""
"","ITI","","html-keyboard-response","327","359143","0.0-1.0-450.0","0","0","74847","","null","","","null","49","","","","","","","","","","","","","","","NaN",""
"","S1","","html-keyboard-response","328","359395","0.0-1.0-452.0","0","0","74847","","null","","","null","50","","","","","","","","","","","","","","","",""
"","ISI","","html-keyboard-response","329","360399","0.0-1.0-453.0","0","0","74847","","null","","","null","50","NaN","","","","","","","","","","","","","","",""
"","S2","","html-keyboard-response","330","360652","0.0-1.0-454.0","0","0","74847","","null","","","null","50","","NaN","","","","","","","","","","","","","",""
"","response","","html-keyboard-response","331","361060","0.0-1.0-455.0-0.0","0","0","74847","","406","","","75","50","","","2","50","training","adjacent","BA","2","1","R.jpg","Q.jpg","1","0","0","",""
"","feedback","","html-keyboard-response","332","362063","0.0-1.0-456.0-0.0","0","0","74847","","null","","","null","50","","","","","","","","","","","","","","","",""
"","time_out","","html-keyboard-response","333","364066","0.0-1.0-458.0-0.0","0","0","74847","","null","","","null","50","","","","","","","","","","","","","","","",""
"","ITI","","html-keyboard-response","334","365069","0.0-1.0-459.0","0","0","74847","","null","","","null","50","","","","","","","","","","","","","","","NaN",""
"","S1","","html-keyboard-response","335","365322","0.0-1.0-461.0","0","0","74847","","null","","","null","51","","","","","","","","","","","","","","","",""
"","ISI","","html-keyboard-response","336","366324","0.0-1.0-462.0","0","0","74847","","null","","","null","51","NaN","","","","","","","","","","","","","","",""
"","S2","","html-keyboard-response","337","366578","0.0-1.0-463.0","0","0","74847","","null","","","null","51","","NaN","","","","","","","","","","","","","",""
"","response","","html-keyboard-response","338","366766","0.0-1.0-464.0-0.0","0","0","74847","","186","","","68","51","","","2","51","training","adjacent","DE","4","5","O.jpg","N.jpg","0","1","0","",""
"","feedback","","html-keyboard-response","339","367770","0.0-1.0-465.0-0.0","0","0","74847","","null","","","null","51","","","","","","","","","","","","","","","",""
"","time_out","","html-keyboard-response","340","369772","0.0-1.0-467.0-0.0","0","0","74847","","null","","","null","51","","","","","","","","","","","","","","","",""
"","ITI","","html-keyboard-response","341","370774","0.0-1.0-468.0","0","0","74847","","null","","","null","51","","","","","","","","","","","","","","","NaN",""
"","S1","","html-keyboard-response","342","371026","0.0-1.0-470.0","0","0","74847","","null","","","null","52","","","","","","","","","","","","","","","",""
"","ISI","","html-keyboard-response","343","372028","0.0-1.0-471.0","0","0","74847","","null","","","null","52","NaN","","","","","","","","","","","","","","",""
"","S2","","html-keyboard-response","344","372289","0.0-1.0-472.0","0","0","74847","","null","","","null","52","","NaN","","","","","","","","","","","","","",""
"","response","","html-keyboard-response","345","372322","0.0-1.0-473.0-0.0","0","0","74847","","31","","","75","52","","","2","52","training","adjacent","DC","4","3","O.jpg","L.jpg","1","0","0","",""
"","feedback","","html-keyboard-response","346","373326","0.0-1.0-474.0-0.0","0","0","74847","","null","","","null","52","","","","","","","","","","","","","","","",""
"","time_out","","html-keyboard-response","347","375329","0.0-1.0-476.0-0.0","0","0","74847","","null","","","null","52","","","","","","","","","","","","","","","",""
"","ITI","","html-keyboard-response","348","376332","0.0-1.0-477.0","0","0","74847","","null","","","null","52","","","","","","","","","","","","","","","NaN",""
"","S1","","html-keyboard-response","349","376585","0.0-1.0-479.0","0","0","74847","","null","","","null","53","","","","","","","","","","","","","","","",""
"","ISI","","html-keyboard-response","350","377588","0.0-1.0-480.0","0","0","74847","","null","","","null","53","NaN","","","","","","","","","","","","","","",""
"","S2","","html-keyboard-response","351","377841","0.0-1.0-481.0","0","0","74847","","null","","","null","53","","NaN","","","","","","","","","","","","","",""
"","response","","html-keyboard-response","352","377932","0.0-1.0-482.0-0.0","0","0","74847","","89","","","75","53","","","2","53","training","adjacent","FG","6","7","M.jpg","P.jpg","1","1","1","",""
"","feedback","","html-keyboard-response","353","378936","0.0-1.0-483.0-0.0","0","0","74847","","null","","","null","53","","","","","","","","","","","","","","","",""
"","ITI","","html-keyboard-response","354","379939","0.0-1.0-486.0","0","0","74847","","null","","","null","53","","","","","","","","","","","","","","","NaN",""
"","S1","","html-keyboard-response","355","380191","0.0-1.0-488.0","0","0","74847","","null","","","null","54","","","","","","","","","","","","","","","",""
"","ISI","","html-keyboard-response","356","381193","0.0-1.0-489.0","0","0","74847","","null","","","null","54","NaN","","","","","","","","","","","","","","",""
"","S2","","html-keyboard-response","357","381447","0.0-1.0-490.0","0","0","74847","","null","","","null","54","","NaN","","","","","","","","","","","","","",""
"","response","","html-keyboard-response","358","381924","0.0-1.0-491.0-0.0","0","0","74847","","475","","","75","54","","","2","54","training","adjacent","ED","5","4","N.jpg","O.jpg","1","0","0","",""
"","feedback","","html-keyboard-response","359","382927","0.0-1.0-492.0-0.0","0","0","74847","","null","","","null","54","","","","","","","","","","","","","","","",""
"","time_out","","html-keyboard-response","360","384930","0.0-1.0-494.0-0.0","0","0","74847","","null","","","null","54","","","","","","","","","","","","","","","",""
"","ITI","","html-keyboard-response","361","385932","0.0-1.0-495.0","0","0","74847","","null","","","null","54","","","","","","","","","","","","","","","NaN",""
"","S1","","html-keyboard-response","362","386185","0.0-1.0-497.0","0","0","74847","","null","","","null","55","","","","","","","","","","","","","","","",""
"","ISI","","html-keyboard-response","363","387187","0.0-1.0-498.0","0","0","74847","","null","","","null","55","NaN","","","","","","","","","","","","","","",""
"","S2","","html-keyboard-response","364","387400","0.0-1.0-499.0","0","0","74847","","209","","","68","55","","d","2","55","training","adjacent","BC","2","3","R.jpg","L.jpg","0","1","0","",""
"","feedback","","html-keyboard-response","365","388404","0.0-1.0-501.0-0.0","0","0","74847","","null","","","null","55","","","","","","","","","","","","","","","",""
"","time_out","","html-keyboard-response","366","390407","0.0-1.0-503.0-0.0","0","0","74847","","null","","","null","55","","","","","","","","","","","","","","","",""
"","ITI","","html-keyboard-response","367","391409","0.0-1.0-504.0","0","0","74847","","null","","","null","55","","","","","","","","","","","","","","","NaN",""
"","S1","","html-keyboard-response","368","391662","0.0-1.0-506.0","0","0","74847","","null","","","null","56","","","","","","","","","","","","","","","",""
"","ISI","","html-keyboard-response","369","392664","0.0-1.0-507.0","0","0","74847","","null","","","null","56","NaN","","","","","","","","","","","","","","",""
"","S2","","html-keyboard-response","370","392918","0.0-1.0-508.0","0","0","74847","","null","","","null","56","","NaN","","","","","","","","","","","","","",""
"","response","","html-keyboard-response","371","392955","0.0-1.0-509.0-0.0","0","0","74847","","35","","","68","56","","","2","56","training","adjacent","FE","6","5","M.jpg","N.jpg","0","0","1","",""
"","feedback","","html-keyboard-response","372","393957","0.0-1.0-510.0-0.0","0","0","74847","","null","","","null","56","","","","","","","","","","","","","","","",""
"","ITI","","html-keyboard-response","373","394960","0.0-1.0-513.0","0","0","74847","","null","","","null","56","","","","","","","","","","","","","","","NaN",""
"","S1","","html-keyboard-response","374","395212","0.0-1.0-515.0","0","0","74847","","null","","","null","57","","","","","","","","","","","","","","","",""
"","ISI","","html-keyboard-response","375","396214","0.0-1.0-516.0","0","0","74847","","null","","","null","57","NaN","","","","","","","","","","","","","","",""
"","S2","","html-keyboard-response","376","396467","0.0-1.0-517.0","0","0","74847","","null","","","null","57","","NaN","","","","","","","","","","","","","",""
"","response","","html-keyboard-response","377","396519","0.0-1.0-518.0-0.0","0","0","74847","","49","","","75","57","","","2","57","training","adjacent","DC","4","3","O.jpg","L.jpg","1","0","0","",""
"","feedback","","html-keyboard-response","378","397522","0.0-1.0-519.0-0.0","0","0","74847","","null","","","null","57","","","","","","","","","","","","","","","",""
"","time_out","","html-keyboard-response","379","399525","0.0-1.0-521.0-0.0","0","0","74847","","null","","","null","57","","","","","","","","","","","","","","","",""
"","ITI","","html-keyboard-response","380","400527","0.0-1.0-522.0","0","0","74847","","null","","","null","57","","","","","","","","","","","","","","","NaN",""
"","S1","","html-keyboard-response","381","400781","0.0-1.0-524.0","0","0","74847","","null","","","null","58","","","","","","","","","","","","","","","",""
"","ISI","","html-keyboard-response","382","401783","0.0-1.0-525.0","0","0","74847","","null","","","null","58","NaN","","","","","","","","","","","","","","",""
"","S2","","html-keyboard-response","383","402035","0.0-1.0-526.0","0","0","74847","","null","","","null","58","","NaN","","","","","","","","","","","","","",""
"","response","","html-keyboard-response","384","402474","0.0-1.0-527.0-0.0","0","0","74847","","437","","","68","58","","","2","58","training","adjacent","BA","2","1","R.jpg","Q.jpg","0","0","1","",""
"","feedback","","html-keyboard-response","385","403477","0.0-1.0-528.0-0.0","0","0","74847","","null","","","null","58","","","","","","","","","","","","","","","",""
"","ITI","","html-keyboard-response","386","404479","0.0-1.0-531.0","0","0","74847","","null","","","null","58","","","","","","","","","","","","","","","NaN",""
"","S1","","html-keyboard-response","387","404731","0.0-1.0-533.0","0","0","74847","","null","","","null","59","","","","","","","","","","","","","","","",""
"","ISI","","html-keyboard-response","388","405733","0.0-1.0-534.0","0","0","74847","","null","","","null","59","NaN","","","","","","","","","","","","","","",""
"","S2","","html-keyboard-response","389","405986","0.0-1.0-535.0","0","0","74847","","null","","","null","59","","NaN","","","","","","","","","","","","","",""
"","response","","html-keyboard-response","390","406489","0.0-1.0-536.0-0.0","0","0","74847","","501","","","68","59","","","2","59","training","adjacent","BA","2","1","R.jpg","Q.jpg","0","0","1","",""
"","feedback","","html-keyboard-response","391","407493","0.0-1.0-537.0-0.0","0","0","74847","","null","","","null","59","","","","","","","","","","","","","","","",""
"","ITI","","html-keyboard-response","392","408496","0.0-1.0-540.0","0","0","74847","","null","","","null","59","","","","","","","","","","","","","","","NaN",""
"","S1","","html-keyboard-response","393","408748","0.0-1.0-542.0","0","0","74847","","null","","","null","60","","","","","","","","","","","","","","","",""
"","ISI","","html-keyboard-response","394","409750","0.0-1.0-543.0","0","0","74847","","null","","","null","60","NaN","","","","","","","","","","","","","","",""
"","S2","","html-keyboard-response","395","410003","0.0-1.0-544.0","0","0","74847","","null","","","null","60","","NaN","","","","","","","","","","","","","",""
"","response","","html-keyboard-response","396","410225","0.0-1.0-545.0-0.0","0","0","74847","","220","","","75","60","","","2","60","training","adjacent","CB","3","2","L.jpg","R.jpg","1","0","0","",""
"","feedback","","html-keyboard-response","397","411227","0.0-1.0-546.0-0.0","0","0","74847","","null","","","null","60","","","","","","","","","","","","","","","",""
"","time_out","","html-keyboard-response","398","413230","0.0-1.0-548.0-0.0","0","0","74847","","null","","","null","60","","","","","","","","","","","","","","","",""
"","ITI","","html-keyboard-response","399","414233","0.0-1.0-549.0","0","0","74847","","null","","","null","60","","","","","","","","","","","","","","","NaN",""
"","S1","","html-keyboard-response","400","414486","0.0-1.0-551.0","0","0","74847","","null","","","null","61","","","","","","","","","","","","","","","",""
"","ISI","","html-keyboard-response","401","415488","0.0-1.0-552.0","0","0","74847","","null","","","null","61","NaN","","","","","","","","","","","","","","",""
"","S2","","html-keyboard-response","402","415741","0.0-1.0-553.0","0","0","74847","","null","","","null","61","","NaN","","","","","","","","","","","","","",""
"","response","","html-keyboard-response","403","415906","0.0-1.0-554.0-0.0","0","0","74847","","163","","","68","61","","","2","61","training","adjacent","FE","6","5","M.jpg","N.jpg","0","0","1","",""
"","feedback","","html-keyboard-response","404","416909","0.0-1.0-555.0-0.0","0","0","74847","","null","","","null","61","","","","","","","","","","","","","","","",""
"","ITI","","html-keyboard-response","405","417912","0.0-1.0-558.0","0","0","74847","","null","","","null","61","","","","","","","","","","","","","","","NaN",""
"","S1","","html-keyboard-response","406","418165","0.0-1.0-560.0","0","0","74847","","null","","","null","62","","","","","","","","","","","","","","","",""
"","ISI","","html-keyboard-response","407","419168","0.0-1.0-561.0","0","0","74847","","null","","","null","62","NaN","","","","","","","","","","","","","","",""
"","S2","","html-keyboard-response","408","419421","0.0-1.0-562.0","0","0","74847","","null","","","null","62","","NaN","","","","","","","","","","","","","",""
"","response","","html-keyboard-response","409","420042","0.0-1.0-563.0-0.0","0","0","74847","","619","","","68","62","","","2","62","training","adjacent","DC","4","3","O.jpg","L.jpg","0","0","1","",""
"","feedback","","html-keyboard-response","410","421045","0.0-1.0-564.0-0.0","0","0","74847","","null","","","null","62","","","","","","","","","","","","","","","",""
"","ITI","","html-keyboard-response","411","422048","0.0-1.0-567.0","0","0","74847","","null","","","null","62","","","","","","","","","","","","","","","NaN",""
"","S1","","html-keyboard-response","412","422300","0.0-1.0-569.0","0","0","74847","","null","","","null","63","","","","","","","","","","","","","","","",""
"","ISI","","html-keyboard-response","413","423302","0.0-1.0-570.0","0","0","74847","","null","","","null","63","NaN","","","","","","","","","","","","","","",""
"","S2","","html-keyboard-response","414","423555","0.0-1.0-571.0","0","0","74847","","null","","","null","63","","NaN","","","","","","","","","","","","","",""
"","response","","html-keyboard-response","415","424228","0.0-1.0-572.0-0.0","0","0","74847","","671","","","75","63","","","2","63","training","adjacent","ED","5","4","N.jpg","O.jpg","1","0","0","",""
"","feedback","","html-keyboard-response","416","425231","0.0-1.0-573.0-0.0","0","0","74847","","null","","","null","63","","","","","","","","","","","","","","","",""
"","time_out","","html-keyboard-response","417","427233","0.0-1.0-575.0-0.0","0","0","74847","","null","","","null","63","","","","","","","","","","","","","","","",""
"","ITI","","html-keyboard-response","418","428236","0.0-1.0-576.0","0","0","74847","","null","","","null","63","","","","","","","","","","","","","","","NaN",""
"","S1","","html-keyboard-response","419","428488","0.0-1.0-578.0","0","0","74847","","null","","","null","64","","","","","","","","","","","","","","","",""
"","ISI","","html-keyboard-response","420","429490","0.0-1.0-579.0","0","0","74847","","null","","","null","64","NaN","","","","","","","","","","","","","","",""
"","S2","","html-keyboard-response","421","429744","0.0-1.0-580.0","0","0","74847","","null","","","null","64","","NaN","","","","","","","","","","","","","",""
"","response","","html-keyboard-response","422","430385","0.0-1.0-581.0-0.0","0","0","74847","","639","","","68","64","","","2","64","training","adjacent","DE","4","5","O.jpg","N.jpg","0","1","0","",""
"","feedback","","html-keyboard-response","423","431388","0.0-1.0-582.0-0.0","0","0","74847","","null","","","null","64","","","","","","","","","","","","","","","",""
"","time_out","","html-keyboard-response","424","433391","0.0-1.0-584.0-0.0","0","0","74847","","null","","","null","64","","","","","","","","","","","","","","","",""
"","ITI","","html-keyboard-response","425","434394","0.0-1.0-585.0","0","0","74847","","null","","","null","64","","","","","","","","","","","","","","","NaN",""
"","S1","","html-keyboard-response","426","434647","0.0-1.0-587.0","0","0","74847","","null","","","null","65","","","","","","","","","","","","","","","",""
"","ISI","","html-keyboard-response","427","435649","0.0-1.0-588.0","0","0","74847","","null","","","null","65","NaN","","","","","","","","","","","","","","",""
"","S2","","html-keyboard-response","428","435903","0.0-1.0-589.0","0","0","74847","","null","","","null","65","","NaN","","","","","","","","","","","","","",""
"","response","","html-keyboard-response","429","436458","0.0-1.0-590.0-0.0","0","0","74847","","552","","","75","65","","","2","65","training","adjacent","CB","3","2","L.jpg","R.jpg","1","0","0","",""
"","feedback","","html-keyboard-response","430","437461","0.0-1.0-591.0-0.0","0","0","74847","","null","","","null","65","","","","","","","","","","","","","","","",""
"","time_out","","html-keyboard-response","431","439463","0.0-1.0-593.0-0.0","0","0","74847","","null","","","null","65","","","","","","","","","","","","","","","",""
"","ITI","","html-keyboard-response","432","440466","0.0-1.0-594.0","0","0","74847","","null","","","null","65","","","","","","","","","","","","","","","NaN",""
"","S1","","html-keyboard-response","433","440719","0.0-1.0-596.0","0","0","74847","","null","","","null","66","","","","","","","","","","","","","","","",""
"","ISI","","html-keyboard-response","434","441721","0.0-1.0-597.0","0","0","74847","","null","","","null","66","NaN","","","","","","","","","","","","","","",""
"","S2","","html-keyboard-response","435","441950","0.0-1.0-598.0","0","0","74847","","227","","","68","66","","d","2","66","training","adjacent","EF","5","6","N.jpg","M.jpg","0","1","0","",""
"","feedback","","html-keyboard-response","436","442953","0.0-1.0-600.0-0.0","0","0","74847","","null","","","null","66","","","","","","","","","","","","","","","",""
"","time_out","","html-keyboard-response","437","444956","0.0-1.0-602.0-0.0","0","0","74847","","null","","","null","66","","","","","","","","","","","","","","","",""
"","ITI","","html-keyboard-response","438","445959","0.0-1.0-603.0","0","0","74847","","null","","","null","66","","","","","","","","","","","","","","","NaN",""
"","S1","","html-keyboard-response","439","446212","0.0-1.0-605.0","0","0","74847","","null","","","null","67","","","","","","","","","","","","","","","",""
"","ISI","","html-keyboard-response","440","447214","0.0-1.0-606.0","0","0","74847","","91","","","75","67","k","","","","","","","","","","","","","","",""
"","S2","","html-keyboard-response","441","447467","0.0-1.0-607.0","0","0","74847","","null","","","null","67","","NaN","","","","","","","","","","","","","",""
"","response","","html-keyboard-response","442","447496","0.0-1.0-608.0-0.0","0","0","74847","","27","","","75","67","","","2","67","training","adjacent","AB","1","2","Q.jpg","R.jpg","1","1","1","",""
"","feedback","","html-keyboard-response","443","448499","0.0-1.0-609.0-0.0","0","0","74847","","null","","","null","67","","","","","","","","","","","","","","","",""
"","ITI","","html-keyboard-response","444","449502","0.0-1.0-612.0","0","0","74847","","null","","","null","67","","","","","","","","","","","","","","","NaN",""
"","S1","","html-keyboard-response","445","449755","0.0-1.0-614.0","0","0","74847","","null","","","null","68","","","","","","","","","","","","","","","",""
"","ISI","","html-keyboard-response","446","450757","0.0-1.0-615.0","0","0","74847","","null","","","null","68","NaN","","","","","","","","","","","","","","",""
"","S2","","html-keyboard-response","447","451010","0.0-1.0-616.0","0","0","74847","","null","","","null","68","","NaN","","","","","","","","","","","","","",""
"","response","","html-keyboard-response","448","451023","0.0-1.0-617.0-0.0","0","0","74847","","11","","","75","68","","","2","68","training","adjacent","AB","1","2","Q.jpg","R.jpg","1","1","1","",""
"","feedback","","html-keyboard-response","449","452026","0.0-1.0-618.0-0.0","0","0","74847","","null","","","null","68","","","","","","","","","","","","","","","",""
"","ITI","","html-keyboard-response","450","453029","0.0-1.0-621.0","0","0","74847","","null","","","null","68","","","","","","","","","","","","","","","NaN",""
"","S1","","html-keyboard-response","451","453281","0.0-1.0-623.0","0","0","74847","","null","","","null","69","","","","","","","","","","","","","","","",""
"","ISI","","html-keyboard-response","452","454283","0.0-1.0-624.0","0","0","74847","","null","","","null","69","NaN","","","","","","","","","","","","","","",""
"","S2","","html-keyboard-response","453","454536","0.0-1.0-625.0","0","0","74847","","null","","","null","69","","NaN","","","","","","","","","","","","","",""
"","response","","html-keyboard-response","454","454539","0.0-1.0-626.0-0.0","0","0","74847","","1","","","75","69","","","2","69","training","adjacent","BC","2","3","R.jpg","L.jpg","1","1","1","",""
"","feedback","","html-keyboard-response","455","455543","0.0-1.0-627.0-0.0","0","0","74847","","null","","","null","69","","","","","","","","","","","","","","","",""
"","ITI","","html-keyboard-response","456","456545","0.0-1.0-630.0","0","0","74847","","null","","","null","69","","","","","","","","","","","","","","","NaN",""
"","S1","","html-keyboard-response","457","456797","0.0-1.0-632.0","0","0","74847","","null","","","null","70","","","","","","","","","","","","","","","",""
"","ISI","","html-keyboard-response","458","457800","0.0-1.0-633.0","0","0","74847","","null","","","null","70","NaN","","","","","","","","","","","","","","",""
"","S2","","html-keyboard-response","459","458053","0.0-1.0-634.0","0","0","74847","","null","","","null","70","","NaN","","","","","","","","","","","","","",""
"","response","","html-keyboard-response","460","458494","0.0-1.0-635.0-0.0","0","0","74847","","439","","","68","70","","","2","70","training","adjacent","DE","4","5","O.jpg","N.jpg","0","1","0","",""
"","feedback","","html-keyboard-response","461","459497","0.0-1.0-636.0-0.0","0","0","74847","","null","","","null","70","","","","","","","","","","","","","","","",""
"","time_out","","html-keyboard-response","462","461499","0.0-1.0-638.0-0.0","0","0","74847","","null","","","null","70","","","","","","","","","","","","","","","",""
"","ITI","","html-keyboard-response","463","462501","0.0-1.0-639.0","0","0","74847","","null","","","null","70","","","","","","","","","","","","","","","NaN",""
"","S1","","html-keyboard-response","464","462753","0.0-1.0-641.0","0","0","74847","","null","","","null","71","","","","","","","","","","","","","","","",""
"","ISI","","html-keyboard-response","465","463756","0.0-1.0-642.0","0","0","74847","","null","","","null","71","NaN","","","","","","","","","","","","","","",""
"","S2","","html-keyboard-response","466","464009","0.0-1.0-643.0","0","0","74847","","null","","","null","71","","NaN","","","","","","","","","","","","","",""
"","response","","html-keyboard-response","467","464368","0.0-1.0-644.0-0.0","0","0","74847","","356","","","75","71","","","2","71","training","adjacent","CD","3","4","L.jpg","O.jpg","1","1","1","",""
"","feedback","","html-keyboard-response","468","465371","0.0-1.0-645.0-0.0","0","0","74847","","null","","","null","71","","","","","","","","","","","","","","","",""
"","ITI","","html-keyboard-response","469","466374","0.0-1.0-648.0","0","0","74847","","null","","","null","71","","","","","","","","","","","","","","","NaN",""
"","S1","","html-keyboard-response","470","466627","0.0-1.0-650.0","0","0","74847","","null","","","null","72","","","","","","","","","","","","","","","",""
"","ISI","","html-keyboard-response","471","467629","0.0-1.0-651.0","0","0","74847","","null","","","null","72","NaN","","","","","","","","","","","","","","",""
"","S2","","html-keyboard-response","472","467882","0.0-1.0-652.0","0","0","74847","","null","","","null","72","","NaN","","","","","","","","","","","","","",""
"","response","","html-keyboard-response","473","468399","0.0-1.0-653.0-0.0","0","0","74847","","516","","","75","72","","","2","72","training","adjacent","BA","2","1","R.jpg","Q.jpg","1","0","0","",""
"","feedback","","html-keyboard-response","474","469402","0.0-1.0-654.0-0.0","0","0","74847","","null","","","null","72","","","","","","","","","","","","","","","",""
"","time_out","","html-keyboard-response","475","471405","0.0-1.0-656.0-0.0","0","0","74847","","null","","","null","72","","","","","","","","","","","","","","","",""
"","ITI","","html-keyboard-response","476","472408","0.0-1.0-657.0","0","0","74847","","null","","","null","72","","","","","","","","","","","","","","","NaN",""
"","S1","","html-keyboard-response","477","472661","0.0-1.0-659.0","0","0","74847","","null","","","null","73","","","","","","","","","","","","","","","",""
"","ISI","","html-keyboard-response","478","473664","0.0-1.0-660.0","0","0","74847","","null","","","null","73","NaN","","","","","","","","","","","","","","",""
"","S2","","html-keyboard-response","479","473917","0.0-1.0-661.0","0","0","74847","","null","","","null","73","","NaN","","","","","","","","","","","","","",""
"","response","","html-keyboard-response","480","474033","0.0-1.0-662.0-0.0","0","0","74847","","114","","","75","73","","","2","73","training","adjacent","GF","7","6","P.jpg","M.jpg","1","0","0","",""
"","feedback","","html-keyboard-response","481","475036","0.0-1.0-663.0-0.0","0","0","74847","","null","","","null","73","","","","","","","","","","","","","","","",""
"","time_out","","html-keyboard-response","482","477038","0.0-1.0-665.0-0.0","0","0","74847","","null","","","null","73","","","","","","","","","","","","","","","",""
"","ITI","","html-keyboard-response","483","478040","0.0-1.0-666.0","0","0","74847","","null","","","null","73","","","","","","","","","","","","","","","NaN",""
"","S1","","html-keyboard-response","484","478293","0.0-1.0-668.0","0","0","74847","","null","","","null","74","","","","","","","","","","","","","","","",""
"","ISI","","html-keyboard-response","485","479295","0.0-1.0-669.0","0","0","74847","","null","","","null","74","NaN","","","","","","","","","","","","","","",""
"","S2","","html-keyboard-response","486","479429","0.0-1.0-670.0","0","0","74847","","131","","","68","74","","d","2","74","training","adjacent","EF","5","6","N.jpg","M.jpg","0","1","0","",""
"","feedback","","html-keyboard-response","487","480432","0.0-1.0-672.0-0.0","0","0","74847","","null","","","null","74","","","","","","","","","","","","","","","",""
"","time_out","","html-keyboard-response","488","482434","0.0-1.0-674.0-0.0","0","0","74847","","null","","","null","74","","","","","","","","","","","","","","","",""
"","ITI","","html-keyboard-response","489","483436","0.0-1.0-675.0","0","0","74847","","null","","","null","74","","","","","","","","","","","","","","","NaN",""
"","S1","","html-keyboard-response","490","483689","0.0-1.0-677.0","0","0","74847","","null","","","null","75","","","","","","","","","","","","","","","",""
"","ISI","","html-keyboard-response","491","484691","0.0-1.0-678.0","0","0","74847","","null","","","null","75","NaN","","","","","","","","","","","","","","",""
"","S2","","html-keyboard-response","492","484944","0.0-1.0-679.0","0","0","74847","","null","","","null","75","","NaN","","","","","","","","","","","","","",""
"","response","","html-keyboard-response","493","485159","0.0-1.0-680.0-0.0","0","0","74847","","213","","","68","75","","","2","75","training","adjacent","ED","5","4","N.jpg","O.jpg","0","0","1","",""
"","feedback","","html-keyboard-response","494","486163","0.0-1.0-681.0-0.0","0","0","74847","","null","","","null","75","","","","","","","","","","","","","","","",""
"","ITI","","html-keyboard-response","495","487165","0.0-1.0-684.0","0","0","74847","","null","","","null","75","","","","","","","","","","","","","","","NaN",""
"","S1","","html-keyboard-response","496","487417","0.0-1.0-686.0","0","0","74847","","null","","","null","76","","","","","","","","","","","","","","","",""
"","ISI","","html-keyboard-response","497","488419","0.0-1.0-687.0","0","0","74847","","null","","","null","76","NaN","","","","","","","","","","","","","","",""
"","S2","","html-keyboard-response","498","488672","0.0-1.0-688.0","0","0","74847","","null","","","null","76","","NaN","","","","","","","","","","","","","",""
"","response","","html-keyboard-response","499","488805","0.0-1.0-689.0-0.0","0","0","74847","","131","","","68","76","","","2","76","training","adjacent","EF","5","6","N.jpg","M.jpg","0","1","0","",""
"","feedback","","html-keyboard-response","500","489808","0.0-1.0-690.0-0.0","0","0","74847","","null","","","null","76","","","","","","","","","","","","","","","",""
"","time_out","","html-keyboard-response","501","491812","0.0-1.0-692.0-0.0","0","0","74847","","null","","","null","76","","","","","","","","","","","","","","","",""
"","ITI","","html-keyboard-response","502","492814","0.0-1.0-693.0","0","0","74847","","null","","","null","76","","","","","","","","","","","","","","","NaN",""
"","S1","","html-keyboard-response","503","493066","0.0-1.0-695.0","0","0","74847","","null","","","null","77","","","","","","","","","","","","","","","",""
"","ISI","","html-keyboard-response","504","494068","0.0-1.0-696.0","0","0","74847","","null","","","null","77","NaN","","","","","","","","","","","","","","",""
"","S2","","html-keyboard-response","505","494322","0.0-1.0-697.0","0","0","74847","","null","","","null","77","","NaN","","","","","","","","","","","","","",""
"","response","","html-keyboard-response","506","494765","0.0-1.0-698.0-0.0","0","0","74847","","441","","","75","77","","","2","77","training","adjacent","AB","1","2","Q.jpg","R.jpg","1","1","1","",""
"","feedback","","html-keyboard-response","507","495768","0.0-1.0-699.0-0.0","0","0","74847","","null","","","null","77","","","","","","","","","","","","","","","",""
"","ITI","","html-keyboard-response","508","496771","0.0-1.0-702.0","0","0","74847","","null","","","null","77","","","","","","","","","","","","","","","NaN",""
"","S1","","html-keyboard-response","509","497023","0.0-1.0-704.0","0","0","74847","","null","","","null","78","","","","","","","","","","","","","","","",""
"","ISI","","html-keyboard-response","510","498026","0.0-1.0-705.0","0","0","74847","","null","","","null","78","NaN","","","","","","","","","","","","","","",""
"","S2","","html-keyboard-response","511","498279","0.0-1.0-706.0","0","0","74847","","null","","","null","78","","NaN","","","","","","","","","","","","","",""
"","response","","html-keyboard-response","512","498777","0.0-1.0-707.0-0.0","0","0","74847","","496","","","75","78","","","2","78","training","adjacent","GF","7","6","P.jpg","M.jpg","1","0","0","",""
"","feedback","","html-keyboard-response","513","499780","0.0-1.0-708.0-0.0","0","0","74847","","null","","","null","78","","","","","","","","","","","","","","","",""
"","time_out","","html-keyboard-response","514","501782","0.0-1.0-710.0-0.0","0","0","74847","","null","","","null","78","","","","","","","","","","","","","","","",""
"","ITI","","html-keyboard-response","515","502785","0.0-1.0-711.0","0","0","74847","","null","","","null","78","","","","","","","","","","","","","","","NaN",""
"","S1","","html-keyboard-response","516","503037","0.0-1.0-713.0","0","0","74847","","null","","","null","79","","","","","","","","","","","","","","","",""
"","ISI","","html-keyboard-response","517","504039","0.0-1.0-714.0","0","0","74847","","null","","","null","79","NaN","","","","","","","","","","","","","","",""
"","S2","","html-keyboard-response","518","504293","0.0-1.0-715.0","0","0","74847","","null","","","null","79","","NaN","","","","","","","","","","","","","",""
"","response","","html-keyboard-response","519","504370","0.0-1.0-716.0-0.0","0","0","74847","","75","","","75","79","","","2","79","training","adjacent","CB","3","2","L.jpg","R.jpg","1","0","0","",""
"","feedback","","html-keyboard-response","520","505373","0.0-1.0-717.0-0.0","0","0","74847","","null","","","null","79","","","","","","","","","","","","","","","",""
"","time_out","","html-keyboard-response","521","507376","0.0-1.0-719.0-0.0","0","0","74847","","null","","","null","79","","","","","","","","","","","","","","","",""
"","ITI","","html-keyboard-response","522","508379","0.0-1.0-720.0","0","0","74847","","null","","","null","79","","","","","","","","","","","","","","","NaN",""
"","S1","","html-keyboard-response","523","508631","0.0-1.0-722.0","0","0","74847","","null","","","null","80","","","","","","","","","","","","","","","",""
"","ISI","","html-keyboard-response","524","509634","0.0-1.0-723.0","0","0","74847","","null","","","null","80","NaN","","","","","","","","","","","","","","",""
"","S2","","html-keyboard-response","525","509887","0.0-1.0-724.0","0","0","74847","","null","","","null","80","","NaN","","","","","","","","","","","","","",""
"","response","","html-keyboard-response","526","510105","0.0-1.0-725.0-0.0","0","0","74847","","216","","","68","80","","","2","80","training","adjacent","BC","2","3","R.jpg","L.jpg","0","1","0","",""
"","feedback","","html-keyboard-response","527","511108","0.0-1.0-726.0-0.0","0","0","74847","","null","","","null","80","","","","","","","","","","","","","","","",""
"","time_out","","html-keyboard-response","528","513111","0.0-1.0-728.0-0.0","0","0","74847","","null","","","null","80","","","","","","","","","","","","","","","",""
"","ITI","","html-keyboard-response","529","514114","0.0-1.0-729.0","0","0","74847","","null","","","null","80","","","","","","","","","","","","","","","NaN",""
"","S1","","html-keyboard-response","530","514366","0.0-1.0-731.0","0","0","74847","","null","","","null","81","","","","","","","","","","","","","","","",""
"","ISI","","html-keyboard-response","531","515369","0.0-1.0-732.0","0","0","74847","","null","","","null","81","NaN","","","","","","","","","","","","","","",""
"","S2","","html-keyboard-response","532","515622","0.0-1.0-733.0","0","0","74847","","null","","","null","81","","NaN","","","","","","","","","","","","","",""
"","response","","html-keyboard-response","533","516055","0.0-1.0-734.0-0.0","0","0","74847","","430","","","75","81","","","2","81","training","adjacent","CB","3","2","L.jpg","R.jpg","1","0","0","",""
"","feedback","","html-keyboard-response","534","517058","0.0-1.0-735.0-0.0","0","0","74847","","null","","","null","81","","","","","","","","","","","","","","","",""
"","time_out","","html-keyboard-response","535","519061","0.0-1.0-737.0-0.0","0","0","74847","","null","","","null","81","","","","","","","","","","","","","","","",""
"","ITI","","html-keyboard-response","536","520064","0.0-1.0-738.0","0","0","74847","","null","","","null","81","","","","","","","","","","","","","","","NaN",""
"","S1","","html-keyboard-response","537","520316","0.0-1.0-740.0","0","0","74847","","null","","","null","82","","","","","","","","","","","","","","","",""
"","ISI","","html-keyboard-response","538","521319","0.0-1.0-741.0","0","0","74847","","null","","","null","82","NaN","","","","","","","","","","","","","","",""
"","S2","","html-keyboard-response","539","521572","0.0-1.0-742.0","0","0","74847","","null","","","null","82","","NaN","","","","","","","","","","","","","",""
"","response","","html-keyboard-response","540","521640","0.0-1.0-743.0-0.0","0","0","74847","","65","","","68","82","","","2","82","training","adjacent","FE","6","5","M.jpg","N.jpg","0","0","1","",""
"","feedback","","html-keyboard-response","541","522643","0.0-1.0-744.0-0.0","0","0","74847","","null","","","null","82","","","","","","","","","","","","","","","",""
"","ITI","","html-keyboard-response","542","523646","0.0-1.0-747.0","0","0","74847","","null","","","null","82","","","","","","","","","","","","","","","NaN",""
"","S1","","html-keyboard-response","543","523899","0.0-1.0-749.0","0","0","74847","","null","","","null","83","","","","","","","","","","","","","","","",""
"","ISI","","html-keyboard-response","544","524902","0.0-1.0-750.0","0","0","74847","","null","","","null","83","NaN","","","","","","","","","","","","","","",""
"","S2","","html-keyboard-response","545","525156","0.0-1.0-751.0","0","0","74847","","null","","","null","83","","NaN","","","","","","","","","","","","","",""
"","response","","html-keyboard-response","546","525532","0.0-1.0-752.0-0.0","0","0","74847","","374","","","68","83","","","2","83","training","adjacent","CD","3","4","L.jpg","O.jpg","0","1","0","",""
"","feedback","","html-keyboard-response","547","526534","0.0-1.0-753.0-0.0","0","0","74847","","null","","","null","83","","","","","","","","","","","","","","","",""
"","time_out","","html-keyboard-response","548","528536","0.0-1.0-755.0-0.0","0","0","74847","","null","","","null","83","","","","","","","","","","","","","","","",""
"","ITI","","html-keyboard-response","549","529538","0.0-1.0-756.0","0","0","74847","","null","","","null","83","","","","","","","","","","","","","","","NaN",""
"","S1","","html-keyboard-response","550","529792","0.0-1.0-758.0","0","0","74847","","null","","","null","84","","","","","","","","","","","","","","","",""
"","ISI","","html-keyboard-response","551","530794","0.0-1.0-759.0","0","0","74847","","null","","","null","84","NaN","","","","","","","","","","","","","","",""
"","S2","","html-keyboard-response","552","531047","0.0-1.0-760.0","0","0","74847","","null","","","null","84","","NaN","","","","","","","","","","","","","",""
"","response","","html-keyboard-response","553","531334","0.0-1.0-761.0-0.0","0","0","74847","","285","","","75","84","","","2","84","training","adjacent","FE","6","5","M.jpg","N.jpg","1","0","0","",""
"","feedback","","html-keyboard-response","554","532337","0.0-1.0-762.0-0.0","0","0","74847","","null","","","null","84","","","","","","","","","","","","","","","",""
"","time_out","","html-keyboard-response","555","534340","0.0-1.0-764.0-0.0","0","0","74847","","null","","","null","84","","","","","","","","","","","","","","","",""
"","ITI","","html-keyboard-response","556","535342","0.0-1.0-765.0","0","0","74847","","null","","","null","84","","","","","","","","","","","","","","","NaN",""
"","S1","","html-keyboard-response","557","535595","0.0-1.0-767.0","0","0","74847","","null","","","null","85","","","","","","","","","","","","","","","",""
"","ISI","","html-keyboard-response","558","536598","0.0-1.0-768.0","0","0","74847","","null","","","null","85","NaN","","","","","","","","","","","","","","",""
"","S2","","html-keyboard-response","559","536851","0.0-1.0-769.0","0","0","74847","","null","","","null","85","","NaN","","","","","","","","","","","","","",""
"","response","","html-keyboard-response","560","537166","0.0-1.0-770.0-0.0","0","0","74847","","312","","","68","85","","","2","85","training","adjacent","GF","7","6","P.jpg","M.jpg","0","0","1","",""
"","feedback","","html-keyboard-response","561","538168","0.0-1.0-771.0-0.0","0","0","74847","","null","","","null","85","","","","","","","","","","","","","","","",""
"","ITI","","html-keyboard-response","562","539171","0.0-1.0-774.0","0","0","74847","","null","","","null","85","","","","","","","","","","","","","","","NaN",""
"","S1","","html-keyboard-response","563","539424","0.0-1.0-776.0","0","0","74847","","null","","","null","86","","","","","","","","","","","","","","","",""
"","ISI","","html-keyboard-response","564","540426","0.0-1.0-777.0","0","0","74847","","null","","","null","86","NaN","","","","","","","","","","","","","","",""
"","S2","","html-keyboard-response","565","540679","0.0-1.0-778.0","0","0","74847","","null","","","null","86","","NaN","","","","","","","","","","","","","",""
"","response","","html-keyboard-response","566","541289","0.0-1.0-779.0-0.0","0","0","74847","","608","","","75","86","","","2","86","training","adjacent","FG","6","7","M.jpg","P.jpg","1","1","1","",""
"","feedback","","html-keyboard-response","567","542292","0.0-1.0-780.0-0.0","0","0","74847","","null","","","null","86","","","","","","","","","","","","","","","",""
"","ITI","","html-keyboard-response","568","543295","0.0-1.0-783.0","0","0","74847","","null","","","null","86","","","","","","","","","","","","","","","NaN",""
"","S1","","html-keyboard-response","569","543547","0.0-1.0-785.0","0","0","74847","","null","","","null","87","","","","","","","","","","","","","","","",""
"","ISI","","html-keyboard-response","570","544549","0.0-1.0-786.0","0","0","74847","","null","","","null","87","NaN","","","","","","","","","","","","","","",""
"","S2","","html-keyboard-response","571","544802","0.0-1.0-787.0","0","0","74847","","null","","","null","87","","NaN","","","","","","","","","","","","","",""
"","response","","html-keyboard-response","572","545449","0.0-1.0-788.0-0.0","0","0","74847","","645","","","68","87","","","2","87","training","adjacent","FG","6","7","M.jpg","P.jpg","0","1","0","",""
"","feedback","","html-keyboard-response","573","546452","0.0-1.0-789.0-0.0","0","0","74847","","null","","","null","87","","","","","","","","","","","","","","","",""
"","time_out","","html-keyboard-response","574","548454","0.0-1.0-791.0-0.0","0","0","74847","","null","","","null","87","","","","","","","","","","","","","","","",""
"","ITI","","html-keyboard-response","575","549457","0.0-1.0-792.0","0","0","74847","","null","","","null","87","","","","","","","","","","","","","","","NaN",""
"","S1","","html-keyboard-response","576","549710","0.0-1.0-794.0","0","0","74847","","null","","","null","88","","","","","","","","","","","","","","","",""
"","ISI","","html-keyboard-response","577","550712","0.0-1.0-795.0","0","0","74847","","null","","","null","88","NaN","","","","","","","","","","","","","","",""
"","S2","","html-keyboard-response","578","550966","0.0-1.0-796.0","0","0","74847","","null","","","null","88","","NaN","","","","","","","","","","","","","",""
"","response","","html-keyboard-response","579","551054","0.0-1.0-797.0-0.0","0","0","74847","","86","","","75","88","","","2","88","training","adjacent","FG","6","7","M.jpg","P.jpg","1","1","1","",""
"","feedback","","html-keyboard-response","580","552059","0.0-1.0-798.0-0.0","0","0","74847","","null","","","null","88","","","","","","","","","","","","","","","",""
"","ITI","","html-keyboard-response","581","553063","0.0-1.0-801.0","0","0","74847","","null","","","null","88","","","","","","","","","","","","","","","NaN",""
"","S1","","html-keyboard-response","582","553315","0.0-1.0-803.0","0","0","74847","","null","","","null","89","","","","","","","","","","","","","","","",""
