"success","ttype","start_time","trial_type","trial_index","time_elapsed","internal_node_id","warning","missed_checkup","PID","view_history","rt","responses","repeat_instructions","key_press","index","keypress_isi","keypress_S2","block","trial_num","phase","group_type","pair_type","S1_stim","S2_stim","S1_img","S2_img","S1_chosen","S1_higher","accuracy","keypress_iti","total_bonus_tally"
"true","full_screen","d03072023hr2241","fullscreen","0","13052","0.0-0.0","0","0","68843","","","","","","","","","","","","","","","","","","","","","",""
"","instructions","","instructions","1","34611","0.0-1.0-0.0-0.0","0","0","68843","[{""page_index"":0,""viewing_time"":4126},{""page_index"":1,""viewing_time"":6503},{""page_index"":2,""viewing_time"":8727},{""page_index"":3,""viewing_time"":2199}]","21556","","","","","","","","","","","","","","","","","","","",""
"","comprehension_check","","survey-multi-choice","2","58920","0.0-1.0-0.0-1.0","0","0","68843","","24303","{""Q0"":""True"",""Q1"":""D"",""Q2"":""Only when the screen 'MAKE A CHOICE' is shown"",""Q3"":""Green mark"",""Q4"":""either D or K""}","1","","","","","","","","","","","","","","","","","",""
"","missed_instruction_checkup","","html-keyboard-response","3","61860","0.0-1.0-0.0-2.0-0.0","0","1","68843","","2933","","","32","","","","","","","","","","","","","","","","",""
"","instructions","","instructions","4","82569","0.0-1.0-0.1-0.1","0","0","68843","[{""page_index"":0,""viewing_time"":5356},{""page_index"":1,""viewing_time"":13783},{""page_index"":2,""viewing_time"":630},{""page_index"":3,""viewing_time"":938}]","20707","","","","","","","","","","","","","","","","","","","",""
"","comprehension_check","","survey-multi-choice","5","97490","0.0-1.0-0.1-1.1","0","0","68843","","14916","{""Q0"":""True"",""Q1"":""K"",""Q2"":""Once the second image appears and while the screen 'MAKE A CHOICE' is shown"",""Q3"":""Green mark"",""Q4"":""either D or K""}","0","","","","","","","","","","","","","","","","","",""
"","start_exp","","html-keyboard-response","6","99847","0.0-1.0-1.0","0","0","68843","","2351","","","32","","","","","","","","","","","","","","","","",""
"","S1","","html-keyboard-response","7","100101","0.0-1.0-2.0","0","0","68843","","null","","","null","0","","","","","","","","","","","","","","","",""
"","ISI","","html-keyboard-response","8","101106","0.0-1.0-3.0","0","0","68843","","null","","","null","0","NaN","","","","","","","","","","","","","","",""
"","S2","","html-keyboard-response","9","101359","0.0-1.0-4.0","0","0","68843","","null","","","null","0","","NaN","","","","","","","","","","","","","",""
"","response","","html-keyboard-response","10","103112","0.0-1.0-5.0-0.0","0","0","68843","","null","","","null","0","","","1","0","training","adjacent","AB","1","2","L.jpg","N.jpg","NaN","1","0","",""
"","too_slow_prompt","","html-keyboard-response","11","104116","0.0-1.0-7.0-0.0","1","0","68843","","null","","","null","","","","","","","","","","","","","","","","",""
"","time_out","","html-keyboard-response","12","106124","0.0-1.0-8.0-0.0","0","0","68843","","null","","","null","0","","","","","","","","","","","","","","","",""
"","ITI","","html-keyboard-response","13","107128","0.0-1.0-9.0","0","0","68843","","null","","","null","0","","","","","","","","","","","","","","","NaN",""
"","S1","","html-keyboard-response","14","107383","0.0-1.0-11.0","0","0","68843","","null","","","null","1","","","","","","","","","","","","","","","",""
"","ISI","","html-keyboard-response","15","108385","0.0-1.0-12.0","0","0","68843","","null","","","null","1","NaN","","","","","","","","","","","","","","",""
"","S2","","html-keyboard-response","16","108640","0.0-1.0-13.0","0","0","68843","","null","","","null","1","","NaN","","","","","","","","","","","","","",""
"","response","","html-keyboard-response","17","109286","0.0-1.0-14.0-0.0","0","0","68843","","645","","","68","1","","","1","1","training","adjacent","EF","5","6","P.jpg","Q.jpg","0","1","0","",""
"","feedback","","html-keyboard-response","18","110289","0.0-1.0-15.0-0.0","0","0","68843","","null","","","null","1","","","","","","","","","","","","","","","",""
"","time_out","","html-keyboard-response","19","112292","0.0-1.0-17.0-0.0","0","0","68843","","null","","","null","1","","","","","","","","","","","","","","","",""
"","ITI","","html-keyboard-response","20","113296","0.0-1.0-18.0","0","0","68843","","null","","","null","1","","","","","","","","","","","","","","","NaN",""
"","S1","","html-keyboard-response","21","113552","0.0-1.0-20.0","0","0","68843","","null","","","null","2","","","","","","","","","","","","","","","",""
"","ISI","","html-keyboard-response","22","114555","0.0-1.0-21.0","0","0","68843","","null","","","null","2","NaN","","","","","","","","","","","","","","",""
"","S2","","html-keyboard-response","23","114809","0.0-1.0-22.0","0","0","68843","","null","","","null","2","","NaN","","","","","","","","","","","","","",""
"","response","","html-keyboard-response","24","115272","0.0-1.0-23.0-0.0","0","0","68843","","462","","","75","2","","","1","2","training","adjacent","GF","7","6","O.jpg","Q.jpg","1","0","0","",""
"","feedback","","html-keyboard-response","25","116275","0.0-1.0-24.0-0.0","0","0","68843","","null","","","null","2","","","","","","","","","","","","","","","",""
"","time_out","","html-keyboard-response","26","118278","0.0-1.0-26.0-0.0","0","0","68843","","null","","","null","2","","","","","","","","","","","","","","","",""
"","ITI","","html-keyboard-response","27","119281","0.0-1.0-27.0","0","0","68843","","null","","","null","2","","","","","","","","","","","","","","","NaN",""
"","S1","","html-keyboard-response","28","119535","0.0-1.0-29.0","0","0","68843","","null","","","null","3","","","","","","","","","","","","","","","",""
"","ISI","","html-keyboard-response","29","120539","0.0-1.0-30.0","0","0","68843","","null","","","null","3","NaN","","","","","","","","","","","","","","",""
"","S2","","html-keyboard-response","30","120798","0.0-1.0-31.0","0","0","68843","","null","","","null","3","","NaN","","","","","","","","","","","","","",""
"","response","","html-keyboard-response","31","121004","0.0-1.0-32.0-0.0","0","0","68843","","205","","","68","3","","","1","3","training","adjacent","DE","4","5","M.jpg","P.jpg","0","1","0","",""
"","feedback","","html-keyboard-response","32","122008","0.0-1.0-33.0-0.0","0","0","68843","","null","","","null","3","","","","","","","","","","","","","","","",""
"","time_out","","html-keyboard-response","33","124012","0.0-1.0-35.0-0.0","0","0","68843","","null","","","null","3","","","","","","","","","","","","","","","",""
"","ITI","","html-keyboard-response","34","125015","0.0-1.0-36.0","0","0","68843","","null","","","null","3","","","","","","","","","","","","","","","NaN",""
"","S1","","html-keyboard-response","35","125270","0.0-1.0-38.0","0","0","68843","","null","","","null","4","","","","","","","","","","","","","","","",""
"","ISI","","html-keyboard-response","36","126275","0.0-1.0-39.0","0","0","68843","","null","","","null","4","NaN","","","","","","","","","","","","","","",""
"","S2","","html-keyboard-response","37","126527","0.0-1.0-40.0","0","0","68843","","null","","","null","4","","NaN","","","","","","","","","","","","","",""
"","response","","html-keyboard-response","38","126808","0.0-1.0-41.0-0.0","0","0","68843","","279","","","68","4","","","1","4","training","adjacent","CB","3","2","R.jpg","N.jpg","0","0","1","",""
"","feedback","","html-keyboard-response","39","127812","0.0-1.0-42.0-0.0","0","0","68843","","null","","","null","4","","","","","","","","","","","","","","","",""
"","ITI","","html-keyboard-response","40","128815","0.0-1.0-45.0","0","0","68843","","null","","","null","4","","","","","","","","","","","","","","","NaN",""
"","S1","","html-keyboard-response","41","129070","0.0-1.0-47.0","0","0","68843","","null","","","null","5","","","","","","","","","","","","","","","",""
"","ISI","","html-keyboard-response","42","130072","0.0-1.0-48.0","0","0","68843","","null","","","null","5","NaN","","","","","","","","","","","","","","",""
"","S2","","html-keyboard-response","43","130326","0.0-1.0-49.0","0","0","68843","","null","","","null","5","","NaN","","","","","","","","","","","","","",""
"","response","","html-keyboard-response","44","130452","0.0-1.0-50.0-0.0","0","0","68843","","123","","","75","5","","","1","5","training","adjacent","FG","6","7","Q.jpg","O.jpg","1","1","1","",""
"","feedback","","html-keyboard-response","45","131455","0.0-1.0-51.0-0.0","0","0","68843","","null","","","null","5","","","","","","","","","","","","","","","",""
"","ITI","","html-keyboard-response","46","132459","0.0-1.0-54.0","0","0","68843","","null","","","null","5","","","","","","","","","","","","","","","NaN",""
"","S1","","html-keyboard-response","47","132711","0.0-1.0-56.0","0","0","68843","","null","","","null","6","","","","","","","","","","","","","","","",""
"","ISI","","html-keyboard-response","48","133713","0.0-1.0-57.0","0","0","68843","","null","","","null","6","NaN","","","","","","","","","","","","","","",""
"","S2","","html-keyboard-response","49","133964","0.0-1.0-58.0","0","0","68843","","null","","","null","6","","NaN","","","","","","","","","","","","","",""
"","response","","html-keyboard-response","50","133966","0.0-1.0-59.0-0.0","0","0","68843","","0","","","68","6","","","1","6","training","adjacent","GF","7","6","O.jpg","Q.jpg","0","0","1","",""
"","feedback","","html-keyboard-response","51","134968","0.0-1.0-60.0-0.0","0","0","68843","","null","","","null","6","","","","","","","","","","","","","","","",""
"","ITI","","html-keyboard-response","52","135972","0.0-1.0-63.0","0","0","68843","","null","","","null","6","","","","","","","","","","","","","","","NaN",""
"","S1","","html-keyboard-response","53","136226","0.0-1.0-65.0","0","0","68843","","null","","","null","7","","","","","","","","","","","","","","","",""
"","ISI","","html-keyboard-response","54","137234","0.0-1.0-66.0","0","0","68843","","null","","","null","7","NaN","","","","","","","","","","","","","","",""
"","S2","","html-keyboard-response","55","137473","0.0-1.0-67.0","0","0","68843","","236","","","75","7","","k","1","7","training","adjacent","DC","4","3","M.jpg","R.jpg","1","0","0","",""
"","feedback","","html-keyboard-response","56","138478","0.0-1.0-69.0-0.0","0","0","68843","","null","","","null","7","","","","","","","","","","","","","","","",""
"","time_out","","html-keyboard-response","57","140480","0.0-1.0-71.0-0.0","0","0","68843","","null","","","null","7","","","","","","","","","","","","","","","",""
"","ITI","","html-keyboard-response","58","141483","0.0-1.0-72.0","0","0","68843","","null","","","null","7","","","","","","","","","","","","","","","NaN",""
"","S1","","html-keyboard-response","59","141737","0.0-1.0-74.0","0","0","68843","","null","","","null","8","","","","","","","","","","","","","","","",""
"","ISI","","html-keyboard-response","60","142740","0.0-1.0-75.0","0","0","68843","","null","","","null","8","NaN","","","","","","","","","","","","","","",""
"","S2","","html-keyboard-response","61","142994","0.0-1.0-76.0","0","0","68843","","null","","","null","8","","NaN","","","","","","","","","","","","","",""
"","response","","html-keyboard-response","62","143117","0.0-1.0-77.0-0.0","0","0","68843","","119","","","68","8","","","1","8","training","adjacent","DC","4","3","M.jpg","R.jpg","0","0","1","",""
"","feedback","","html-keyboard-response","63","144121","0.0-1.0-78.0-0.0","0","0","68843","","null","","","null","8","","","","","","","","","","","","","","","",""
"","ITI","","html-keyboard-response","64","145124","0.0-1.0-81.0","0","0","68843","","null","","","null","8","","","","","","","","","","","","","","","NaN",""
"","S1","","html-keyboard-response","65","145379","0.0-1.0-83.0","0","0","68843","","null","","","null","9","","","","","","","","","","","","","","","",""
"","ISI","","html-keyboard-response","66","146382","0.0-1.0-84.0","0","0","68843","","null","","","null","9","NaN","","","","","","","","","","","","","","",""
"","S2","","html-keyboard-response","67","146637","0.0-1.0-85.0","0","0","68843","","null","","","null","9","","NaN","","","","","","","","","","","","","",""
"","response","","html-keyboard-response","68","146726","0.0-1.0-86.0-0.0","0","0","68843","","87","","","75","9","","","1","9","training","adjacent","ED","5","4","P.jpg","M.jpg","1","0","0","",""
"","feedback","","html-keyboard-response","69","147730","0.0-1.0-87.0-0.0","0","0","68843","","null","","","null","9","","","","","","","","","","","","","","","",""
"","time_out","","html-keyboard-response","70","149734","0.0-1.0-89.0-0.0","0","0","68843","","null","","","null","9","","","","","","","","","","","","","","","",""
"","ITI","","html-keyboard-response","71","150736","0.0-1.0-90.0","0","0","68843","","null","","","null","9","","","","","","","","","","","","","","","NaN",""
"","S1","","html-keyboard-response","72","150989","0.0-1.0-92.0","0","0","68843","","null","","","null","10","","","","","","","","","","","","","","","",""
"","ISI","","html-keyboard-response","73","151991","0.0-1.0-93.0","0","0","68843","","null","","","null","10","NaN","","","","","","","","","","","","","","",""
"","S2","","html-keyboard-response","74","152245","0.0-1.0-94.0","0","0","68843","","null","","","null","10","","NaN","","","","","","","","","","","","","",""
"","response","","html-keyboard-response","75","152530","0.0-1.0-95.0-0.0","0","0","68843","","284","","","68","10","","","1","10","training","adjacent","CB","3","2","R.jpg","N.jpg","0","0","1","",""
"","feedback","","html-keyboard-response","76","153542","0.0-1.0-96.0-0.0","0","0","68843","","null","","","null","10","","","","","","","","","","","","","","","",""
"","ITI","","html-keyboard-response","77","154546","0.0-1.0-99.0","0","0","68843","","null","","","null","10","","","","","","","","","","","","","","","NaN",""
"","S1","","html-keyboard-response","78","154798","0.0-1.0-101.0","0","0","68843","","null","","","null","11","","","","","","","","","","","","","","","",""
"","ISI","","html-keyboard-response","79","155801","0.0-1.0-102.0","0","0","68843","","null","","","null","11","NaN","","","","","","","","","","","","","","",""
"","S2","","html-keyboard-response","80","156053","0.0-1.0-103.0","0","0","68843","","null","","","null","11","","NaN","","","","","","","","","","","","","",""
"","response","","html-keyboard-response","81","156400","0.0-1.0-104.0-0.0","0","0","68843","","346","","","68","11","","","1","11","training","adjacent","FG","6","7","Q.jpg","O.jpg","0","1","0","",""
"","feedback","","html-keyboard-response","82","157403","0.0-1.0-105.0-0.0","0","0","68843","","null","","","null","11","","","","","","","","","","","","","","","",""
"","time_out","","html-keyboard-response","83","159406","0.0-1.0-107.0-0.0","0","0","68843","","null","","","null","11","","","","","","","","","","","","","","","",""
"","ITI","","html-keyboard-response","84","160410","0.0-1.0-108.0","0","0","68843","","null","","","null","11","","","","","","","","","","","","","","","NaN",""
"","S1","","html-keyboard-response","85","160663","0.0-1.0-110.0","0","0","68843","","null","","","null","12","","","","","","","","","","","","","","","",""
"","ISI","","html-keyboard-response","86","161668","0.0-1.0-111.0","0","0","68843","","null","","","null","12","NaN","","","","","","","","","","","","","","",""
"","S2","","html-keyboard-response","87","161923","0.0-1.0-112.0","0","0","68843","","null","","","null","12","","NaN","","","","","","","","","","","","","",""
"","response","","html-keyboard-response","88","162122","0.0-1.0-113.0-0.0","0","0","68843","","197","","","68","12","","","1","12","training","adjacent","CB","3","2","R.jpg","N.jpg","0","0","1","",""
"","feedback","","html-keyboard-response","89","163125","0.0-1.0-114.0-0.0","0","0","68843","","null","","","null","12","","","","","","","","","","","","","","","",""
"","ITI","","html-keyboard-response","90","164129","0.0-1.0-117.0","0","0","68843","","null","","","null","12","","","","","","","","","","","","","","","NaN",""
"","S1","","html-keyboard-response","91","164382","0.0-1.0-119.0","0","0","68843","","null","","","null","13","","","","","","","","","","","","","","","",""
"","ISI","","html-keyboard-response","92","165385","0.0-1.0-120.0","0","0","68843","","null","","","null","13","NaN","","","","","","","","","","","","","","",""
"","S2","","html-keyboard-response","93","165638","0.0-1.0-121.0","0","0","68843","","null","","","null","13","","NaN","","","","","","","","","","","","","",""
"","response","","html-keyboard-response","94","165692","0.0-1.0-122.0-0.0","0","0","68843","","53","","","75","13","","","1","13","training","adjacent","CD","3","4","R.jpg","M.jpg","1","1","1","",""
"","feedback","","html-keyboard-response","95","166695","0.0-1.0-123.0-0.0","0","0","68843","","null","","","null","13","","","","","","","","","","","","","","","",""
"","ITI","","html-keyboard-response","96","167708","0.0-1.0-126.0","0","0","68843","","null","","","null","13","","","","","","","","","","","","","","","NaN",""
"","S1","","html-keyboard-response","97","167961","0.0-1.0-128.0","0","0","68843","","null","","","null","14","","","","","","","","","","","","","","","",""
"","ISI","","html-keyboard-response","98","168964","0.0-1.0-129.0","0","0","68843","","null","","","null","14","NaN","","","","","","","","","","","","","","",""
"","S2","","html-keyboard-response","99","169217","0.0-1.0-130.0","0","0","68843","","null","","","null","14","","NaN","","","","","","","","","","","","","",""
"","response","","html-keyboard-response","100","169319","0.0-1.0-131.0-0.0","0","0","68843","","99","","","68","14","","","1","14","training","adjacent","FE","6","5","Q.jpg","P.jpg","0","0","1","",""
"","feedback","","html-keyboard-response","101","170333","0.0-1.0-132.0-0.0","0","0","68843","","null","","","null","14","","","","","","","","","","","","","","","",""
"","ITI","","html-keyboard-response","102","171335","0.0-1.0-135.0","0","0","68843","","null","","","null","14","","","","","","","","","","","","","","","NaN",""
"","S1","","html-keyboard-response","103","171588","0.0-1.0-137.0","0","0","68843","","null","","","null","15","","","","","","","","","","","","","","","",""
"","ISI","","html-keyboard-response","104","172591","0.0-1.0-138.0","0","0","68843","","null","","","null","15","NaN","","","","","","","","","","","","","","",""
"","S2","","html-keyboard-response","105","172813","0.0-1.0-139.0","0","0","68843","","219","","","75","15","","k","1","15","training","adjacent","AB","1","2","L.jpg","N.jpg","1","1","1","",""
"","feedback","","html-keyboard-response","106","173816","0.0-1.0-141.0-0.0","0","0","68843","","null","","","null","15","","","","","","","","","","","","","","","",""
"","ITI","","html-keyboard-response","107","174819","0.0-1.0-144.0","0","0","68843","","null","","","null","15","","","","","","","","","","","","","","","NaN",""
"","S1","","html-keyboard-response","108","175072","0.0-1.0-146.0","0","0","68843","","null","","","null","16","","","","","","","","","","","","","","","",""
"","ISI","","html-keyboard-response","109","176075","0.0-1.0-147.0","0","0","68843","","null","","","null","16","NaN","","","","","","","","","","","","","","",""
"","S2","","html-keyboard-response","110","176310","0.0-1.0-148.0","0","0","68843","","232","","","68","16","","d","1","16","training","adjacent","FG","6","7","Q.jpg","O.jpg","0","1","0","",""
"","feedback","","html-keyboard-response","111","177313","0.0-1.0-150.0-0.0","0","0","68843","","null","","","null","16","","","","","","","","","","","","","","","",""
"","time_out","","html-keyboard-response","112","179316","0.0-1.0-152.0-0.0","0","0","68843","","null","","","null","16","","","","","","","","","","","","","","","",""
"","ITI","","html-keyboard-response","113","180318","0.0-1.0-153.0","0","0","68843","","null","","","null","16","","","","","","","","","","","","","","","NaN",""
"","S1","","html-keyboard-response","114","180572","0.0-1.0-155.0","0","0","68843","","null","","","null","17","","","","","","","","","","","","","","","",""
"","ISI","","html-keyboard-response","115","181576","0.0-1.0-156.0","0","0","68843","","null","","","null","17","NaN","","","","","","","","","","","","","","",""
"","S2","","html-keyboard-response","116","181830","0.0-1.0-157.0","0","0","68843","","null","","","null","17","","NaN","","","","","","","","","","","","","",""
"","response","","html-keyboard-response","117","181900","0.0-1.0-158.0-0.0","0","0","68843","","68","","","75","17","","","1","17","training","adjacent","BC","2","3","N.jpg","R.jpg","1","1","1","",""
"","feedback","","html-keyboard-response","118","182903","0.0-1.0-159.0-0.0","0","0","68843","","null","","","null","17","","","","","","","","","","","","","","","",""
"","ITI","","html-keyboard-response","119","183905","0.0-1.0-162.0","0","0","68843","","null","","","null","17","","","","","","","","","","","","","","","NaN",""
"","S1","","html-keyboard-response","120","184159","0.0-1.0-164.0","0","0","68843","","null","","","null","18","","","","","","","","","","","","","","","",""
"","ISI","","html-keyboard-response","121","185162","0.0-1.0-165.0","0","0","68843","","null","","","null","18","NaN","","","","","","","","","","","","","","",""
"","S2","","html-keyboard-response","122","185417","0.0-1.0-166.0","0","0","68843","","null","","","null","18","","NaN","","","","","","","","","","","","","",""
"","response","","html-keyboard-response","123","185648","0.0-1.0-167.0-0.0","0","0","68843","","229","","","68","18","","","1","18","training","adjacent","DE","4","5","M.jpg","P.jpg","0","1","0","",""
"","feedback","","html-keyboard-response","124","186652","0.0-1.0-168.0-0.0","0","0","68843","","null","","","null","18","","","","","","","","","","","","","","","",""
"","time_out","","html-keyboard-response","125","188671","0.0-1.0-170.0-0.0","0","0","68843","","null","","","null","18","","","","","","","","","","","","","","","",""
"","ITI","","html-keyboard-response","126","189675","0.0-1.0-171.0","0","0","68843","","null","","","null","18","","","","","","","","","","","","","","","NaN",""
"","S1","","html-keyboard-response","127","189929","0.0-1.0-173.0","0","0","68843","","null","","","null","19","","","","","","","","","","","","","","","",""
"","ISI","","html-keyboard-response","128","190934","0.0-1.0-174.0","0","0","68843","","null","","","null","19","NaN","","","","","","","","","","","","","","",""
"","S2","","html-keyboard-response","129","191188","0.0-1.0-175.0","0","0","68843","","null","","","null","19","","NaN","","","","","","","","","","","","","",""
"","response","","html-keyboard-response","130","191233","0.0-1.0-176.0-0.0","0","0","68843","","42","","","75","19","","","1","19","training","adjacent","CD","3","4","R.jpg","M.jpg","1","1","1","",""
"","feedback","","html-keyboard-response","131","192253","0.0-1.0-177.0-0.0","0","0","68843","","null","","","null","19","","","","","","","","","","","","","","","",""
"","ITI","","html-keyboard-response","132","193256","0.0-1.0-180.0","0","0","68843","","null","","","null","19","","","","","","","","","","","","","","","NaN",""
"","S1","","html-keyboard-response","133","193510","0.0-1.0-182.0","0","0","68843","","null","","","null","20","","","","","","","","","","","","","","","",""
"","ISI","","html-keyboard-response","134","194513","0.0-1.0-183.0","0","0","68843","","null","","","null","20","NaN","","","","","","","","","","","","","","",""
"","S2","","html-keyboard-response","135","194733","0.0-1.0-184.0","0","0","68843","","218","","","68","20","","d","1","20","training","adjacent","AB","1","2","L.jpg","N.jpg","0","1","0","",""
"","feedback","","html-keyboard-response","136","195738","0.0-1.0-186.0-0.0","0","0","68843","","null","","","null","20","","","","","","","","","","","","","","","",""
"","time_out","","html-keyboard-response","137","197742","0.0-1.0-188.0-0.0","0","0","68843","","null","","","null","20","","","","","","","","","","","","","","","",""
"","ITI","","html-keyboard-response","138","198746","0.0-1.0-189.0","0","0","68843","","null","","","null","20","","","","","","","","","","","","","","","NaN",""
"","S1","","html-keyboard-response","139","198999","0.0-1.0-191.0","0","0","68843","","null","","","null","21","","","","","","","","","","","","","","","",""
"","ISI","","html-keyboard-response","140","200001","0.0-1.0-192.0","0","0","68843","","null","","","null","21","NaN","","","","","","","","","","","","","","",""
"","S2","","html-keyboard-response","141","200240","0.0-1.0-193.0","0","0","68843","","237","","","68","21","","d","1","21","training","adjacent","BA","2","1","N.jpg","L.jpg","0","0","1","",""
"","feedback","","html-keyboard-response","142","201245","0.0-1.0-195.0-0.0","0","0","68843","","null","","","null","21","","","","","","","","","","","","","","","",""
"","ITI","","html-keyboard-response","143","202250","0.0-1.0-198.0","0","0","68843","","null","","","null","21","","","","","","","","","","","","","","","NaN",""
"","S1","","html-keyboard-response","144","202503","0.0-1.0-200.0","0","0","68843","","null","","","null","22","","","","","","","","","","","","","","","",""
"","ISI","","html-keyboard-response","145","203507","0.0-1.0-201.0","0","0","68843","","null","","","null","22","NaN","","","","","","","","","","","","","","",""
"","S2","","html-keyboard-response","146","203761","0.0-1.0-202.0","0","0","68843","","null","","","null","22","","NaN","","","","","","","","","","","","","",""
"","response","","html-keyboard-response","147","203854","0.0-1.0-203.0-0.0","0","0","68843","","91","","","75","22","","","1","22","training","adjacent","FE","6","5","Q.jpg","P.jpg","1","0","0","",""
"","feedback","","html-keyboard-response","148","204858","0.0-1.0-204.0-0.0","0","0","68843","","null","","","null","22","","","","","","","","","","","","","","","",""
"","time_out","","html-keyboard-response","149","206871","0.0-1.0-206.0-0.0","0","0","68843","","null","","","null","22","","","","","","","","","","","","","","","",""
"","ITI","","html-keyboard-response","150","207874","0.0-1.0-207.0","0","0","68843","","null","","","null","22","","","","","","","","","","","","","","","NaN",""
"","S1","","html-keyboard-response","151","208130","0.0-1.0-209.0","0","0","68843","","null","","","null","23","","","","","","","","","","","","","","","",""
"","ISI","","html-keyboard-response","152","209133","0.0-1.0-210.0","0","0","68843","","null","","","null","23","NaN","","","","","","","","","","","","","","",""
"","S2","","html-keyboard-response","153","209386","0.0-1.0-211.0","0","0","68843","","null","","","null","23","","NaN","","","","","","","","","","","","","",""
"","response","","html-keyboard-response","154","209500","0.0-1.0-212.0-0.0","0","0","68843","","112","","","68","23","","","1","23","training","adjacent","DE","4","5","M.jpg","P.jpg","0","1","0","",""
"","feedback","","html-keyboard-response","155","210504","0.0-1.0-213.0-0.0","0","0","68843","","null","","","null","23","","","","","","","","","","","","","","","",""
"","time_out","","html-keyboard-response","156","212507","0.0-1.0-215.0-0.0","0","0","68843","","null","","","null","23","","","","","","","","","","","","","","","",""
"","ITI","","html-keyboard-response","157","213512","0.0-1.0-216.0","0","0","68843","","null","","","null","23","","","","","","","","","","","","","","","NaN",""
"","S1","","html-keyboard-response","158","213766","0.0-1.0-218.0","0","0","68843","","null","","","null","24","","","","","","","","","","","","","","","",""
"","ISI","","html-keyboard-response","159","214770","0.0-1.0-219.0","0","0","68843","","null","","","null","24","NaN","","","","","","","","","","","","","","",""
"","S2","","html-keyboard-response","160","215024","0.0-1.0-220.0","0","0","68843","","null","","","null","24","","NaN","","","","","","","","","","","","","",""
"","response","","html-keyboard-response","161","215069","0.0-1.0-221.0-0.0","0","0","68843","","43","","","75","24","","","1","24","training","adjacent","EF","5","6","P.jpg","Q.jpg","1","1","1","",""
"","feedback","","html-keyboard-response","162","216071","0.0-1.0-222.0-0.0","0","0","68843","","null","","","null","24","","","","","","","","","","","","","","","",""
"","ITI","","html-keyboard-response","163","217075","0.0-1.0-225.0","0","0","68843","","null","","","null","24","","","","","","","","","","","","","","","NaN",""
"","S1","","html-keyboard-response","164","217331","0.0-1.0-227.0","0","0","68843","","null","","","null","25","","","","","","","","","","","","","","","",""
"","ISI","","html-keyboard-response","165","218336","0.0-1.0-228.0","0","0","68843","","null","","","null","25","NaN","","","","","","","","","","","","","","",""
"","S2","","html-keyboard-response","166","218591","0.0-1.0-229.0","0","0","68843","","null","","","null","25","","NaN","","","","","","","","","","","","","",""
"","response","","html-keyboard-response","167","219066","0.0-1.0-230.0-0.0","0","0","68843","","473","","","68","25","","","1","25","training","adjacent","FE","6","5","Q.jpg","P.jpg","0","0","1","",""
"","feedback","","html-keyboard-response","168","220068","0.0-1.0-231.0-0.0","0","0","68843","","null","","","null","25","","","","","","","","","","","","","","","",""
"","ITI","","html-keyboard-response","169","221072","0.0-1.0-234.0","0","0","68843","","null","","","null","25","","","","","","","","","","","","","","","NaN",""
"","S1","","html-keyboard-response","170","221325","0.0-1.0-236.0","0","0","68843","","null","","","null","26","","","","","","","","","","","","","","","",""
"","ISI","","html-keyboard-response","171","222329","0.0-1.0-237.0","0","0","68843","","null","","","null","26","NaN","","","","","","","","","","","","","","",""
"","S2","","html-keyboard-response","172","222582","0.0-1.0-238.0","0","0","68843","","null","","","null","26","","NaN","","","","","","","","","","","","","",""
"","response","","html-keyboard-response","173","222657","0.0-1.0-239.0-0.0","0","0","68843","","74","","","75","26","","","1","26","training","adjacent","CB","3","2","R.jpg","N.jpg","1","0","0","",""
"","feedback","","html-keyboard-response","174","223660","0.0-1.0-240.0-0.0","0","0","68843","","null","","","null","26","","","","","","","","","","","","","","","",""
"","time_out","","html-keyboard-response","175","225663","0.0-1.0-242.0-0.0","0","0","68843","","null","","","null","26","","","","","","","","","","","","","","","",""
"","ITI","","html-keyboard-response","176","226667","0.0-1.0-243.0","0","0","68843","","null","","","null","26","","","","","","","","","","","","","","","NaN",""
"","S1","","html-keyboard-response","177","226921","0.0-1.0-245.0","0","0","68843","","null","","","null","27","","","","","","","","","","","","","","","",""
"","ISI","","html-keyboard-response","178","227925","0.0-1.0-246.0","0","0","68843","","null","","","null","27","NaN","","","","","","","","","","","","","","",""
"","S2","","html-keyboard-response","179","228134","0.0-1.0-247.0","0","0","68843","","208","","","75","27","","k","1","27","training","adjacent","CD","3","4","R.jpg","M.jpg","1","1","1","",""
"","feedback","","html-keyboard-response","180","229137","0.0-1.0-249.0-0.0","0","0","68843","","null","","","null","27","","","","","","","","","","","","","","","",""
"","ITI","","html-keyboard-response","181","230141","0.0-1.0-252.0","0","0","68843","","null","","","null","27","","","","","","","","","","","","","","","NaN",""
"","S1","","html-keyboard-response","182","230395","0.0-1.0-254.0","0","0","68843","","null","","","null","28","","","","","","","","","","","","","","","",""
"","ISI","","html-keyboard-response","183","231399","0.0-1.0-255.0","0","0","68843","","null","","","null","28","NaN","","","","","","","","","","","","","","",""
"","S2","","html-keyboard-response","184","231573","0.0-1.0-256.0","0","0","68843","","171","","","68","28","","d","1","28","training","adjacent","EF","5","6","P.jpg","Q.jpg","0","1","0","",""
"","feedback","","html-keyboard-response","185","232577","0.0-1.0-258.0-0.0","0","0","68843","","null","","","null","28","","","","","","","","","","","","","","","",""
"","time_out","","html-keyboard-response","186","234597","0.0-1.0-260.0-0.0","0","0","68843","","null","","","null","28","","","","","","","","","","","","","","","",""
"","ITI","","html-keyboard-response","187","235601","0.0-1.0-261.0","0","0","68843","","null","","","null","28","","","","","","","","","","","","","","","NaN",""
"","S1","","html-keyboard-response","188","235856","0.0-1.0-263.0","0","0","68843","","null","","","null","29","","","","","","","","","","","","","","","",""
"","ISI","","html-keyboard-response","189","236860","0.0-1.0-264.0","0","0","68843","","948","","","75","29","k","","","","","","","","","","","","","","",""
"","S2","","html-keyboard-response","190","237127","0.0-1.0-265.0","0","0","68843","","null","","","null","29","","NaN","","","","","","","","","","","","","",""
"","response","","html-keyboard-response","191","237311","0.0-1.0-266.0-0.0","0","0","68843","","181","","","75","29","","","1","29","training","adjacent","BA","2","1","N.jpg","L.jpg","1","0","0","",""
"","feedback","","html-keyboard-response","192","238316","0.0-1.0-267.0-0.0","0","0","68843","","null","","","null","29","","","","","","","","","","","","","","","",""
"","time_out","","html-keyboard-response","193","240319","0.0-1.0-269.0-0.0","0","0","68843","","null","","","null","29","","","","","","","","","","","","","","","",""
"","ITI","","html-keyboard-response","194","241322","0.0-1.0-270.0","0","0","68843","","null","","","null","29","","","","","","","","","","","","","","","NaN",""
"","S1","","html-keyboard-response","195","241581","0.0-1.0-272.0","0","0","68843","","null","","","null","30","","","","","","","","","","","","","","","",""
"","ISI","","html-keyboard-response","196","242584","0.0-1.0-273.0","0","0","68843","","null","","","null","30","NaN","","","","","","","","","","","","","","",""
"","S2","","html-keyboard-response","197","242837","0.0-1.0-274.0","0","0","68843","","null","","","null","30","","NaN","","","","","","","","","","","","","",""
"","response","","html-keyboard-response","198","242878","0.0-1.0-275.0-0.0","0","0","68843","","39","","","68","30","","","1","30","training","adjacent","BA","2","1","N.jpg","L.jpg","0","0","1","",""
"","feedback","","html-keyboard-response","199","243881","0.0-1.0-276.0-0.0","0","0","68843","","null","","","null","30","","","","","","","","","","","","","","","",""
"","ITI","","html-keyboard-response","200","244884","0.0-1.0-279.0","0","0","68843","","null","","","null","30","","","","","","","","","","","","","","","NaN",""
"","S1","","html-keyboard-response","201","245137","0.0-1.0-281.0","0","0","68843","","null","","","null","31","","","","","","","","","","","","","","","",""
"","ISI","","html-keyboard-response","202","246140","0.0-1.0-282.0","0","0","68843","","null","","","null","31","NaN","","","","","","","","","","","","","","",""
"","S2","","html-keyboard-response","203","246316","0.0-1.0-283.0","0","0","68843","","173","","","75","31","","k","1","31","training","adjacent","ED","5","4","P.jpg","M.jpg","1","0","0","",""
"","feedback","","html-keyboard-response","204","247320","0.0-1.0-285.0-0.0","0","0","68843","","null","","","null","31","","","","","","","","","","","","","","","",""
"","time_out","","html-keyboard-response","205","249322","0.0-1.0-287.0-0.0","0","0","68843","","null","","","null","31","","","","","","","","","","","","","","","",""
"","ITI","","html-keyboard-response","206","250326","0.0-1.0-288.0","0","0","68843","","null","","","null","31","","","","","","","","","","","","","","","NaN",""
"","S1","","html-keyboard-response","207","250579","0.0-1.0-290.0","0","0","68843","","null","","","null","32","","","","","","","","","","","","","","","",""
"","ISI","","html-keyboard-response","208","251583","0.0-1.0-291.0","0","0","68843","","null","","","null","32","NaN","","","","","","","","","","","","","","",""
"","S2","","html-keyboard-response","209","251837","0.0-1.0-292.0","0","0","68843","","null","","","null","32","","NaN","","","","","","","","","","","","","",""
"","response","","html-keyboard-response","210","251854","0.0-1.0-293.0-0.0","0","0","68843","","15","","","68","32","","","1","32","training","adjacent","GF","7","6","O.jpg","Q.jpg","0","0","1","",""
"","feedback","","html-keyboard-response","211","252857","0.0-1.0-294.0-0.0","0","0","68843","","null","","","null","32","","","","","","","","","","","","","","","",""
"","ITI","","html-keyboard-response","212","253862","0.0-1.0-297.0","0","0","68843","","null","","","null","32","","","","","","","","","","","","","","","NaN",""
"","S1","","html-keyboard-response","213","254115","0.0-1.0-299.0","0","0","68843","","null","","","null","33","","","","","","","","","","","","","","","",""
"","ISI","","html-keyboard-response","214","255117","0.0-1.0-300.0","0","0","68843","","950","","","75","33","k","","","","","","","","","","","","","","",""
"","S2","","html-keyboard-response","215","255371","0.0-1.0-301.0","0","0","68843","","null","","","null","33","","NaN","","","","","","","","","","","","","",""
"","response","","html-keyboard-response","216","255489","0.0-1.0-302.0-0.0","0","0","68843","","115","","","75","33","","","1","33","training","adjacent","FE","6","5","Q.jpg","P.jpg","1","0","0","",""
"","feedback","","html-keyboard-response","217","256493","0.0-1.0-303.0-0.0","0","0","68843","","null","","","null","33","","","","","","","","","","","","","","","",""
"","time_out","","html-keyboard-response","218","258497","0.0-1.0-305.0-0.0","0","0","68843","","null","","","null","33","","","","","","","","","","","","","","","",""
"","ITI","","html-keyboard-response","219","259500","0.0-1.0-306.0","0","0","68843","","null","","","null","33","","","","","","","","","","","","","","","NaN",""
"","S1","","html-keyboard-response","220","259753","0.0-1.0-308.0","0","0","68843","","null","","","null","34","","","","","","","","","","","","","","","",""
"","ISI","","html-keyboard-response","221","260757","0.0-1.0-309.0","0","0","68843","","null","","","null","34","NaN","","","","","","","","","","","","","","",""
"","S2","","html-keyboard-response","222","261011","0.0-1.0-310.0","0","0","68843","","null","","","null","34","","NaN","","","","","","","","","","","","","",""
"","response","","html-keyboard-response","223","261120","0.0-1.0-311.0-0.0","0","0","68843","","107","","","68","34","","","1","34","training","adjacent","DE","4","5","M.jpg","P.jpg","0","1","0","",""
"","feedback","","html-keyboard-response","224","262124","0.0-1.0-312.0-0.0","0","0","68843","","null","","","null","34","","","","","","","","","","","","","","","",""
"","time_out","","html-keyboard-response","225","264129","0.0-1.0-314.0-0.0","0","0","68843","","null","","","null","34","","","","","","","","","","","","","","","",""
"","ITI","","html-keyboard-response","226","265133","0.0-1.0-315.0","0","0","68843","","null","","","null","34","","","","","","","","","","","","","","","NaN",""
"","S1","","html-keyboard-response","227","265387","0.0-1.0-317.0","0","0","68843","","null","","","null","35","","","","","","","","","","","","","","","",""
"","ISI","","html-keyboard-response","228","266389","0.0-1.0-318.0","0","0","68843","","null","","","null","35","NaN","","","","","","","","","","","","","","",""
"","S2","","html-keyboard-response","229","266601","0.0-1.0-319.0","0","0","68843","","210","","","75","35","","k","1","35","training","adjacent","DC","4","3","M.jpg","R.jpg","1","0","0","",""
"","feedback","","html-keyboard-response","230","267605","0.0-1.0-321.0-0.0","0","0","68843","","null","","","null","35","","","","","","","","","","","","","","","",""
"","time_out","","html-keyboard-response","231","269608","0.0-1.0-323.0-0.0","0","0","68843","","null","","","null","35","","","","","","","","","","","","","","","",""
"","ITI","","html-keyboard-response","232","270610","0.0-1.0-324.0","0","0","68843","","null","","","null","35","","","","","","","","","","","","","","","NaN",""
"","S1","","html-keyboard-response","233","270863","0.0-1.0-326.0","0","0","68843","","null","","","null","36","","","","","","","","","","","","","","","",""
"","ISI","","html-keyboard-response","234","271865","0.0-1.0-327.0","0","0","68843","","null","","","null","36","NaN","","","","","","","","","","","","","","",""
"","S2","","html-keyboard-response","235","272118","0.0-1.0-328.0","0","0","68843","","null","","","null","36","","NaN","","","","","","","","","","","","","",""
"","response","","html-keyboard-response","236","272870","0.0-1.0-329.0-0.0","0","0","68843","","749","","","68","36","","","1","36","training","adjacent","ED","5","4","P.jpg","M.jpg","0","0","1","",""
"","feedback","","html-keyboard-response","237","273874","0.0-1.0-330.0-0.0","0","0","68843","","null","","","null","36","","","","","","","","","","","","","","","",""
"","ITI","","html-keyboard-response","238","274879","0.0-1.0-333.0","0","0","68843","","null","","","null","36","","","","","","","","","","","","","","","NaN",""
"","S1","","html-keyboard-response","239","275134","0.0-1.0-335.0","0","0","68843","","null","","","null","37","","","","","","","","","","","","","","","",""
"","ISI","","html-keyboard-response","240","276136","0.0-1.0-336.0","0","0","68843","","null","","","null","37","NaN","","","","","","","","","","","","","","",""
"","S2","","html-keyboard-response","241","276390","0.0-1.0-337.0","0","0","68843","","null","","","null","37","","NaN","","","","","","","","","","","","","",""
"","response","","html-keyboard-response","242","276626","0.0-1.0-338.0-0.0","0","0","68843","","234","","","75","37","","","1","37","training","adjacent","AB","1","2","L.jpg","N.jpg","1","1","1","",""
"","feedback","","html-keyboard-response","243","277630","0.0-1.0-339.0-0.0","0","0","68843","","null","","","null","37","","","","","","","","","","","","","","","",""
"","ITI","","html-keyboard-response","244","278634","0.0-1.0-342.0","0","0","68843","","null","","","null","37","","","","","","","","","","","","","","","NaN",""
"","S1","","html-keyboard-response","245","278887","0.0-1.0-344.0","0","0","68843","","null","","","null","38","","","","","","","","","","","","","","","",""
"","ISI","","html-keyboard-response","246","279890","0.0-1.0-345.0","0","0","68843","","null","","","null","38","NaN","","","","","","","","","","","","","","",""
"","S2","","html-keyboard-response","247","280143","0.0-1.0-346.0","0","0","68843","","null","","","null","38","","NaN","","","","","","","","","","","","","",""
"","response","","html-keyboard-response","248","280541","0.0-1.0-347.0-0.0","0","0","68843","","396","","","68","38","","","1","38","training","adjacent","DC","4","3","M.jpg","R.jpg","0","0","1","",""
"","feedback","","html-keyboard-response","249","281545","0.0-1.0-348.0-0.0","0","0","68843","","null","","","null","38","","","","","","","","","","","","","","","",""
"","ITI","","html-keyboard-response","250","282550","0.0-1.0-351.0","0","0","68843","","null","","","null","38","","","","","","","","","","","","","","","NaN",""
"","S1","","html-keyboard-response","251","282803","0.0-1.0-353.0","0","0","68843","","null","","","null","39","","","","","","","","","","","","","","","",""
"","ISI","","html-keyboard-response","252","283806","0.0-1.0-354.0","0","0","68843","","null","","","null","39","NaN","","","","","","","","","","","","","","",""
"","S2","","html-keyboard-response","253","284061","0.0-1.0-355.0","0","0","68843","","null","","","null","39","","NaN","","","","","","","","","","","","","",""
"","response","","html-keyboard-response","254","284292","0.0-1.0-356.0-0.0","0","0","68843","","228","","","75","39","","","1","39","training","adjacent","CD","3","4","R.jpg","M.jpg","1","1","1","",""
"","feedback","","html-keyboard-response","255","285296","0.0-1.0-357.0-0.0","0","0","68843","","null","","","null","39","","","","","","","","","","","","","","","",""
"","ITI","","html-keyboard-response","256","286300","0.0-1.0-360.0","0","0","68843","","null","","","null","39","","","","","","","","","","","","","","","NaN",""
"","S1","","html-keyboard-response","257","286570","0.0-1.0-362.0","0","0","68843","","null","","","null","40","","","","","","","","","","","","","","","",""
"","ISI","","html-keyboard-response","258","287575","0.0-1.0-363.0","0","0","68843","","null","","","null","40","NaN","","","","","","","","","","","","","","",""
"","S2","","html-keyboard-response","259","287829","0.0-1.0-364.0","0","0","68843","","null","","","null","40","","NaN","","","","","","","","","","","","","",""
"","response","","html-keyboard-response","260","288103","0.0-1.0-365.0-0.0","0","0","68843","","272","","","75","40","","","1","40","training","adjacent","GF","7","6","O.jpg","Q.jpg","1","0","0","",""
"","feedback","","html-keyboard-response","261","289114","0.0-1.0-366.0-0.0","0","0","68843","","null","","","null","40","","","","","","","","","","","","","","","",""
"","time_out","","html-keyboard-response","262","291115","0.0-1.0-368.0-0.0","0","0","68843","","null","","","null","40","","","","","","","","","","","","","","","",""
"","ITI","","html-keyboard-response","263","292121","0.0-1.0-369.0","0","0","68843","","null","","","null","40","","","","","","","","","","","","","","","NaN",""
"","S1","","html-keyboard-response","264","292387","0.0-1.0-371.0","0","0","68843","","null","","","null","41","","","","","","","","","","","","","","","",""
"","ISI","","html-keyboard-response","265","293391","0.0-1.0-372.0","0","0","68843","","null","","","null","41","NaN","","","","","","","","","","","","","","",""
"","S2","","html-keyboard-response","266","293644","0.0-1.0-373.0","0","0","68843","","null","","","null","41","","NaN","","","","","","","","","","","","","",""
"","response","","html-keyboard-response","267","293872","0.0-1.0-374.0-0.0","0","0","68843","","226","","","75","41","","","1","41","training","adjacent","BA","2","1","N.jpg","L.jpg","1","0","0","",""
"","feedback","","html-keyboard-response","268","294876","0.0-1.0-375.0-0.0","0","0","68843","","null","","","null","41","","","","","","","","","","","","","","","",""
"","time_out","","html-keyboard-response","269","296881","0.0-1.0-377.0-0.0","0","0","68843","","null","","","null","41","","","","","","","","","","","","","","","",""
"","ITI","","html-keyboard-response","270","297885","0.0-1.0-378.0","0","0","68843","","null","","","null","41","","","","","","","","","","","","","","","NaN",""
"","S1","","html-keyboard-response","271","298138","0.0-1.0-380.0","0","0","68843","","null","","","null","42","","","","","","","","","","","","","","","",""
"","ISI","","html-keyboard-response","272","299141","0.0-1.0-381.0","0","0","68843","","null","","","null","42","NaN","","","","","","","","","","","","","","",""
"","S2","","html-keyboard-response","273","299377","0.0-1.0-382.0","0","0","68843","","234","","","68","42","","d","1","42","training","adjacent","BC","2","3","N.jpg","R.jpg","0","1","0","",""
"","feedback","","html-keyboard-response","274","300382","0.0-1.0-384.0-0.0","0","0","68843","","null","","","null","42","","","","","","","","","","","","","","","",""
"","time_out","","html-keyboard-response","275","302385","0.0-1.0-386.0-0.0","0","0","68843","","null","","","null","42","","","","","","","","","","","","","","","",""
"","ITI","","html-keyboard-response","276","303390","0.0-1.0-387.0","0","0","68843","","null","","","null","42","","","","","","","","","","","","","","","NaN",""
"","S1","","html-keyboard-response","277","303644","0.0-1.0-389.0","0","0","68843","","null","","","null","43","","","","","","","","","","","","","","","",""
"","ISI","","html-keyboard-response","278","304649","0.0-1.0-390.0","0","0","68843","","null","","","null","43","NaN","","","","","","","","","","","","","","",""
"","S2","","html-keyboard-response","279","304904","0.0-1.0-391.0","0","0","68843","","null","","","null","43","","NaN","","","","","","","","","","","","","",""
"","response","","html-keyboard-response","280","305021","0.0-1.0-392.0-0.0","0","0","68843","","115","","","75","43","","","1","43","training","adjacent","FG","6","7","Q.jpg","O.jpg","1","1","1","",""
"","feedback","","html-keyboard-response","281","306026","0.0-1.0-393.0-0.0","0","0","68843","","null","","","null","43","","","","","","","","","","","","","","","",""
"","ITI","","html-keyboard-response","282","307029","0.0-1.0-396.0","0","0","68843","","null","","","null","43","","","","","","","","","","","","","","","NaN",""
"","S1","","html-keyboard-response","283","307283","0.0-1.0-398.0","0","0","68843","","null","","","null","44","","","","","","","","","","","","","","","",""
"","ISI","","html-keyboard-response","284","308288","0.0-1.0-399.0","0","0","68843","","null","","","null","44","NaN","","","","","","","","","","","","","","",""
"","S2","","html-keyboard-response","285","308541","0.0-1.0-400.0","0","0","68843","","null","","","null","44","","NaN","","","","","","","","","","","","","",""
"","response","","html-keyboard-response","286","308918","0.0-1.0-401.0-0.0","0","0","68843","","376","","","75","44","","","1","44","training","adjacent","ED","5","4","P.jpg","M.jpg","1","0","0","",""
"","feedback","","html-keyboard-response","287","309923","0.0-1.0-402.0-0.0","0","0","68843","","null","","","null","44","","","","","","","","","","","","","","","",""
"","time_out","","html-keyboard-response","288","311925","0.0-1.0-404.0-0.0","0","0","68843","","null","","","null","44","","","","","","","","","","","","","","","",""
"","ITI","","html-keyboard-response","289","312938","0.0-1.0-405.0","0","0","68843","","null","","","null","44","","","","","","","","","","","","","","","NaN",""
"","S1","","html-keyboard-response","290","313191","0.0-1.0-407.0","0","0","68843","","null","","","null","45","","","","","","","","","","","","","","","",""
"","ISI","","html-keyboard-response","291","314194","0.0-1.0-408.0","0","0","68843","","null","","","null","45","NaN","","","","","","","","","","","","","","",""
"","S2","","html-keyboard-response","292","314411","0.0-1.0-409.0","0","0","68843","","215","","","75","45","","k","1","45","training","adjacent","EF","5","6","P.jpg","Q.jpg","1","1","1","",""
"","feedback","","html-keyboard-response","293","315414","0.0-1.0-411.0-0.0","0","0","68843","","null","","","null","45","","","","","","","","","","","","","","","",""
"","ITI","","html-keyboard-response","294","316417","0.0-1.0-414.0","0","0","68843","","null","","","null","45","","","","","","","","","","","","","","","NaN",""
"","S1","","html-keyboard-response","295","316671","0.0-1.0-416.0","0","0","68843","","null","","","null","46","","","","","","","","","","","","","","","",""
"","ISI","","html-keyboard-response","296","317674","0.0-1.0-417.0","0","0","68843","","null","","","null","46","NaN","","","","","","","","","","","","","","",""
"","S2","","html-keyboard-response","297","317927","0.0-1.0-418.0","0","0","68843","","null","","","null","46","","NaN","","","","","","","","","","","","","",""
"","response","","html-keyboard-response","298","317934","0.0-1.0-419.0-0.0","0","0","68843","","5","","","68","46","","","1","46","training","adjacent","BC","2","3","N.jpg","R.jpg","0","1","0","",""
"","feedback","","html-keyboard-response","299","318937","0.0-1.0-420.0-0.0","0","0","68843","","null","","","null","46","","","","","","","","","","","","","","","",""
"","time_out","","html-keyboard-response","300","320942","0.0-1.0-422.0-0.0","0","0","68843","","null","","","null","46","","","","","","","","","","","","","","","",""
"","ITI","","html-keyboard-response","301","321946","0.0-1.0-423.0","0","0","68843","","null","","","null","46","","","","","","","","","","","","","","","NaN",""
"","S1","","html-keyboard-response","302","322200","0.0-1.0-425.0","0","0","68843","","null","","","null","47","","","","","","","","","","","","","","","",""
"","ISI","","html-keyboard-response","303","323202","0.0-1.0-426.0","0","0","68843","","null","","","null","47","NaN","","","","","","","","","","","","","","",""
"","S2","","html-keyboard-response","304","323349","0.0-1.0-427.0","0","0","68843","","145","","","75","47","","k","1","47","training","adjacent","BC","2","3","N.jpg","R.jpg","1","1","1","",""
"","feedback","","html-keyboard-response","305","324352","0.0-1.0-429.0-0.0","0","0","68843","","null","","","null","47","","","","","","","","","","","","","","","",""
"","ITI","","html-keyboard-response","306","325355","0.0-1.0-432.0","0","0","68843","","null","","","null","47","","","","","","","","","","","","","","","NaN",""
"","block_over","","html-keyboard-response","307","335538","0.0-1.0-433.0-0.0","0","0","68843","","10180","","","32","47","","","","","","","","","","","","","","","",""
"","S1","","html-keyboard-response","308","335792","0.0-1.0-434.0","0","0","68843","","null","","","null","48","","","","","","","","","","","","","","","",""
"","ISI","","html-keyboard-response","309","336795","0.0-1.0-435.0","0","0","68843","","null","","","null","48","NaN","","","","","","","","","","","","","","",""
"","S2","","html-keyboard-response","310","337048","0.0-1.0-436.0","0","0","68843","","null","","","null","48","","NaN","","","","","","","","","","","","","",""
"","response","","html-keyboard-response","311","337071","0.0-1.0-437.0-0.0","0","0","68843","","21","","","75","48","","","2","48","training","adjacent","BC","2","3","N.jpg","R.jpg","1","1","1","",""
"","feedback","","html-keyboard-response","312","338076","0.0-1.0-438.0-0.0","0","0","68843","","null","","","null","48","","","","","","","","","","","","","","","",""
"","ITI","","html-keyboard-response","313","339080","0.0-1.0-441.0","0","0","68843","","null","","","null","48","","","","","","","","","","","","","","","NaN",""
"","S1","","html-keyboard-response","314","339335","0.0-1.0-443.0","0","0","68843","","null","","","null","49","","","","","","","","","","","","","","","",""
"","ISI","","html-keyboard-response","315","340338","0.0-1.0-444.0","0","0","68843","","null","","","null","49","NaN","","","","","","","","","","","","","","",""
"","S2","","html-keyboard-response","316","340591","0.0-1.0-445.0","0","0","68843","","null","","","null","49","","NaN","","","","","","","","","","","","","",""
"","response","","html-keyboard-response","317","340592","0.0-1.0-446.0-0.0","0","0","68843","","0","","","68","49","","","2","49","training","adjacent","GF","7","6","O.jpg","Q.jpg","0","0","1","",""
"","feedback","","html-keyboard-response","318","341596","0.0-1.0-447.0-0.0","0","0","68843","","null","","","null","49","","","","","","","","","","","","","","","",""
"","ITI","","html-keyboard-response","319","342600","0.0-1.0-450.0","0","0","68843","","null","","","null","49","","","","","","","","","","","","","","","NaN",""
"","S1","","html-keyboard-response","320","342852","0.0-1.0-452.0","0","0","68843","","null","","","null","50","","","","","","","","","","","","","","","",""
"","ISI","","html-keyboard-response","321","343854","0.0-1.0-453.0","0","0","68843","","null","","","null","50","NaN","","","","","","","","","","","","","","",""
"","S2","","html-keyboard-response","322","344077","0.0-1.0-454.0","0","0","68843","","221","","","75","50","","k","2","50","training","adjacent","FE","6","5","Q.jpg","P.jpg","1","0","0","",""
"","feedback","","html-keyboard-response","323","345080","0.0-1.0-456.0-0.0","0","0","68843","","null","","","null","50","","","","","","","","","","","","","","","",""
"","time_out","","html-keyboard-response","324","347083","0.0-1.0-458.0-0.0","0","0","68843","","null","","","null","50","","","","","","","","","","","","","","","",""
"","ITI","","html-keyboard-response","325","348087","0.0-1.0-459.0","0","0","68843","","null","","","null","50","","","","","","","","","","","","","","","NaN",""
"","S1","","html-keyboard-response","326","348342","0.0-1.0-461.0","0","0","68843","","null","","","null","51","","","","","","","","","","","","","","","",""
"","ISI","","html-keyboard-response","327","349346","0.0-1.0-462.0","0","0","68843","","null","","","null","51","NaN","","","","","","","","","","","","","","",""
"","S2","","html-keyboard-response","328","349550","0.0-1.0-463.0","0","0","68843","","201","","","68","51","","d","2","51","training","adjacent","BA","2","1","N.jpg","L.jpg","0","0","1","",""
"","feedback","","html-keyboard-response","329","350553","0.0-1.0-465.0-0.0","0","0","68843","","null","","","null","51","","","","","","","","","","","","","","","",""
"","ITI","","html-keyboard-response","330","351557","0.0-1.0-468.0","0","0","68843","","null","","","null","51","","","","","","","","","","","","","","","NaN",""
"","S1","","html-keyboard-response","331","351812","0.0-1.0-470.0","0","0","68843","","null","","","null","52","","","","","","","","","","","","","","","",""
"","ISI","","html-keyboard-response","332","352815","0.0-1.0-471.0","0","0","68843","","null","","","null","52","NaN","","","","","","","","","","","","","","",""
"","S2","","html-keyboard-response","333","353010","0.0-1.0-472.0","0","0","68843","","192","","","75","52","","k","2","52","training","adjacent","DE","4","5","M.jpg","P.jpg","1","1","1","",""
"","feedback","","html-keyboard-response","334","354012","0.0-1.0-474.0-0.0","0","0","68843","","null","","","null","52","","","","","","","","","","","","","","","",""
"","ITI","","html-keyboard-response","335","355031","0.0-1.0-477.0","0","0","68843","","null","","","null","52","","","","","","","","","","","","","","","NaN",""
"","S1","","html-keyboard-response","336","355284","0.0-1.0-479.0","0","0","68843","","null","","","null","53","","","","","","","","","","","","","","","",""
"","ISI","","html-keyboard-response","337","356288","0.0-1.0-480.0","0","0","68843","","null","","","null","53","NaN","","","","","","","","","","","","","","",""
"","S2","","html-keyboard-response","338","356539","0.0-1.0-481.0","0","0","68843","","248","","","68","53","","d","2","53","training","adjacent","CB","3","2","R.jpg","N.jpg","0","0","1","",""
"","feedback","","html-keyboard-response","339","357543","0.0-1.0-483.0-0.0","0","0","68843","","null","","","null","53","","","","","","","","","","","","","","","",""
"","ITI","","html-keyboard-response","340","358548","0.0-1.0-486.0","0","0","68843","","null","","","null","53","","","","","","","","","","","","","","","NaN",""
"","S1","","html-keyboard-response","341","358802","0.0-1.0-488.0","0","0","68843","","null","","","null","54","","","","","","","","","","","","","","","",""
"","ISI","","html-keyboard-response","342","359805","0.0-1.0-489.0","0","0","68843","","null","","","null","54","NaN","","","","","","","","","","","","","","",""
"","S2","","html-keyboard-response","343","360022","0.0-1.0-490.0","0","0","68843","","215","","","75","54","","k","2","54","training","adjacent","AB","1","2","L.jpg","N.jpg","1","1","1","",""
"","feedback","","html-keyboard-response","344","361025","0.0-1.0-492.0-0.0","0","0","68843","","null","","","null","54","","","","","","","","","","","","","","","",""
"","ITI","","html-keyboard-response","345","362028","0.0-1.0-495.0","0","0","68843","","null","","","null","54","","","","","","","","","","","","","","","NaN",""
"","S1","","html-keyboard-response","346","362281","0.0-1.0-497.0","0","0","68843","","null","","","null","55","","","","","","","","","","","","","","","",""
"","ISI","","html-keyboard-response","347","363285","0.0-1.0-498.0","0","0","68843","","null","","","null","55","NaN","","","","","","","","","","","","","","",""
"","S2","","html-keyboard-response","348","363503","0.0-1.0-499.0","0","0","68843","","216","","","68","55","","d","2","55","training","adjacent","GF","7","6","O.jpg","Q.jpg","0","0","1","",""
"","feedback","","html-keyboard-response","349","364506","0.0-1.0-501.0-0.0","0","0","68843","","null","","","null","55","","","","","","","","","","","","","","","",""
"","ITI","","html-keyboard-response","350","365510","0.0-1.0-504.0","0","0","68843","","null","","","null","55","","","","","","","","","","","","","","","NaN",""
"","S1","","html-keyboard-response","351","365765","0.0-1.0-506.0","0","0","68843","","null","","","null","56","","","","","","","","","","","","","","","",""
"","ISI","","html-keyboard-response","352","366767","0.0-1.0-507.0","0","0","68843","","null","","","null","56","NaN","","","","","","","","","","","","","","",""
"","S2","","html-keyboard-response","353","366979","0.0-1.0-508.0","0","0","68843","","210","","","75","56","","k","2","56","training","adjacent","DE","4","5","M.jpg","P.jpg","1","1","1","",""
"","feedback","","html-keyboard-response","354","367983","0.0-1.0-510.0-0.0","0","0","68843","","null","","","null","56","","","","","","","","","","","","","","","",""
"","ITI","","html-keyboard-response","355","368986","0.0-1.0-513.0","0","0","68843","","null","","","null","56","","","","","","","","","","","","","","","NaN",""
"","S1","","html-keyboard-response","356","369240","0.0-1.0-515.0","0","0","68843","","null","","","null","57","","","","","","","","","","","","","","","",""
"","ISI","","html-keyboard-response","357","370242","0.0-1.0-516.0","0","0","68843","","null","","","null","57","NaN","","","","","","","","","","","","","","",""
"","S2","","html-keyboard-response","358","370507","0.0-1.0-517.0","0","0","68843","","null","","","null","57","","NaN","","","","","","","","","","","","","",""
"","response","","html-keyboard-response","359","370745","0.0-1.0-518.0-0.0","0","0","68843","","237","","","68","57","","","2","57","training","adjacent","BA","2","1","N.jpg","L.jpg","0","0","1","",""
"","feedback","","html-keyboard-response","360","371750","0.0-1.0-519.0-0.0","0","0","68843","","null","","","null","57","","","","","","","","","","","","","","","",""
"","ITI","","html-keyboard-response","361","372753","0.0-1.0-522.0","0","0","68843","","null","","","null","57","","","","","","","","","","","","","","","NaN",""
"","S1","","html-keyboard-response","362","373006","0.0-1.0-524.0","0","0","68843","","null","","","null","58","","","","","","","","","","","","","","","",""
"","ISI","","html-keyboard-response","363","374010","0.0-1.0-525.0","0","0","68843","","null","","","null","58","NaN","","","","","","","","","","","","","","",""
"","S2","","html-keyboard-response","364","374265","0.0-1.0-526.0","0","0","68843","","null","","","null","58","","NaN","","","","","","","","","","","","","",""
"","response","","html-keyboard-response","365","374506","0.0-1.0-527.0-0.0","0","0","68843","","238","","","75","58","","","2","58","training","adjacent","CD","3","4","R.jpg","M.jpg","1","1","1","",""
"","feedback","","html-keyboard-response","366","375510","0.0-1.0-528.0-0.0","0","0","68843","","null","","","null","58","","","","","","","","","","","","","","","",""
"","ITI","","html-keyboard-response","367","376515","0.0-1.0-531.0","0","0","68843","","null","","","null","58","","","","","","","","","","","","","","","NaN",""
"","S1","","html-keyboard-response","368","376767","0.0-1.0-533.0","0","0","68843","","null","","","null","59","","","","","","","","","","","","","","","",""
"","ISI","","html-keyboard-response","369","377772","0.0-1.0-534.0","0","0","68843","","null","","","null","59","NaN","","","","","","","","","","","","","","",""
"","S2","","html-keyboard-response","370","378026","0.0-1.0-535.0","0","0","68843","","null","","","null","59","","NaN","","","","","","","","","","","","","",""
"","response","","html-keyboard-response","371","378118","0.0-1.0-536.0-0.0","0","0","68843","","90","","","68","59","","","2","59","training","adjacent","BC","2","3","N.jpg","R.jpg","0","1","0","",""
"","feedback","","html-keyboard-response","372","379122","0.0-1.0-537.0-0.0","0","0","68843","","null","","","null","59","","","","","","","","","","","","","","","",""
"","time_out","","html-keyboard-response","373","381126","0.0-1.0-539.0-0.0","0","0","68843","","null","","","null","59","","","","","","","","","","","","","","","",""
"","ITI","","html-keyboard-response","374","382131","0.0-1.0-540.0","0","0","68843","","null","","","null","59","","","","","","","","","","","","","","","NaN",""
"","S1","","html-keyboard-response","375","382384","0.0-1.0-542.0","0","0","68843","","null","","","null","60","","","","","","","","","","","","","","","",""
"","ISI","","html-keyboard-response","376","383387","0.0-1.0-543.0","0","0","68843","","null","","","null","60","NaN","","","","","","","","","","","","","","",""
"","S2","","html-keyboard-response","377","383451","0.0-1.0-544.0","0","0","68843","","62","","","75","60","","k","2","60","training","adjacent","ED","5","4","P.jpg","M.jpg","1","0","0","",""
"","feedback","","html-keyboard-response","378","384455","0.0-1.0-546.0-0.0","0","0","68843","","null","","","null","60","","","","","","","","","","","","","","","",""
"","time_out","","html-keyboard-response","379","386459","0.0-1.0-548.0-0.0","0","0","68843","","null","","","null","60","","","","","","","","","","","","","","","",""
"","ITI","","html-keyboard-response","380","387463","0.0-1.0-549.0","0","0","68843","","null","","","null","60","","","","","","","","","","","","","","","NaN",""
"","S1","","html-keyboard-response","381","387717","0.0-1.0-551.0","0","0","68843","","null","","","null","61","","","","","","","","","","","","","","","",""
"","ISI","","html-keyboard-response","382","388720","0.0-1.0-552.0","0","0","68843","","null","","","null","61","NaN","","","","","","","","","","","","","","",""
"","S2","","html-keyboard-response","383","388883","0.0-1.0-553.0","0","0","68843","","160","","","68","61","","d","2","61","training","adjacent","FE","6","5","Q.jpg","P.jpg","0","0","1","",""
"","feedback","","html-keyboard-response","384","389885","0.0-1.0-555.0-0.0","0","0","68843","","null","","","null","61","","","","","","","","","","","","","","","",""
"","ITI","","html-keyboard-response","385","390889","0.0-1.0-558.0","0","0","68843","","null","","","null","61","","","","","","","","","","","","","","","NaN",""
"","S1","","html-keyboard-response","386","391144","0.0-1.0-560.0","0","0","68843","","null","","","null","62","","","","","","","","","","","","","","","",""
"","ISI","","html-keyboard-response","387","392146","0.0-1.0-561.0","0","0","68843","","null","","","null","62","NaN","","","","","","","","","","","","","","",""
"","S2","","html-keyboard-response","388","392402","0.0-1.0-562.0","0","0","68843","","null","","","null","62","","NaN","","","","","","","","","","","","","",""
"","response","","html-keyboard-response","389","392429","0.0-1.0-563.0-0.0","0","0","68843","","26","","","68","62","","","2","62","training","adjacent","DC","4","3","M.jpg","R.jpg","0","0","1","",""
"","feedback","","html-keyboard-response","390","393433","0.0-1.0-564.0-0.0","0","0","68843","","null","","","null","62","","","","","","","","","","","","","","","",""
"","ITI","","html-keyboard-response","391","394441","0.0-1.0-567.0","0","0","68843","","null","","","null","62","","","","","","","","","","","","","","","NaN",""
"","S1","","html-keyboard-response","392","394695","0.0-1.0-569.0","0","0","68843","","null","","","null","63","","","","","","","","","","","","","","","",""
"","ISI","","html-keyboard-response","393","395697","0.0-1.0-570.0","0","0","68843","","793","","","75","63","k","","","","","","","","","","","","","","",""
"","S2","","html-keyboard-response","394","395830","0.0-1.0-571.0","0","0","68843","","132","","","75","63","","k","2","63","training","adjacent","CB","3","2","R.jpg","N.jpg","1","0","0","",""
"","feedback","","html-keyboard-response","395","396832","0.0-1.0-573.0-0.0","0","0","68843","","null","","","null","63","","","","","","","","","","","","","","","",""
"","time_out","","html-keyboard-response","396","398836","0.0-1.0-575.0-0.0","0","0","68843","","null","","","null","63","","","","","","","","","","","","","","","",""
"","ITI","","html-keyboard-response","397","399839","0.0-1.0-576.0","0","0","68843","","null","","","null","63","","","","","","","","","","","","","","","NaN",""
"","S1","","html-keyboard-response","398","400092","0.0-1.0-578.0","0","0","68843","","null","","","null","64","","","","","","","","","","","","","","","",""
"","ISI","","html-keyboard-response","399","401094","0.0-1.0-579.0","0","0","68843","","929","","","75","64","k","","","","","","","","","","","","","","",""
"","S2","","html-keyboard-response","400","401209","0.0-1.0-580.0","0","0","68843","","113","","","75","64","","k","2","64","training","adjacent","GF","7","6","O.jpg","Q.jpg","1","0","0","",""
"","feedback","","html-keyboard-response","401","402212","0.0-1.0-582.0-0.0","0","0","68843","","null","","","null","64","","","","","","","","","","","","","","","",""
"","time_out","","html-keyboard-response","402","404215","0.0-1.0-584.0-0.0","0","0","68843","","null","","","null","64","","","","","","","","","","","","","","","",""
"","ITI","","html-keyboard-response","403","405221","0.0-1.0-585.0","0","0","68843","","null","","","null","64","","","","","","","","","","","","","","","NaN",""
"","S1","","html-keyboard-response","404","405475","0.0-1.0-587.0","0","0","68843","","null","","","null","65","","","","","","","","","","","","","","","",""
"","ISI","","html-keyboard-response","405","406478","0.0-1.0-588.0","0","0","68843","","941","","","75","65","k","","","","","","","","","","","","","","",""
"","S2","","html-keyboard-response","406","406532","0.0-1.0-589.0","0","0","68843","","52","","","75","65","","k","2","65","training","adjacent","ED","5","4","P.jpg","M.jpg","1","0","0","",""
"","feedback","","html-keyboard-response","407","407536","0.0-1.0-591.0-0.0","0","0","68843","","null","","","null","65","","","","","","","","","","","","","","","",""
"","time_out","","html-keyboard-response","408","409541","0.0-1.0-593.0-0.0","0","0","68843","","null","","","null","65","","","","","","","","","","","","","","","",""
"","ITI","","html-keyboard-response","409","410544","0.0-1.0-594.0","0","0","68843","","null","","","null","65","","","","","","","","","","","","","","","NaN",""
"","S1","","html-keyboard-response","410","410799","0.0-1.0-596.0","0","0","68843","","null","","","null","66","","","","","","","","","","","","","","","",""
"","ISI","","html-keyboard-response","411","411804","0.0-1.0-597.0","0","0","68843","","944","","","75","66","k","","","","","","","","","","","","","","",""
"","S2","","html-keyboard-response","412","411914","0.0-1.0-598.0","0","0","68843","","107","","","75","66","","k","2","66","training","adjacent","AB","1","2","L.jpg","N.jpg","1","1","1","",""
"","feedback","","html-keyboard-response","413","412917","0.0-1.0-600.0-0.0","0","0","68843","","null","","","null","66","","","","","","","","","","","","","","","",""
"","ITI","","html-keyboard-response","414","413921","0.0-1.0-603.0","0","0","68843","","null","","","null","66","","","","","","","","","","","","","","","NaN",""
"","S1","","html-keyboard-response","415","414175","0.0-1.0-605.0","0","0","68843","","null","","","null","67","","","","","","","","","","","","","","","",""
"","ISI","","html-keyboard-response","416","415180","0.0-1.0-606.0","0","0","68843","","null","","","null","67","NaN","","","","","","","","","","","","","","",""
"","S2","","html-keyboard-response","417","415435","0.0-1.0-607.0","0","0","68843","","null","","","null","67","","NaN","","","","","","","","","","","","","",""
"","response","","html-keyboard-response","418","415454","0.0-1.0-608.0-0.0","0","0","68843","","16","","","68","67","","","2","67","training","adjacent","DC","4","3","M.jpg","R.jpg","0","0","1","",""
"","feedback","","html-keyboard-response","419","416457","0.0-1.0-609.0-0.0","0","0","68843","","null","","","null","67","","","","","","","","","","","","","","","",""
"","ITI","","html-keyboard-response","420","417461","0.0-1.0-612.0","0","0","68843","","null","","","null","67","","","","","","","","","","","","","","","NaN",""
"","S1","","html-keyboard-response","421","417714","0.0-1.0-614.0","0","0","68843","","null","","","null","68","","","","","","","","","","","","","","","",""
"","ISI","","html-keyboard-response","422","418717","0.0-1.0-615.0","0","0","68843","","null","","","null","68","NaN","","","","","","","","","","","","","","",""
"","S2","","html-keyboard-response","423","418897","0.0-1.0-616.0","0","0","68843","","177","","","75","68","","k","2","68","training","adjacent","CB","3","2","R.jpg","N.jpg","1","0","0","",""
"","feedback","","html-keyboard-response","424","419900","0.0-1.0-618.0-0.0","0","0","68843","","null","","","null","68","","","","","","","","","","","","","","","",""
"","time_out","","html-keyboard-response","425","421903","0.0-1.0-620.0-0.0","0","0","68843","","null","","","null","68","","","","","","","","","","","","","","","",""
"","ITI","","html-keyboard-response","426","422906","0.0-1.0-621.0","0","0","68843","","null","","","null","68","","","","","","","","","","","","","","","NaN",""
"","S1","","html-keyboard-response","427","423160","0.0-1.0-623.0","0","0","68843","","null","","","null","69","","","","","","","","","","","","","","","",""
"","ISI","","html-keyboard-response","428","424163","0.0-1.0-624.0","0","0","68843","","null","","","null","69","NaN","","","","","","","","","","","","","","",""
"","S2","","html-keyboard-response","429","424416","0.0-1.0-625.0","0","0","68843","","null","","","null","69","","NaN","","","","","","","","","","","","","",""
"","response","","html-keyboard-response","430","424426","0.0-1.0-626.0-0.0","0","0","68843","","8","","","68","69","","","2","69","training","adjacent","EF","5","6","P.jpg","Q.jpg","0","1","0","",""
"","feedback","","html-keyboard-response","431","425430","0.0-1.0-627.0-0.0","0","0","68843","","null","","","null","69","","","","","","","","","","","","","","","",""
"","time_out","","html-keyboard-response","432","427432","0.0-1.0-629.0-0.0","0","0","68843","","null","","","null","69","","","","","","","","","","","","","","","",""
"","ITI","","html-keyboard-response","433","428435","0.0-1.0-630.0","0","0","68843","","null","","","null","69","","","","","","","","","","","","","","","NaN",""
"","S1","","html-keyboard-response","434","428687","0.0-1.0-632.0","0","0","68843","","null","","","null","70","","","","","","","","","","","","","","","",""
"","ISI","","html-keyboard-response","435","429690","0.0-1.0-633.0","0","0","68843","","null","","","null","70","NaN","","","","","","","","","","","","","","",""
"","S2","","html-keyboard-response","436","429944","0.0-1.0-634.0","0","0","68843","","null","","","null","70","","NaN","","","","","","","","","","","","","",""
"","response","","html-keyboard-response","437","429955","0.0-1.0-635.0-0.0","0","0","68843","","9","","","68","70","","","2","70","training","adjacent","FE","6","5","Q.jpg","P.jpg","0","0","1","",""
"","feedback","","html-keyboard-response","438","430960","0.0-1.0-636.0-0.0","0","0","68843","","null","","","null","70","","","","","","","","","","","","","","","",""
"","ITI","","html-keyboard-response","439","431964","0.0-1.0-639.0","0","0","68843","","null","","","null","70","","","","","","","","","","","","","","","NaN",""
"","S1","","html-keyboard-response","440","432219","0.0-1.0-641.0","0","0","68843","","null","","","null","71","","","","","","","","","","","","","","","",""
"","ISI","","html-keyboard-response","441","433224","0.0-1.0-642.0","0","0","68843","","null","","","null","71","NaN","","","","","","","","","","","","","","",""
"","S2","","html-keyboard-response","442","433478","0.0-1.0-643.0","0","0","68843","","null","","","null","71","","NaN","","","","","","","","","","","","","",""
"","response","","html-keyboard-response","443","433791","0.0-1.0-644.0-0.0","0","0","68843","","311","","","75","71","","","2","71","training","adjacent","DC","4","3","M.jpg","R.jpg","1","0","0","",""
"","feedback","","html-keyboard-response","444","434794","0.0-1.0-645.0-0.0","0","0","68843","","null","","","null","71","","","","","","","","","","","","","","","",""
"","time_out","","html-keyboard-response","445","436799","0.0-1.0-647.0-0.0","0","0","68843","","null","","","null","71","","","","","","","","","","","","","","","",""
"","ITI","","html-keyboard-response","446","437801","0.0-1.0-648.0","0","0","68843","","null","","","null","71","","","","","","","","","","","","","","","NaN",""
"","S1","","html-keyboard-response","447","438053","0.0-1.0-650.0","0","0","68843","","null","","","null","72","","","","","","","","","","","","","","","",""
"","ISI","","html-keyboard-response","448","439057","0.0-1.0-651.0","0","0","68843","","null","","","null","72","NaN","","","","","","","","","","","","","","",""
"","S2","","html-keyboard-response","449","439312","0.0-1.0-652.0","0","0","68843","","null","","","null","72","","NaN","","","","","","","","","","","","","",""
"","response","","html-keyboard-response","450","439520","0.0-1.0-653.0-0.0","0","0","68843","","206","","","75","72","","","2","72","training","adjacent","AB","1","2","L.jpg","N.jpg","1","1","1","",""
"","feedback","","html-keyboard-response","451","440525","0.0-1.0-654.0-0.0","0","0","68843","","null","","","null","72","","","","","","","","","","","","","","","",""
"","ITI","","html-keyboard-response","452","441529","0.0-1.0-657.0","0","0","68843","","null","","","null","72","","","","","","","","","","","","","","","NaN",""
"","S1","","html-keyboard-response","453","441784","0.0-1.0-659.0","0","0","68843","","null","","","null","73","","","","","","","","","","","","","","","",""
"","ISI","","html-keyboard-response","454","442788","0.0-1.0-660.0","0","0","68843","","null","","","null","73","NaN","","","","","","","","","","","","","","",""
"","S2","","html-keyboard-response","455","443042","0.0-1.0-661.0","0","0","68843","","null","","","null","73","","NaN","","","","","","","","","","","","","",""
"","response","","html-keyboard-response","456","443087","0.0-1.0-662.0-0.0","0","0","68843","","43","","","68","73","","","2","73","training","adjacent","FG","6","7","Q.jpg","O.jpg","0","1","0","",""
"","feedback","","html-keyboard-response","457","444092","0.0-1.0-663.0-0.0","0","0","68843","","null","","","null","73","","","","","","","","","","","","","","","",""
"","time_out","","html-keyboard-response","458","446096","0.0-1.0-665.0-0.0","0","0","68843","","null","","","null","73","","","","","","","","","","","","","","","",""
"","ITI","","html-keyboard-response","459","447100","0.0-1.0-666.0","0","0","68843","","null","","","null","73","","","","","","","","","","","","","","","NaN",""
"","S1","","html-keyboard-response","460","447353","0.0-1.0-668.0","0","0","68843","","null","","","null","74","","","","","","","","","","","","","","","",""
"","ISI","","html-keyboard-response","461","448354","0.0-1.0-669.0","0","0","68843","","null","","","null","74","NaN","","","","","","","","","","","","","","",""
"","S2","","html-keyboard-response","462","448588","0.0-1.0-670.0","0","0","68843","","231","","","68","74","","d","2","74","training","adjacent","BA","2","1","N.jpg","L.jpg","0","0","1","",""
"","feedback","","html-keyboard-response","463","449592","0.0-1.0-672.0-0.0","0","0","68843","","null","","","null","74","","","","","","","","","","","","","","","",""
"","ITI","","html-keyboard-response","464","450596","0.0-1.0-675.0","0","0","68843","","null","","","null","74","","","","","","","","","","","","","","","NaN",""
"","S1","","html-keyboard-response","465","450851","0.0-1.0-677.0","0","0","68843","","null","","","null","75","","","","","","","","","","","","","","","",""
"","ISI","","html-keyboard-response","466","451854","0.0-1.0-678.0","0","0","68843","","null","","","null","75","NaN","","","","","","","","","","","","","","",""
"","S2","","html-keyboard-response","467","452107","0.0-1.0-679.0","0","0","68843","","null","","","null","75","","NaN","","","","","","","","","","","","","",""
"","response","","html-keyboard-response","468","452346","0.0-1.0-680.0-0.0","0","0","68843","","237","","","68","75","","","2","75","training","adjacent","FG","6","7","Q.jpg","O.jpg","0","1","0","",""
"","feedback","","html-keyboard-response","469","453351","0.0-1.0-681.0-0.0","0","0","68843","","null","","","null","75","","","","","","","","","","","","","","","",""
"","time_out","","html-keyboard-response","470","455355","0.0-1.0-683.0-0.0","0","0","68843","","null","","","null","75","","","","","","","","","","","","","","","",""
"","ITI","","html-keyboard-response","471","456359","0.0-1.0-684.0","0","0","68843","","null","","","null","75","","","","","","","","","","","","","","","NaN",""
"","S1","","html-keyboard-response","472","456613","0.0-1.0-686.0","0","0","68843","","null","","","null","76","","","","","","","","","","","","","","","",""
"","ISI","","html-keyboard-response","473","457617","0.0-1.0-687.0","0","0","68843","","null","","","null","76","NaN","","","","","","","","","","","","","","",""
"","S2","","html-keyboard-response","474","457834","0.0-1.0-688.0","0","0","68843","","214","","","75","76","","k","2","76","training","adjacent","DC","4","3","M.jpg","R.jpg","1","0","0","",""
"","feedback","","html-keyboard-response","475","458836","0.0-1.0-690.0-0.0","0","0","68843","","null","","","null","76","","","","","","","","","","","","","","","",""
"","time_out","","html-keyboard-response","476","460839","0.0-1.0-692.0-0.0","0","0","68843","","null","","","null","76","","","","","","","","","","","","","","","",""
"","ITI","","html-keyboard-response","477","461843","0.0-1.0-693.0","0","0","68843","","null","","","null","76","","","","","","","","","","","","","","","NaN",""
"","S1","","html-keyboard-response","478","462097","0.0-1.0-695.0","0","0","68843","","null","","","null","77","","","","","","","","","","","","","","","",""
"","ISI","","html-keyboard-response","479","463098","0.0-1.0-696.0","0","0","68843","","null","","","null","77","NaN","","","","","","","","","","","","","","",""
"","S2","","html-keyboard-response","480","463351","0.0-1.0-697.0","0","0","68843","","null","","","null","77","","NaN","","","","","","","","","","","","","",""
"","response","","html-keyboard-response","481","464227","0.0-1.0-698.0-0.0","0","0","68843","","873","","","68","77","","","2","77","training","adjacent","BC","2","3","N.jpg","R.jpg","0","1","0","",""
"","feedback","","html-keyboard-response","482","465231","0.0-1.0-699.0-0.0","0","0","68843","","null","","","null","77","","","","","","","","","","","","","","","",""
"","time_out","","html-keyboard-response","483","467235","0.0-1.0-701.0-0.0","0","0","68843","","null","","","null","77","","","","","","","","","","","","","","","",""
"","ITI","","html-keyboard-response","484","468239","0.0-1.0-702.0","0","0","68843","","null","","","null","77","","","","","","","","","","","","","","","NaN",""
"","S1","","html-keyboard-response","485","468493","0.0-1.0-704.0","0","0","68843","","null","","","null","78","","","","","","","","","","","","","","","",""
"","ISI","","html-keyboard-response","486","469496","0.0-1.0-705.0","0","0","68843","","null","","","null","78","NaN","","","","","","","","","","","","","","",""
"","S2","","html-keyboard-response","487","469751","0.0-1.0-706.0","0","0","68843","","null","","","null","78","","NaN","","","","","","","","","","","","","",""
"","response","","html-keyboard-response","488","469998","0.0-1.0-707.0-0.0","0","0","68843","","245","","","75","78","","","2","78","training","adjacent","BC","2","3","N.jpg","R.jpg","1","1","1","",""
"","feedback","","html-keyboard-response","489","471002","0.0-1.0-708.0-0.0","0","0","68843","","null","","","null","78","","","","","","","","","","","","","","","",""
"","ITI","","html-keyboard-response","490","472006","0.0-1.0-711.0","0","0","68843","","null","","","null","78","","","","","","","","","","","","","","","NaN",""
"","S1","","html-keyboard-response","491","472261","0.0-1.0-713.0","0","0","68843","","null","","","null","79","","","","","","","","","","","","","","","",""
"","ISI","","html-keyboard-response","492","473265","0.0-1.0-714.0","0","0","68843","","null","","","null","79","NaN","","","","","","","","","","","","","","",""
"","S2","","html-keyboard-response","493","473519","0.0-1.0-715.0","0","0","68843","","null","","","null","79","","NaN","","","","","","","","","","","","","",""
"","response","","html-keyboard-response","494","473541","0.0-1.0-716.0-0.0","0","0","68843","","20","","","75","79","","","2","79","training","adjacent","EF","5","6","P.jpg","Q.jpg","1","1","1","",""
"","feedback","","html-keyboard-response","495","474544","0.0-1.0-717.0-0.0","0","0","68843","","null","","","null","79","","","","","","","","","","","","","","","",""
"","ITI","","html-keyboard-response","496","475550","0.0-1.0-720.0","0","0","68843","","null","","","null","79","","","","","","","","","","","","","","","NaN",""
"","S1","","html-keyboard-response","497","475803","0.0-1.0-722.0","0","0","68843","","null","","","null","80","","","","","","","","","","","","","","","",""
"","ISI","","html-keyboard-response","498","476808","0.0-1.0-723.0","0","0","68843","","null","","","null","80","NaN","","","","","","","","","","","","","","",""
"","S2","","html-keyboard-response","499","477042","0.0-1.0-724.0","0","0","68843","","232","","","68","80","","d","2","80","training","adjacent","ED","5","4","P.jpg","M.jpg","0","0","1","",""
"","feedback","","html-keyboard-response","500","478046","0.0-1.0-726.0-0.0","0","0","68843","","null","","","null","80","","","","","","","","","","","","","","","",""
"","ITI","","html-keyboard-response","501","479051","0.0-1.0-729.0","0","0","68843","","null","","","null","80","","","","","","","","","","","","","","","NaN",""
"","S1","","html-keyboard-response","502","479306","0.0-1.0-731.0","0","0","68843","","null","","","null","81","","","","","","","","","","","","","","","",""
"","ISI","","html-keyboard-response","503","480310","0.0-1.0-732.0","0","0","68843","","null","","","null","81","NaN","","","","","","","","","","","","","","",""
"","S2","","html-keyboard-response","504","480564","0.0-1.0-733.0","0","0","68843","","null","","","null","81","","NaN","","","","","","","","","","","","","",""
"","response","","html-keyboard-response","505","481722","0.0-1.0-734.0-0.0","0","0","68843","","1156","","","75","81","","","2","81","training","adjacent","CD","3","4","R.jpg","M.jpg","1","1","1","",""
"","feedback","","html-keyboard-response","506","482726","0.0-1.0-735.0-0.0","0","0","68843","","null","","","null","81","","","","","","","","","","","","","","","",""
"","ITI","","html-keyboard-response","507","483734","0.0-1.0-738.0","0","0","68843","","null","","","null","81","","","","","","","","","","","","","","","NaN",""
"","S1","","html-keyboard-response","508","483986","0.0-1.0-740.0","0","0","68843","","null","","","null","82","","","","","","","","","","","","","","","",""
"","ISI","","html-keyboard-response","509","484989","0.0-1.0-741.0","0","0","68843","","null","","","null","82","NaN","","","","","","","","","","","","","","",""
"","S2","","html-keyboard-response","510","485244","0.0-1.0-742.0","0","0","68843","","null","","","null","82","","NaN","","","","","","","","","","","","","",""
"","response","","html-keyboard-response","511","485440","0.0-1.0-743.0-0.0","0","0","68843","","192","","","75","82","","","2","82","training","adjacent","FG","6","7","Q.jpg","O.jpg","1","1","1","",""
"","feedback","","html-keyboard-response","512","486443","0.0-1.0-744.0-0.0","0","0","68843","","null","","","null","82","","","","","","","","","","","","","","","",""
"","ITI","","html-keyboard-response","513","487446","0.0-1.0-747.0","0","0","68843","","null","","","null","82","","","","","","","","","","","","","","","NaN",""
"","S1","","html-keyboard-response","514","487700","0.0-1.0-749.0","0","0","68843","","null","","","null","83","","","","","","","","","","","","","","","",""
"","ISI","","html-keyboard-response","515","488703","0.0-1.0-750.0","0","0","68843","","null","","","null","83","NaN","","","","","","","","","","","","","","",""
"","S2","","html-keyboard-response","516","488894","0.0-1.0-751.0","0","0","68843","","189","","","75","83","","k","2","83","training","adjacent","AB","1","2","L.jpg","N.jpg","1","1","1","",""
"","feedback","","html-keyboard-response","517","489899","0.0-1.0-753.0-0.0","0","0","68843","","null","","","null","83","","","","","","","","","","","","","","","",""
"","ITI","","html-keyboard-response","518","490902","0.0-1.0-756.0","0","0","68843","","null","","","null","83","","","","","","","","","","","","","","","NaN",""
"","S1","","html-keyboard-response","519","491156","0.0-1.0-758.0","0","0","68843","","null","","","null","84","","","","","","","","","","","","","","","",""
"","ISI","","html-keyboard-response","520","492159","0.0-1.0-759.0","0","0","68843","","null","","","null","84","NaN","","","","","","","","","","","","","","",""
"","S2","","html-keyboard-response","521","492411","0.0-1.0-760.0","0","0","68843","","null","","","null","84","","NaN","","","","","","","","","","","","","",""
"","response","","html-keyboard-response","522","492646","0.0-1.0-761.0-0.0","0","0","68843","","233","","","68","84","","","2","84","training","adjacent","CB","3","2","R.jpg","N.jpg","0","0","1","",""
"","feedback","","html-keyboard-response","523","493650","0.0-1.0-762.0-0.0","0","0","68843","","null","","","null","84","","","","","","","","","","","","","","","",""
"","ITI","","html-keyboard-response","524","494653","0.0-1.0-765.0","0","0","68843","","null","","","null","84","","","","","","","","","","","","","","","NaN",""
"","S1","","html-keyboard-response","525","494909","0.0-1.0-767.0","0","0","68843","","null","","","null","85","","","","","","","","","","","","","","","",""
"","ISI","","html-keyboard-response","526","495911","0.0-1.0-768.0","0","0","68843","","null","","","null","85","NaN","","","","","","","","","","","","","","",""
"","S2","","html-keyboard-response","527","496164","0.0-1.0-769.0","0","0","68843","","null","","","null","85","","NaN","","","","","","","","","","","","","",""
"","response","","html-keyboard-response","528","496175","0.0-1.0-770.0-0.0","0","0","68843","","8","","","75","85","","","2","85","training","adjacent","DE","4","5","M.jpg","P.jpg","1","1","1","",""
"","feedback","","html-keyboard-response","529","497179","0.0-1.0-771.0-0.0","0","0","68843","","null","","","null","85","","","","","","","","","","","","","","","",""
"","ITI","","html-keyboard-response","530","498182","0.0-1.0-774.0","0","0","68843","","null","","","null","85","","","","","","","","","","","","","","","NaN",""
"","S1","","html-keyboard-response","531","498437","0.0-1.0-776.0","0","0","68843","","null","","","null","86","","","","","","","","","","","","","","","",""
"","ISI","","html-keyboard-response","532","499441","0.0-1.0-777.0","0","0","68843","","null","","","null","86","NaN","","","","","","","","","","","","","","",""
"","S2","","html-keyboard-response","533","499676","0.0-1.0-778.0","0","0","68843","","232","","","75","86","","k","2","86","training","adjacent","DE","4","5","M.jpg","P.jpg","1","1","1","",""
"","feedback","","html-keyboard-response","534","500678","0.0-1.0-780.0-0.0","0","0","68843","","null","","","null","86","","","","","","","","","","","","","","","",""
"","ITI","","html-keyboard-response","535","501682","0.0-1.0-783.0","0","0","68843","","null","","","null","86","","","","","","","","","","","","","","","NaN",""
"","S1","","html-keyboard-response","536","501935","0.0-1.0-785.0","0","0","68843","","null","","","null","87","","","","","","","","","","","","","","","",""
"","ISI","","html-keyboard-response","537","502938","0.0-1.0-786.0","0","0","68843","","null","","","null","87","NaN","","","","","","","","","","","","","","",""
"","S2","","html-keyboard-response","538","503183","0.0-1.0-787.0","0","0","68843","","242","","","75","87","","k","2","87","training","adjacent","EF","5","6","P.jpg","Q.jpg","1","1","1","",""
"","feedback","","html-keyboard-response","539","504187","0.0-1.0-789.0-0.0","0","0","68843","","null","","","null","87","","","","","","","","","","","","","","","",""
"","ITI","","html-keyboard-response","540","505190","0.0-1.0-792.0","0","0","68843","","null","","","null","87","","","","","","","","","","","","","","","NaN",""
"","S1","","html-keyboard-response","541","505444","0.0-1.0-794.0","0","0","68843","","null","","","null","88","","","","","","","","","","","","","","","",""
"","ISI","","html-keyboard-response","542","506449","0.0-1.0-795.0","0","0","68843","","null","","","null","88","NaN","","","","","","","","","","","","","","",""
"","S2","","html-keyboard-response","543","506705","0.0-1.0-796.0","0","0","68843","","null","","","null","88","","NaN","","","","","","","","","","","","","",""
"","response","","html-keyboard-response","544","507054","0.0-1.0-797.0-0.0","0","0","68843","","347","","","75","88","","","2","88","training","adjacent","GF","7","6","O.jpg","Q.jpg","1","0","0","",""
"","feedback","","html-keyboard-response","545","508059","0.0-1.0-798.0-0.0","0","0","68843","","null","","","null","88","","","","","","","","","","","","","","","",""
"","time_out","","html-keyboard-response","546","510065","0.0-1.0-800.0-0.0","0","0","68843","","null","","","null","88","","","","","","","","","","","","","","","",""
"","ITI","","html-keyboard-response","547","511068","0.0-1.0-801.0","0","0","68843","","null","","","null","88","","","","","","","","","","","","","","","NaN",""
"","S1","","html-keyboard-response","548","511321","0.0-1.0-803.0","0","0","68843","","null","","","null","89","","","","","","","","","","","","","","","",""
"","ISI","","html-keyboard-response","549","512325","0.0-1.0-804.0","0","0","68843","","null","","","null","89","NaN","","","","","","","","","","","","","","",""
"","S2","","html-keyboard-response","550","512579","0.0-1.0-805.0","0","0","68843","","null","","","null","89","","NaN","","","","","","","","","","","","","",""
"","response","","html-keyboard-response","551","512588","0.0-1.0-806.0-0.0","0","0","68843","","7","","","75","89","","","2","89","training","adjacent","EF","5","6","P.jpg","Q.jpg","1","1","1","",""
"","feedback","","html-keyboard-response","552","513594","0.0-1.0-807.0-0.0","0","0","68843","","null","","","null","89","","","","","","","","","","","","","","","",""
"","ITI","","html-keyboard-response","553","514599","0.0-1.0-810.0","0","0","68843","","null","","","null","89","","","","","","","","","","","","","","","NaN",""
"","S1","","html-keyboard-response","554","514852","0.0-1.0-812.0","0","0","68843","","null","","","null","90","","","","","","","","","","","","","","","",""
"","ISI","","html-keyboard-response","555","515856","0.0-1.0-813.0","0","0","68843","","null","","","null","90","NaN","","","","","","","","","","","","","","",""
"","S2","","html-keyboard-response","556","516078","0.0-1.0-814.0","0","0","68843","","218","","","75","90","","k","2","90","training","adjacent","BA","2","1","N.jpg","L.jpg","1","0","0","",""
"","feedback","","html-keyboard-response","557","517083","0.0-1.0-816.0-0.0","0","0","68843","","null","","","null","90","","","","","","","","","","","","","","","",""
"","time_out","","html-keyboard-response","558","519088","0.0-1.0-818.0-0.0","0","0","68843","","null","","","null","90","","","","","","","","","","","","","","","",""
"","ITI","","html-keyboard-response","559","520101","0.0-1.0-819.0","0","0","68843","","null","","","null","90","","","","","","","","","","","","","","","NaN",""
"","S1","","html-keyboard-response","560","520353","0.0-1.0-821.0","0","0","68843","","null","","","null","91","","","","","","","","","","","","","","","",""
"","ISI","","html-keyboard-response","561","521356","0.0-1.0-822.0","0","0","68843","","null","","","null","91","NaN","","","","","","","","","","","","","","",""
"","S2","","html-keyboard-response","562","521609","0.0-1.0-823.0","0","0","68843","","null","","","null","91","","NaN","","","","","","","","","","","","","",""
"","response","","html-keyboard-response","563","521610","0.0-1.0-824.0-0.0","0","0","68843","","0","","","75","91","","","2","91","training","adjacent","ED","5","4","P.jpg","M.jpg","1","0","0","",""
"","feedback","","html-keyboard-response","564","522614","0.0-1.0-825.0-0.0","0","0","68843","","null","","","null","91","","","","","","","","","","","","","","","",""
"","time_out","","html-keyboard-response","565","524622","0.0-1.0-827.0-0.0","0","0","68843","","null","","","null","91","","","","","","","","","","","","","","","",""
"","ITI","","html-keyboard-response","566","525624","0.0-1.0-828.0","0","0","68843","","null","","","null","91","","","","","","","","","","","","","","","NaN",""
"","S1","","html-keyboard-response","567","525880","0.0-1.0-830.0","0","0","68843","","null","","","null","92","","","","","","","","","","","","","","","",""
"","ISI","","html-keyboard-response","568","526883","0.0-1.0-831.0","0","0","68843","","969","","","68","92","d","","","","","","","","","","","","","","",""
"","S2","","html-keyboard-response","569","527138","0.0-1.0-832.0","0","0","68843","","null","","","null","92","","NaN","","","","","","","","","","","","","",""
"","response","","html-keyboard-response","570","528181","0.0-1.0-833.0-0.0","0","0","68843","","1041","","","68","92","","","2","92","training","adjacent","CD","3","4","R.jpg","M.jpg","0","1","0","",""
"","feedback","","html-keyboard-response","571","529185","0.0-1.0-834.0-0.0","0","0","68843","","null","","","null","92","","","","","","","","","","","","","","","",""
"","time_out","","html-keyboard-response","572","531191","0.0-1.0-836.0-0.0","0","0","68843","","null","","","null","92","","","","","","","","","","","","","","","",""
"","ITI","","html-keyboard-response","573","532194","0.0-1.0-837.0","0","0","68843","","null","","","null","92","","","","","","","","","","","","","","","NaN",""
"","S1","","html-keyboard-response","574","532448","0.0-1.0-839.0","0","0","68843","","null","","","null","93","","","","","","","","","","","","","","","",""
"","ISI","","html-keyboard-response","575","533452","0.0-1.0-840.0","0","0","68843","","null","","","null","93","NaN","","","","","","","","","","","","","","",""
"","S2","","html-keyboard-response","576","533705","0.0-1.0-841.0","0","0","68843","","null","","","null","93","","NaN","","","","","","","","","","","","","",""
"","response","","html-keyboard-response","577","533950","0.0-1.0-842.0-0.0","0","0","68843","","242","","","75","93","","","2","93","training","adjacent","FG","6","7","Q.jpg","O.jpg","1","1","1","",""
"","feedback","","html-keyboard-response","578","534953","0.0-1.0-843.0-0.0","0","0","68843","","null","","","null","93","","","","","","","","","","","","","","","",""
"","ITI","","html-keyboard-response","579","535957","0.0-1.0-846.0","0","0","68843","","null","","","null","93","","","","","","","","","","","","","","","NaN",""
"","S1","","html-keyboard-response","580","536215","0.0-1.0-848.0","0","0","68843","","null","","","null","94","","","","","","","","","","","","","","","",""
"","ISI","","html-keyboard-response","581","537218","0.0-1.0-849.0","0","0","68843","","null","","","null","94","NaN","","","","","","","","","","","","","","",""
