"success","ttype","start_time","trial_type","trial_index","time_elapsed","internal_node_id","warning","missed_checkup","PID","view_history","rt","responses","repeat_instructions","key_press","index","keypress_isi","keypress_S2","block","trial_num","phase","group_type","pair_type","S1_stim","S2_stim","S1_img","S2_img","S1_chosen","S1_higher","accuracy","keypress_iti","total_bonus_tally"
"true","full_screen","d03032023hr2227","fullscreen","0","7994","0.0-0.0","0","0","14322","","","","","","","","","","","","","","","","","","","","","",""
"","instructions","","instructions","1","106329","0.0-1.0-0.0-0.0","0","0","14322","[{""page_index"":0,""viewing_time"":19792},{""page_index"":1,""viewing_time"":44540},{""page_index"":2,""viewing_time"":32609},{""page_index"":3,""viewing_time"":1391}]","98333","","","","","","","","","","","","","","","","","","","",""
"","comprehension_check","","survey-multi-choice","2","149023","0.0-1.0-0.0-1.0","0","0","14322","","42688","{""Q0"":""True"",""Q1"":""D"",""Q2"":""Only when the screen 'MAKE A CHOICE' is shown"",""Q3"":""Green mark"",""Q4"":""either D or K""}","1","","","","","","","","","","","","","","","","","",""
"","missed_instruction_checkup","","html-keyboard-response","3","151642","0.0-1.0-0.0-2.0-0.0","0","1","14322","","2613","","","32","","","","","","","","","","","","","","","","",""
"","instructions","","instructions","4","172404","0.0-1.0-0.1-0.1","0","0","14322","[{""page_index"":0,""viewing_time"":5549},{""page_index"":1,""viewing_time"":9796},{""page_index"":2,""viewing_time"":4671},{""page_index"":3,""viewing_time"":744}]","20760","","","","","","","","","","","","","","","","","","","",""
"","comprehension_check","","survey-multi-choice","5","190852","0.0-1.0-0.1-1.1","0","0","14322","","18444","{""Q0"":""True"",""Q1"":""D"",""Q2"":""Once the second image appears and while the screen 'MAKE A CHOICE' is shown"",""Q3"":""Green mark"",""Q4"":""either D or K""}","0","","","","","","","","","","","","","","","","","",""
"","start_exp","","html-keyboard-response","6","194831","0.0-1.0-1.0","0","0","14322","","3974","","","32","","","","","","","","","","","","","","","","",""
"","S1","","html-keyboard-response","7","195084","0.0-1.0-2.0","0","0","14322","","null","","","null","0","","","","","","","","","","","","","","","",""
"","ISI","","html-keyboard-response","8","195587","0.0-1.0-3.0","0","0","14322","","409","","","68","0","d","","","","","","","","","","","","","","",""
"","S2","","html-keyboard-response","9","195842","0.0-1.0-4.0","0","0","14322","","null","","","null","0","","NaN","","","","","","","","","","","","","",""
"","response","","html-keyboard-response","10","196632","0.0-1.0-5.0-0.0","0","0","14322","","787","","","68","0","","","1","0","training","adjacent","DC","4","3","M.jpg","O.jpg","1","0","0","",""
"","feedback","","html-keyboard-response","11","197636","0.0-1.0-6.0-0.0","0","0","14322","","null","","","null","0","","","","","","","","","","","","","","","",""
"","time_out","","html-keyboard-response","12","199638","0.0-1.0-8.0-0.0","0","0","14322","","null","","","null","0","","","","","","","","","","","","","","","",""
"","ITI","","html-keyboard-response","13","200641","0.0-1.0-9.0","0","0","14322","","null","","","null","0","","","","","","","","","","","","","","","NaN",""
"","S1","","html-keyboard-response","14","200894","0.0-1.0-11.0","0","0","14322","","null","","","null","1","","","","","","","","","","","","","","","",""
"","ISI","","html-keyboard-response","15","201396","0.0-1.0-12.0","0","0","14322","","null","","","null","1","NaN","","","","","","","","","","","","","","",""
"","S2","","html-keyboard-response","16","201650","0.0-1.0-13.0","0","0","14322","","null","","","null","1","","NaN","","","","","","","","","","","","","",""
"","response","","html-keyboard-response","17","202787","0.0-1.0-14.0-0.0","0","0","14322","","1136","","","75","1","","","1","1","training","adjacent","ED","5","4","R.jpg","M.jpg","0","0","1","",""
"","feedback","","html-keyboard-response","18","203791","0.0-1.0-15.0-0.0","0","0","14322","","null","","","null","1","","","","","","","","","","","","","","","",""
"","ITI","","html-keyboard-response","19","204794","0.0-1.0-18.0","0","0","14322","","null","","","null","1","","","","","","","","","","","","","","","NaN",""
"","S1","","html-keyboard-response","20","205047","0.0-1.0-20.0","0","0","14322","","null","","","null","2","","","","","","","","","","","","","","","",""
"","ISI","","html-keyboard-response","21","205549","0.0-1.0-21.0","0","0","14322","","null","","","null","2","NaN","","","","","","","","","","","","","","",""
"","S2","","html-keyboard-response","22","205803","0.0-1.0-22.0","0","0","14322","","null","","","null","2","","NaN","","","","","","","","","","","","","",""
"","response","","html-keyboard-response","23","207353","0.0-1.0-23.0-0.0","0","0","14322","","1547","","","68","2","","","1","2","training","adjacent","DE","4","5","M.jpg","R.jpg","1","1","1","",""
"","feedback","","html-keyboard-response","24","208355","0.0-1.0-24.0-0.0","0","0","14322","","null","","","null","2","","","","","","","","","","","","","","","",""
"","ITI","","html-keyboard-response","25","209358","0.0-1.0-27.0","0","0","14322","","null","","","null","2","","","","","","","","","","","","","","","NaN",""
"","S1","","html-keyboard-response","26","209610","0.0-1.0-29.0","0","0","14322","","null","","","null","3","","","","","","","","","","","","","","","",""
"","ISI","","html-keyboard-response","27","210113","0.0-1.0-30.0","0","0","14322","","null","","","null","3","NaN","","","","","","","","","","","","","","",""
"","S2","","html-keyboard-response","28","210372","0.0-1.0-31.0","0","0","14322","","null","","","null","3","","NaN","","","","","","","","","","","","","",""
"","response","","html-keyboard-response","29","211659","0.0-1.0-32.0-0.0","0","0","14322","","1285","","","75","3","","","1","3","training","adjacent","CD","3","4","O.jpg","M.jpg","0","1","0","",""
"","feedback","","html-keyboard-response","30","212661","0.0-1.0-33.0-0.0","0","0","14322","","null","","","null","3","","","","","","","","","","","","","","","",""
"","time_out","","html-keyboard-response","31","214664","0.0-1.0-35.0-0.0","0","0","14322","","null","","","null","3","","","","","","","","","","","","","","","",""
"","ITI","","html-keyboard-response","32","215667","0.0-1.0-36.0","0","0","14322","","null","","","null","3","","","","","","","","","","","","","","","NaN",""
"","S1","","html-keyboard-response","33","215920","0.0-1.0-38.0","0","0","14322","","null","","","null","4","","","","","","","","","","","","","","","",""
"","ISI","","html-keyboard-response","34","216422","0.0-1.0-39.0","0","0","14322","","null","","","null","4","NaN","","","","","","","","","","","","","","",""
"","S2","","html-keyboard-response","35","216675","0.0-1.0-40.0","0","0","14322","","null","","","null","4","","NaN","","","","","","","","","","","","","",""
"","response","","html-keyboard-response","36","217558","0.0-1.0-41.0-0.0","0","0","14322","","881","","","68","4","","","1","4","training","adjacent","FE","6","5","N.jpg","R.jpg","1","0","0","",""
"","feedback","","html-keyboard-response","37","218560","0.0-1.0-42.0-0.0","0","0","14322","","null","","","null","4","","","","","","","","","","","","","","","",""
"","time_out","","html-keyboard-response","38","220563","0.0-1.0-44.0-0.0","0","0","14322","","null","","","null","4","","","","","","","","","","","","","","","",""
"","ITI","","html-keyboard-response","39","221566","0.0-1.0-45.0","0","0","14322","","null","","","null","4","","","","","","","","","","","","","","","NaN",""
"","S1","","html-keyboard-response","40","221818","0.0-1.0-47.0","0","0","14322","","null","","","null","5","","","","","","","","","","","","","","","",""
"","ISI","","html-keyboard-response","41","222320","0.0-1.0-48.0","0","0","14322","","null","","","null","5","NaN","","","","","","","","","","","","","","",""
"","S2","","html-keyboard-response","42","222573","0.0-1.0-49.0","0","0","14322","","null","","","null","5","","NaN","","","","","","","","","","","","","",""
"","response","","html-keyboard-response","43","223365","0.0-1.0-50.0-0.0","0","0","14322","","789","","","75","5","","","1","5","training","adjacent","BC","2","3","P.jpg","O.jpg","0","1","0","",""
"","feedback","","html-keyboard-response","44","224369","0.0-1.0-51.0-0.0","0","0","14322","","null","","","null","5","","","","","","","","","","","","","","","",""
"","time_out","","html-keyboard-response","45","226371","0.0-1.0-53.0-0.0","0","0","14322","","null","","","null","5","","","","","","","","","","","","","","","",""
"","ITI","","html-keyboard-response","46","227375","0.0-1.0-54.0","0","0","14322","","null","","","null","5","","","","","","","","","","","","","","","NaN",""
"","S1","","html-keyboard-response","47","227628","0.0-1.0-56.0","0","0","14322","","null","","","null","6","","","","","","","","","","","","","","","",""
"","ISI","","html-keyboard-response","48","228132","0.0-1.0-57.0","0","0","14322","","null","","","null","6","NaN","","","","","","","","","","","","","","",""
"","S2","","html-keyboard-response","49","228386","0.0-1.0-58.0","0","0","14322","","null","","","null","6","","NaN","","","","","","","","","","","","","",""
"","response","","html-keyboard-response","50","229583","0.0-1.0-59.0-0.0","0","0","14322","","1195","","","68","6","","","1","6","training","adjacent","AB","1","2","L.jpg","P.jpg","1","1","1","",""
"","feedback","","html-keyboard-response","51","230586","0.0-1.0-60.0-0.0","0","0","14322","","null","","","null","6","","","","","","","","","","","","","","","",""
"","ITI","","html-keyboard-response","52","231589","0.0-1.0-63.0","0","0","14322","","null","","","null","6","","","","","","","","","","","","","","","NaN",""
"","S1","","html-keyboard-response","53","231843","0.0-1.0-65.0","0","0","14322","","null","","","null","7","","","","","","","","","","","","","","","",""
"","ISI","","html-keyboard-response","54","232350","0.0-1.0-66.0","0","0","14322","","null","","","null","7","NaN","","","","","","","","","","","","","","",""
"","S2","","html-keyboard-response","55","232603","0.0-1.0-67.0","0","0","14322","","null","","","null","7","","NaN","","","","","","","","","","","","","",""
"","response","","html-keyboard-response","56","233796","0.0-1.0-68.0-0.0","0","0","14322","","1191","","","68","7","","","1","7","training","adjacent","DC","4","3","M.jpg","O.jpg","1","0","0","",""
"","feedback","","html-keyboard-response","57","234799","0.0-1.0-69.0-0.0","0","0","14322","","null","","","null","7","","","","","","","","","","","","","","","",""
"","time_out","","html-keyboard-response","58","236802","0.0-1.0-71.0-0.0","0","0","14322","","null","","","null","7","","","","","","","","","","","","","","","",""
"","ITI","","html-keyboard-response","59","237805","0.0-1.0-72.0","0","0","14322","","null","","","null","7","","","","","","","","","","","","","","","NaN",""
"","S1","","html-keyboard-response","60","238058","0.0-1.0-74.0","0","0","14322","","null","","","null","8","","","","","","","","","","","","","","","",""
"","ISI","","html-keyboard-response","61","238560","0.0-1.0-75.0","0","0","14322","","null","","","null","8","NaN","","","","","","","","","","","","","","",""
"","S2","","html-keyboard-response","62","238814","0.0-1.0-76.0","0","0","14322","","null","","","null","8","","NaN","","","","","","","","","","","","","",""
"","response","","html-keyboard-response","63","240425","0.0-1.0-77.0-0.0","0","0","14322","","1609","","","75","8","","","1","8","training","adjacent","FG","6","7","N.jpg","Q.jpg","0","1","0","",""
"","feedback","","html-keyboard-response","64","241427","0.0-1.0-78.0-0.0","0","0","14322","","null","","","null","8","","","","","","","","","","","","","","","",""
"","time_out","","html-keyboard-response","65","243430","0.0-1.0-80.0-0.0","0","0","14322","","null","","","null","8","","","","","","","","","","","","","","","",""
"","ITI","","html-keyboard-response","66","244433","0.0-1.0-81.0","0","0","14322","","null","","","null","8","","","","","","","","","","","","","","","NaN",""
"","S1","","html-keyboard-response","67","244698","0.0-1.0-83.0","0","0","14322","","null","","","null","9","","","","","","","","","","","","","","","",""
"","ISI","","html-keyboard-response","68","245201","0.0-1.0-84.0","0","0","14322","","null","","","null","9","NaN","","","","","","","","","","","","","","",""
"","S2","","html-keyboard-response","69","245454","0.0-1.0-85.0","0","0","14322","","null","","","null","9","","NaN","","","","","","","","","","","","","",""
"","response","","html-keyboard-response","70","246229","0.0-1.0-86.0-0.0","0","0","14322","","772","","","68","9","","","1","9","training","adjacent","DC","4","3","M.jpg","O.jpg","1","0","0","",""
"","feedback","","html-keyboard-response","71","247233","0.0-1.0-87.0-0.0","0","0","14322","","null","","","null","9","","","","","","","","","","","","","","","",""
"","time_out","","html-keyboard-response","72","249234","0.0-1.0-89.0-0.0","0","0","14322","","null","","","null","9","","","","","","","","","","","","","","","",""
"","ITI","","html-keyboard-response","73","250238","0.0-1.0-90.0","0","0","14322","","null","","","null","9","","","","","","","","","","","","","","","NaN",""
"","S1","","html-keyboard-response","74","250491","0.0-1.0-92.0","0","0","14322","","null","","","null","10","","","","","","","","","","","","","","","",""
"","ISI","","html-keyboard-response","75","250994","0.0-1.0-93.0","0","0","14322","","null","","","null","10","NaN","","","","","","","","","","","","","","",""
"","S2","","html-keyboard-response","76","251248","0.0-1.0-94.0","0","0","14322","","null","","","null","10","","NaN","","","","","","","","","","","","","",""
"","response","","html-keyboard-response","77","252504","0.0-1.0-95.0-0.0","0","0","14322","","1254","","","68","10","","","1","10","training","adjacent","EF","5","6","R.jpg","N.jpg","1","1","1","",""
"","feedback","","html-keyboard-response","78","253507","0.0-1.0-96.0-0.0","0","0","14322","","null","","","null","10","","","","","","","","","","","","","","","",""
"","ITI","","html-keyboard-response","79","254510","0.0-1.0-99.0","0","0","14322","","null","","","null","10","","","","","","","","","","","","","","","NaN",""
"","S1","","html-keyboard-response","80","254763","0.0-1.0-101.0","0","0","14322","","null","","","null","11","","","","","","","","","","","","","","","",""
"","ISI","","html-keyboard-response","81","255266","0.0-1.0-102.0","0","0","14322","","null","","","null","11","NaN","","","","","","","","","","","","","","",""
"","S2","","html-keyboard-response","82","255519","0.0-1.0-103.0","0","0","14322","","null","","","null","11","","NaN","","","","","","","","","","","","","",""
"","response","","html-keyboard-response","83","256852","0.0-1.0-104.0-0.0","0","0","14322","","1330","","","75","11","","","1","11","training","adjacent","DE","4","5","M.jpg","R.jpg","0","1","0","",""
"","feedback","","html-keyboard-response","84","257855","0.0-1.0-105.0-0.0","0","0","14322","","null","","","null","11","","","","","","","","","","","","","","","",""
"","time_out","","html-keyboard-response","85","259858","0.0-1.0-107.0-0.0","0","0","14322","","null","","","null","11","","","","","","","","","","","","","","","",""
"","ITI","","html-keyboard-response","86","260861","0.0-1.0-108.0","0","0","14322","","null","","","null","11","","","","","","","","","","","","","","","NaN",""
"","S1","","html-keyboard-response","87","261114","0.0-1.0-110.0","0","0","14322","","null","","","null","12","","","","","","","","","","","","","","","",""
"","ISI","","html-keyboard-response","88","261616","0.0-1.0-111.0","0","0","14322","","null","","","null","12","NaN","","","","","","","","","","","","","","",""
"","S2","","html-keyboard-response","89","261869","0.0-1.0-112.0","0","0","14322","","null","","","null","12","","NaN","","","","","","","","","","","","","",""
"","response","","html-keyboard-response","90","262953","0.0-1.0-113.0-0.0","0","0","14322","","1083","","","75","12","","","1","12","training","adjacent","GF","7","6","Q.jpg","N.jpg","0","0","1","",""
"","feedback","","html-keyboard-response","91","263958","0.0-1.0-114.0-0.0","0","0","14322","","null","","","null","12","","","","","","","","","","","","","","","",""
"","ITI","","html-keyboard-response","92","264961","0.0-1.0-117.0","0","0","14322","","null","","","null","12","","","","","","","","","","","","","","","NaN",""
"","S1","","html-keyboard-response","93","265214","0.0-1.0-119.0","0","0","14322","","null","","","null","13","","","","","","","","","","","","","","","",""
"","ISI","","html-keyboard-response","94","265716","0.0-1.0-120.0","0","0","14322","","null","","","null","13","NaN","","","","","","","","","","","","","","",""
"","S2","","html-keyboard-response","95","265970","0.0-1.0-121.0","0","0","14322","","null","","","null","13","","NaN","","","","","","","","","","","","","",""
"","response","","html-keyboard-response","96","266570","0.0-1.0-122.0-0.0","0","0","14322","","597","","","68","13","","","1","13","training","adjacent","EF","5","6","R.jpg","N.jpg","1","1","1","",""
"","feedback","","html-keyboard-response","97","267574","0.0-1.0-123.0-0.0","0","0","14322","","null","","","null","13","","","","","","","","","","","","","","","",""
"","ITI","","html-keyboard-response","98","268577","0.0-1.0-126.0","0","0","14322","","null","","","null","13","","","","","","","","","","","","","","","NaN",""
"","S1","","html-keyboard-response","99","268830","0.0-1.0-128.0","0","0","14322","","null","","","null","14","","","","","","","","","","","","","","","",""
"","ISI","","html-keyboard-response","100","269342","0.0-1.0-129.0","0","0","14322","","null","","","null","14","NaN","","","","","","","","","","","","","","",""
"","S2","","html-keyboard-response","101","269607","0.0-1.0-130.0","0","0","14322","","null","","","null","14","","NaN","","","","","","","","","","","","","",""
"","response","","html-keyboard-response","102","270201","0.0-1.0-131.0-0.0","0","0","14322","","592","","","68","14","","","1","14","training","adjacent","AB","1","2","L.jpg","P.jpg","1","1","1","",""
"","feedback","","html-keyboard-response","103","271203","0.0-1.0-132.0-0.0","0","0","14322","","null","","","null","14","","","","","","","","","","","","","","","",""
"","ITI","","html-keyboard-response","104","272206","0.0-1.0-135.0","0","0","14322","","null","","","null","14","","","","","","","","","","","","","","","NaN",""
"","S1","","html-keyboard-response","105","272459","0.0-1.0-137.0","0","0","14322","","null","","","null","15","","","","","","","","","","","","","","","",""
"","ISI","","html-keyboard-response","106","272962","0.0-1.0-138.0","0","0","14322","","null","","","null","15","NaN","","","","","","","","","","","","","","",""
"","S2","","html-keyboard-response","107","273217","0.0-1.0-139.0","0","0","14322","","null","","","null","15","","NaN","","","","","","","","","","","","","",""
"","response","","html-keyboard-response","108","273657","0.0-1.0-140.0-0.0","0","0","14322","","439","","","75","15","","","1","15","training","adjacent","BA","2","1","P.jpg","L.jpg","0","0","1","",""
"","feedback","","html-keyboard-response","109","274660","0.0-1.0-141.0-0.0","0","0","14322","","null","","","null","15","","","","","","","","","","","","","","","",""
"","ITI","","html-keyboard-response","110","275662","0.0-1.0-144.0","0","0","14322","","null","","","null","15","","","","","","","","","","","","","","","NaN",""
"","S1","","html-keyboard-response","111","275915","0.0-1.0-146.0","0","0","14322","","null","","","null","16","","","","","","","","","","","","","","","",""
"","ISI","","html-keyboard-response","112","276417","0.0-1.0-147.0","0","0","14322","","null","","","null","16","NaN","","","","","","","","","","","","","","",""
"","S2","","html-keyboard-response","113","276671","0.0-1.0-148.0","0","0","14322","","null","","","null","16","","NaN","","","","","","","","","","","","","",""
"","response","","html-keyboard-response","114","277365","0.0-1.0-149.0-0.0","0","0","14322","","692","","","68","16","","","1","16","training","adjacent","EF","5","6","R.jpg","N.jpg","1","1","1","",""
"","feedback","","html-keyboard-response","115","278368","0.0-1.0-150.0-0.0","0","0","14322","","null","","","null","16","","","","","","","","","","","","","","","",""
"","ITI","","html-keyboard-response","116","279381","0.0-1.0-153.0","0","0","14322","","null","","","null","16","","","","","","","","","","","","","","","NaN",""
"","S1","","html-keyboard-response","117","279636","0.0-1.0-155.0","0","0","14322","","null","","","null","17","","","","","","","","","","","","","","","",""
"","ISI","","html-keyboard-response","118","280139","0.0-1.0-156.0","0","0","14322","","null","","","null","17","NaN","","","","","","","","","","","","","","",""
"","S2","","html-keyboard-response","119","280392","0.0-1.0-157.0","0","0","14322","","null","","","null","17","","NaN","","","","","","","","","","","","","",""
"","response","","html-keyboard-response","120","280874","0.0-1.0-158.0-0.0","0","0","14322","","480","","","75","17","","","1","17","training","adjacent","ED","5","4","R.jpg","M.jpg","0","0","1","",""
"","feedback","","html-keyboard-response","121","281877","0.0-1.0-159.0-0.0","0","0","14322","","null","","","null","17","","","","","","","","","","","","","","","",""
"","ITI","","html-keyboard-response","122","282879","0.0-1.0-162.0","0","0","14322","","null","","","null","17","","","","","","","","","","","","","","","NaN",""
"","S1","","html-keyboard-response","123","283132","0.0-1.0-164.0","0","0","14322","","null","","","null","18","","","","","","","","","","","","","","","",""
"","ISI","","html-keyboard-response","124","283645","0.0-1.0-165.0","0","0","14322","","null","","","null","18","NaN","","","","","","","","","","","","","","",""
"","S2","","html-keyboard-response","125","283898","0.0-1.0-166.0","0","0","14322","","null","","","null","18","","NaN","","","","","","","","","","","","","",""
"","response","","html-keyboard-response","126","284545","0.0-1.0-167.0-0.0","0","0","14322","","645","","","68","18","","","1","18","training","adjacent","GF","7","6","Q.jpg","N.jpg","1","0","0","",""
"","feedback","","html-keyboard-response","127","285547","0.0-1.0-168.0-0.0","0","0","14322","","null","","","null","18","","","","","","","","","","","","","","","",""
"","time_out","","html-keyboard-response","128","287549","0.0-1.0-170.0-0.0","0","0","14322","","null","","","null","18","","","","","","","","","","","","","","","",""
"","ITI","","html-keyboard-response","129","288554","0.0-1.0-171.0","0","0","14322","","null","","","null","18","","","","","","","","","","","","","","","NaN",""
"","S1","","html-keyboard-response","130","288807","0.0-1.0-173.0","0","0","14322","","null","","","null","19","","","","","","","","","","","","","","","",""
"","ISI","","html-keyboard-response","131","289309","0.0-1.0-174.0","0","0","14322","","null","","","null","19","NaN","","","","","","","","","","","","","","",""
"","S2","","html-keyboard-response","132","289563","0.0-1.0-175.0","0","0","14322","","null","","","null","19","","NaN","","","","","","","","","","","","","",""
"","response","","html-keyboard-response","133","290292","0.0-1.0-176.0-0.0","0","0","14322","","727","","","75","19","","","1","19","training","adjacent","CB","3","2","O.jpg","P.jpg","0","0","1","",""
"","feedback","","html-keyboard-response","134","291294","0.0-1.0-177.0-0.0","0","0","14322","","null","","","null","19","","","","","","","","","","","","","","","",""
"","ITI","","html-keyboard-response","135","292297","0.0-1.0-180.0","0","0","14322","","null","","","null","19","","","","","","","","","","","","","","","NaN",""
"","S1","","html-keyboard-response","136","292551","0.0-1.0-182.0","0","0","14322","","null","","","null","20","","","","","","","","","","","","","","","",""
"","ISI","","html-keyboard-response","137","293054","0.0-1.0-183.0","0","0","14322","","null","","","null","20","NaN","","","","","","","","","","","","","","",""
"","S2","","html-keyboard-response","138","293306","0.0-1.0-184.0","0","0","14322","","null","","","null","20","","NaN","","","","","","","","","","","","","",""
"","response","","html-keyboard-response","139","293790","0.0-1.0-185.0-0.0","0","0","14322","","481","","","75","20","","","1","20","training","adjacent","CD","3","4","O.jpg","M.jpg","0","1","0","",""
"","feedback","","html-keyboard-response","140","294794","0.0-1.0-186.0-0.0","0","0","14322","","null","","","null","20","","","","","","","","","","","","","","","",""
"","time_out","","html-keyboard-response","141","296797","0.0-1.0-188.0-0.0","0","0","14322","","null","","","null","20","","","","","","","","","","","","","","","",""
"","ITI","","html-keyboard-response","142","297800","0.0-1.0-189.0","0","0","14322","","null","","","null","20","","","","","","","","","","","","","","","NaN",""
"","S1","","html-keyboard-response","143","298054","0.0-1.0-191.0","0","0","14322","","null","","","null","21","","","","","","","","","","","","","","","",""
"","ISI","","html-keyboard-response","144","298556","0.0-1.0-192.0","0","0","14322","","null","","","null","21","NaN","","","","","","","","","","","","","","",""
"","S2","","html-keyboard-response","145","298814","0.0-1.0-193.0","0","0","14322","","null","","","null","21","","NaN","","","","","","","","","","","","","",""
"","response","","html-keyboard-response","146","299372","0.0-1.0-194.0-0.0","0","0","14322","","555","","","75","21","","","1","21","training","adjacent","BA","2","1","P.jpg","L.jpg","0","0","1","",""
"","feedback","","html-keyboard-response","147","300375","0.0-1.0-195.0-0.0","0","0","14322","","null","","","null","21","","","","","","","","","","","","","","","",""
"","ITI","","html-keyboard-response","148","301378","0.0-1.0-198.0","0","0","14322","","null","","","null","21","","","","","","","","","","","","","","","NaN",""
"","S1","","html-keyboard-response","149","301631","0.0-1.0-200.0","0","0","14322","","null","","","null","22","","","","","","","","","","","","","","","",""
"","ISI","","html-keyboard-response","150","302134","0.0-1.0-201.0","0","0","14322","","null","","","null","22","NaN","","","","","","","","","","","","","","",""
"","S2","","html-keyboard-response","151","302387","0.0-1.0-202.0","0","0","14322","","null","","","null","22","","NaN","","","","","","","","","","","","","",""
"","response","","html-keyboard-response","152","303574","0.0-1.0-203.0-0.0","0","0","14322","","1185","","","75","22","","","1","22","training","adjacent","CD","3","4","O.jpg","M.jpg","0","1","0","",""
"","feedback","","html-keyboard-response","153","304576","0.0-1.0-204.0-0.0","0","0","14322","","null","","","null","22","","","","","","","","","","","","","","","",""
"","time_out","","html-keyboard-response","154","306579","0.0-1.0-206.0-0.0","0","0","14322","","null","","","null","22","","","","","","","","","","","","","","","",""
"","ITI","","html-keyboard-response","155","307583","0.0-1.0-207.0","0","0","14322","","null","","","null","22","","","","","","","","","","","","","","","NaN",""
"","S1","","html-keyboard-response","156","307836","0.0-1.0-209.0","0","0","14322","","null","","","null","23","","","","","","","","","","","","","","","",""
"","ISI","","html-keyboard-response","157","308338","0.0-1.0-210.0","0","0","14322","","null","","","null","23","NaN","","","","","","","","","","","","","","",""
"","S2","","html-keyboard-response","158","308594","0.0-1.0-211.0","0","0","14322","","null","","","null","23","","NaN","","","","","","","","","","","","","",""
"","response","","html-keyboard-response","159","309550","0.0-1.0-212.0-0.0","0","0","14322","","955","","","68","23","","","1","23","training","adjacent","CB","3","2","O.jpg","P.jpg","1","0","0","",""
"","feedback","","html-keyboard-response","160","310554","0.0-1.0-213.0-0.0","0","0","14322","","null","","","null","23","","","","","","","","","","","","","","","",""
"","time_out","","html-keyboard-response","161","312556","0.0-1.0-215.0-0.0","0","0","14322","","null","","","null","23","","","","","","","","","","","","","","","",""
"","ITI","","html-keyboard-response","162","313560","0.0-1.0-216.0","0","0","14322","","null","","","null","23","","","","","","","","","","","","","","","NaN",""
"","S1","","html-keyboard-response","163","313814","0.0-1.0-218.0","0","0","14322","","null","","","null","24","","","","","","","","","","","","","","","",""
"","ISI","","html-keyboard-response","164","314316","0.0-1.0-219.0","0","0","14322","","null","","","null","24","NaN","","","","","","","","","","","","","","",""
"","S2","","html-keyboard-response","165","314570","0.0-1.0-220.0","0","0","14322","","null","","","null","24","","NaN","","","","","","","","","","","","","",""
"","response","","html-keyboard-response","166","315927","0.0-1.0-221.0-0.0","0","0","14322","","1354","","","68","24","","","1","24","training","adjacent","CB","3","2","O.jpg","P.jpg","1","0","0","",""
"","feedback","","html-keyboard-response","167","316932","0.0-1.0-222.0-0.0","0","0","14322","","null","","","null","24","","","","","","","","","","","","","","","",""
"","time_out","","html-keyboard-response","168","318934","0.0-1.0-224.0-0.0","0","0","14322","","null","","","null","24","","","","","","","","","","","","","","","",""
"","ITI","","html-keyboard-response","169","319938","0.0-1.0-225.0","0","0","14322","","null","","","null","24","","","","","","","","","","","","","","","NaN",""
"","S1","","html-keyboard-response","170","320191","0.0-1.0-227.0","0","0","14322","","null","","","null","25","","","","","","","","","","","","","","","",""
"","ISI","","html-keyboard-response","171","320694","0.0-1.0-228.0","0","0","14322","","null","","","null","25","NaN","","","","","","","","","","","","","","",""
"","S2","","html-keyboard-response","172","320949","0.0-1.0-229.0","0","0","14322","","null","","","null","25","","NaN","","","","","","","","","","","","","",""
"","response","","html-keyboard-response","173","321546","0.0-1.0-230.0-0.0","0","0","14322","","595","","","68","25","","","1","25","training","adjacent","DC","4","3","M.jpg","O.jpg","1","0","0","",""
"","feedback","","html-keyboard-response","174","322548","0.0-1.0-231.0-0.0","0","0","14322","","null","","","null","25","","","","","","","","","","","","","","","",""
"","time_out","","html-keyboard-response","175","324551","0.0-1.0-233.0-0.0","0","0","14322","","null","","","null","25","","","","","","","","","","","","","","","",""
"","ITI","","html-keyboard-response","176","325554","0.0-1.0-234.0","0","0","14322","","null","","","null","25","","","","","","","","","","","","","","","NaN",""
"","S1","","html-keyboard-response","177","325806","0.0-1.0-236.0","0","0","14322","","null","","","null","26","","","","","","","","","","","","","","","",""
"","ISI","","html-keyboard-response","178","326310","0.0-1.0-237.0","0","0","14322","","null","","","null","26","NaN","","","","","","","","","","","","","","",""
"","S2","","html-keyboard-response","179","326564","0.0-1.0-238.0","0","0","14322","","null","","","null","26","","NaN","","","","","","","","","","","","","",""
"","response","","html-keyboard-response","180","327230","0.0-1.0-239.0-0.0","0","0","14322","","664","","","75","26","","","1","26","training","adjacent","FG","6","7","N.jpg","Q.jpg","0","1","0","",""
"","feedback","","html-keyboard-response","181","328233","0.0-1.0-240.0-0.0","0","0","14322","","null","","","null","26","","","","","","","","","","","","","","","",""
"","time_out","","html-keyboard-response","182","330236","0.0-1.0-242.0-0.0","0","0","14322","","null","","","null","26","","","","","","","","","","","","","","","",""
"","ITI","","html-keyboard-response","183","331238","0.0-1.0-243.0","0","0","14322","","null","","","null","26","","","","","","","","","","","","","","","NaN",""
"","S1","","html-keyboard-response","184","331492","0.0-1.0-245.0","0","0","14322","","null","","","null","27","","","","","","","","","","","","","","","",""
"","ISI","","html-keyboard-response","185","331995","0.0-1.0-246.0","0","0","14322","","null","","","null","27","NaN","","","","","","","","","","","","","","",""
"","S2","","html-keyboard-response","186","332249","0.0-1.0-247.0","0","0","14322","","null","","","null","27","","NaN","","","","","","","","","","","","","",""
"","response","","html-keyboard-response","187","333050","0.0-1.0-248.0-0.0","0","0","14322","","799","","","75","27","","","1","27","training","adjacent","ED","5","4","R.jpg","M.jpg","0","0","1","",""
"","feedback","","html-keyboard-response","188","334054","0.0-1.0-249.0-0.0","0","0","14322","","null","","","null","27","","","","","","","","","","","","","","","",""
"","ITI","","html-keyboard-response","189","335057","0.0-1.0-252.0","0","0","14322","","null","","","null","27","","","","","","","","","","","","","","","NaN",""
"","S1","","html-keyboard-response","190","335311","0.0-1.0-254.0","0","0","14322","","null","","","null","28","","","","","","","","","","","","","","","",""
"","ISI","","html-keyboard-response","191","335813","0.0-1.0-255.0","0","0","14322","","null","","","null","28","NaN","","","","","","","","","","","","","","",""
"","S2","","html-keyboard-response","192","336067","0.0-1.0-256.0","0","0","14322","","null","","","null","28","","NaN","","","","","","","","","","","","","",""
"","response","","html-keyboard-response","193","336909","0.0-1.0-257.0-0.0","0","0","14322","","840","","","68","28","","","1","28","training","adjacent","EF","5","6","R.jpg","N.jpg","1","1","1","",""
"","feedback","","html-keyboard-response","194","337912","0.0-1.0-258.0-0.0","0","0","14322","","null","","","null","28","","","","","","","","","","","","","","","",""
"","ITI","","html-keyboard-response","195","338914","0.0-1.0-261.0","0","0","14322","","null","","","null","28","","","","","","","","","","","","","","","NaN",""
"","S1","","html-keyboard-response","196","339167","0.0-1.0-263.0","0","0","14322","","null","","","null","29","","","","","","","","","","","","","","","",""
"","ISI","","html-keyboard-response","197","339670","0.0-1.0-264.0","0","0","14322","","null","","","null","29","NaN","","","","","","","","","","","","","","",""
"","S2","","html-keyboard-response","198","339933","0.0-1.0-265.0","0","0","14322","","null","","","null","29","","NaN","","","","","","","","","","","","","",""
"","response","","html-keyboard-response","199","340574","0.0-1.0-266.0-0.0","0","0","14322","","638","","","68","29","","","1","29","training","adjacent","DE","4","5","M.jpg","R.jpg","1","1","1","",""
"","feedback","","html-keyboard-response","200","341577","0.0-1.0-267.0-0.0","0","0","14322","","null","","","null","29","","","","","","","","","","","","","","","",""
"","ITI","","html-keyboard-response","201","342580","0.0-1.0-270.0","0","0","14322","","null","","","null","29","","","","","","","","","","","","","","","NaN",""
"","S1","","html-keyboard-response","202","342833","0.0-1.0-272.0","0","0","14322","","null","","","null","30","","","","","","","","","","","","","","","",""
"","ISI","","html-keyboard-response","203","343335","0.0-1.0-273.0","0","0","14322","","null","","","null","30","NaN","","","","","","","","","","","","","","",""
"","S2","","html-keyboard-response","204","343588","0.0-1.0-274.0","0","0","14322","","null","","","null","30","","NaN","","","","","","","","","","","","","",""
"","response","","html-keyboard-response","205","344343","0.0-1.0-275.0-0.0","0","0","14322","","753","","","68","30","","","1","30","training","adjacent","DE","4","5","M.jpg","R.jpg","1","1","1","",""
"","feedback","","html-keyboard-response","206","345347","0.0-1.0-276.0-0.0","0","0","14322","","null","","","null","30","","","","","","","","","","","","","","","",""
"","ITI","","html-keyboard-response","207","346350","0.0-1.0-279.0","0","0","14322","","null","","","null","30","","","","","","","","","","","","","","","NaN",""
"","S1","","html-keyboard-response","208","346603","0.0-1.0-281.0","0","0","14322","","null","","","null","31","","","","","","","","","","","","","","","",""
"","ISI","","html-keyboard-response","209","347105","0.0-1.0-282.0","0","0","14322","","null","","","null","31","NaN","","","","","","","","","","","","","","",""
"","S2","","html-keyboard-response","210","347358","0.0-1.0-283.0","0","0","14322","","null","","","null","31","","NaN","","","","","","","","","","","","","",""
"","response","","html-keyboard-response","211","348296","0.0-1.0-284.0-0.0","0","0","14322","","935","","","75","31","","","1","31","training","adjacent","CB","3","2","O.jpg","P.jpg","0","0","1","",""
"","feedback","","html-keyboard-response","212","349299","0.0-1.0-285.0-0.0","0","0","14322","","null","","","null","31","","","","","","","","","","","","","","","",""
"","ITI","","html-keyboard-response","213","350302","0.0-1.0-288.0","0","0","14322","","null","","","null","31","","","","","","","","","","","","","","","NaN",""
"","S1","","html-keyboard-response","214","350556","0.0-1.0-290.0","0","0","14322","","null","","","null","32","","","","","","","","","","","","","","","",""
"","ISI","","html-keyboard-response","215","351059","0.0-1.0-291.0","0","0","14322","","null","","","null","32","NaN","","","","","","","","","","","","","","",""
"","S2","","html-keyboard-response","216","351311","0.0-1.0-292.0","0","0","14322","","null","","","null","32","","NaN","","","","","","","","","","","","","",""
"","response","","html-keyboard-response","217","352191","0.0-1.0-293.0-0.0","0","0","14322","","877","","","68","32","","","1","32","training","adjacent","BC","2","3","P.jpg","O.jpg","1","1","1","",""
"","feedback","","html-keyboard-response","218","353195","0.0-1.0-294.0-0.0","0","0","14322","","null","","","null","32","","","","","","","","","","","","","","","",""
"","ITI","","html-keyboard-response","219","354197","0.0-1.0-297.0","0","0","14322","","null","","","null","32","","","","","","","","","","","","","","","NaN",""
"","S1","","html-keyboard-response","220","354451","0.0-1.0-299.0","0","0","14322","","null","","","null","33","","","","","","","","","","","","","","","",""
"","ISI","","html-keyboard-response","221","354953","0.0-1.0-300.0","0","0","14322","","null","","","null","33","NaN","","","","","","","","","","","","","","",""
"","S2","","html-keyboard-response","222","355206","0.0-1.0-301.0","0","0","14322","","null","","","null","33","","NaN","","","","","","","","","","","","","",""
"","response","","html-keyboard-response","223","356292","0.0-1.0-302.0-0.0","0","0","14322","","1083","","","68","33","","","1","33","training","adjacent","FG","6","7","N.jpg","Q.jpg","1","1","1","",""
"","feedback","","html-keyboard-response","224","357295","0.0-1.0-303.0-0.0","0","0","14322","","null","","","null","33","","","","","","","","","","","","","","","",""
"","ITI","","html-keyboard-response","225","358298","0.0-1.0-306.0","0","0","14322","","null","","","null","33","","","","","","","","","","","","","","","NaN",""
"","S1","","html-keyboard-response","226","358551","0.0-1.0-308.0","0","0","14322","","null","","","null","34","","","","","","","","","","","","","","","",""
"","ISI","","html-keyboard-response","227","359055","0.0-1.0-309.0","0","0","14322","","null","","","null","34","NaN","","","","","","","","","","","","","","",""
"","S2","","html-keyboard-response","228","359307","0.0-1.0-310.0","0","0","14322","","null","","","null","34","","NaN","","","","","","","","","","","","","",""
"","response","","html-keyboard-response","229","360056","0.0-1.0-311.0-0.0","0","0","14322","","747","","","68","34","","","1","34","training","adjacent","BC","2","3","P.jpg","O.jpg","1","1","1","",""
"","feedback","","html-keyboard-response","230","361058","0.0-1.0-312.0-0.0","0","0","14322","","null","","","null","34","","","","","","","","","","","","","","","",""
"","ITI","","html-keyboard-response","231","362061","0.0-1.0-315.0","0","0","14322","","null","","","null","34","","","","","","","","","","","","","","","NaN",""
"","S1","","html-keyboard-response","232","362313","0.0-1.0-317.0","0","0","14322","","null","","","null","35","","","","","","","","","","","","","","","",""
"","ISI","","html-keyboard-response","233","362817","0.0-1.0-318.0","0","0","14322","","null","","","null","35","NaN","","","","","","","","","","","","","","",""
"","S2","","html-keyboard-response","234","363071","0.0-1.0-319.0","0","0","14322","","null","","","null","35","","NaN","","","","","","","","","","","","","",""
"","response","","html-keyboard-response","235","363811","0.0-1.0-320.0-0.0","0","0","14322","","737","","","75","35","","","1","35","training","adjacent","BA","2","1","P.jpg","L.jpg","0","0","1","",""
"","feedback","","html-keyboard-response","236","364815","0.0-1.0-321.0-0.0","0","0","14322","","null","","","null","35","","","","","","","","","","","","","","","",""
"","ITI","","html-keyboard-response","237","365818","0.0-1.0-324.0","0","0","14322","","null","","","null","35","","","","","","","","","","","","","","","NaN",""
"","S1","","html-keyboard-response","238","366072","0.0-1.0-326.0","0","0","14322","","null","","","null","36","","","","","","","","","","","","","","","",""
"","ISI","","html-keyboard-response","239","366574","0.0-1.0-327.0","0","0","14322","","null","","","null","36","NaN","","","","","","","","","","","","","","",""
"","S2","","html-keyboard-response","240","366827","0.0-1.0-328.0","0","0","14322","","null","","","null","36","","NaN","","","","","","","","","","","","","",""
"","response","","html-keyboard-response","241","368503","0.0-1.0-329.0-0.0","0","0","14322","","1673","","","68","36","","","1","36","training","adjacent","CD","3","4","O.jpg","M.jpg","1","1","1","",""
"","feedback","","html-keyboard-response","242","369507","0.0-1.0-330.0-0.0","0","0","14322","","null","","","null","36","","","","","","","","","","","","","","","",""
"","ITI","","html-keyboard-response","243","370511","0.0-1.0-333.0","0","0","14322","","null","","","null","36","","","","","","","","","","","","","","","NaN",""
"","S1","","html-keyboard-response","244","370765","0.0-1.0-335.0","0","0","14322","","null","","","null","37","","","","","","","","","","","","","","","",""
"","ISI","","html-keyboard-response","245","371269","0.0-1.0-336.0","0","0","14322","","null","","","null","37","NaN","","","","","","","","","","","","","","",""
"","S2","","html-keyboard-response","246","371522","0.0-1.0-337.0","0","0","14322","","null","","","null","37","","NaN","","","","","","","","","","","","","",""
"","response","","html-keyboard-response","247","372315","0.0-1.0-338.0-0.0","0","0","14322","","790","","","75","37","","","1","37","training","adjacent","BA","2","1","P.jpg","L.jpg","0","0","1","",""
"","feedback","","html-keyboard-response","248","373318","0.0-1.0-339.0-0.0","0","0","14322","","null","","","null","37","","","","","","","","","","","","","","","",""
"","ITI","","html-keyboard-response","249","374321","0.0-1.0-342.0","0","0","14322","","null","","","null","37","","","","","","","","","","","","","","","NaN",""
"","S1","","html-keyboard-response","250","374573","0.0-1.0-344.0","0","0","14322","","null","","","null","38","","","","","","","","","","","","","","","",""
"","ISI","","html-keyboard-response","251","375076","0.0-1.0-345.0","0","0","14322","","null","","","null","38","NaN","","","","","","","","","","","","","","",""
"","S2","","html-keyboard-response","252","375329","0.0-1.0-346.0","0","0","14322","","null","","","null","38","","NaN","","","","","","","","","","","","","",""
"","response","","html-keyboard-response","253","376175","0.0-1.0-347.0-0.0","0","0","14322","","844","","","75","38","","","1","38","training","adjacent","ED","5","4","R.jpg","M.jpg","0","0","1","",""
"","feedback","","html-keyboard-response","254","377178","0.0-1.0-348.0-0.0","0","0","14322","","null","","","null","38","","","","","","","","","","","","","","","",""
"","ITI","","html-keyboard-response","255","378181","0.0-1.0-351.0","0","0","14322","","null","","","null","38","","","","","","","","","","","","","","","NaN",""
"","S1","","html-keyboard-response","256","378434","0.0-1.0-353.0","0","0","14322","","null","","","null","39","","","","","","","","","","","","","","","",""
"","ISI","","html-keyboard-response","257","378937","0.0-1.0-354.0","0","0","14322","","null","","","null","39","NaN","","","","","","","","","","","","","","",""
"","S2","","html-keyboard-response","258","379191","0.0-1.0-355.0","0","0","14322","","null","","","null","39","","NaN","","","","","","","","","","","","","",""
"","response","","html-keyboard-response","259","380050","0.0-1.0-356.0-0.0","0","0","14322","","857","","","68","39","","","1","39","training","adjacent","GF","7","6","Q.jpg","N.jpg","1","0","0","",""
"","feedback","","html-keyboard-response","260","381052","0.0-1.0-357.0-0.0","0","0","14322","","null","","","null","39","","","","","","","","","","","","","","","",""
"","time_out","","html-keyboard-response","261","383055","0.0-1.0-359.0-0.0","0","0","14322","","null","","","null","39","","","","","","","","","","","","","","","",""
"","ITI","","html-keyboard-response","262","384057","0.0-1.0-360.0","0","0","14322","","null","","","null","39","","","","","","","","","","","","","","","NaN",""
"","S1","","html-keyboard-response","263","384310","0.0-1.0-362.0","0","0","14322","","null","","","null","40","","","","","","","","","","","","","","","",""
"","ISI","","html-keyboard-response","264","384813","0.0-1.0-363.0","0","0","14322","","null","","","null","40","NaN","","","","","","","","","","","","","","",""
"","S2","","html-keyboard-response","265","385067","0.0-1.0-364.0","0","0","14322","","null","","","null","40","","NaN","","","","","","","","","","","","","",""
"","response","","html-keyboard-response","266","386281","0.0-1.0-365.0-0.0","0","0","14322","","1212","","","75","40","","","1","40","training","adjacent","BC","2","3","P.jpg","O.jpg","0","1","0","",""
"","feedback","","html-keyboard-response","267","387284","0.0-1.0-366.0-0.0","0","0","14322","","null","","","null","40","","","","","","","","","","","","","","","",""
"","time_out","","html-keyboard-response","268","389287","0.0-1.0-368.0-0.0","0","0","14322","","null","","","null","40","","","","","","","","","","","","","","","",""
"","ITI","","html-keyboard-response","269","390290","0.0-1.0-369.0","0","0","14322","","null","","","null","40","","","","","","","","","","","","","","","NaN",""
"","S1","","html-keyboard-response","270","390543","0.0-1.0-371.0","0","0","14322","","null","","","null","41","","","","","","","","","","","","","","","",""
"","ISI","","html-keyboard-response","271","391046","0.0-1.0-372.0","0","0","14322","","null","","","null","41","NaN","","","","","","","","","","","","","","",""
"","S2","","html-keyboard-response","272","391300","0.0-1.0-373.0","0","0","14322","","null","","","null","41","","NaN","","","","","","","","","","","","","",""
"","response","","html-keyboard-response","273","392345","0.0-1.0-374.0-0.0","0","0","14322","","1043","","","68","41","","","1","41","training","adjacent","AB","1","2","L.jpg","P.jpg","1","1","1","",""
"","feedback","","html-keyboard-response","274","393348","0.0-1.0-375.0-0.0","0","0","14322","","null","","","null","41","","","","","","","","","","","","","","","",""
"","ITI","","html-keyboard-response","275","394351","0.0-1.0-378.0","0","0","14322","","null","","","null","41","","","","","","","","","","","","","","","NaN",""
"","S1","","html-keyboard-response","276","394605","0.0-1.0-380.0","0","0","14322","","null","","","null","42","","","","","","","","","","","","","","","",""
"","ISI","","html-keyboard-response","277","395108","0.0-1.0-381.0","0","0","14322","","null","","","null","42","NaN","","","","","","","","","","","","","","",""
"","S2","","html-keyboard-response","278","395361","0.0-1.0-382.0","0","0","14322","","null","","","null","42","","NaN","","","","","","","","","","","","","",""
"","response","","html-keyboard-response","279","396285","0.0-1.0-383.0-0.0","0","0","14322","","922","","","68","42","","","1","42","training","adjacent","FE","6","5","N.jpg","R.jpg","1","0","0","",""
"","feedback","","html-keyboard-response","280","397287","0.0-1.0-384.0-0.0","0","0","14322","","null","","","null","42","","","","","","","","","","","","","","","",""
"","time_out","","html-keyboard-response","281","399291","0.0-1.0-386.0-0.0","0","0","14322","","null","","","null","42","","","","","","","","","","","","","","","",""
"","ITI","","html-keyboard-response","282","400294","0.0-1.0-387.0","0","0","14322","","null","","","null","42","","","","","","","","","","","","","","","NaN",""
"","S1","","html-keyboard-response","283","400547","0.0-1.0-389.0","0","0","14322","","null","","","null","43","","","","","","","","","","","","","","","",""
"","ISI","","html-keyboard-response","284","401057","0.0-1.0-390.0","0","0","14322","","null","","","null","43","NaN","","","","","","","","","","","","","","",""
"","S2","","html-keyboard-response","285","401311","0.0-1.0-391.0","0","0","14322","","null","","","null","43","","NaN","","","","","","","","","","","","","",""
"","response","","html-keyboard-response","286","402133","0.0-1.0-392.0-0.0","0","0","14322","","819","","","68","43","","","1","43","training","adjacent","FE","6","5","N.jpg","R.jpg","1","0","0","",""
"","feedback","","html-keyboard-response","287","403137","0.0-1.0-393.0-0.0","0","0","14322","","null","","","null","43","","","","","","","","","","","","","","","",""
"","time_out","","html-keyboard-response","288","405139","0.0-1.0-395.0-0.0","0","0","14322","","null","","","null","43","","","","","","","","","","","","","","","",""
"","ITI","","html-keyboard-response","289","406142","0.0-1.0-396.0","0","0","14322","","null","","","null","43","","","","","","","","","","","","","","","NaN",""
"","S1","","html-keyboard-response","290","406395","0.0-1.0-398.0","0","0","14322","","null","","","null","44","","","","","","","","","","","","","","","",""
"","ISI","","html-keyboard-response","291","406898","0.0-1.0-399.0","0","0","14322","","null","","","null","44","NaN","","","","","","","","","","","","","","",""
"","S2","","html-keyboard-response","292","407152","0.0-1.0-400.0","0","0","14322","","null","","","null","44","","NaN","","","","","","","","","","","","","",""
"","response","","html-keyboard-response","293","407855","0.0-1.0-401.0-0.0","0","0","14322","","700","","","68","44","","","1","44","training","adjacent","AB","1","2","L.jpg","P.jpg","1","1","1","",""
"","feedback","","html-keyboard-response","294","408858","0.0-1.0-402.0-0.0","0","0","14322","","null","","","null","44","","","","","","","","","","","","","","","",""
"","ITI","","html-keyboard-response","295","409860","0.0-1.0-405.0","0","0","14322","","null","","","null","44","","","","","","","","","","","","","","","NaN",""
"","S1","","html-keyboard-response","296","410113","0.0-1.0-407.0","0","0","14322","","null","","","null","45","","","","","","","","","","","","","","","",""
"","ISI","","html-keyboard-response","297","410616","0.0-1.0-408.0","0","0","14322","","null","","","null","45","NaN","","","","","","","","","","","","","","",""
"","S2","","html-keyboard-response","298","410871","0.0-1.0-409.0","0","0","14322","","null","","","null","45","","NaN","","","","","","","","","","","","","",""
"","response","","html-keyboard-response","299","411698","0.0-1.0-410.0-0.0","0","0","14322","","826","","","75","45","","","1","45","training","adjacent","GF","7","6","Q.jpg","N.jpg","0","0","1","",""
"","feedback","","html-keyboard-response","300","412701","0.0-1.0-411.0-0.0","0","0","14322","","null","","","null","45","","","","","","","","","","","","","","","",""
"","ITI","","html-keyboard-response","301","413704","0.0-1.0-414.0","0","0","14322","","null","","","null","45","","","","","","","","","","","","","","","NaN",""
"","S1","","html-keyboard-response","302","413957","0.0-1.0-416.0","0","0","14322","","null","","","null","46","","","","","","","","","","","","","","","",""
"","ISI","","html-keyboard-response","303","414459","0.0-1.0-417.0","0","0","14322","","null","","","null","46","NaN","","","","","","","","","","","","","","",""
"","S2","","html-keyboard-response","304","414712","0.0-1.0-418.0","0","0","14322","","null","","","null","46","","NaN","","","","","","","","","","","","","",""
"","response","","html-keyboard-response","305","415501","0.0-1.0-419.0-0.0","0","0","14322","","786","","","75","46","","","1","46","training","adjacent","FG","6","7","N.jpg","Q.jpg","0","1","0","",""
"","feedback","","html-keyboard-response","306","416504","0.0-1.0-420.0-0.0","0","0","14322","","null","","","null","46","","","","","","","","","","","","","","","",""
"","time_out","","html-keyboard-response","307","418507","0.0-1.0-422.0-0.0","0","0","14322","","null","","","null","46","","","","","","","","","","","","","","","",""
"","ITI","","html-keyboard-response","308","419509","0.0-1.0-423.0","0","0","14322","","null","","","null","46","","","","","","","","","","","","","","","NaN",""
"","S1","","html-keyboard-response","309","419763","0.0-1.0-425.0","0","0","14322","","null","","","null","47","","","","","","","","","","","","","","","",""
"","ISI","","html-keyboard-response","310","420266","0.0-1.0-426.0","0","0","14322","","null","","","null","47","NaN","","","","","","","","","","","","","","",""
"","S2","","html-keyboard-response","311","420519","0.0-1.0-427.0","0","0","14322","","null","","","null","47","","NaN","","","","","","","","","","","","","",""
"","response","","html-keyboard-response","312","421113","0.0-1.0-428.0-0.0","0","0","14322","","592","","","68","47","","","1","47","training","adjacent","FE","6","5","N.jpg","R.jpg","1","0","0","",""
"","feedback","","html-keyboard-response","313","422116","0.0-1.0-429.0-0.0","0","0","14322","","null","","","null","47","","","","","","","","","","","","","","","",""
"","time_out","","html-keyboard-response","314","424119","0.0-1.0-431.0-0.0","0","0","14322","","null","","","null","47","","","","","","","","","","","","","","","",""
"","ITI","","html-keyboard-response","315","425123","0.0-1.0-432.0","0","0","14322","","null","","","null","47","","","","","","","","","","","","","","","NaN",""
"","block_over","","html-keyboard-response","316","428994","0.0-1.0-433.0-0.0","0","0","14322","","3868","","","32","47","","","","","","","","","","","","","","","",""
"","S1","","html-keyboard-response","317","429247","0.0-1.0-434.0","0","0","14322","","null","","","null","48","","","","","","","","","","","","","","","",""
"","ISI","","html-keyboard-response","318","429749","0.0-1.0-435.0","0","0","14322","","null","","","null","48","NaN","","","","","","","","","","","","","","",""
"","S2","","html-keyboard-response","319","430003","0.0-1.0-436.0","0","0","14322","","null","","","null","48","","NaN","","","","","","","","","","","","","",""
"","response","","html-keyboard-response","320","430438","0.0-1.0-437.0-0.0","0","0","14322","","433","","","75","48","","","2","48","training","adjacent","CD","3","4","O.jpg","M.jpg","0","1","0","",""
"","feedback","","html-keyboard-response","321","431442","0.0-1.0-438.0-0.0","0","0","14322","","null","","","null","48","","","","","","","","","","","","","","","",""
"","time_out","","html-keyboard-response","322","433445","0.0-1.0-440.0-0.0","0","0","14322","","null","","","null","48","","","","","","","","","","","","","","","",""
"","ITI","","html-keyboard-response","323","434447","0.0-1.0-441.0","0","0","14322","","null","","","null","48","","","","","","","","","","","","","","","NaN",""
"","S1","","html-keyboard-response","324","434699","0.0-1.0-443.0","0","0","14322","","null","","","null","49","","","","","","","","","","","","","","","",""
"","ISI","","html-keyboard-response","325","435203","0.0-1.0-444.0","0","0","14322","","null","","","null","49","NaN","","","","","","","","","","","","","","",""
"","S2","","html-keyboard-response","326","435455","0.0-1.0-445.0","0","0","14322","","null","","","null","49","","NaN","","","","","","","","","","","","","",""
"","response","","html-keyboard-response","327","436389","0.0-1.0-446.0-0.0","0","0","14322","","931","","","75","49","","","2","49","training","adjacent","CB","3","2","O.jpg","P.jpg","0","0","1","",""
"","feedback","","html-keyboard-response","328","437392","0.0-1.0-447.0-0.0","0","0","14322","","null","","","null","49","","","","","","","","","","","","","","","",""
"","ITI","","html-keyboard-response","329","438396","0.0-1.0-450.0","0","0","14322","","null","","","null","49","","","","","","","","","","","","","","","NaN",""
"","S1","","html-keyboard-response","330","438650","0.0-1.0-452.0","0","0","14322","","null","","","null","50","","","","","","","","","","","","","","","",""
"","ISI","","html-keyboard-response","331","439153","0.0-1.0-453.0","0","0","14322","","null","","","null","50","NaN","","","","","","","","","","","","","","",""
"","S2","","html-keyboard-response","332","439406","0.0-1.0-454.0","0","0","14322","","null","","","null","50","","NaN","","","","","","","","","","","","","",""
"","response","","html-keyboard-response","333","439928","0.0-1.0-455.0-0.0","0","0","14322","","520","","","75","50","","","2","50","training","adjacent","ED","5","4","R.jpg","M.jpg","0","0","1","",""
"","feedback","","html-keyboard-response","334","440932","0.0-1.0-456.0-0.0","0","0","14322","","null","","","null","50","","","","","","","","","","","","","","","",""
"","ITI","","html-keyboard-response","335","441936","0.0-1.0-459.0","0","0","14322","","null","","","null","50","","","","","","","","","","","","","","","NaN",""
"","S1","","html-keyboard-response","336","442189","0.0-1.0-461.0","0","0","14322","","null","","","null","51","","","","","","","","","","","","","","","",""
"","ISI","","html-keyboard-response","337","442693","0.0-1.0-462.0","0","0","14322","","null","","","null","51","NaN","","","","","","","","","","","","","","",""
"","S2","","html-keyboard-response","338","442945","0.0-1.0-463.0","0","0","14322","","null","","","null","51","","NaN","","","","","","","","","","","","","",""
"","response","","html-keyboard-response","339","444040","0.0-1.0-464.0-0.0","0","0","14322","","1091","","","68","51","","","2","51","training","adjacent","FG","6","7","N.jpg","Q.jpg","1","1","1","",""
"","feedback","","html-keyboard-response","340","445043","0.0-1.0-465.0-0.0","0","0","14322","","null","","","null","51","","","","","","","","","","","","","","","",""
"","ITI","","html-keyboard-response","341","446046","0.0-1.0-468.0","0","0","14322","","null","","","null","51","","","","","","","","","","","","","","","NaN",""
"","S1","","html-keyboard-response","342","446299","0.0-1.0-470.0","0","0","14322","","null","","","null","52","","","","","","","","","","","","","","","",""
"","ISI","","html-keyboard-response","343","446801","0.0-1.0-471.0","0","0","14322","","null","","","null","52","NaN","","","","","","","","","","","","","","",""
"","S2","","html-keyboard-response","344","447054","0.0-1.0-472.0","0","0","14322","","null","","","null","52","","NaN","","","","","","","","","","","","","",""
"","response","","html-keyboard-response","345","447683","0.0-1.0-473.0-0.0","0","0","14322","","626","","","68","52","","","2","52","training","adjacent","DC","4","3","M.jpg","O.jpg","1","0","0","",""
"","feedback","","html-keyboard-response","346","448686","0.0-1.0-474.0-0.0","0","0","14322","","null","","","null","52","","","","","","","","","","","","","","","",""
"","time_out","","html-keyboard-response","347","450690","0.0-1.0-476.0-0.0","0","0","14322","","null","","","null","52","","","","","","","","","","","","","","","",""
"","ITI","","html-keyboard-response","348","451693","0.0-1.0-477.0","0","0","14322","","null","","","null","52","","","","","","","","","","","","","","","NaN",""
"","S1","","html-keyboard-response","349","451946","0.0-1.0-479.0","0","0","14322","","null","","","null","53","","","","","","","","","","","","","","","",""
"","ISI","","html-keyboard-response","350","452449","0.0-1.0-480.0","0","0","14322","","null","","","null","53","NaN","","","","","","","","","","","","","","",""
"","S2","","html-keyboard-response","351","452704","0.0-1.0-481.0","0","0","14322","","null","","","null","53","","NaN","","","","","","","","","","","","","",""
"","response","","html-keyboard-response","352","453399","0.0-1.0-482.0-0.0","0","0","14322","","693","","","75","53","","","2","53","training","adjacent","CD","3","4","O.jpg","M.jpg","0","1","0","",""
"","feedback","","html-keyboard-response","353","454403","0.0-1.0-483.0-0.0","0","0","14322","","null","","","null","53","","","","","","","","","","","","","","","",""
"","time_out","","html-keyboard-response","354","456407","0.0-1.0-485.0-0.0","0","0","14322","","null","","","null","53","","","","","","","","","","","","","","","",""
"","ITI","","html-keyboard-response","355","457409","0.0-1.0-486.0","0","0","14322","","null","","","null","53","","","","","","","","","","","","","","","NaN",""
"","S1","","html-keyboard-response","356","457663","0.0-1.0-488.0","0","0","14322","","null","","","null","54","","","","","","","","","","","","","","","",""
"","ISI","","html-keyboard-response","357","458166","0.0-1.0-489.0","0","0","14322","","null","","","null","54","NaN","","","","","","","","","","","","","","",""
"","S2","","html-keyboard-response","358","458420","0.0-1.0-490.0","0","0","14322","","null","","","null","54","","NaN","","","","","","","","","","","","","",""
"","response","","html-keyboard-response","359","458759","0.0-1.0-491.0-0.0","0","0","14322","","338","","","75","54","","","2","54","training","adjacent","DC","4","3","M.jpg","O.jpg","0","0","1","",""
"","feedback","","html-keyboard-response","360","459763","0.0-1.0-492.0-0.0","0","0","14322","","null","","","null","54","","","","","","","","","","","","","","","",""
"","ITI","","html-keyboard-response","361","460766","0.0-1.0-495.0","0","0","14322","","null","","","null","54","","","","","","","","","","","","","","","NaN",""
"","S1","","html-keyboard-response","362","461028","0.0-1.0-497.0","0","0","14322","","null","","","null","55","","","","","","","","","","","","","","","",""
"","ISI","","html-keyboard-response","363","461541","0.0-1.0-498.0","0","0","14322","","null","","","null","55","NaN","","","","","","","","","","","","","","",""
"","S2","","html-keyboard-response","364","461806","0.0-1.0-499.0","0","0","14322","","null","","","null","55","","NaN","","","","","","","","","","","","","",""
"","response","","html-keyboard-response","365","462108","0.0-1.0-500.0-0.0","0","0","14322","","301","","","68","55","","","2","55","training","adjacent","CD","3","4","O.jpg","M.jpg","1","1","1","",""
"","feedback","","html-keyboard-response","366","463112","0.0-1.0-501.0-0.0","0","0","14322","","null","","","null","55","","","","","","","","","","","","","","","",""
"","ITI","","html-keyboard-response","367","464115","0.0-1.0-504.0","0","0","14322","","null","","","null","55","","","","","","","","","","","","","","","NaN",""
"","S1","","html-keyboard-response","368","464368","0.0-1.0-506.0","0","0","14322","","null","","","null","56","","","","","","","","","","","","","","","",""
"","ISI","","html-keyboard-response","369","464872","0.0-1.0-507.0","0","0","14322","","null","","","null","56","NaN","","","","","","","","","","","","","","",""
"","S2","","html-keyboard-response","370","465124","0.0-1.0-508.0","0","0","14322","","null","","","null","56","","NaN","","","","","","","","","","","","","",""
"","response","","html-keyboard-response","371","465968","0.0-1.0-509.0-0.0","0","0","14322","","841","","","68","56","","","2","56","training","adjacent","DE","4","5","M.jpg","R.jpg","1","1","1","",""
"","feedback","","html-keyboard-response","372","466972","0.0-1.0-510.0-0.0","0","0","14322","","null","","","null","56","","","","","","","","","","","","","","","",""
"","ITI","","html-keyboard-response","373","467975","0.0-1.0-513.0","0","0","14322","","null","","","null","56","","","","","","","","","","","","","","","NaN",""
"","S1","","html-keyboard-response","374","468228","0.0-1.0-515.0","0","0","14322","","null","","","null","57","","","","","","","","","","","","","","","",""
"","ISI","","html-keyboard-response","375","468731","0.0-1.0-516.0","0","0","14322","","null","","","null","57","NaN","","","","","","","","","","","","","","",""
"","S2","","html-keyboard-response","376","468985","0.0-1.0-517.0","0","0","14322","","null","","","null","57","","NaN","","","","","","","","","","","","","",""
"","response","","html-keyboard-response","377","469867","0.0-1.0-518.0-0.0","0","0","14322","","880","","","68","57","","","2","57","training","adjacent","FG","6","7","N.jpg","Q.jpg","1","1","1","",""
"","feedback","","html-keyboard-response","378","470870","0.0-1.0-519.0-0.0","0","0","14322","","null","","","null","57","","","","","","","","","","","","","","","",""
"","ITI","","html-keyboard-response","379","471873","0.0-1.0-522.0","0","0","14322","","null","","","null","57","","","","","","","","","","","","","","","NaN",""
"","S1","","html-keyboard-response","380","472126","0.0-1.0-524.0","0","0","14322","","null","","","null","58","","","","","","","","","","","","","","","",""
"","ISI","","html-keyboard-response","381","472630","0.0-1.0-525.0","0","0","14322","","null","","","null","58","NaN","","","","","","","","","","","","","","",""
"","S2","","html-keyboard-response","382","472884","0.0-1.0-526.0","0","0","14322","","null","","","null","58","","NaN","","","","","","","","","","","","","",""
"","response","","html-keyboard-response","383","473712","0.0-1.0-527.0-0.0","0","0","14322","","825","","","68","58","","","2","58","training","adjacent","EF","5","6","R.jpg","N.jpg","1","1","1","",""
"","feedback","","html-keyboard-response","384","474716","0.0-1.0-528.0-0.0","0","0","14322","","null","","","null","58","","","","","","","","","","","","","","","",""
"","ITI","","html-keyboard-response","385","475719","0.0-1.0-531.0","0","0","14322","","null","","","null","58","","","","","","","","","","","","","","","NaN",""
"","S1","","html-keyboard-response","386","475973","0.0-1.0-533.0","0","0","14322","","null","","","null","59","","","","","","","","","","","","","","","",""
"","ISI","","html-keyboard-response","387","476476","0.0-1.0-534.0","0","0","14322","","null","","","null","59","NaN","","","","","","","","","","","","","","",""
"","S2","","html-keyboard-response","388","476729","0.0-1.0-535.0","0","0","14322","","null","","","null","59","","NaN","","","","","","","","","","","","","",""
"","response","","html-keyboard-response","389","477720","0.0-1.0-536.0-0.0","0","0","14322","","990","","","75","59","","","2","59","training","adjacent","GF","7","6","Q.jpg","N.jpg","0","0","1","",""
"","feedback","","html-keyboard-response","390","478724","0.0-1.0-537.0-0.0","0","0","14322","","null","","","null","59","","","","","","","","","","","","","","","",""
"","ITI","","html-keyboard-response","391","479726","0.0-1.0-540.0","0","0","14322","","null","","","null","59","","","","","","","","","","","","","","","NaN",""
"","S1","","html-keyboard-response","392","479979","0.0-1.0-542.0","0","0","14322","","null","","","null","60","","","","","","","","","","","","","","","",""
"","ISI","","html-keyboard-response","393","480483","0.0-1.0-543.0","0","0","14322","","null","","","null","60","NaN","","","","","","","","","","","","","","",""
"","S2","","html-keyboard-response","394","480736","0.0-1.0-544.0","0","0","14322","","null","","","null","60","","NaN","","","","","","","","","","","","","",""
"","response","","html-keyboard-response","395","481893","0.0-1.0-545.0-0.0","0","0","14322","","1156","","","68","60","","","2","60","training","adjacent","FE","6","5","N.jpg","R.jpg","1","0","0","",""
"","feedback","","html-keyboard-response","396","482896","0.0-1.0-546.0-0.0","0","0","14322","","null","","","null","60","","","","","","","","","","","","","","","",""
"","time_out","","html-keyboard-response","397","484899","0.0-1.0-548.0-0.0","0","0","14322","","null","","","null","60","","","","","","","","","","","","","","","",""
"","ITI","","html-keyboard-response","398","485903","0.0-1.0-549.0","0","0","14322","","null","","","null","60","","","","","","","","","","","","","","","NaN",""
"","S1","","html-keyboard-response","399","486157","0.0-1.0-551.0","0","0","14322","","null","","","null","61","","","","","","","","","","","","","","","",""
"","ISI","","html-keyboard-response","400","486660","0.0-1.0-552.0","0","0","14322","","null","","","null","61","NaN","","","","","","","","","","","","","","",""
"","S2","","html-keyboard-response","401","486914","0.0-1.0-553.0","0","0","14322","","null","","","null","61","","NaN","","","","","","","","","","","","","",""
"","response","","html-keyboard-response","402","487847","0.0-1.0-554.0-0.0","0","0","14322","","931","","","75","61","","","2","61","training","adjacent","DC","4","3","M.jpg","O.jpg","0","0","1","",""
"","feedback","","html-keyboard-response","403","488850","0.0-1.0-555.0-0.0","0","0","14322","","null","","","null","61","","","","","","","","","","","","","","","",""
"","ITI","","html-keyboard-response","404","489853","0.0-1.0-558.0","0","0","14322","","null","","","null","61","","","","","","","","","","","","","","","NaN",""
"","S1","","html-keyboard-response","405","490106","0.0-1.0-560.0","0","0","14322","","null","","","null","62","","","","","","","","","","","","","","","",""
"","ISI","","html-keyboard-response","406","490609","0.0-1.0-561.0","0","0","14322","","null","","","null","62","NaN","","","","","","","","","","","","","","",""
"","S2","","html-keyboard-response","407","490863","0.0-1.0-562.0","0","0","14322","","null","","","null","62","","NaN","","","","","","","","","","","","","",""
"","response","","html-keyboard-response","408","491232","0.0-1.0-563.0-0.0","0","0","14322","","365","","","75","62","","","2","62","training","adjacent","BA","2","1","P.jpg","L.jpg","0","0","1","",""
"","feedback","","html-keyboard-response","409","492236","0.0-1.0-564.0-0.0","0","0","14322","","null","","","null","62","","","","","","","","","","","","","","","",""
"","ITI","","html-keyboard-response","410","493239","0.0-1.0-567.0","0","0","14322","","null","","","null","62","","","","","","","","","","","","","","","NaN",""
"","S1","","html-keyboard-response","411","493492","0.0-1.0-569.0","0","0","14322","","null","","","null","63","","","","","","","","","","","","","","","",""
"","ISI","","html-keyboard-response","412","493995","0.0-1.0-570.0","0","0","14322","","null","","","null","63","NaN","","","","","","","","","","","","","","",""
"","S2","","html-keyboard-response","413","494248","0.0-1.0-571.0","0","0","14322","","null","","","null","63","","NaN","","","","","","","","","","","","","",""
"","response","","html-keyboard-response","414","494676","0.0-1.0-572.0-0.0","0","0","14322","","427","","","68","63","","","2","63","training","adjacent","DE","4","5","M.jpg","R.jpg","1","1","1","",""
"","feedback","","html-keyboard-response","415","495680","0.0-1.0-573.0-0.0","0","0","14322","","null","","","null","63","","","","","","","","","","","","","","","",""
"","ITI","","html-keyboard-response","416","496693","0.0-1.0-576.0","0","0","14322","","null","","","null","63","","","","","","","","","","","","","","","NaN",""
"","S1","","html-keyboard-response","417","496947","0.0-1.0-578.0","0","0","14322","","null","","","null","64","","","","","","","","","","","","","","","",""
"","ISI","","html-keyboard-response","418","497449","0.0-1.0-579.0","0","0","14322","","null","","","null","64","NaN","","","","","","","","","","","","","","",""
"","S2","","html-keyboard-response","419","497703","0.0-1.0-580.0","0","0","14322","","null","","","null","64","","NaN","","","","","","","","","","","","","",""
"","response","","html-keyboard-response","420","498464","0.0-1.0-581.0-0.0","0","0","14322","","759","","","75","64","","","2","64","training","adjacent","BA","2","1","P.jpg","L.jpg","0","0","1","",""
"","feedback","","html-keyboard-response","421","499467","0.0-1.0-582.0-0.0","0","0","14322","","null","","","null","64","","","","","","","","","","","","","","","",""
"","ITI","","html-keyboard-response","422","500470","0.0-1.0-585.0","0","0","14322","","null","","","null","64","","","","","","","","","","","","","","","NaN",""
"","S1","","html-keyboard-response","423","500724","0.0-1.0-587.0","0","0","14322","","null","","","null","65","","","","","","","","","","","","","","","",""
"","ISI","","html-keyboard-response","424","501226","0.0-1.0-588.0","0","0","14322","","null","","","null","65","NaN","","","","","","","","","","","","","","",""
"","S2","","html-keyboard-response","425","501479","0.0-1.0-589.0","0","0","14322","","null","","","null","65","","NaN","","","","","","","","","","","","","",""
"","response","","html-keyboard-response","426","502422","0.0-1.0-590.0-0.0","0","0","14322","","942","","","75","65","","","2","65","training","adjacent","BC","2","3","P.jpg","O.jpg","0","1","0","",""
"","feedback","","html-keyboard-response","427","503426","0.0-1.0-591.0-0.0","0","0","14322","","null","","","null","65","","","","","","","","","","","","","","","",""
"","time_out","","html-keyboard-response","428","505430","0.0-1.0-593.0-0.0","0","0","14322","","null","","","null","65","","","","","","","","","","","","","","","",""
"","ITI","","html-keyboard-response","429","506433","0.0-1.0-594.0","0","0","14322","","null","","","null","65","","","","","","","","","","","","","","","NaN",""
"","S1","","html-keyboard-response","430","506687","0.0-1.0-596.0","0","0","14322","","null","","","null","66","","","","","","","","","","","","","","","",""
"","ISI","","html-keyboard-response","431","507190","0.0-1.0-597.0","0","0","14322","","null","","","null","66","NaN","","","","","","","","","","","","","","",""
"","S2","","html-keyboard-response","432","507445","0.0-1.0-598.0","0","0","14322","","null","","","null","66","","NaN","","","","","","","","","","","","","",""
"","response","","html-keyboard-response","433","508228","0.0-1.0-599.0-0.0","0","0","14322","","781","","","75","66","","","2","66","training","adjacent","BC","2","3","P.jpg","O.jpg","0","1","0","",""
"","feedback","","html-keyboard-response","434","509230","0.0-1.0-600.0-0.0","0","0","14322","","null","","","null","66","","","","","","","","","","","","","","","",""
"","time_out","","html-keyboard-response","435","511234","0.0-1.0-602.0-0.0","0","0","14322","","null","","","null","66","","","","","","","","","","","","","","","",""
"","ITI","","html-keyboard-response","436","512236","0.0-1.0-603.0","0","0","14322","","null","","","null","66","","","","","","","","","","","","","","","NaN",""
"","S1","","html-keyboard-response","437","512490","0.0-1.0-605.0","0","0","14322","","null","","","null","67","","","","","","","","","","","","","","","",""
"","ISI","","html-keyboard-response","438","512994","0.0-1.0-606.0","0","0","14322","","null","","","null","67","NaN","","","","","","","","","","","","","","",""
"","S2","","html-keyboard-response","439","513246","0.0-1.0-607.0","0","0","14322","","null","","","null","67","","NaN","","","","","","","","","","","","","",""
"","response","","html-keyboard-response","440","513848","0.0-1.0-608.0-0.0","0","0","14322","","600","","","68","67","","","2","67","training","adjacent","BC","2","3","P.jpg","O.jpg","1","1","1","",""
"","feedback","","html-keyboard-response","441","514852","0.0-1.0-609.0-0.0","0","0","14322","","null","","","null","67","","","","","","","","","","","","","","","",""
"","ITI","","html-keyboard-response","442","515855","0.0-1.0-612.0","0","0","14322","","null","","","null","67","","","","","","","","","","","","","","","NaN",""
"","S1","","html-keyboard-response","443","516108","0.0-1.0-614.0","0","0","14322","","null","","","null","68","","","","","","","","","","","","","","","",""
"","ISI","","html-keyboard-response","444","516611","0.0-1.0-615.0","0","0","14322","","null","","","null","68","NaN","","","","","","","","","","","","","","",""
"","S2","","html-keyboard-response","445","516864","0.0-1.0-616.0","0","0","14322","","null","","","null","68","","NaN","","","","","","","","","","","","","",""
"","response","","html-keyboard-response","446","517567","0.0-1.0-617.0-0.0","0","0","14322","","701","","","68","68","","","2","68","training","adjacent","FG","6","7","N.jpg","Q.jpg","1","1","1","",""
"","feedback","","html-keyboard-response","447","518571","0.0-1.0-618.0-0.0","0","0","14322","","null","","","null","68","","","","","","","","","","","","","","","",""
"","ITI","","html-keyboard-response","448","519576","0.0-1.0-621.0","0","0","14322","","null","","","null","68","","","","","","","","","","","","","","","NaN",""
"","S1","","html-keyboard-response","449","519828","0.0-1.0-623.0","0","0","14322","","null","","","null","69","","","","","","","","","","","","","","","",""
"","ISI","","html-keyboard-response","450","520331","0.0-1.0-624.0","0","0","14322","","null","","","null","69","NaN","","","","","","","","","","","","","","",""
"","S2","","html-keyboard-response","451","520586","0.0-1.0-625.0","0","0","14322","","null","","","null","69","","NaN","","","","","","","","","","","","","",""
"","response","","html-keyboard-response","452","521532","0.0-1.0-626.0-0.0","0","0","14322","","943","","","75","69","","","2","69","training","adjacent","CB","3","2","O.jpg","P.jpg","0","0","1","",""
"","feedback","","html-keyboard-response","453","522536","0.0-1.0-627.0-0.0","0","0","14322","","null","","","null","69","","","","","","","","","","","","","","","",""
"","ITI","","html-keyboard-response","454","523538","0.0-1.0-630.0","0","0","14322","","null","","","null","69","","","","","","","","","","","","","","","NaN",""
"","S1","","html-keyboard-response","455","523792","0.0-1.0-632.0","0","0","14322","","null","","","null","70","","","","","","","","","","","","","","","",""
"","ISI","","html-keyboard-response","456","524295","0.0-1.0-633.0","0","0","14322","","null","","","null","70","NaN","","","","","","","","","","","","","","",""
"","S2","","html-keyboard-response","457","524548","0.0-1.0-634.0","0","0","14322","","null","","","null","70","","NaN","","","","","","","","","","","","","",""
"","response","","html-keyboard-response","458","525525","0.0-1.0-635.0-0.0","0","0","14322","","975","","","68","70","","","2","70","training","adjacent","EF","5","6","R.jpg","N.jpg","1","1","1","",""
"","feedback","","html-keyboard-response","459","526530","0.0-1.0-636.0-0.0","0","0","14322","","null","","","null","70","","","","","","","","","","","","","","","",""
"","ITI","","html-keyboard-response","460","527533","0.0-1.0-639.0","0","0","14322","","null","","","null","70","","","","","","","","","","","","","","","NaN",""
"","S1","","html-keyboard-response","461","527786","0.0-1.0-641.0","0","0","14322","","null","","","null","71","","","","","","","","","","","","","","","",""
"","ISI","","html-keyboard-response","462","528290","0.0-1.0-642.0","0","0","14322","","null","","","null","71","NaN","","","","","","","","","","","","","","",""
"","S2","","html-keyboard-response","463","528543","0.0-1.0-643.0","0","0","14322","","null","","","null","71","","NaN","","","","","","","","","","","","","",""
"","response","","html-keyboard-response","464","529211","0.0-1.0-644.0-0.0","0","0","14322","","665","","","68","71","","","2","71","training","adjacent","AB","1","2","L.jpg","P.jpg","1","1","1","",""
"","feedback","","html-keyboard-response","465","530214","0.0-1.0-645.0-0.0","0","0","14322","","null","","","null","71","","","","","","","","","","","","","","","",""
"","ITI","","html-keyboard-response","466","531217","0.0-1.0-648.0","0","0","14322","","null","","","null","71","","","","","","","","","","","","","","","NaN",""
"","S1","","html-keyboard-response","467","531470","0.0-1.0-650.0","0","0","14322","","null","","","null","72","","","","","","","","","","","","","","","",""
"","ISI","","html-keyboard-response","468","531973","0.0-1.0-651.0","0","0","14322","","null","","","null","72","NaN","","","","","","","","","","","","","","",""
"","S2","","html-keyboard-response","469","532232","0.0-1.0-652.0","0","0","14322","","null","","","null","72","","NaN","","","","","","","","","","","","","",""
"","response","","html-keyboard-response","470","533985","0.0-1.0-653.0-0.0","0","0","14322","","null","","","null","72","","","2","72","training","adjacent","FE","6","5","N.jpg","R.jpg","NaN","0","0","",""
"","too_slow_prompt","","html-keyboard-response","471","534988","0.0-1.0-655.0-0.0","1","0","14322","","null","","","null","","","","","","","","","","","","","","","","",""
"","time_out","","html-keyboard-response","472","536991","0.0-1.0-656.0-0.0","0","0","14322","","null","","","null","72","","","","","","","","","","","","","","","",""
"","ITI","","html-keyboard-response","473","537994","0.0-1.0-657.0","0","0","14322","","null","","","null","72","","","","","","","","","","","","","","","NaN",""
"","S1","","html-keyboard-response","474","538248","0.0-1.0-659.0","0","0","14322","","null","","","null","73","","","","","","","","","","","","","","","",""
"","ISI","","html-keyboard-response","475","538751","0.0-1.0-660.0","0","0","14322","","null","","","null","73","NaN","","","","","","","","","","","","","","",""
"","S2","","html-keyboard-response","476","539004","0.0-1.0-661.0","0","0","14322","","null","","","null","73","","NaN","","","","","","","","","","","","","",""
"","response","","html-keyboard-response","477","539564","0.0-1.0-662.0-0.0","0","0","14322","","558","","","68","73","","","2","73","training","adjacent","EF","5","6","R.jpg","N.jpg","1","1","1","",""
"","feedback","","html-keyboard-response","478","540567","0.0-1.0-663.0-0.0","0","0","14322","","null","","","null","73","","","","","","","","","","","","","","","",""
"","ITI","","html-keyboard-response","479","541571","0.0-1.0-666.0","0","0","14322","","null","","","null","73","","","","","","","","","","","","","","","NaN",""
"","S1","","html-keyboard-response","480","541829","0.0-1.0-668.0","0","0","14322","","null","","","null","74","","","","","","","","","","","","","","","",""
"","ISI","","html-keyboard-response","481","542333","0.0-1.0-669.0","0","0","14322","","null","","","null","74","NaN","","","","","","","","","","","","","","",""
"","S2","","html-keyboard-response","482","542586","0.0-1.0-670.0","0","0","14322","","null","","","null","74","","NaN","","","","","","","","","","","","","",""
"","response","","html-keyboard-response","483","543696","0.0-1.0-671.0-0.0","0","0","14322","","1107","","","68","74","","","2","74","training","adjacent","BA","2","1","P.jpg","L.jpg","1","0","0","",""
"","feedback","","html-keyboard-response","484","544698","0.0-1.0-672.0-0.0","0","0","14322","","null","","","null","74","","","","","","","","","","","","","","","",""
"","time_out","","html-keyboard-response","485","546701","0.0-1.0-674.0-0.0","0","0","14322","","null","","","null","74","","","","","","","","","","","","","","","",""
"","ITI","","html-keyboard-response","486","547704","0.0-1.0-675.0","0","0","14322","","null","","","null","74","","","","","","","","","","","","","","","NaN",""
"","S1","","html-keyboard-response","487","547957","0.0-1.0-677.0","0","0","14322","","null","","","null","75","","","","","","","","","","","","","","","",""
"","ISI","","html-keyboard-response","488","548460","0.0-1.0-678.0","0","0","14322","","null","","","null","75","NaN","","","","","","","","","","","","","","",""
"","S2","","html-keyboard-response","489","548713","0.0-1.0-679.0","0","0","14322","","null","","","null","75","","NaN","","","","","","","","","","","","","",""
"","response","","html-keyboard-response","490","549414","0.0-1.0-680.0-0.0","0","0","14322","","699","","","75","75","","","2","75","training","adjacent","CB","3","2","O.jpg","P.jpg","0","0","1","",""
"","feedback","","html-keyboard-response","491","550418","0.0-1.0-681.0-0.0","0","0","14322","","null","","","null","75","","","","","","","","","","","","","","","",""
"","ITI","","html-keyboard-response","492","551420","0.0-1.0-684.0","0","0","14322","","null","","","null","75","","","","","","","","","","","","","","","NaN",""
"","S1","","html-keyboard-response","493","551673","0.0-1.0-686.0","0","0","14322","","null","","","null","76","","","","","","","","","","","","","","","",""
"","ISI","","html-keyboard-response","494","552176","0.0-1.0-687.0","0","0","14322","","null","","","null","76","NaN","","","","","","","","","","","","","","",""
"","S2","","html-keyboard-response","495","552430","0.0-1.0-688.0","0","0","14322","","null","","","null","76","","NaN","","","","","","","","","","","","","",""
"","response","","html-keyboard-response","496","553102","0.0-1.0-689.0-0.0","0","0","14322","","671","","","68","76","","","2","76","training","adjacent","AB","1","2","L.jpg","P.jpg","1","1","1","",""
"","feedback","","html-keyboard-response","497","554106","0.0-1.0-690.0-0.0","0","0","14322","","null","","","null","76","","","","","","","","","","","","","","","",""
"","ITI","","html-keyboard-response","498","555110","0.0-1.0-693.0","0","0","14322","","null","","","null","76","","","","","","","","","","","","","","","NaN",""
"","S1","","html-keyboard-response","499","555363","0.0-1.0-695.0","0","0","14322","","null","","","null","77","","","","","","","","","","","","","","","",""
"","ISI","","html-keyboard-response","500","555866","0.0-1.0-696.0","0","0","14322","","null","","","null","77","NaN","","","","","","","","","","","","","","",""
"","S2","","html-keyboard-response","501","556119","0.0-1.0-697.0","0","0","14322","","null","","","null","77","","NaN","","","","","","","","","","","","","",""
"","response","","html-keyboard-response","502","556993","0.0-1.0-698.0-0.0","0","0","14322","","871","","","75","77","","","2","77","training","adjacent","GF","7","6","Q.jpg","N.jpg","0","0","1","",""
"","feedback","","html-keyboard-response","503","557996","0.0-1.0-699.0-0.0","0","0","14322","","null","","","null","77","","","","","","","","","","","","","","","",""
"","ITI","","html-keyboard-response","504","559000","0.0-1.0-702.0","0","0","14322","","null","","","null","77","","","","","","","","","","","","","","","NaN",""
"","S1","","html-keyboard-response","505","559253","0.0-1.0-704.0","0","0","14322","","null","","","null","78","","","","","","","","","","","","","","","",""
"","ISI","","html-keyboard-response","506","559756","0.0-1.0-705.0","0","0","14322","","null","","","null","78","NaN","","","","","","","","","","","","","","",""
"","S2","","html-keyboard-response","507","560009","0.0-1.0-706.0","0","0","14322","","null","","","null","78","","NaN","","","","","","","","","","","","","",""
"","response","","html-keyboard-response","508","561135","0.0-1.0-707.0-0.0","0","0","14322","","1123","","","68","78","","","2","78","training","adjacent","EF","5","6","R.jpg","N.jpg","1","1","1","",""
"","feedback","","html-keyboard-response","509","562139","0.0-1.0-708.0-0.0","0","0","14322","","null","","","null","78","","","","","","","","","","","","","","","",""
"","ITI","","html-keyboard-response","510","563143","0.0-1.0-711.0","0","0","14322","","null","","","null","78","","","","","","","","","","","","","","","NaN",""
"","S1","","html-keyboard-response","511","563396","0.0-1.0-713.0","0","0","14322","","null","","","null","79","","","","","","","","","","","","","","","",""
"","ISI","","html-keyboard-response","512","563899","0.0-1.0-714.0","0","0","14322","","null","","","null","79","NaN","","","","","","","","","","","","","","",""
"","S2","","html-keyboard-response","513","564153","0.0-1.0-715.0","0","0","14322","","null","","","null","79","","NaN","","","","","","","","","","","","","",""
"","response","","html-keyboard-response","514","564694","0.0-1.0-716.0-0.0","0","0","14322","","539","","","75","79","","","2","79","training","adjacent","FE","6","5","N.jpg","R.jpg","0","0","1","",""
"","feedback","","html-keyboard-response","515","565698","0.0-1.0-717.0-0.0","0","0","14322","","null","","","null","79","","","","","","","","","","","","","","","",""
"","ITI","","html-keyboard-response","516","566701","0.0-1.0-720.0","0","0","14322","","null","","","null","79","","","","","","","","","","","","","","","NaN",""
"","S1","","html-keyboard-response","517","566954","0.0-1.0-722.0","0","0","14322","","null","","","null","80","","","","","","","","","","","","","","","",""
"","ISI","","html-keyboard-response","518","567461","0.0-1.0-723.0","0","0","14322","","null","","","null","80","NaN","","","","","","","","","","","","","","",""
"","S2","","html-keyboard-response","519","567715","0.0-1.0-724.0","0","0","14322","","null","","","null","80","","NaN","","","","","","","","","","","","","",""
"","response","","html-keyboard-response","520","568089","0.0-1.0-725.0-0.0","0","0","14322","","373","","","75","80","","","2","80","training","adjacent","GF","7","6","Q.jpg","N.jpg","0","0","1","",""
"","feedback","","html-keyboard-response","521","569093","0.0-1.0-726.0-0.0","0","0","14322","","null","","","null","80","","","","","","","","","","","","","","","",""
"","ITI","","html-keyboard-response","522","570095","0.0-1.0-729.0","0","0","14322","","null","","","null","80","","","","","","","","","","","","","","","NaN",""
"","S1","","html-keyboard-response","523","570349","0.0-1.0-731.0","0","0","14322","","null","","","null","81","","","","","","","","","","","","","","","",""
"","ISI","","html-keyboard-response","524","570851","0.0-1.0-732.0","0","0","14322","","null","","","null","81","NaN","","","","","","","","","","","","","","",""
"","S2","","html-keyboard-response","525","571105","0.0-1.0-733.0","0","0","14322","","null","","","null","81","","NaN","","","","","","","","","","","","","",""
"","response","","html-keyboard-response","526","572111","0.0-1.0-734.0-0.0","0","0","14322","","1005","","","68","81","","","2","81","training","adjacent","DC","4","3","M.jpg","O.jpg","1","0","0","",""
"","feedback","","html-keyboard-response","527","573115","0.0-1.0-735.0-0.0","0","0","14322","","null","","","null","81","","","","","","","","","","","","","","","",""
"","time_out","","html-keyboard-response","528","575119","0.0-1.0-737.0-0.0","0","0","14322","","null","","","null","81","","","","","","","","","","","","","","","",""
"","ITI","","html-keyboard-response","529","576121","0.0-1.0-738.0","0","0","14322","","null","","","null","81","","","","","","","","","","","","","","","NaN",""
"","S1","","html-keyboard-response","530","576374","0.0-1.0-740.0","0","0","14322","","null","","","null","82","","","","","","","","","","","","","","","",""
"","ISI","","html-keyboard-response","531","576877","0.0-1.0-741.0","0","0","14322","","null","","","null","82","NaN","","","","","","","","","","","","","","",""
"","S2","","html-keyboard-response","532","577143","0.0-1.0-742.0","0","0","14322","","null","","","null","82","","NaN","","","","","","","","","","","","","",""
"","response","","html-keyboard-response","533","577729","0.0-1.0-743.0-0.0","0","0","14322","","584","","","68","82","","","2","82","training","adjacent","DE","4","5","M.jpg","R.jpg","1","1","1","",""
"","feedback","","html-keyboard-response","534","578733","0.0-1.0-744.0-0.0","0","0","14322","","null","","","null","82","","","","","","","","","","","","","","","",""
"","ITI","","html-keyboard-response","535","579737","0.0-1.0-747.0","0","0","14322","","null","","","null","82","","","","","","","","","","","","","","","NaN",""
"","S1","","html-keyboard-response","536","579991","0.0-1.0-749.0","0","0","14322","","null","","","null","83","","","","","","","","","","","","","","","",""
"","ISI","","html-keyboard-response","537","580493","0.0-1.0-750.0","0","0","14322","","null","","","null","83","NaN","","","","","","","","","","","","","","",""
"","S2","","html-keyboard-response","538","580748","0.0-1.0-751.0","0","0","14322","","null","","","null","83","","NaN","","","","","","","","","","","","","",""
"","response","","html-keyboard-response","539","581645","0.0-1.0-752.0-0.0","0","0","14322","","895","","","75","83","","","2","83","training","adjacent","GF","7","6","Q.jpg","N.jpg","0","0","1","",""
"","feedback","","html-keyboard-response","540","582650","0.0-1.0-753.0-0.0","0","0","14322","","null","","","null","83","","","","","","","","","","","","","","","",""
"","ITI","","html-keyboard-response","541","583654","0.0-1.0-756.0","0","0","14322","","null","","","null","83","","","","","","","","","","","","","","","NaN",""
"","S1","","html-keyboard-response","542","583907","0.0-1.0-758.0","0","0","14322","","null","","","null","84","","","","","","","","","","","","","","","",""
"","ISI","","html-keyboard-response","543","584409","0.0-1.0-759.0","0","0","14322","","null","","","null","84","NaN","","","","","","","","","","","","","","",""
"","S2","","html-keyboard-response","544","584663","0.0-1.0-760.0","0","0","14322","","null","","","null","84","","NaN","","","","","","","","","","","","","",""
"","response","","html-keyboard-response","545","585403","0.0-1.0-761.0-0.0","0","0","14322","","739","","","68","84","","","2","84","training","adjacent","FG","6","7","N.jpg","Q.jpg","1","1","1","",""
"","feedback","","html-keyboard-response","546","586406","0.0-1.0-762.0-0.0","0","0","14322","","null","","","null","84","","","","","","","","","","","","","","","",""
"","ITI","","html-keyboard-response","547","587410","0.0-1.0-765.0","0","0","14322","","null","","","null","84","","","","","","","","","","","","","","","NaN",""
"","S1","","html-keyboard-response","548","587662","0.0-1.0-767.0","0","0","14322","","null","","","null","85","","","","","","","","","","","","","","","",""
"","ISI","","html-keyboard-response","549","588164","0.0-1.0-768.0","0","0","14322","","null","","","null","85","NaN","","","","","","","","","","","","","","",""
"","S2","","html-keyboard-response","550","588417","0.0-1.0-769.0","0","0","14322","","null","","","null","85","","NaN","","","","","","","","","","","","","",""
"","response","","html-keyboard-response","551","589151","0.0-1.0-770.0-0.0","0","0","14322","","732","","","68","85","","","2","85","training","adjacent","BC","2","3","P.jpg","O.jpg","1","1","1","",""
"","feedback","","html-keyboard-response","552","590155","0.0-1.0-771.0-0.0","0","0","14322","","null","","","null","85","","","","","","","","","","","","","","","",""
"","ITI","","html-keyboard-response","553","591159","0.0-1.0-774.0","0","0","14322","","null","","","null","85","","","","","","","","","","","","","","","NaN",""
"","S1","","html-keyboard-response","554","591413","0.0-1.0-776.0","0","0","14322","","null","","","null","86","","","","","","","","","","","","","","","",""
"","ISI","","html-keyboard-response","555","591915","0.0-1.0-777.0","0","0","14322","","null","","","null","86","NaN","","","","","","","","","","","","","","",""
"","S2","","html-keyboard-response","556","592170","0.0-1.0-778.0","0","0","14322","","null","","","null","86","","NaN","","","","","","","","","","","","","",""
"","response","","html-keyboard-response","557","592686","0.0-1.0-779.0-0.0","0","0","14322","","513","","","68","86","","","2","86","training","adjacent","DE","4","5","M.jpg","R.jpg","1","1","1","",""
"","feedback","","html-keyboard-response","558","593689","0.0-1.0-780.0-0.0","0","0","14322","","null","","","null","86","","","","","","","","","","","","","","","",""
"","ITI","","html-keyboard-response","559","594693","0.0-1.0-783.0","0","0","14322","","null","","","null","86","","","","","","","","","","","","","","","NaN",""
"","S1","","html-keyboard-response","560","594946","0.0-1.0-785.0","0","0","14322","","null","","","null","87","","","","","","","","","","","","","","","",""
"","ISI","","html-keyboard-response","561","595463","0.0-1.0-786.0","0","0","14322","","null","","","null","87","NaN","","","","","","","","","","","","","","",""
"","S2","","html-keyboard-response","562","595717","0.0-1.0-787.0","0","0","14322","","null","","","null","87","","NaN","","","","","","","","","","","","","",""
"","response","","html-keyboard-response","563","596261","0.0-1.0-788.0-0.0","0","0","14322","","542","","","68","87","","","2","87","training","adjacent","AB","1","2","L.jpg","P.jpg","1","1","1","",""
"","feedback","","html-keyboard-response","564","597271","0.0-1.0-789.0-0.0","0","0","14322","","null","","","null","87","","","","","","","","","","","","","","","",""
"","ITI","","html-keyboard-response","565","598275","0.0-1.0-792.0","0","0","14322","","null","","","null","87","","","","","","","","","","","","","","","NaN",""
"","S1","","html-keyboard-response","566","598528","0.0-1.0-794.0","0","0","14322","","null","","","null","88","","","","","","","","","","","","","","","",""
"","ISI","","html-keyboard-response","567","599031","0.0-1.0-795.0","0","0","14322","","null","","","null","88","NaN","","","","","","","","","","","","","","",""
"","S2","","html-keyboard-response","568","599284","0.0-1.0-796.0","0","0","14322","","null","","","null","88","","NaN","","","","","","","","","","","","","",""
"","response","","html-keyboard-response","569","599761","0.0-1.0-797.0-0.0","0","0","14322","","475","","","75","88","","","2","88","training","adjacent","CB","3","2","O.jpg","P.jpg","0","0","1","",""
"","feedback","","html-keyboard-response","570","600765","0.0-1.0-798.0-0.0","0","0","14322","","null","","","null","88","","","","","","","","","","","","","","","",""
"","ITI","","html-keyboard-response","571","601768","0.0-1.0-801.0","0","0","14322","","null","","","null","88","","","","","","","","","","","","","","","NaN",""
"","S1","","html-keyboard-response","572","602021","0.0-1.0-803.0","0","0","14322","","null","","","null","89","","","","","","","","","","","","","","","",""
"","ISI","","html-keyboard-response","573","602525","0.0-1.0-804.0","0","0","14322","","null","","","null","89","NaN","","","","","","","","","","","","","","",""
"","S2","","html-keyboard-response","574","602778","0.0-1.0-805.0","0","0","14322","","null","","","null","89","","NaN","","","","","","","","","","","","","",""
"","response","","html-keyboard-response","575","603296","0.0-1.0-806.0-0.0","0","0","14322","","516","","","75","89","","","2","89","training","adjacent","ED","5","4","R.jpg","M.jpg","0","0","1","",""
"","feedback","","html-keyboard-response","576","604300","0.0-1.0-807.0-0.0","0","0","14322","","null","","","null","89","","","","","","","","","","","","","","","",""
"","ITI","","html-keyboard-response","577","605303","0.0-1.0-810.0","0","0","14322","","null","","","null","89","","","","","","","","","","","","","","","NaN",""
"","S1","","html-keyboard-response","578","605567","0.0-1.0-812.0","0","0","14322","","null","","","null","90","","","","","","","","","","","","","","","",""
"","ISI","","html-keyboard-response","579","606071","0.0-1.0-813.0","0","0","14322","","null","","","null","90","NaN","","","","","","","","","","","","","","",""
"","S2","","html-keyboard-response","580","606325","0.0-1.0-814.0","0","0","14322","","null","","","null","90","","NaN","","","","","","","","","","","","","",""
