"success","ttype","start_time","trial_type","trial_index","time_elapsed","internal_node_id","warning","missed_checkup","PID","view_history","rt","responses","repeat_instructions","key_press","index","keypress_isi","keypress_S2","block","trial_num","phase","group_type","pair_type","S1_stim","S2_stim","S1_img","S2_img","S1_chosen","S1_higher","accuracy","keypress_iti","total_bonus_tally"
"true","full_screen","d04062023hr1742","fullscreen","0","40200","0.0-0.0","0","0","60191","","","","","","","","","","","","","","","","","","","","","",""
"","instructions","","instructions","1","119085","0.0-1.0-0.0-0.0","0","0","60191","[{""page_index"":0,""viewing_time"":31308},{""page_index"":1,""viewing_time"":21433},{""page_index"":2,""viewing_time"":24480},{""page_index"":3,""viewing_time"":1661}]","78882","","","","","","","","","","","","","","","","","","","",""
"","comprehension_check","","survey-multi-choice","2","135464","0.0-1.0-0.0-1.0","0","0","60191","","16374","{""Q0"":""True"",""Q1"":""D"",""Q2"":""Once the second image appears and while the screen 'MAKE A CHOICE' is shown"",""Q3"":""Green mark"",""Q4"":""either D or K""}","1","","","","","","","","","","","","","","","","","",""
"","missed_instruction_checkup","","html-keyboard-response","3","137363","0.0-1.0-0.0-2.0-0.0","0","1","60191","","1892","","","32","","","","","","","","","","","","","","","","",""
"","instructions","","instructions","4","154987","0.0-1.0-0.1-0.1","0","0","60191","[{""page_index"":0,""viewing_time"":3098},{""page_index"":1,""viewing_time"":10651},{""page_index"":2,""viewing_time"":1940},{""page_index"":3,""viewing_time"":1931}]","17621","","","","","","","","","","","","","","","","","","","",""
"","comprehension_check","","survey-multi-choice","5","164294","0.0-1.0-0.1-1.1","0","0","60191","","9301","{""Q0"":""True"",""Q1"":""K"",""Q2"":""Once the second image appears and while the screen 'MAKE A CHOICE' is shown"",""Q3"":""Green mark"",""Q4"":""either D or K""}","0","","","","","","","","","","","","","","","","","",""
"","start_exp","","html-keyboard-response","6","165646","0.0-1.0-1.0","0","0","60191","","1345","","","32","","","","","","","","","","","","","","","","",""
"","S1","","html-keyboard-response","7","165801","0.0-1.0-2.0","0","0","60191","","null","","","null","0","","","","","","","","","","","","","","","",""
"","ISI","","html-keyboard-response","8","167804","0.0-1.0-3.0","0","0","60191","","null","","","null","0","NaN","","","","","","","","","","","","","","",""
"","S2","","html-keyboard-response","9","167956","0.0-1.0-4.0","0","0","60191","","null","","","null","0","","NaN","","","","","","","","","","","","","",""
"","response","","html-keyboard-response","10","169809","0.0-1.0-5.0-0.0","0","0","60191","","null","","","null","0","","","1","0","training","adjacent","FG","6","7","M.jpg","P.jpg","NaN","1","0","",""
"","too_slow_prompt","","html-keyboard-response","11","170812","0.0-1.0-7.0-0.0","1","0","60191","","null","","","null","","","","","","","","","","","","","","","","",""
"","time_out","","html-keyboard-response","12","172815","0.0-1.0-8.0-0.0","0","0","60191","","null","","","null","0","","","","","","","","","","","","","","","",""
"","ITI","","html-keyboard-response","13","173817","0.0-1.0-9.0","0","0","60191","","null","","","null","0","","","","","","","","","","","","","","","NaN",""
"","S1","","html-keyboard-response","14","173971","0.0-1.0-11.0","0","0","60191","","null","","","null","1","","","","","","","","","","","","","","","",""
"","ISI","","html-keyboard-response","15","175974","0.0-1.0-12.0","0","0","60191","","null","","","null","1","NaN","","","","","","","","","","","","","","",""
"","S2","","html-keyboard-response","16","176126","0.0-1.0-13.0","0","0","60191","","null","","","null","1","","NaN","","","","","","","","","","","","","",""
"","response","","html-keyboard-response","17","176542","0.0-1.0-14.0-0.0","0","0","60191","","413","","","75","1","","","1","1","training","adjacent","BC","2","3","L.jpg","Q.jpg","1","1","1","",""
"","feedback","","html-keyboard-response","18","177548","0.0-1.0-15.0-0.0","0","0","60191","","null","","","null","1","","","","","","","","","","","","","","","",""
"","ITI","","html-keyboard-response","19","178553","0.0-1.0-18.0","0","0","60191","","null","","","null","1","","","","","","","","","","","","","","","NaN",""
"","S1","","html-keyboard-response","20","178707","0.0-1.0-20.0","0","0","60191","","null","","","null","2","","","","","","","","","","","","","","","",""
"","ISI","","html-keyboard-response","21","180709","0.0-1.0-21.0","0","0","60191","","null","","","null","2","NaN","","","","","","","","","","","","","","",""
"","S2","","html-keyboard-response","22","180861","0.0-1.0-22.0","0","0","60191","","null","","","null","2","","NaN","","","","","","","","","","","","","",""
"","response","","html-keyboard-response","23","181429","0.0-1.0-23.0-0.0","0","0","60191","","566","","","68","2","","","1","2","training","adjacent","DC","4","3","R.jpg","Q.jpg","0","0","1","",""
"","feedback","","html-keyboard-response","24","182434","0.0-1.0-24.0-0.0","0","0","60191","","null","","","null","2","","","","","","","","","","","","","","","",""
"","ITI","","html-keyboard-response","25","183436","0.0-1.0-27.0","0","0","60191","","null","","","null","2","","","","","","","","","","","","","","","NaN",""
"","S1","","html-keyboard-response","26","183591","0.0-1.0-29.0","0","0","60191","","null","","","null","3","","","","","","","","","","","","","","","",""
"","ISI","","html-keyboard-response","27","185596","0.0-1.0-30.0","0","0","60191","","null","","","null","3","NaN","","","","","","","","","","","","","","",""
"","S2","","html-keyboard-response","28","185747","0.0-1.0-31.0","0","0","60191","","null","","","null","3","","NaN","","","","","","","","","","","","","",""
"","response","","html-keyboard-response","29","186258","0.0-1.0-32.0-0.0","0","0","60191","","509","","","68","3","","","1","3","training","adjacent","FE","6","5","M.jpg","O.jpg","0","0","1","",""
"","feedback","","html-keyboard-response","30","187261","0.0-1.0-33.0-0.0","0","0","60191","","null","","","null","3","","","","","","","","","","","","","","","",""
"","ITI","","html-keyboard-response","31","188263","0.0-1.0-36.0","0","0","60191","","null","","","null","3","","","","","","","","","","","","","","","NaN",""
"","S1","","html-keyboard-response","32","188420","0.0-1.0-38.0","0","0","60191","","null","","","null","4","","","","","","","","","","","","","","","",""
"","ISI","","html-keyboard-response","33","190424","0.0-1.0-39.0","0","0","60191","","null","","","null","4","NaN","","","","","","","","","","","","","","",""
"","S2","","html-keyboard-response","34","190579","0.0-1.0-40.0","0","0","60191","","null","","","null","4","","NaN","","","","","","","","","","","","","",""
"","response","","html-keyboard-response","35","190970","0.0-1.0-41.0-0.0","0","0","60191","","389","","","68","4","","","1","4","training","adjacent","CB","3","2","Q.jpg","L.jpg","0","0","1","",""
"","feedback","","html-keyboard-response","36","191974","0.0-1.0-42.0-0.0","0","0","60191","","null","","","null","4","","","","","","","","","","","","","","","",""
"","ITI","","html-keyboard-response","37","192976","0.0-1.0-45.0","0","0","60191","","null","","","null","4","","","","","","","","","","","","","","","NaN",""
"","S1","","html-keyboard-response","38","193133","0.0-1.0-47.0","0","0","60191","","null","","","null","5","","","","","","","","","","","","","","","",""
"","ISI","","html-keyboard-response","39","195139","0.0-1.0-48.0","0","0","60191","","null","","","null","5","NaN","","","","","","","","","","","","","","",""
"","S2","","html-keyboard-response","40","195291","0.0-1.0-49.0","0","0","60191","","null","","","null","5","","NaN","","","","","","","","","","","","","",""
"","response","","html-keyboard-response","41","195970","0.0-1.0-50.0-0.0","0","0","60191","","677","","","68","5","","","1","5","training","adjacent","BC","2","3","L.jpg","Q.jpg","0","1","0","",""
"","feedback","","html-keyboard-response","42","196976","0.0-1.0-51.0-0.0","0","0","60191","","null","","","null","5","","","","","","","","","","","","","","","",""
"","time_out","","html-keyboard-response","43","198981","0.0-1.0-53.0-0.0","0","0","60191","","null","","","null","5","","","","","","","","","","","","","","","",""
"","ITI","","html-keyboard-response","44","199987","0.0-1.0-54.0","0","0","60191","","null","","","null","5","","","","","","","","","","","","","","","NaN",""
"","S1","","html-keyboard-response","45","200138","0.0-1.0-56.0","0","0","60191","","null","","","null","6","","","","","","","","","","","","","","","",""
"","ISI","","html-keyboard-response","46","202141","0.0-1.0-57.0","0","0","60191","","null","","","null","6","NaN","","","","","","","","","","","","","","",""
"","S2","","html-keyboard-response","47","202298","0.0-1.0-58.0","0","0","60191","","null","","","null","6","","NaN","","","","","","","","","","","","","",""
"","response","","html-keyboard-response","48","203002","0.0-1.0-59.0-0.0","0","0","60191","","702","","","75","6","","","1","6","training","adjacent","CD","3","4","Q.jpg","R.jpg","1","1","1","",""
"","feedback","","html-keyboard-response","49","204006","0.0-1.0-60.0-0.0","0","0","60191","","null","","","null","6","","","","","","","","","","","","","","","",""
"","ITI","","html-keyboard-response","50","205009","0.0-1.0-63.0","0","0","60191","","null","","","null","6","","","","","","","","","","","","","","","NaN",""
"","S1","","html-keyboard-response","51","205165","0.0-1.0-65.0","0","0","60191","","null","","","null","7","","","","","","","","","","","","","","","",""
"","ISI","","html-keyboard-response","52","207171","0.0-1.0-66.0","0","0","60191","","null","","","null","7","NaN","","","","","","","","","","","","","","",""
"","S2","","html-keyboard-response","53","207325","0.0-1.0-67.0","0","0","60191","","null","","","null","7","","NaN","","","","","","","","","","","","","",""
"","response","","html-keyboard-response","54","207830","0.0-1.0-68.0-0.0","0","0","60191","","504","","","68","7","","","1","7","training","adjacent","DE","4","5","R.jpg","O.jpg","0","1","0","",""
"","feedback","","html-keyboard-response","55","208837","0.0-1.0-69.0-0.0","0","0","60191","","null","","","null","7","","","","","","","","","","","","","","","",""
"","time_out","","html-keyboard-response","56","210840","0.0-1.0-71.0-0.0","0","0","60191","","null","","","null","7","","","","","","","","","","","","","","","",""
"","ITI","","html-keyboard-response","57","211842","0.0-1.0-72.0","0","0","60191","","null","","","null","7","","","","","","","","","","","","","","","NaN",""
"","S1","","html-keyboard-response","58","211993","0.0-1.0-74.0","0","0","60191","","null","","","null","8","","","","","","","","","","","","","","","",""
"","ISI","","html-keyboard-response","59","213997","0.0-1.0-75.0","0","0","60191","","null","","","null","8","NaN","","","","","","","","","","","","","","",""
"","S2","","html-keyboard-response","60","214151","0.0-1.0-76.0","0","0","60191","","null","","","null","8","","NaN","","","","","","","","","","","","","",""
"","response","","html-keyboard-response","61","214383","0.0-1.0-77.0-0.0","0","0","60191","","230","","","75","8","","","1","8","training","adjacent","ED","5","4","O.jpg","R.jpg","1","0","0","",""
"","feedback","","html-keyboard-response","62","215389","0.0-1.0-78.0-0.0","0","0","60191","","null","","","null","8","","","","","","","","","","","","","","","",""
"","time_out","","html-keyboard-response","63","217395","0.0-1.0-80.0-0.0","0","0","60191","","null","","","null","8","","","","","","","","","","","","","","","",""
"","ITI","","html-keyboard-response","64","218401","0.0-1.0-81.0","0","0","60191","","null","","","null","8","","","","","","","","","","","","","","","NaN",""
"","S1","","html-keyboard-response","65","218553","0.0-1.0-83.0","0","0","60191","","null","","","null","9","","","","","","","","","","","","","","","",""
"","ISI","","html-keyboard-response","66","220554","0.0-1.0-84.0","0","0","60191","","null","","","null","9","NaN","","","","","","","","","","","","","","",""
"","S2","","html-keyboard-response","67","220710","0.0-1.0-85.0","0","0","60191","","null","","","null","9","","NaN","","","","","","","","","","","","","",""
"","response","","html-keyboard-response","68","221198","0.0-1.0-86.0-0.0","0","0","60191","","486","","","68","9","","","1","9","training","adjacent","FE","6","5","M.jpg","O.jpg","0","0","1","",""
"","feedback","","html-keyboard-response","69","222202","0.0-1.0-87.0-0.0","0","0","60191","","null","","","null","9","","","","","","","","","","","","","","","",""
"","ITI","","html-keyboard-response","70","223205","0.0-1.0-90.0","0","0","60191","","null","","","null","9","","","","","","","","","","","","","","","NaN",""
"","S1","","html-keyboard-response","71","223357","0.0-1.0-92.0","0","0","60191","","null","","","null","10","","","","","","","","","","","","","","","",""
"","ISI","","html-keyboard-response","72","225358","0.0-1.0-93.0","0","0","60191","","null","","","null","10","NaN","","","","","","","","","","","","","","",""
"","S2","","html-keyboard-response","73","225511","0.0-1.0-94.0","0","0","60191","","null","","","null","10","","NaN","","","","","","","","","","","","","",""
"","response","","html-keyboard-response","74","225898","0.0-1.0-95.0-0.0","0","0","60191","","385","","","68","10","","","1","10","training","adjacent","FG","6","7","M.jpg","P.jpg","0","1","0","",""
"","feedback","","html-keyboard-response","75","226900","0.0-1.0-96.0-0.0","0","0","60191","","null","","","null","10","","","","","","","","","","","","","","","",""
"","time_out","","html-keyboard-response","76","228901","0.0-1.0-98.0-0.0","0","0","60191","","null","","","null","10","","","","","","","","","","","","","","","",""
"","ITI","","html-keyboard-response","77","229904","0.0-1.0-99.0","0","0","60191","","null","","","null","10","","","","","","","","","","","","","","","NaN",""
"","S1","","html-keyboard-response","78","230060","0.0-1.0-101.0","0","0","60191","","null","","","null","11","","","","","","","","","","","","","","","",""
"","ISI","","html-keyboard-response","79","232063","0.0-1.0-102.0","0","0","60191","","null","","","null","11","NaN","","","","","","","","","","","","","","",""
"","S2","","html-keyboard-response","80","232216","0.0-1.0-103.0","0","0","60191","","null","","","null","11","","NaN","","","","","","","","","","","","","",""
"","response","","html-keyboard-response","81","232610","0.0-1.0-104.0-0.0","0","0","60191","","392","","","75","11","","","1","11","training","adjacent","CD","3","4","Q.jpg","R.jpg","1","1","1","",""
"","feedback","","html-keyboard-response","82","233614","0.0-1.0-105.0-0.0","0","0","60191","","null","","","null","11","","","","","","","","","","","","","","","",""
"","ITI","","html-keyboard-response","83","234621","0.0-1.0-108.0","0","0","60191","","null","","","null","11","","","","","","","","","","","","","","","NaN",""
"","S1","","html-keyboard-response","84","234777","0.0-1.0-110.0","0","0","60191","","null","","","null","12","","","","","","","","","","","","","","","",""
"","ISI","","html-keyboard-response","85","236784","0.0-1.0-111.0","0","0","60191","","null","","","null","12","NaN","","","","","","","","","","","","","","",""
"","S2","","html-keyboard-response","86","236935","0.0-1.0-112.0","0","0","60191","","null","","","null","12","","NaN","","","","","","","","","","","","","",""
"","response","","html-keyboard-response","87","237216","0.0-1.0-113.0-0.0","0","0","60191","","280","","","68","12","","","1","12","training","adjacent","EF","5","6","O.jpg","M.jpg","0","1","0","",""
"","feedback","","html-keyboard-response","88","238224","0.0-1.0-114.0-0.0","0","0","60191","","null","","","null","12","","","","","","","","","","","","","","","",""
"","time_out","","html-keyboard-response","89","240228","0.0-1.0-116.0-0.0","0","0","60191","","null","","","null","12","","","","","","","","","","","","","","","",""
"","ITI","","html-keyboard-response","90","241230","0.0-1.0-117.0","0","0","60191","","null","","","null","12","","","","","","","","","","","","","","","NaN",""
"","S1","","html-keyboard-response","91","241383","0.0-1.0-119.0","0","0","60191","","null","","","null","13","","","","","","","","","","","","","","","",""
"","ISI","","html-keyboard-response","92","243389","0.0-1.0-120.0","0","0","60191","","null","","","null","13","NaN","","","","","","","","","","","","","","",""
"","S2","","html-keyboard-response","93","243545","0.0-1.0-121.0","0","0","60191","","null","","","null","13","","NaN","","","","","","","","","","","","","",""
"","response","","html-keyboard-response","94","243813","0.0-1.0-122.0-0.0","0","0","60191","","267","","","75","13","","","1","13","training","adjacent","CD","3","4","Q.jpg","R.jpg","1","1","1","",""
"","feedback","","html-keyboard-response","95","244820","0.0-1.0-123.0-0.0","0","0","60191","","null","","","null","13","","","","","","","","","","","","","","","",""
"","ITI","","html-keyboard-response","96","245824","0.0-1.0-126.0","0","0","60191","","null","","","null","13","","","","","","","","","","","","","","","NaN",""
"","S1","","html-keyboard-response","97","245978","0.0-1.0-128.0","0","0","60191","","null","","","null","14","","","","","","","","","","","","","","","",""
"","ISI","","html-keyboard-response","98","247980","0.0-1.0-129.0","0","0","60191","","null","","","null","14","NaN","","","","","","","","","","","","","","",""
"","S2","","html-keyboard-response","99","248133","0.0-1.0-130.0","0","0","60191","","null","","","null","14","","NaN","","","","","","","","","","","","","",""
"","response","","html-keyboard-response","100","248449","0.0-1.0-131.0-0.0","0","0","60191","","315","","","75","14","","","1","14","training","adjacent","ED","5","4","O.jpg","R.jpg","1","0","0","",""
"","feedback","","html-keyboard-response","101","249453","0.0-1.0-132.0-0.0","0","0","60191","","null","","","null","14","","","","","","","","","","","","","","","",""
"","time_out","","html-keyboard-response","102","251457","0.0-1.0-134.0-0.0","0","0","60191","","null","","","null","14","","","","","","","","","","","","","","","",""
"","ITI","","html-keyboard-response","103","252460","0.0-1.0-135.0","0","0","60191","","null","","","null","14","","","","","","","","","","","","","","","NaN",""
"","S1","","html-keyboard-response","104","252612","0.0-1.0-137.0","0","0","60191","","null","","","null","15","","","","","","","","","","","","","","","",""
"","ISI","","html-keyboard-response","105","254616","0.0-1.0-138.0","0","0","60191","","null","","","null","15","NaN","","","","","","","","","","","","","","",""
"","S2","","html-keyboard-response","106","254767","0.0-1.0-139.0","0","0","60191","","null","","","null","15","","NaN","","","","","","","","","","","","","",""
"","response","","html-keyboard-response","107","255167","0.0-1.0-140.0-0.0","0","0","60191","","397","","","68","15","","","1","15","training","adjacent","BA","2","1","L.jpg","N.jpg","0","0","1","",""
"","feedback","","html-keyboard-response","108","256168","0.0-1.0-141.0-0.0","0","0","60191","","null","","","null","15","","","","","","","","","","","","","","","",""
"","ITI","","html-keyboard-response","109","257170","0.0-1.0-144.0","0","0","60191","","null","","","null","15","","","","","","","","","","","","","","","NaN",""
"","S1","","html-keyboard-response","110","257326","0.0-1.0-146.0","0","0","60191","","null","","","null","16","","","","","","","","","","","","","","","",""
"","ISI","","html-keyboard-response","111","259330","0.0-1.0-147.0","0","0","60191","","null","","","null","16","NaN","","","","","","","","","","","","","","",""
"","S2","","html-keyboard-response","112","259485","0.0-1.0-148.0","0","0","60191","","null","","","null","16","","NaN","","","","","","","","","","","","","",""
"","response","","html-keyboard-response","113","259848","0.0-1.0-149.0-0.0","0","0","60191","","361","","","75","16","","","1","16","training","adjacent","CB","3","2","Q.jpg","L.jpg","1","0","0","",""
"","feedback","","html-keyboard-response","114","260850","0.0-1.0-150.0-0.0","0","0","60191","","null","","","null","16","","","","","","","","","","","","","","","",""
"","time_out","","html-keyboard-response","115","262855","0.0-1.0-152.0-0.0","0","0","60191","","null","","","null","16","","","","","","","","","","","","","","","",""
"","ITI","","html-keyboard-response","116","263859","0.0-1.0-153.0","0","0","60191","","null","","","null","16","","","","","","","","","","","","","","","NaN",""
"","S1","","html-keyboard-response","117","264013","0.0-1.0-155.0","0","0","60191","","null","","","null","17","","","","","","","","","","","","","","","",""
"","ISI","","html-keyboard-response","118","266017","0.0-1.0-156.0","0","0","60191","","null","","","null","17","NaN","","","","","","","","","","","","","","",""
"","S2","","html-keyboard-response","119","266173","0.0-1.0-157.0","0","0","60191","","null","","","null","17","","NaN","","","","","","","","","","","","","",""
"","response","","html-keyboard-response","120","266482","0.0-1.0-158.0-0.0","0","0","60191","","307","","","68","17","","","1","17","training","adjacent","DC","4","3","R.jpg","Q.jpg","0","0","1","",""
"","feedback","","html-keyboard-response","121","267488","0.0-1.0-159.0-0.0","0","0","60191","","null","","","null","17","","","","","","","","","","","","","","","",""
"","ITI","","html-keyboard-response","122","268491","0.0-1.0-162.0","0","0","60191","","null","","","null","17","","","","","","","","","","","","","","","NaN",""
"","S1","","html-keyboard-response","123","268642","0.0-1.0-164.0","0","0","60191","","null","","","null","18","","","","","","","","","","","","","","","",""
"","ISI","","html-keyboard-response","124","270644","0.0-1.0-165.0","0","0","60191","","null","","","null","18","NaN","","","","","","","","","","","","","","",""
"","S2","","html-keyboard-response","125","270795","0.0-1.0-166.0","0","0","60191","","null","","","null","18","","NaN","","","","","","","","","","","","","",""
"","response","","html-keyboard-response","126","271369","0.0-1.0-167.0-0.0","0","0","60191","","572","","","68","18","","","1","18","training","adjacent","FE","6","5","M.jpg","O.jpg","0","0","1","",""
"","feedback","","html-keyboard-response","127","272376","0.0-1.0-168.0-0.0","0","0","60191","","null","","","null","18","","","","","","","","","","","","","","","",""
"","ITI","","html-keyboard-response","128","273380","0.0-1.0-171.0","0","0","60191","","null","","","null","18","","","","","","","","","","","","","","","NaN",""
"","S1","","html-keyboard-response","129","273531","0.0-1.0-173.0","0","0","60191","","null","","","null","19","","","","","","","","","","","","","","","",""
"","ISI","","html-keyboard-response","130","275534","0.0-1.0-174.0","0","0","60191","","null","","","null","19","NaN","","","","","","","","","","","","","","",""
"","S2","","html-keyboard-response","131","275687","0.0-1.0-175.0","0","0","60191","","null","","","null","19","","NaN","","","","","","","","","","","","","",""
"","response","","html-keyboard-response","132","275956","0.0-1.0-176.0-0.0","0","0","60191","","267","","","75","19","","","1","19","training","adjacent","BA","2","1","L.jpg","N.jpg","1","0","0","",""
"","feedback","","html-keyboard-response","133","276960","0.0-1.0-177.0-0.0","0","0","60191","","null","","","null","19","","","","","","","","","","","","","","","",""
"","time_out","","html-keyboard-response","134","278962","0.0-1.0-179.0-0.0","0","0","60191","","null","","","null","19","","","","","","","","","","","","","","","",""
"","ITI","","html-keyboard-response","135","279966","0.0-1.0-180.0","0","0","60191","","null","","","null","19","","","","","","","","","","","","","","","NaN",""
"","S1","","html-keyboard-response","136","280118","0.0-1.0-182.0","0","0","60191","","null","","","null","20","","","","","","","","","","","","","","","",""
"","ISI","","html-keyboard-response","137","282120","0.0-1.0-183.0","0","0","60191","","null","","","null","20","NaN","","","","","","","","","","","","","","",""
"","S2","","html-keyboard-response","138","282272","0.0-1.0-184.0","0","0","60191","","null","","","null","20","","NaN","","","","","","","","","","","","","",""
"","response","","html-keyboard-response","139","282713","0.0-1.0-185.0-0.0","0","0","60191","","439","","","75","20","","","1","20","training","adjacent","GF","7","6","P.jpg","M.jpg","1","0","0","",""
"","feedback","","html-keyboard-response","140","283715","0.0-1.0-186.0-0.0","0","0","60191","","null","","","null","20","","","","","","","","","","","","","","","",""
"","time_out","","html-keyboard-response","141","285719","0.0-1.0-188.0-0.0","0","0","60191","","null","","","null","20","","","","","","","","","","","","","","","",""
"","ITI","","html-keyboard-response","142","286725","0.0-1.0-189.0","0","0","60191","","null","","","null","20","","","","","","","","","","","","","","","NaN",""
"","S1","","html-keyboard-response","143","286880","0.0-1.0-191.0","0","0","60191","","null","","","null","21","","","","","","","","","","","","","","","",""
"","ISI","","html-keyboard-response","144","288882","0.0-1.0-192.0","0","0","60191","","null","","","null","21","NaN","","","","","","","","","","","","","","",""
"","S2","","html-keyboard-response","145","289034","0.0-1.0-193.0","0","0","60191","","null","","","null","21","","NaN","","","","","","","","","","","","","",""
"","response","","html-keyboard-response","146","289981","0.0-1.0-194.0-0.0","0","0","60191","","944","","","68","21","","","1","21","training","adjacent","AB","1","2","N.jpg","L.jpg","0","1","0","",""
"","feedback","","html-keyboard-response","147","290984","0.0-1.0-195.0-0.0","0","0","60191","","null","","","null","21","","","","","","","","","","","","","","","",""
"","time_out","","html-keyboard-response","148","292985","0.0-1.0-197.0-0.0","0","0","60191","","null","","","null","21","","","","","","","","","","","","","","","",""
"","ITI","","html-keyboard-response","149","293989","0.0-1.0-198.0","0","0","60191","","null","","","null","21","","","","","","","","","","","","","","","NaN",""
"","S1","","html-keyboard-response","150","294142","0.0-1.0-200.0","0","0","60191","","null","","","null","22","","","","","","","","","","","","","","","",""
"","ISI","","html-keyboard-response","151","296143","0.0-1.0-201.0","0","0","60191","","null","","","null","22","NaN","","","","","","","","","","","","","","",""
"","S2","","html-keyboard-response","152","296299","0.0-1.0-202.0","0","0","60191","","null","","","null","22","","NaN","","","","","","","","","","","","","",""
"","response","","html-keyboard-response","153","296728","0.0-1.0-203.0-0.0","0","0","60191","","428","","","75","22","","","1","22","training","adjacent","CD","3","4","Q.jpg","R.jpg","1","1","1","",""
"","feedback","","html-keyboard-response","154","297731","0.0-1.0-204.0-0.0","0","0","60191","","null","","","null","22","","","","","","","","","","","","","","","",""
"","ITI","","html-keyboard-response","155","298734","0.0-1.0-207.0","0","0","60191","","null","","","null","22","","","","","","","","","","","","","","","NaN",""
"","S1","","html-keyboard-response","156","298885","0.0-1.0-209.0","0","0","60191","","null","","","null","23","","","","","","","","","","","","","","","",""
"","ISI","","html-keyboard-response","157","300887","0.0-1.0-210.0","0","0","60191","","null","","","null","23","NaN","","","","","","","","","","","","","","",""
"","S2","","html-keyboard-response","158","301042","0.0-1.0-211.0","0","0","60191","","null","","","null","23","","NaN","","","","","","","","","","","","","",""
"","response","","html-keyboard-response","159","301712","0.0-1.0-212.0-0.0","0","0","60191","","668","","","68","23","","","1","23","training","adjacent","DE","4","5","R.jpg","O.jpg","0","1","0","",""
"","feedback","","html-keyboard-response","160","302716","0.0-1.0-213.0-0.0","0","0","60191","","null","","","null","23","","","","","","","","","","","","","","","",""
"","time_out","","html-keyboard-response","161","304720","0.0-1.0-215.0-0.0","0","0","60191","","null","","","null","23","","","","","","","","","","","","","","","",""
"","ITI","","html-keyboard-response","162","305722","0.0-1.0-216.0","0","0","60191","","null","","","null","23","","","","","","","","","","","","","","","NaN",""
"","S1","","html-keyboard-response","163","305874","0.0-1.0-218.0","0","0","60191","","null","","","null","24","","","","","","","","","","","","","","","",""
"","ISI","","html-keyboard-response","164","307875","0.0-1.0-219.0","0","0","60191","","null","","","null","24","NaN","","","","","","","","","","","","","","",""
"","S2","","html-keyboard-response","165","308027","0.0-1.0-220.0","0","0","60191","","null","","","null","24","","NaN","","","","","","","","","","","","","",""
"","response","","html-keyboard-response","166","309293","0.0-1.0-221.0-0.0","0","0","60191","","1264","","","75","24","","","1","24","training","adjacent","BC","2","3","L.jpg","Q.jpg","1","1","1","",""
"","feedback","","html-keyboard-response","167","310295","0.0-1.0-222.0-0.0","0","0","60191","","null","","","null","24","","","","","","","","","","","","","","","",""
"","ITI","","html-keyboard-response","168","311297","0.0-1.0-225.0","0","0","60191","","null","","","null","24","","","","","","","","","","","","","","","NaN",""
"","S1","","html-keyboard-response","169","311449","0.0-1.0-227.0","0","0","60191","","null","","","null","25","","","","","","","","","","","","","","","",""
"","ISI","","html-keyboard-response","170","313450","0.0-1.0-228.0","0","0","60191","","null","","","null","25","NaN","","","","","","","","","","","","","","",""
"","S2","","html-keyboard-response","171","313602","0.0-1.0-229.0","0","0","60191","","null","","","null","25","","NaN","","","","","","","","","","","","","",""
"","response","","html-keyboard-response","172","314180","0.0-1.0-230.0-0.0","0","0","60191","","577","","","68","25","","","1","25","training","adjacent","BA","2","1","L.jpg","N.jpg","0","0","1","",""
"","feedback","","html-keyboard-response","173","315183","0.0-1.0-231.0-0.0","0","0","60191","","null","","","null","25","","","","","","","","","","","","","","","",""
"","ITI","","html-keyboard-response","174","316187","0.0-1.0-234.0","0","0","60191","","null","","","null","25","","","","","","","","","","","","","","","NaN",""
"","S1","","html-keyboard-response","175","316340","0.0-1.0-236.0","0","0","60191","","null","","","null","26","","","","","","","","","","","","","","","",""
"","ISI","","html-keyboard-response","176","318343","0.0-1.0-237.0","0","0","60191","","null","","","null","26","NaN","","","","","","","","","","","","","","",""
"","S2","","html-keyboard-response","177","318500","0.0-1.0-238.0","0","0","60191","","null","","","null","26","","NaN","","","","","","","","","","","","","",""
"","response","","html-keyboard-response","178","319180","0.0-1.0-239.0-0.0","0","0","60191","","679","","","68","26","","","1","26","training","adjacent","BC","2","3","L.jpg","Q.jpg","0","1","0","",""
"","feedback","","html-keyboard-response","179","320185","0.0-1.0-240.0-0.0","0","0","60191","","null","","","null","26","","","","","","","","","","","","","","","",""
"","time_out","","html-keyboard-response","180","322187","0.0-1.0-242.0-0.0","0","0","60191","","null","","","null","26","","","","","","","","","","","","","","","",""
"","ITI","","html-keyboard-response","181","323191","0.0-1.0-243.0","0","0","60191","","null","","","null","26","","","","","","","","","","","","","","","NaN",""
"","S1","","html-keyboard-response","182","323343","0.0-1.0-245.0","0","0","60191","","null","","","null","27","","","","","","","","","","","","","","","",""
"","ISI","","html-keyboard-response","183","325345","0.0-1.0-246.0","0","0","60191","","null","","","null","27","NaN","","","","","","","","","","","","","","",""
"","S2","","html-keyboard-response","184","325500","0.0-1.0-247.0","0","0","60191","","null","","","null","27","","NaN","","","","","","","","","","","","","",""
"","response","","html-keyboard-response","185","326736","0.0-1.0-248.0-0.0","0","0","60191","","1234","","","68","27","","","1","27","training","adjacent","DC","4","3","R.jpg","Q.jpg","0","0","1","",""
"","feedback","","html-keyboard-response","186","327739","0.0-1.0-249.0-0.0","0","0","60191","","null","","","null","27","","","","","","","","","","","","","","","",""
"","ITI","","html-keyboard-response","187","328742","0.0-1.0-252.0","0","0","60191","","null","","","null","27","","","","","","","","","","","","","","","NaN",""
"","S1","","html-keyboard-response","188","328898","0.0-1.0-254.0","0","0","60191","","null","","","null","28","","","","","","","","","","","","","","","",""
"","ISI","","html-keyboard-response","189","330900","0.0-1.0-255.0","0","0","60191","","null","","","null","28","NaN","","","","","","","","","","","","","","",""
"","S2","","html-keyboard-response","190","331054","0.0-1.0-256.0","0","0","60191","","null","","","null","28","","NaN","","","","","","","","","","","","","",""
"","response","","html-keyboard-response","191","331801","0.0-1.0-257.0-0.0","0","0","60191","","743","","","68","28","","","1","28","training","adjacent","AB","1","2","N.jpg","L.jpg","0","1","0","",""
"","feedback","","html-keyboard-response","192","332807","0.0-1.0-258.0-0.0","0","0","60191","","null","","","null","28","","","","","","","","","","","","","","","",""
"","time_out","","html-keyboard-response","193","334811","0.0-1.0-260.0-0.0","0","0","60191","","null","","","null","28","","","","","","","","","","","","","","","",""
"","ITI","","html-keyboard-response","194","335815","0.0-1.0-261.0","0","0","60191","","null","","","null","28","","","","","","","","","","","","","","","NaN",""
"","S1","","html-keyboard-response","195","335967","0.0-1.0-263.0","0","0","60191","","null","","","null","29","","","","","","","","","","","","","","","",""
"","ISI","","html-keyboard-response","196","337971","0.0-1.0-264.0","0","0","60191","","null","","","null","29","NaN","","","","","","","","","","","","","","",""
"","S2","","html-keyboard-response","197","338124","0.0-1.0-265.0","0","0","60191","","null","","","null","29","","NaN","","","","","","","","","","","","","",""
"","response","","html-keyboard-response","198","339104","0.0-1.0-266.0-0.0","0","0","60191","","979","","","75","29","","","1","29","training","adjacent","ED","5","4","O.jpg","R.jpg","1","0","0","",""
"","feedback","","html-keyboard-response","199","340106","0.0-1.0-267.0-0.0","0","0","60191","","null","","","null","29","","","","","","","","","","","","","","","",""
"","time_out","","html-keyboard-response","200","342110","0.0-1.0-269.0-0.0","0","0","60191","","null","","","null","29","","","","","","","","","","","","","","","",""
"","ITI","","html-keyboard-response","201","343113","0.0-1.0-270.0","0","0","60191","","null","","","null","29","","","","","","","","","","","","","","","NaN",""
"","S1","","html-keyboard-response","202","343264","0.0-1.0-272.0","0","0","60191","","null","","","null","30","","","","","","","","","","","","","","","",""
"","ISI","","html-keyboard-response","203","345269","0.0-1.0-273.0","0","0","60191","","null","","","null","30","NaN","","","","","","","","","","","","","","",""
"","S2","","html-keyboard-response","204","345421","0.0-1.0-274.0","0","0","60191","","null","","","null","30","","NaN","","","","","","","","","","","","","",""
"","response","","html-keyboard-response","205","346206","0.0-1.0-275.0-0.0","0","0","60191","","782","","","68","30","","","1","30","training","adjacent","ED","5","4","O.jpg","R.jpg","0","0","1","",""
"","feedback","","html-keyboard-response","206","347209","0.0-1.0-276.0-0.0","0","0","60191","","null","","","null","30","","","","","","","","","","","","","","","",""
"","ITI","","html-keyboard-response","207","348211","0.0-1.0-279.0","0","0","60191","","null","","","null","30","","","","","","","","","","","","","","","NaN",""
"","S1","","html-keyboard-response","208","348365","0.0-1.0-281.0","0","0","60191","","null","","","null","31","","","","","","","","","","","","","","","",""
"","ISI","","html-keyboard-response","209","350368","0.0-1.0-282.0","0","0","60191","","null","","","null","31","NaN","","","","","","","","","","","","","","",""
"","S2","","html-keyboard-response","210","350523","0.0-1.0-283.0","0","0","60191","","null","","","null","31","","NaN","","","","","","","","","","","","","",""
"","response","","html-keyboard-response","211","351120","0.0-1.0-284.0-0.0","0","0","60191","","595","","","68","31","","","1","31","training","adjacent","GF","7","6","P.jpg","M.jpg","0","0","1","",""
"","feedback","","html-keyboard-response","212","352124","0.0-1.0-285.0-0.0","0","0","60191","","null","","","null","31","","","","","","","","","","","","","","","",""
"","ITI","","html-keyboard-response","213","353126","0.0-1.0-288.0","0","0","60191","","null","","","null","31","","","","","","","","","","","","","","","NaN",""
"","S1","","html-keyboard-response","214","353279","0.0-1.0-290.0","0","0","60191","","null","","","null","32","","","","","","","","","","","","","","","",""
"","ISI","","html-keyboard-response","215","355285","0.0-1.0-291.0","0","0","60191","","null","","","null","32","NaN","","","","","","","","","","","","","","",""
"","S2","","html-keyboard-response","216","355439","0.0-1.0-292.0","0","0","60191","","null","","","null","32","","NaN","","","","","","","","","","","","","",""
"","response","","html-keyboard-response","217","356312","0.0-1.0-293.0-0.0","0","0","60191","","871","","","75","32","","","1","32","training","adjacent","FE","6","5","M.jpg","O.jpg","1","0","0","",""
"","feedback","","html-keyboard-response","218","357315","0.0-1.0-294.0-0.0","0","0","60191","","null","","","null","32","","","","","","","","","","","","","","","",""
"","time_out","","html-keyboard-response","219","359319","0.0-1.0-296.0-0.0","0","0","60191","","null","","","null","32","","","","","","","","","","","","","","","",""
"","ITI","","html-keyboard-response","220","360321","0.0-1.0-297.0","0","0","60191","","null","","","null","32","","","","","","","","","","","","","","","NaN",""
"","S1","","html-keyboard-response","221","360472","0.0-1.0-299.0","0","0","60191","","null","","","null","33","","","","","","","","","","","","","","","",""
"","ISI","","html-keyboard-response","222","362476","0.0-1.0-300.0","0","0","60191","","null","","","null","33","NaN","","","","","","","","","","","","","","",""
"","S2","","html-keyboard-response","223","362628","0.0-1.0-301.0","0","0","60191","","null","","","null","33","","NaN","","","","","","","","","","","","","",""
"","response","","html-keyboard-response","224","363580","0.0-1.0-302.0-0.0","0","0","60191","","950","","","68","33","","","1","33","training","adjacent","EF","5","6","O.jpg","M.jpg","0","1","0","",""
"","feedback","","html-keyboard-response","225","364583","0.0-1.0-303.0-0.0","0","0","60191","","null","","","null","33","","","","","","","","","","","","","","","",""
"","time_out","","html-keyboard-response","226","366588","0.0-1.0-305.0-0.0","0","0","60191","","null","","","null","33","","","","","","","","","","","","","","","",""
"","ITI","","html-keyboard-response","227","367590","0.0-1.0-306.0","0","0","60191","","null","","","null","33","","","","","","","","","","","","","","","NaN",""
"","S1","","html-keyboard-response","228","367746","0.0-1.0-308.0","0","0","60191","","null","","","null","34","","","","","","","","","","","","","","","",""
"","ISI","","html-keyboard-response","229","369749","0.0-1.0-309.0","0","0","60191","","null","","","null","34","NaN","","","","","","","","","","","","","","",""
"","S2","","html-keyboard-response","230","369900","0.0-1.0-310.0","0","0","60191","","null","","","null","34","","NaN","","","","","","","","","","","","","",""
"","response","","html-keyboard-response","231","370290","0.0-1.0-311.0-0.0","0","0","60191","","386","","","75","34","","","1","34","training","adjacent","BA","2","1","L.jpg","N.jpg","1","0","0","",""
"","feedback","","html-keyboard-response","232","371292","0.0-1.0-312.0-0.0","0","0","60191","","null","","","null","34","","","","","","","","","","","","","","","",""
"","time_out","","html-keyboard-response","233","373295","0.0-1.0-314.0-0.0","0","0","60191","","null","","","null","34","","","","","","","","","","","","","","","",""
"","ITI","","html-keyboard-response","234","374296","0.0-1.0-315.0","0","0","60191","","null","","","null","34","","","","","","","","","","","","","","","NaN",""
"","S1","","html-keyboard-response","235","374448","0.0-1.0-317.0","0","0","60191","","null","","","null","35","","","","","","","","","","","","","","","",""
"","ISI","","html-keyboard-response","236","376453","0.0-1.0-318.0","0","0","60191","","null","","","null","35","NaN","","","","","","","","","","","","","","",""
"","S2","","html-keyboard-response","237","376605","0.0-1.0-319.0","0","0","60191","","null","","","null","35","","NaN","","","","","","","","","","","","","",""
"","response","","html-keyboard-response","238","378072","0.0-1.0-320.0-0.0","0","0","60191","","1464","","","68","35","","","1","35","training","adjacent","DC","4","3","R.jpg","Q.jpg","0","0","1","",""
"","feedback","","html-keyboard-response","239","379074","0.0-1.0-321.0-0.0","0","0","60191","","null","","","null","35","","","","","","","","","","","","","","","",""
"","ITI","","html-keyboard-response","240","380075","0.0-1.0-324.0","0","0","60191","","null","","","null","35","","","","","","","","","","","","","","","NaN",""
"","S1","","html-keyboard-response","241","380228","0.0-1.0-326.0","0","0","60191","","null","","","null","36","","","","","","","","","","","","","","","",""
"","ISI","","html-keyboard-response","242","382232","0.0-1.0-327.0","0","0","60191","","null","","","null","36","NaN","","","","","","","","","","","","","","",""
"","S2","","html-keyboard-response","243","382385","0.0-1.0-328.0","0","0","60191","","null","","","null","36","","NaN","","","","","","","","","","","","","",""
"","response","","html-keyboard-response","244","383657","0.0-1.0-329.0-0.0","0","0","60191","","1269","","","68","36","","","1","36","training","adjacent","AB","1","2","N.jpg","L.jpg","0","1","0","",""
"","feedback","","html-keyboard-response","245","384663","0.0-1.0-330.0-0.0","0","0","60191","","null","","","null","36","","","","","","","","","","","","","","","",""
"","time_out","","html-keyboard-response","246","386665","0.0-1.0-332.0-0.0","0","0","60191","","null","","","null","36","","","","","","","","","","","","","","","",""
"","ITI","","html-keyboard-response","247","387671","0.0-1.0-333.0","0","0","60191","","null","","","null","36","","","","","","","","","","","","","","","NaN",""
"","S1","","html-keyboard-response","248","387824","0.0-1.0-335.0","0","0","60191","","null","","","null","37","","","","","","","","","","","","","","","",""
"","ISI","","html-keyboard-response","249","389828","0.0-1.0-336.0","0","0","60191","","null","","","null","37","NaN","","","","","","","","","","","","","","",""
"","S2","","html-keyboard-response","250","389981","0.0-1.0-337.0","0","0","60191","","null","","","null","37","","NaN","","","","","","","","","","","","","",""
"","response","","html-keyboard-response","251","390629","0.0-1.0-338.0-0.0","0","0","60191","","646","","","75","37","","","1","37","training","adjacent","GF","7","6","P.jpg","M.jpg","1","0","0","",""
"","feedback","","html-keyboard-response","252","391633","0.0-1.0-339.0-0.0","0","0","60191","","null","","","null","37","","","","","","","","","","","","","","","",""
"","time_out","","html-keyboard-response","253","393638","0.0-1.0-341.0-0.0","0","0","60191","","null","","","null","37","","","","","","","","","","","","","","","",""
"","ITI","","html-keyboard-response","254","394639","0.0-1.0-342.0","0","0","60191","","null","","","null","37","","","","","","","","","","","","","","","NaN",""
"","S1","","html-keyboard-response","255","394796","0.0-1.0-344.0","0","0","60191","","null","","","null","38","","","","","","","","","","","","","","","",""
"","ISI","","html-keyboard-response","256","396797","0.0-1.0-345.0","0","0","60191","","null","","","null","38","NaN","","","","","","","","","","","","","","",""
"","S2","","html-keyboard-response","257","396949","0.0-1.0-346.0","0","0","60191","","null","","","null","38","","NaN","","","","","","","","","","","","","",""
"","response","","html-keyboard-response","258","397636","0.0-1.0-347.0-0.0","0","0","60191","","685","","","68","38","","","1","38","training","adjacent","FG","6","7","M.jpg","P.jpg","0","1","0","",""
"","feedback","","html-keyboard-response","259","398639","0.0-1.0-348.0-0.0","0","0","60191","","null","","","null","38","","","","","","","","","","","","","","","",""
"","time_out","","html-keyboard-response","260","400642","0.0-1.0-350.0-0.0","0","0","60191","","null","","","null","38","","","","","","","","","","","","","","","",""
"","ITI","","html-keyboard-response","261","401648","0.0-1.0-351.0","0","0","60191","","null","","","null","38","","","","","","","","","","","","","","","NaN",""
"","S1","","html-keyboard-response","262","401801","0.0-1.0-353.0","0","0","60191","","null","","","null","39","","","","","","","","","","","","","","","",""
"","ISI","","html-keyboard-response","263","403803","0.0-1.0-354.0","0","0","60191","","null","","","null","39","NaN","","","","","","","","","","","","","","",""
"","S2","","html-keyboard-response","264","403955","0.0-1.0-355.0","0","0","60191","","null","","","null","39","","NaN","","","","","","","","","","","","","",""
"","response","","html-keyboard-response","265","404289","0.0-1.0-356.0-0.0","0","0","60191","","331","","","75","39","","","1","39","training","adjacent","GF","7","6","P.jpg","M.jpg","1","0","0","",""
"","feedback","","html-keyboard-response","266","405291","0.0-1.0-357.0-0.0","0","0","60191","","null","","","null","39","","","","","","","","","","","","","","","",""
"","time_out","","html-keyboard-response","267","407298","0.0-1.0-359.0-0.0","0","0","60191","","null","","","null","39","","","","","","","","","","","","","","","",""
"","ITI","","html-keyboard-response","268","408302","0.0-1.0-360.0","0","0","60191","","null","","","null","39","","","","","","","","","","","","","","","NaN",""
"","S1","","html-keyboard-response","269","408458","0.0-1.0-362.0","0","0","60191","","null","","","null","40","","","","","","","","","","","","","","","",""
"","ISI","","html-keyboard-response","270","410460","0.0-1.0-363.0","0","0","60191","","null","","","null","40","NaN","","","","","","","","","","","","","","",""
"","S2","","html-keyboard-response","271","410613","0.0-1.0-364.0","0","0","60191","","null","","","null","40","","NaN","","","","","","","","","","","","","",""
"","response","","html-keyboard-response","272","410859","0.0-1.0-365.0-0.0","0","0","60191","","245","","","75","40","","","1","40","training","adjacent","CB","3","2","Q.jpg","L.jpg","1","0","0","",""
"","feedback","","html-keyboard-response","273","411863","0.0-1.0-366.0-0.0","0","0","60191","","null","","","null","40","","","","","","","","","","","","","","","",""
"","time_out","","html-keyboard-response","274","413868","0.0-1.0-368.0-0.0","0","0","60191","","null","","","null","40","","","","","","","","","","","","","","","",""
"","ITI","","html-keyboard-response","275","414870","0.0-1.0-369.0","0","0","60191","","null","","","null","40","","","","","","","","","","","","","","","NaN",""
"","S1","","html-keyboard-response","276","415022","0.0-1.0-371.0","0","0","60191","","null","","","null","41","","","","","","","","","","","","","","","",""
"","ISI","","html-keyboard-response","277","417023","0.0-1.0-372.0","0","0","60191","","null","","","null","41","NaN","","","","","","","","","","","","","","",""
"","S2","","html-keyboard-response","278","417178","0.0-1.0-373.0","0","0","60191","","null","","","null","41","","NaN","","","","","","","","","","","","","",""
"","response","","html-keyboard-response","279","418164","0.0-1.0-374.0-0.0","0","0","60191","","984","","","75","41","","","1","41","training","adjacent","DE","4","5","R.jpg","O.jpg","1","1","1","",""
"","feedback","","html-keyboard-response","280","419166","0.0-1.0-375.0-0.0","0","0","60191","","null","","","null","41","","","","","","","","","","","","","","","",""
"","ITI","","html-keyboard-response","281","420167","0.0-1.0-378.0","0","0","60191","","null","","","null","41","","","","","","","","","","","","","","","NaN",""
"","S1","","html-keyboard-response","282","420320","0.0-1.0-380.0","0","0","60191","","null","","","null","42","","","","","","","","","","","","","","","",""
"","ISI","","html-keyboard-response","283","422322","0.0-1.0-381.0","0","0","60191","","null","","","null","42","NaN","","","","","","","","","","","","","","",""
"","S2","","html-keyboard-response","284","422474","0.0-1.0-382.0","0","0","60191","","null","","","null","42","","NaN","","","","","","","","","","","","","",""
"","response","","html-keyboard-response","285","423920","0.0-1.0-383.0-0.0","0","0","60191","","1444","","","75","42","","","1","42","training","adjacent","CB","3","2","Q.jpg","L.jpg","1","0","0","",""
"","feedback","","html-keyboard-response","286","424922","0.0-1.0-384.0-0.0","0","0","60191","","null","","","null","42","","","","","","","","","","","","","","","",""
"","time_out","","html-keyboard-response","287","426923","0.0-1.0-386.0-0.0","0","0","60191","","null","","","null","42","","","","","","","","","","","","","","","",""
"","ITI","","html-keyboard-response","288","427929","0.0-1.0-387.0","0","0","60191","","null","","","null","42","","","","","","","","","","","","","","","NaN",""
"","S1","","html-keyboard-response","289","428082","0.0-1.0-389.0","0","0","60191","","null","","","null","43","","","","","","","","","","","","","","","",""
"","ISI","","html-keyboard-response","290","430085","0.0-1.0-390.0","0","0","60191","","null","","","null","43","NaN","","","","","","","","","","","","","","",""
"","S2","","html-keyboard-response","291","430240","0.0-1.0-391.0","0","0","60191","","null","","","null","43","","NaN","","","","","","","","","","","","","",""
"","response","","html-keyboard-response","292","431523","0.0-1.0-392.0-0.0","0","0","60191","","1282","","","75","43","","","1","43","training","adjacent","AB","1","2","N.jpg","L.jpg","1","1","1","",""
"","feedback","","html-keyboard-response","293","432529","0.0-1.0-393.0-0.0","0","0","60191","","null","","","null","43","","","","","","","","","","","","","","","",""
"","ITI","","html-keyboard-response","294","433531","0.0-1.0-396.0","0","0","60191","","null","","","null","43","","","","","","","","","","","","","","","NaN",""
"","S1","","html-keyboard-response","295","433683","0.0-1.0-398.0","0","0","60191","","null","","","null","44","","","","","","","","","","","","","","","",""
"","ISI","","html-keyboard-response","296","435690","0.0-1.0-399.0","0","0","60191","","null","","","null","44","NaN","","","","","","","","","","","","","","",""
"","S2","","html-keyboard-response","297","435843","0.0-1.0-400.0","0","0","60191","","null","","","null","44","","NaN","","","","","","","","","","","","","",""
"","response","","html-keyboard-response","298","437695","0.0-1.0-401.0-0.0","0","0","60191","","null","","","null","44","","","1","44","training","adjacent","FG","6","7","M.jpg","P.jpg","NaN","1","0","",""
"","too_slow_prompt","","html-keyboard-response","299","438699","0.0-1.0-403.0-0.0","1","0","60191","","null","","","null","","","","","","","","","","","","","","","","",""
"","time_out","","html-keyboard-response","300","440700","0.0-1.0-404.0-0.0","0","0","60191","","null","","","null","44","","","","","","","","","","","","","","","",""
"","ITI","","html-keyboard-response","301","441702","0.0-1.0-405.0","0","0","60191","","null","","","null","44","","","","","","","","","","","","","","","NaN",""
"","S1","","html-keyboard-response","302","441858","0.0-1.0-407.0","0","0","60191","","null","","","null","45","","","","","","","","","","","","","","","",""
"","ISI","","html-keyboard-response","303","443865","0.0-1.0-408.0","0","0","60191","","null","","","null","45","NaN","","","","","","","","","","","","","","",""
"","S2","","html-keyboard-response","304","444019","0.0-1.0-409.0","0","0","60191","","null","","","null","45","","NaN","","","","","","","","","","","","","",""
"","response","","html-keyboard-response","305","444295","0.0-1.0-410.0-0.0","0","0","60191","","275","","","75","45","","","1","45","training","adjacent","DE","4","5","R.jpg","O.jpg","1","1","1","",""
"","feedback","","html-keyboard-response","306","445302","0.0-1.0-411.0-0.0","0","0","60191","","null","","","null","45","","","","","","","","","","","","","","","",""
"","ITI","","html-keyboard-response","307","446309","0.0-1.0-414.0","0","0","60191","","null","","","null","45","","","","","","","","","","","","","","","NaN",""
"","S1","","html-keyboard-response","308","446460","0.0-1.0-416.0","0","0","60191","","null","","","null","46","","","","","","","","","","","","","","","",""
"","ISI","","html-keyboard-response","309","448462","0.0-1.0-417.0","0","0","60191","","null","","","null","46","NaN","","","","","","","","","","","","","","",""
"","S2","","html-keyboard-response","310","448614","0.0-1.0-418.0","0","0","60191","","null","","","null","46","","NaN","","","","","","","","","","","","","",""
"","response","","html-keyboard-response","311","448952","0.0-1.0-419.0-0.0","0","0","60191","","336","","","68","46","","","1","46","training","adjacent","EF","5","6","O.jpg","M.jpg","0","1","0","",""
"","feedback","","html-keyboard-response","312","449958","0.0-1.0-420.0-0.0","0","0","60191","","null","","","null","46","","","","","","","","","","","","","","","",""
"","time_out","","html-keyboard-response","313","451961","0.0-1.0-422.0-0.0","0","0","60191","","null","","","null","46","","","","","","","","","","","","","","","",""
"","ITI","","html-keyboard-response","314","452966","0.0-1.0-423.0","0","0","60191","","null","","","null","46","","","","","","","","","","","","","","","NaN",""
"","S1","","html-keyboard-response","315","453117","0.0-1.0-425.0","0","0","60191","","null","","","null","47","","","","","","","","","","","","","","","",""
"","ISI","","html-keyboard-response","316","455121","0.0-1.0-426.0","0","0","60191","","null","","","null","47","NaN","","","","","","","","","","","","","","",""
"","S2","","html-keyboard-response","317","455275","0.0-1.0-427.0","0","0","60191","","null","","","null","47","","NaN","","","","","","","","","","","","","",""
"","response","","html-keyboard-response","318","455706","0.0-1.0-428.0-0.0","0","0","60191","","427","","","68","47","","","1","47","training","adjacent","EF","5","6","O.jpg","M.jpg","0","1","0","",""
"","feedback","","html-keyboard-response","319","456710","0.0-1.0-429.0-0.0","0","0","60191","","null","","","null","47","","","","","","","","","","","","","","","",""
"","time_out","","html-keyboard-response","320","458713","0.0-1.0-431.0-0.0","0","0","60191","","null","","","null","47","","","","","","","","","","","","","","","",""
"","ITI","","html-keyboard-response","321","459717","0.0-1.0-432.0","0","0","60191","","null","","","null","47","","","","","","","","","","","","","","","NaN",""
"","block_over","","html-keyboard-response","322","608178","0.0-1.0-433.0-0.0","0","0","60191","","148459","","","32","47","","","","","","","","","","","","","","","",""
"","S1","","html-keyboard-response","323","608331","0.0-1.0-434.0","0","0","60191","","null","","","null","48","","","","","","","","","","","","","","","",""
"","ISI","","html-keyboard-response","324","610332","0.0-1.0-435.0","0","0","60191","","null","","","null","48","NaN","","","","","","","","","","","","","","",""
"","S2","","html-keyboard-response","325","610486","0.0-1.0-436.0","0","0","60191","","null","","","null","48","","NaN","","","","","","","","","","","","","",""
"","response","","html-keyboard-response","326","612337","0.0-1.0-437.0-0.0","0","0","60191","","null","","","null","48","","","2","48","training","adjacent","DC","4","3","R.jpg","Q.jpg","NaN","0","0","",""
"","too_slow_prompt","","html-keyboard-response","327","613341","0.0-1.0-439.0-0.0","1","0","60191","","null","","","null","","","","","","","","","","","","","","","","",""
"","time_out","","html-keyboard-response","328","615344","0.0-1.0-440.0-0.0","0","0","60191","","null","","","null","48","","","","","","","","","","","","","","","",""
"","ITI","","html-keyboard-response","329","616346","0.0-1.0-441.0","0","0","60191","","null","","","null","48","","","","","","","","","","","","","","","NaN",""
"","S1","","html-keyboard-response","330","616497","0.0-1.0-443.0","0","0","60191","","null","","","null","49","","","","","","","","","","","","","","","",""
"","ISI","","html-keyboard-response","331","618502","0.0-1.0-444.0","0","0","60191","","null","","","null","49","NaN","","","","","","","","","","","","","","",""
"","S2","","html-keyboard-response","332","618657","0.0-1.0-445.0","0","0","60191","","null","","","null","49","","NaN","","","","","","","","","","","","","",""
"","response","","html-keyboard-response","333","619382","0.0-1.0-446.0-0.0","0","0","60191","","724","","","75","49","","","2","49","training","adjacent","FE","6","5","M.jpg","O.jpg","1","0","0","",""
"","feedback","","html-keyboard-response","334","620387","0.0-1.0-447.0-0.0","0","0","60191","","null","","","null","49","","","","","","","","","","","","","","","",""
"","time_out","","html-keyboard-response","335","622389","0.0-1.0-449.0-0.0","0","0","60191","","null","","","null","49","","","","","","","","","","","","","","","",""
"","ITI","","html-keyboard-response","336","623391","0.0-1.0-450.0","0","0","60191","","null","","","null","49","","","","","","","","","","","","","","","NaN",""
"","S1","","html-keyboard-response","337","623542","0.0-1.0-452.0","0","0","60191","","null","","","null","50","","","","","","","","","","","","","","","",""
"","ISI","","html-keyboard-response","338","625549","0.0-1.0-453.0","0","0","60191","","null","","","null","50","NaN","","","","","","","","","","","","","","",""
"","S2","","html-keyboard-response","339","625702","0.0-1.0-454.0","0","0","60191","","null","","","null","50","","NaN","","","","","","","","","","","","","",""
"","response","","html-keyboard-response","340","627245","0.0-1.0-455.0-0.0","0","0","60191","","1540","","","68","50","","","2","50","training","adjacent","AB","1","2","N.jpg","L.jpg","0","1","0","",""
"","feedback","","html-keyboard-response","341","628247","0.0-1.0-456.0-0.0","0","0","60191","","null","","","null","50","","","","","","","","","","","","","","","",""
"","time_out","","html-keyboard-response","342","630252","0.0-1.0-458.0-0.0","0","0","60191","","null","","","null","50","","","","","","","","","","","","","","","",""
"","ITI","","html-keyboard-response","343","631256","0.0-1.0-459.0","0","0","60191","","null","","","null","50","","","","","","","","","","","","","","","NaN",""
"","S1","","html-keyboard-response","344","631413","0.0-1.0-461.0","0","0","60191","","null","","","null","51","","","","","","","","","","","","","","","",""
"","ISI","","html-keyboard-response","345","633415","0.0-1.0-462.0","0","0","60191","","null","","","null","51","NaN","","","","","","","","","","","","","","",""
"","S2","","html-keyboard-response","346","633570","0.0-1.0-463.0","0","0","60191","","null","","","null","51","","NaN","","","","","","","","","","","","","",""
"","response","","html-keyboard-response","347","633954","0.0-1.0-464.0-0.0","0","0","60191","","381","","","75","51","","","2","51","training","adjacent","CD","3","4","Q.jpg","R.jpg","1","1","1","",""
"","feedback","","html-keyboard-response","348","634957","0.0-1.0-465.0-0.0","0","0","60191","","null","","","null","51","","","","","","","","","","","","","","","",""
"","ITI","","html-keyboard-response","349","635960","0.0-1.0-468.0","0","0","60191","","null","","","null","51","","","","","","","","","","","","","","","NaN",""
"","S1","","html-keyboard-response","350","636112","0.0-1.0-470.0","0","0","60191","","null","","","null","52","","","","","","","","","","","","","","","",""
"","ISI","","html-keyboard-response","351","638113","0.0-1.0-471.0","0","0","60191","","null","","","null","52","NaN","","","","","","","","","","","","","","",""
"","S2","","html-keyboard-response","352","638266","0.0-1.0-472.0","0","0","60191","","null","","","null","52","","NaN","","","","","","","","","","","","","",""
"","response","","html-keyboard-response","353","639410","0.0-1.0-473.0-0.0","0","0","60191","","1142","","","68","52","","","2","52","training","adjacent","DC","4","3","R.jpg","Q.jpg","0","0","1","",""
"","feedback","","html-keyboard-response","354","640415","0.0-1.0-474.0-0.0","0","0","60191","","null","","","null","52","","","","","","","","","","","","","","","",""
"","ITI","","html-keyboard-response","355","641419","0.0-1.0-477.0","0","0","60191","","null","","","null","52","","","","","","","","","","","","","","","NaN",""
"","S1","","html-keyboard-response","356","641572","0.0-1.0-479.0","0","0","60191","","null","","","null","53","","","","","","","","","","","","","","","",""
"","ISI","","html-keyboard-response","357","643575","0.0-1.0-480.0","0","0","60191","","null","","","null","53","NaN","","","","","","","","","","","","","","",""
"","S2","","html-keyboard-response","358","643731","0.0-1.0-481.0","0","0","60191","","null","","","null","53","","NaN","","","","","","","","","","","","","",""
"","response","","html-keyboard-response","359","644197","0.0-1.0-482.0-0.0","0","0","60191","","464","","","75","53","","","2","53","training","adjacent","ED","5","4","O.jpg","R.jpg","1","0","0","",""
"","feedback","","html-keyboard-response","360","645202","0.0-1.0-483.0-0.0","0","0","60191","","null","","","null","53","","","","","","","","","","","","","","","",""
"","time_out","","html-keyboard-response","361","647204","0.0-1.0-485.0-0.0","0","0","60191","","null","","","null","53","","","","","","","","","","","","","","","",""
"","ITI","","html-keyboard-response","362","648210","0.0-1.0-486.0","0","0","60191","","null","","","null","53","","","","","","","","","","","","","","","NaN",""
"","S1","","html-keyboard-response","363","648363","0.0-1.0-488.0","0","0","60191","","null","","","null","54","","","","","","","","","","","","","","","",""
"","ISI","","html-keyboard-response","364","650368","0.0-1.0-489.0","0","0","60191","","null","","","null","54","NaN","","","","","","","","","","","","","","",""
"","S2","","html-keyboard-response","365","650522","0.0-1.0-490.0","0","0","60191","","null","","","null","54","","NaN","","","","","","","","","","","","","",""
"","response","","html-keyboard-response","366","651946","0.0-1.0-491.0-0.0","0","0","60191","","1422","","","68","54","","","2","54","training","adjacent","DC","4","3","R.jpg","Q.jpg","0","0","1","",""
"","feedback","","html-keyboard-response","367","652953","0.0-1.0-492.0-0.0","0","0","60191","","null","","","null","54","","","","","","","","","","","","","","","",""
"","ITI","","html-keyboard-response","368","653955","0.0-1.0-495.0","0","0","60191","","null","","","null","54","","","","","","","","","","","","","","","NaN",""
"","S1","","html-keyboard-response","369","654107","0.0-1.0-497.0","0","0","60191","","null","","","null","55","","","","","","","","","","","","","","","",""
"","ISI","","html-keyboard-response","370","656108","0.0-1.0-498.0","0","0","60191","","null","","","null","55","NaN","","","","","","","","","","","","","","",""
"","S2","","html-keyboard-response","371","656261","0.0-1.0-499.0","0","0","60191","","null","","","null","55","","NaN","","","","","","","","","","","","","",""
"","response","","html-keyboard-response","372","657389","0.0-1.0-500.0-0.0","0","0","60191","","1127","","","68","55","","","2","55","training","adjacent","FE","6","5","M.jpg","O.jpg","0","0","1","",""
"","feedback","","html-keyboard-response","373","658393","0.0-1.0-501.0-0.0","0","0","60191","","null","","","null","55","","","","","","","","","","","","","","","",""
"","ITI","","html-keyboard-response","374","659395","0.0-1.0-504.0","0","0","60191","","null","","","null","55","","","","","","","","","","","","","","","NaN",""
"","S1","","html-keyboard-response","375","659548","0.0-1.0-506.0","0","0","60191","","null","","","null","56","","","","","","","","","","","","","","","",""
"","ISI","","html-keyboard-response","376","661551","0.0-1.0-507.0","0","0","60191","","null","","","null","56","NaN","","","","","","","","","","","","","","",""
"","S2","","html-keyboard-response","377","661704","0.0-1.0-508.0","0","0","60191","","null","","","null","56","","NaN","","","","","","","","","","","","","",""
"","response","","html-keyboard-response","378","662301","0.0-1.0-509.0-0.0","0","0","60191","","596","","","68","56","","","2","56","training","adjacent","EF","5","6","O.jpg","M.jpg","0","1","0","",""
"","feedback","","html-keyboard-response","379","663306","0.0-1.0-510.0-0.0","0","0","60191","","null","","","null","56","","","","","","","","","","","","","","","",""
"","time_out","","html-keyboard-response","380","665309","0.0-1.0-512.0-0.0","0","0","60191","","null","","","null","56","","","","","","","","","","","","","","","",""
"","ITI","","html-keyboard-response","381","666311","0.0-1.0-513.0","0","0","60191","","null","","","null","56","","","","","","","","","","","","","","","NaN",""
"","S1","","html-keyboard-response","382","666464","0.0-1.0-515.0","0","0","60191","","null","","","null","57","","","","","","","","","","","","","","","",""
"","ISI","","html-keyboard-response","383","668468","0.0-1.0-516.0","0","0","60191","","null","","","null","57","NaN","","","","","","","","","","","","","","",""
"","S2","","html-keyboard-response","384","668621","0.0-1.0-517.0","0","0","60191","","null","","","null","57","","NaN","","","","","","","","","","","","","",""
"","response","","html-keyboard-response","385","669785","0.0-1.0-518.0-0.0","0","0","60191","","1161","","","75","57","","","2","57","training","adjacent","AB","1","2","N.jpg","L.jpg","1","1","1","",""
"","feedback","","html-keyboard-response","386","670787","0.0-1.0-519.0-0.0","0","0","60191","","null","","","null","57","","","","","","","","","","","","","","","",""
"","ITI","","html-keyboard-response","387","671790","0.0-1.0-522.0","0","0","60191","","null","","","null","57","","","","","","","","","","","","","","","NaN",""
"","S1","","html-keyboard-response","388","671944","0.0-1.0-524.0","0","0","60191","","null","","","null","58","","","","","","","","","","","","","","","",""
"","ISI","","html-keyboard-response","389","673948","0.0-1.0-525.0","0","0","60191","","null","","","null","58","NaN","","","","","","","","","","","","","","",""
"","S2","","html-keyboard-response","390","674101","0.0-1.0-526.0","0","0","60191","","null","","","null","58","","NaN","","","","","","","","","","","","","",""
"","response","","html-keyboard-response","391","675599","0.0-1.0-527.0-0.0","0","0","60191","","1495","","","68","58","","","2","58","training","adjacent","CD","3","4","Q.jpg","R.jpg","0","1","0","",""
"","feedback","","html-keyboard-response","392","676601","0.0-1.0-528.0-0.0","0","0","60191","","null","","","null","58","","","","","","","","","","","","","","","",""
"","time_out","","html-keyboard-response","393","678603","0.0-1.0-530.0-0.0","0","0","60191","","null","","","null","58","","","","","","","","","","","","","","","",""
"","ITI","","html-keyboard-response","394","679607","0.0-1.0-531.0","0","0","60191","","null","","","null","58","","","","","","","","","","","","","","","NaN",""
"","S1","","html-keyboard-response","395","679763","0.0-1.0-533.0","0","0","60191","","null","","","null","59","","","","","","","","","","","","","","","",""
"","ISI","","html-keyboard-response","396","681765","0.0-1.0-534.0","0","0","60191","","null","","","null","59","NaN","","","","","","","","","","","","","","",""
"","S2","","html-keyboard-response","397","681917","0.0-1.0-535.0","0","0","60191","","null","","","null","59","","NaN","","","","","","","","","","","","","",""
"","response","","html-keyboard-response","398","682802","0.0-1.0-536.0-0.0","0","0","60191","","883","","","75","59","","","2","59","training","adjacent","FE","6","5","M.jpg","O.jpg","1","0","0","",""
"","feedback","","html-keyboard-response","399","683807","0.0-1.0-537.0-0.0","0","0","60191","","null","","","null","59","","","","","","","","","","","","","","","",""
"","time_out","","html-keyboard-response","400","685813","0.0-1.0-539.0-0.0","0","0","60191","","null","","","null","59","","","","","","","","","","","","","","","",""
"","ITI","","html-keyboard-response","401","686816","0.0-1.0-540.0","0","0","60191","","null","","","null","59","","","","","","","","","","","","","","","NaN",""
"","S1","","html-keyboard-response","402","686968","0.0-1.0-542.0","0","0","60191","","null","","","null","60","","","","","","","","","","","","","","","",""
"","ISI","","html-keyboard-response","403","688970","0.0-1.0-543.0","0","0","60191","","null","","","null","60","NaN","","","","","","","","","","","","","","",""
"","S2","","html-keyboard-response","404","689122","0.0-1.0-544.0","0","0","60191","","null","","","null","60","","NaN","","","","","","","","","","","","","",""
"","response","","html-keyboard-response","405","689694","0.0-1.0-545.0-0.0","0","0","60191","","569","","","75","60","","","2","60","training","adjacent","GF","7","6","P.jpg","M.jpg","1","0","0","",""
"","feedback","","html-keyboard-response","406","690700","0.0-1.0-546.0-0.0","0","0","60191","","null","","","null","60","","","","","","","","","","","","","","","",""
"","time_out","","html-keyboard-response","407","692706","0.0-1.0-548.0-0.0","0","0","60191","","null","","","null","60","","","","","","","","","","","","","","","",""
"","ITI","","html-keyboard-response","408","693708","0.0-1.0-549.0","0","0","60191","","null","","","null","60","","","","","","","","","","","","","","","NaN",""
"","S1","","html-keyboard-response","409","693862","0.0-1.0-551.0","0","0","60191","","null","","","null","61","","","","","","","","","","","","","","","",""
"","ISI","","html-keyboard-response","410","695866","0.0-1.0-552.0","0","0","60191","","null","","","null","61","NaN","","","","","","","","","","","","","","",""
"","S2","","html-keyboard-response","411","696022","0.0-1.0-553.0","0","0","60191","","null","","","null","61","","NaN","","","","","","","","","","","","","",""
"","response","","html-keyboard-response","412","696765","0.0-1.0-554.0-0.0","0","0","60191","","741","","","68","61","","","2","61","training","adjacent","CB","3","2","Q.jpg","L.jpg","0","0","1","",""
"","feedback","","html-keyboard-response","413","697768","0.0-1.0-555.0-0.0","0","0","60191","","null","","","null","61","","","","","","","","","","","","","","","",""
"","ITI","","html-keyboard-response","414","698773","0.0-1.0-558.0","0","0","60191","","null","","","null","61","","","","","","","","","","","","","","","NaN",""
"","S1","","html-keyboard-response","415","698926","0.0-1.0-560.0","0","0","60191","","null","","","null","62","","","","","","","","","","","","","","","",""
"","ISI","","html-keyboard-response","416","700928","0.0-1.0-561.0","0","0","60191","","null","","","null","62","NaN","","","","","","","","","","","","","","",""
"","S2","","html-keyboard-response","417","701082","0.0-1.0-562.0","0","0","60191","","null","","","null","62","","NaN","","","","","","","","","","","","","",""
"","response","","html-keyboard-response","418","702015","0.0-1.0-563.0-0.0","0","0","60191","","930","","","75","62","","","2","62","training","adjacent","BC","2","3","L.jpg","Q.jpg","1","1","1","",""
"","feedback","","html-keyboard-response","419","703018","0.0-1.0-564.0-0.0","0","0","60191","","null","","","null","62","","","","","","","","","","","","","","","",""
"","ITI","","html-keyboard-response","420","704023","0.0-1.0-567.0","0","0","60191","","null","","","null","62","","","","","","","","","","","","","","","NaN",""
"","S1","","html-keyboard-response","421","704175","0.0-1.0-569.0","0","0","60191","","null","","","null","63","","","","","","","","","","","","","","","",""
"","ISI","","html-keyboard-response","422","706181","0.0-1.0-570.0","0","0","60191","","null","","","null","63","NaN","","","","","","","","","","","","","","",""
"","S2","","html-keyboard-response","423","706335","0.0-1.0-571.0","0","0","60191","","null","","","null","63","","NaN","","","","","","","","","","","","","",""
"","response","","html-keyboard-response","424","706980","0.0-1.0-572.0-0.0","0","0","60191","","645","","","68","63","","","2","63","training","adjacent","ED","5","4","O.jpg","R.jpg","0","0","1","",""
"","feedback","","html-keyboard-response","425","707987","0.0-1.0-573.0-0.0","0","0","60191","","null","","","null","63","","","","","","","","","","","","","","","",""
"","ITI","","html-keyboard-response","426","708990","0.0-1.0-576.0","0","0","60191","","null","","","null","63","","","","","","","","","","","","","","","NaN",""
"","S1","","html-keyboard-response","427","709142","0.0-1.0-578.0","0","0","60191","","null","","","null","64","","","","","","","","","","","","","","","",""
"","ISI","","html-keyboard-response","428","711146","0.0-1.0-579.0","0","0","60191","","null","","","null","64","NaN","","","","","","","","","","","","","","",""
"","S2","","html-keyboard-response","429","711300","0.0-1.0-580.0","0","0","60191","","null","","","null","64","","NaN","","","","","","","","","","","","","",""
"","response","","html-keyboard-response","430","712154","0.0-1.0-581.0-0.0","0","0","60191","","851","","","75","64","","","2","64","training","adjacent","GF","7","6","P.jpg","M.jpg","1","0","0","",""
"","feedback","","html-keyboard-response","431","713158","0.0-1.0-582.0-0.0","0","0","60191","","null","","","null","64","","","","","","","","","","","","","","","",""
"","time_out","","html-keyboard-response","432","715160","0.0-1.0-584.0-0.0","0","0","60191","","null","","","null","64","","","","","","","","","","","","","","","",""
"","ITI","","html-keyboard-response","433","716164","0.0-1.0-585.0","0","0","60191","","null","","","null","64","","","","","","","","","","","","","","","NaN",""
"","S1","","html-keyboard-response","434","716316","0.0-1.0-587.0","0","0","60191","","null","","","null","65","","","","","","","","","","","","","","","",""
"","ISI","","html-keyboard-response","435","718322","0.0-1.0-588.0","0","0","60191","","null","","","null","65","NaN","","","","","","","","","","","","","","",""
"","S2","","html-keyboard-response","436","718473","0.0-1.0-589.0","0","0","60191","","null","","","null","65","","NaN","","","","","","","","","","","","","",""
"","response","","html-keyboard-response","437","718861","0.0-1.0-590.0-0.0","0","0","60191","","386","","","68","65","","","2","65","training","adjacent","GF","7","6","P.jpg","M.jpg","0","0","1","",""
"","feedback","","html-keyboard-response","438","719863","0.0-1.0-591.0-0.0","0","0","60191","","null","","","null","65","","","","","","","","","","","","","","","",""
"","ITI","","html-keyboard-response","439","720865","0.0-1.0-594.0","0","0","60191","","null","","","null","65","","","","","","","","","","","","","","","NaN",""
"","S1","","html-keyboard-response","440","721020","0.0-1.0-596.0","0","0","60191","","null","","","null","66","","","","","","","","","","","","","","","",""
"","ISI","","html-keyboard-response","441","723023","0.0-1.0-597.0","0","0","60191","","null","","","null","66","NaN","","","","","","","","","","","","","","",""
"","S2","","html-keyboard-response","442","723175","0.0-1.0-598.0","0","0","60191","","null","","","null","66","","NaN","","","","","","","","","","","","","",""
"","response","","html-keyboard-response","443","724055","0.0-1.0-599.0-0.0","0","0","60191","","878","","","75","66","","","2","66","training","adjacent","BC","2","3","L.jpg","Q.jpg","1","1","1","",""
"","feedback","","html-keyboard-response","444","725061","0.0-1.0-600.0-0.0","0","0","60191","","null","","","null","66","","","","","","","","","","","","","","","",""
"","ITI","","html-keyboard-response","445","726065","0.0-1.0-603.0","0","0","60191","","null","","","null","66","","","","","","","","","","","","","","","NaN",""
"","S1","","html-keyboard-response","446","726217","0.0-1.0-605.0","0","0","60191","","null","","","null","67","","","","","","","","","","","","","","","",""
"","ISI","","html-keyboard-response","447","728221","0.0-1.0-606.0","0","0","60191","","null","","","null","67","NaN","","","","","","","","","","","","","","",""
"","S2","","html-keyboard-response","448","728376","0.0-1.0-607.0","0","0","60191","","null","","","null","67","","NaN","","","","","","","","","","","","","",""
"","response","","html-keyboard-response","449","729282","0.0-1.0-608.0-0.0","0","0","60191","","903","","","75","67","","","2","67","training","adjacent","BA","2","1","L.jpg","N.jpg","1","0","0","",""
"","feedback","","html-keyboard-response","450","730288","0.0-1.0-609.0-0.0","0","0","60191","","null","","","null","67","","","","","","","","","","","","","","","",""
"","time_out","","html-keyboard-response","451","732290","0.0-1.0-611.0-0.0","0","0","60191","","null","","","null","67","","","","","","","","","","","","","","","",""
"","ITI","","html-keyboard-response","452","733292","0.0-1.0-612.0","0","0","60191","","null","","","null","67","","","","","","","","","","","","","","","NaN",""
"","S1","","html-keyboard-response","453","733444","0.0-1.0-614.0","0","0","60191","","null","","","null","68","","","","","","","","","","","","","","","",""
"","ISI","","html-keyboard-response","454","735445","0.0-1.0-615.0","0","0","60191","","null","","","null","68","NaN","","","","","","","","","","","","","","",""
"","S2","","html-keyboard-response","455","735597","0.0-1.0-616.0","0","0","60191","","null","","","null","68","","NaN","","","","","","","","","","","","","",""
"","response","","html-keyboard-response","456","736357","0.0-1.0-617.0-0.0","0","0","60191","","757","","","68","68","","","2","68","training","adjacent","DE","4","5","R.jpg","O.jpg","0","1","0","",""
"","feedback","","html-keyboard-response","457","737360","0.0-1.0-618.0-0.0","0","0","60191","","null","","","null","68","","","","","","","","","","","","","","","",""
"","time_out","","html-keyboard-response","458","739361","0.0-1.0-620.0-0.0","0","0","60191","","null","","","null","68","","","","","","","","","","","","","","","",""
"","ITI","","html-keyboard-response","459","740364","0.0-1.0-621.0","0","0","60191","","null","","","null","68","","","","","","","","","","","","","","","NaN",""
"","S1","","html-keyboard-response","460","740516","0.0-1.0-623.0","0","0","60191","","null","","","null","69","","","","","","","","","","","","","","","",""
"","ISI","","html-keyboard-response","461","742521","0.0-1.0-624.0","0","0","60191","","null","","","null","69","NaN","","","","","","","","","","","","","","",""
"","S2","","html-keyboard-response","462","742675","0.0-1.0-625.0","0","0","60191","","null","","","null","69","","NaN","","","","","","","","","","","","","",""
"","response","","html-keyboard-response","463","743380","0.0-1.0-626.0-0.0","0","0","60191","","704","","","68","69","","","2","69","training","adjacent","DE","4","5","R.jpg","O.jpg","0","1","0","",""
"","feedback","","html-keyboard-response","464","744384","0.0-1.0-627.0-0.0","0","0","60191","","null","","","null","69","","","","","","","","","","","","","","","",""
"","time_out","","html-keyboard-response","465","746387","0.0-1.0-629.0-0.0","0","0","60191","","null","","","null","69","","","","","","","","","","","","","","","",""
"","ITI","","html-keyboard-response","466","747391","0.0-1.0-630.0","0","0","60191","","null","","","null","69","","","","","","","","","","","","","","","NaN",""
"","S1","","html-keyboard-response","467","747543","0.0-1.0-632.0","0","0","60191","","null","","","null","70","","","","","","","","","","","","","","","",""
"","ISI","","html-keyboard-response","468","749547","0.0-1.0-633.0","0","0","60191","","null","","","null","70","NaN","","","","","","","","","","","","","","",""
"","S2","","html-keyboard-response","469","749699","0.0-1.0-634.0","0","0","60191","","null","","","null","70","","NaN","","","","","","","","","","","","","",""
"","response","","html-keyboard-response","470","750129","0.0-1.0-635.0-0.0","0","0","60191","","425","","","75","70","","","2","70","training","adjacent","FG","6","7","M.jpg","P.jpg","1","1","1","",""
"","feedback","","html-keyboard-response","471","751137","0.0-1.0-636.0-0.0","0","0","60191","","null","","","null","70","","","","","","","","","","","","","","","",""
"","ITI","","html-keyboard-response","472","752142","0.0-1.0-639.0","0","0","60191","","null","","","null","70","","","","","","","","","","","","","","","NaN",""
"","S1","","html-keyboard-response","473","752298","0.0-1.0-641.0","0","0","60191","","null","","","null","71","","","","","","","","","","","","","","","",""
"","ISI","","html-keyboard-response","474","754303","0.0-1.0-642.0","0","0","60191","","null","","","null","71","NaN","","","","","","","","","","","","","","",""
"","S2","","html-keyboard-response","475","754456","0.0-1.0-643.0","0","0","60191","","null","","","null","71","","NaN","","","","","","","","","","","","","",""
"","response","","html-keyboard-response","476","755277","0.0-1.0-644.0-0.0","0","0","60191","","819","","","68","71","","","2","71","training","adjacent","AB","1","2","N.jpg","L.jpg","0","1","0","",""
"","feedback","","html-keyboard-response","477","756280","0.0-1.0-645.0-0.0","0","0","60191","","null","","","null","71","","","","","","","","","","","","","","","",""
"","time_out","","html-keyboard-response","478","758283","0.0-1.0-647.0-0.0","0","0","60191","","null","","","null","71","","","","","","","","","","","","","","","",""
"","ITI","","html-keyboard-response","479","759290","0.0-1.0-648.0","0","0","60191","","null","","","null","71","","","","","","","","","","","","","","","NaN",""
"","S1","","html-keyboard-response","480","759443","0.0-1.0-650.0","0","0","60191","","null","","","null","72","","","","","","","","","","","","","","","",""
"","ISI","","html-keyboard-response","481","761446","0.0-1.0-651.0","0","0","60191","","null","","","null","72","NaN","","","","","","","","","","","","","","",""
"","S2","","html-keyboard-response","482","761598","0.0-1.0-652.0","0","0","60191","","null","","","null","72","","NaN","","","","","","","","","","","","","",""
"","response","","html-keyboard-response","483","762426","0.0-1.0-653.0-0.0","0","0","60191","","826","","","75","72","","","2","72","training","adjacent","BC","2","3","L.jpg","Q.jpg","1","1","1","",""
"","feedback","","html-keyboard-response","484","763429","0.0-1.0-654.0-0.0","0","0","60191","","null","","","null","72","","","","","","","","","","","","","","","",""
"","ITI","","html-keyboard-response","485","764432","0.0-1.0-657.0","0","0","60191","","null","","","null","72","","","","","","","","","","","","","","","NaN",""
"","S1","","html-keyboard-response","486","764585","0.0-1.0-659.0","0","0","60191","","null","","","null","73","","","","","","","","","","","","","","","",""
"","ISI","","html-keyboard-response","487","766588","0.0-1.0-660.0","0","0","60191","","null","","","null","73","NaN","","","","","","","","","","","","","","",""
"","S2","","html-keyboard-response","488","766744","0.0-1.0-661.0","0","0","60191","","null","","","null","73","","NaN","","","","","","","","","","","","","",""
"","response","","html-keyboard-response","489","767464","0.0-1.0-662.0-0.0","0","0","60191","","718","","","75","73","","","2","73","training","adjacent","FG","6","7","M.jpg","P.jpg","1","1","1","",""
"","feedback","","html-keyboard-response","490","768467","0.0-1.0-663.0-0.0","0","0","60191","","null","","","null","73","","","","","","","","","","","","","","","",""
"","ITI","","html-keyboard-response","491","769470","0.0-1.0-666.0","0","0","60191","","null","","","null","73","","","","","","","","","","","","","","","NaN",""
"","S1","","html-keyboard-response","492","769623","0.0-1.0-668.0","0","0","60191","","null","","","null","74","","","","","","","","","","","","","","","",""
"","ISI","","html-keyboard-response","493","771627","0.0-1.0-669.0","0","0","60191","","null","","","null","74","NaN","","","","","","","","","","","","","","",""
"","S2","","html-keyboard-response","494","771783","0.0-1.0-670.0","0","0","60191","","null","","","null","74","","NaN","","","","","","","","","","","","","",""
"","response","","html-keyboard-response","495","772922","0.0-1.0-671.0-0.0","0","0","60191","","1137","","","68","74","","","2","74","training","adjacent","EF","5","6","O.jpg","M.jpg","0","1","0","",""
"","feedback","","html-keyboard-response","496","773928","0.0-1.0-672.0-0.0","0","0","60191","","null","","","null","74","","","","","","","","","","","","","","","",""
"","time_out","","html-keyboard-response","497","775931","0.0-1.0-674.0-0.0","0","0","60191","","null","","","null","74","","","","","","","","","","","","","","","",""
"","ITI","","html-keyboard-response","498","776935","0.0-1.0-675.0","0","0","60191","","null","","","null","74","","","","","","","","","","","","","","","NaN",""
"","S1","","html-keyboard-response","499","777092","0.0-1.0-677.0","0","0","60191","","null","","","null","75","","","","","","","","","","","","","","","",""
"","ISI","","html-keyboard-response","500","779097","0.0-1.0-678.0","0","0","60191","","null","","","null","75","NaN","","","","","","","","","","","","","","",""
"","S2","","html-keyboard-response","501","779250","0.0-1.0-679.0","0","0","60191","","null","","","null","75","","NaN","","","","","","","","","","","","","",""
"","response","","html-keyboard-response","502","779523","0.0-1.0-680.0-0.0","0","0","60191","","272","","","75","75","","","2","75","training","adjacent","CB","3","2","Q.jpg","L.jpg","1","0","0","",""
"","feedback","","html-keyboard-response","503","780525","0.0-1.0-681.0-0.0","0","0","60191","","null","","","null","75","","","","","","","","","","","","","","","",""
"","time_out","","html-keyboard-response","504","782529","0.0-1.0-683.0-0.0","0","0","60191","","null","","","null","75","","","","","","","","","","","","","","","",""
"","ITI","","html-keyboard-response","505","783536","0.0-1.0-684.0","0","0","60191","","null","","","null","75","","","","","","","","","","","","","","","NaN",""
"","S1","","html-keyboard-response","506","783690","0.0-1.0-686.0","0","0","60191","","null","","","null","76","","","","","","","","","","","","","","","",""
"","ISI","","html-keyboard-response","507","785692","0.0-1.0-687.0","0","0","60191","","null","","","null","76","NaN","","","","","","","","","","","","","","",""
"","S2","","html-keyboard-response","508","785846","0.0-1.0-688.0","0","0","60191","","null","","","null","76","","NaN","","","","","","","","","","","","","",""
"","response","","html-keyboard-response","509","786649","0.0-1.0-689.0-0.0","0","0","60191","","801","","","75","76","","","2","76","training","adjacent","ED","5","4","O.jpg","R.jpg","1","0","0","",""
"","feedback","","html-keyboard-response","510","787654","0.0-1.0-690.0-0.0","0","0","60191","","null","","","null","76","","","","","","","","","","","","","","","",""
"","time_out","","html-keyboard-response","511","789656","0.0-1.0-692.0-0.0","0","0","60191","","null","","","null","76","","","","","","","","","","","","","","","",""
"","ITI","","html-keyboard-response","512","790661","0.0-1.0-693.0","0","0","60191","","null","","","null","76","","","","","","","","","","","","","","","NaN",""
"","S1","","html-keyboard-response","513","790814","0.0-1.0-695.0","0","0","60191","","null","","","null","77","","","","","","","","","","","","","","","",""
"","ISI","","html-keyboard-response","514","792815","0.0-1.0-696.0","0","0","60191","","null","","","null","77","NaN","","","","","","","","","","","","","","",""
"","S2","","html-keyboard-response","515","792971","0.0-1.0-697.0","0","0","60191","","null","","","null","77","","NaN","","","","","","","","","","","","","",""
"","response","","html-keyboard-response","516","794051","0.0-1.0-698.0-0.0","0","0","60191","","1078","","","68","77","","","2","77","training","adjacent","DE","4","5","R.jpg","O.jpg","0","1","0","",""
"","feedback","","html-keyboard-response","517","795054","0.0-1.0-699.0-0.0","0","0","60191","","null","","","null","77","","","","","","","","","","","","","","","",""
"","time_out","","html-keyboard-response","518","797056","0.0-1.0-701.0-0.0","0","0","60191","","null","","","null","77","","","","","","","","","","","","","","","",""
"","ITI","","html-keyboard-response","519","798059","0.0-1.0-702.0","0","0","60191","","null","","","null","77","","","","","","","","","","","","","","","NaN",""
"","S1","","html-keyboard-response","520","798216","0.0-1.0-704.0","0","0","60191","","null","","","null","78","","","","","","","","","","","","","","","",""
"","ISI","","html-keyboard-response","521","800223","0.0-1.0-705.0","0","0","60191","","null","","","null","78","NaN","","","","","","","","","","","","","","",""
"","S2","","html-keyboard-response","522","800375","0.0-1.0-706.0","0","0","60191","","null","","","null","78","","NaN","","","","","","","","","","","","","",""
"","response","","html-keyboard-response","523","802077","0.0-1.0-707.0-0.0","0","0","60191","","1701","","","75","78","","","2","78","training","adjacent","CD","3","4","Q.jpg","R.jpg","1","1","1","",""
"","feedback","","html-keyboard-response","524","803084","0.0-1.0-708.0-0.0","0","0","60191","","null","","","null","78","","","","","","","","","","","","","","","",""
"","ITI","","html-keyboard-response","525","804086","0.0-1.0-711.0","0","0","60191","","null","","","null","78","","","","","","","","","","","","","","","NaN",""
"","S1","","html-keyboard-response","526","804238","0.0-1.0-713.0","0","0","60191","","null","","","null","79","","","","","","","","","","","","","","","",""
"","ISI","","html-keyboard-response","527","806242","0.0-1.0-714.0","0","0","60191","","null","","","null","79","NaN","","","","","","","","","","","","","","",""
"","S2","","html-keyboard-response","528","806393","0.0-1.0-715.0","0","0","60191","","null","","","null","79","","NaN","","","","","","","","","","","","","",""
"","response","","html-keyboard-response","529","807543","0.0-1.0-716.0-0.0","0","0","60191","","1147","","","75","79","","","2","79","training","adjacent","BA","2","1","L.jpg","N.jpg","1","0","0","",""
"","feedback","","html-keyboard-response","530","808545","0.0-1.0-717.0-0.0","0","0","60191","","null","","","null","79","","","","","","","","","","","","","","","",""
"","time_out","","html-keyboard-response","531","810546","0.0-1.0-719.0-0.0","0","0","60191","","null","","","null","79","","","","","","","","","","","","","","","",""
"","ITI","","html-keyboard-response","532","811551","0.0-1.0-720.0","0","0","60191","","null","","","null","79","","","","","","","","","","","","","","","NaN",""
"","S1","","html-keyboard-response","533","811704","0.0-1.0-722.0","0","0","60191","","null","","","null","80","","","","","","","","","","","","","","","",""
"","ISI","","html-keyboard-response","534","813707","0.0-1.0-723.0","0","0","60191","","null","","","null","80","NaN","","","","","","","","","","","","","","",""
"","S2","","html-keyboard-response","535","813860","0.0-1.0-724.0","0","0","60191","","null","","","null","80","","NaN","","","","","","","","","","","","","",""
"","response","","html-keyboard-response","536","814429","0.0-1.0-725.0-0.0","0","0","60191","","568","","","68","80","","","2","80","training","adjacent","AB","1","2","N.jpg","L.jpg","0","1","0","",""
"","feedback","","html-keyboard-response","537","815435","0.0-1.0-726.0-0.0","0","0","60191","","null","","","null","80","","","","","","","","","","","","","","","",""
"","time_out","","html-keyboard-response","538","817441","0.0-1.0-728.0-0.0","0","0","60191","","null","","","null","80","","","","","","","","","","","","","","","",""
"","ITI","","html-keyboard-response","539","818443","0.0-1.0-729.0","0","0","60191","","null","","","null","80","","","","","","","","","","","","","","","NaN",""
"","S1","","html-keyboard-response","540","818594","0.0-1.0-731.0","0","0","60191","","null","","","null","81","","","","","","","","","","","","","","","",""
"","ISI","","html-keyboard-response","541","820598","0.0-1.0-732.0","0","0","60191","","null","","","null","81","NaN","","","","","","","","","","","","","","",""
"","S2","","html-keyboard-response","542","820751","0.0-1.0-733.0","0","0","60191","","null","","","null","81","","NaN","","","","","","","","","","","","","",""
"","response","","html-keyboard-response","543","822461","0.0-1.0-734.0-0.0","0","0","60191","","1708","","","68","81","","","2","81","training","adjacent","BA","2","1","L.jpg","N.jpg","0","0","1","",""
"","feedback","","html-keyboard-response","544","823466","0.0-1.0-735.0-0.0","0","0","60191","","null","","","null","81","","","","","","","","","","","","","","","",""
"","ITI","","html-keyboard-response","545","824469","0.0-1.0-738.0","0","0","60191","","null","","","null","81","","","","","","","","","","","","","","","NaN",""
"","S1","","html-keyboard-response","546","824625","0.0-1.0-740.0","0","0","60191","","null","","","null","82","","","","","","","","","","","","","","","",""
"","ISI","","html-keyboard-response","547","826629","0.0-1.0-741.0","0","0","60191","","null","","","null","82","NaN","","","","","","","","","","","","","","",""
"","S2","","html-keyboard-response","548","826781","0.0-1.0-742.0","0","0","60191","","null","","","null","82","","NaN","","","","","","","","","","","","","",""
"","response","","html-keyboard-response","549","827186","0.0-1.0-743.0-0.0","0","0","60191","","402","","","75","82","","","2","82","training","adjacent","CD","3","4","Q.jpg","R.jpg","1","1","1","",""
"","feedback","","html-keyboard-response","550","828191","0.0-1.0-744.0-0.0","0","0","60191","","null","","","null","82","","","","","","","","","","","","","","","",""
"","ITI","","html-keyboard-response","551","829194","0.0-1.0-747.0","0","0","60191","","null","","","null","82","","","","","","","","","","","","","","","NaN",""
"","S1","","html-keyboard-response","552","829345","0.0-1.0-749.0","0","0","60191","","null","","","null","83","","","","","","","","","","","","","","","",""
"","ISI","","html-keyboard-response","553","831348","0.0-1.0-750.0","0","0","60191","","null","","","null","83","NaN","","","","","","","","","","","","","","",""
"","S2","","html-keyboard-response","554","831499","0.0-1.0-751.0","0","0","60191","","null","","","null","83","","NaN","","","","","","","","","","","","","",""
"","response","","html-keyboard-response","555","832723","0.0-1.0-752.0-0.0","0","0","60191","","1222","","","68","83","","","2","83","training","adjacent","DC","4","3","R.jpg","Q.jpg","0","0","1","",""
"","feedback","","html-keyboard-response","556","833725","0.0-1.0-753.0-0.0","0","0","60191","","null","","","null","83","","","","","","","","","","","","","","","",""
"","ITI","","html-keyboard-response","557","834729","0.0-1.0-756.0","0","0","60191","","null","","","null","83","","","","","","","","","","","","","","","NaN",""
"","S1","","html-keyboard-response","558","834884","0.0-1.0-758.0","0","0","60191","","null","","","null","84","","","","","","","","","","","","","","","",""
"","ISI","","html-keyboard-response","559","836891","0.0-1.0-759.0","0","0","60191","","null","","","null","84","NaN","","","","","","","","","","","","","","",""
"","S2","","html-keyboard-response","560","837043","0.0-1.0-760.0","0","0","60191","","null","","","null","84","","NaN","","","","","","","","","","","","","",""
"","response","","html-keyboard-response","561","838578","0.0-1.0-761.0-0.0","0","0","60191","","1533","","","75","84","","","2","84","training","adjacent","BC","2","3","L.jpg","Q.jpg","1","1","1","",""
"","feedback","","html-keyboard-response","562","839582","0.0-1.0-762.0-0.0","0","0","60191","","null","","","null","84","","","","","","","","","","","","","","","",""
"","ITI","","html-keyboard-response","563","840587","0.0-1.0-765.0","0","0","60191","","null","","","null","84","","","","","","","","","","","","","","","NaN",""
"","S1","","html-keyboard-response","564","840739","0.0-1.0-767.0","0","0","60191","","null","","","null","85","","","","","","","","","","","","","","","",""
"","ISI","","html-keyboard-response","565","842741","0.0-1.0-768.0","0","0","60191","","null","","","null","85","NaN","","","","","","","","","","","","","","",""
"","S2","","html-keyboard-response","566","842893","0.0-1.0-769.0","0","0","60191","","null","","","null","85","","NaN","","","","","","","","","","","","","",""
"","response","","html-keyboard-response","567","843415","0.0-1.0-770.0-0.0","0","0","60191","","520","","","68","85","","","2","85","training","adjacent","FG","6","7","M.jpg","P.jpg","0","1","0","",""
"","feedback","","html-keyboard-response","568","844420","0.0-1.0-771.0-0.0","0","0","60191","","null","","","null","85","","","","","","","","","","","","","","","",""
"","time_out","","html-keyboard-response","569","846426","0.0-1.0-773.0-0.0","0","0","60191","","null","","","null","85","","","","","","","","","","","","","","","",""
"","ITI","","html-keyboard-response","570","847428","0.0-1.0-774.0","0","0","60191","","null","","","null","85","","","","","","","","","","","","","","","NaN",""
"","S1","","html-keyboard-response","571","847581","0.0-1.0-776.0","0","0","60191","","null","","","null","86","","","","","","","","","","","","","","","",""
"","ISI","","html-keyboard-response","572","849582","0.0-1.0-777.0","0","0","60191","","null","","","null","86","NaN","","","","","","","","","","","","","","",""
"","S2","","html-keyboard-response","573","849734","0.0-1.0-778.0","0","0","60191","","null","","","null","86","","NaN","","","","","","","","","","","","","",""
"","response","","html-keyboard-response","574","850184","0.0-1.0-779.0-0.0","0","0","60191","","445","","","75","86","","","2","86","training","adjacent","FG","6","7","M.jpg","P.jpg","1","1","1","",""
"","feedback","","html-keyboard-response","575","851190","0.0-1.0-780.0-0.0","0","0","60191","","null","","","null","86","","","","","","","","","","","","","","","",""
"","ITI","","html-keyboard-response","576","852192","0.0-1.0-783.0","0","0","60191","","null","","","null","86","","","","","","","","","","","","","","","NaN",""
"","S1","","html-keyboard-response","577","852346","0.0-1.0-785.0","0","0","60191","","null","","","null","87","","","","","","","","","","","","","","","",""
"","ISI","","html-keyboard-response","578","854348","0.0-1.0-786.0","0","0","60191","","null","","","null","87","NaN","","","","","","","","","","","","","","",""
"","S2","","html-keyboard-response","579","854501","0.0-1.0-787.0","0","0","60191","","null","","","null","87","","NaN","","","","","","","","","","","","","",""
"","response","","html-keyboard-response","580","854785","0.0-1.0-788.0-0.0","0","0","60191","","282","","","68","87","","","2","87","training","adjacent","EF","5","6","O.jpg","M.jpg","0","1","0","",""
