"success","ttype","start_time","trial_type","trial_index","time_elapsed","internal_node_id","warning","missed_checkup","PID","view_history","rt","responses","repeat_instructions","key_press","index","keypress_isi","keypress_S2","block","trial_num","phase","group_type","pair_type","S1_stim","S2_stim","S1_img","S2_img","S1_chosen","S1_higher","accuracy","keypress_iti","total_bonus_tally"
"true","full_screen","d03042023hr0137","fullscreen","0","3807","0.0-0.0","0","0","54712","","","","","","","","","","","","","","","","","","","","","",""
"","instructions","","instructions","1","29625","0.0-1.0-0.0-0.0","0","0","54712","[{""page_index"":0,""viewing_time"":7167},{""page_index"":1,""viewing_time"":15206},{""page_index"":2,""viewing_time"":2436},{""page_index"":3,""viewing_time"":1000}]","25811","","","","","","","","","","","","","","","","","","","",""
"","comprehension_check","","survey-multi-choice","2","53834","0.0-1.0-0.0-1.0","0","0","54712","","24194","{""Q0"":""True"",""Q1"":""D"",""Q2"":""Once the second image appears and while the screen 'MAKE A CHOICE' is shown"",""Q3"":""Green mark"",""Q4"":""either D or K""}","0","","","","","","","","","","","","","","","","","",""
"","start_exp","","html-keyboard-response","3","56299","0.0-1.0-1.0","0","0","54712","","2452","","","32","","","","","","","","","","","","","","","","",""
"","S1","","html-keyboard-response","4","56553","0.0-1.0-2.0","0","0","54712","","null","","","null","0","","","","","","","","","","","","","","","",""
"","ISI","","html-keyboard-response","5","57057","0.0-1.0-3.0","0","0","54712","","null","","","null","0","NaN","","","","","","","","","","","","","","",""
"","S2","","html-keyboard-response","6","57311","0.0-1.0-4.0","0","0","54712","","null","","","null","0","","NaN","","","","","","","","","","","","","",""
"","response","","html-keyboard-response","7","58684","0.0-1.0-5.0-0.0","0","0","54712","","1365","","","75","0","","","1","0","training","adjacent","FG","6","7","O.jpg","M.jpg","0","1","0","",""
"","feedback","","html-keyboard-response","8","59689","0.0-1.0-6.0-0.0","0","0","54712","","null","","","null","0","","","","","","","","","","","","","","","",""
"","time_out","","html-keyboard-response","9","61696","0.0-1.0-8.0-0.0","0","0","54712","","null","","","null","0","","","","","","","","","","","","","","","",""
"","ITI","","html-keyboard-response","10","62702","0.0-1.0-9.0","0","0","54712","","null","","","null","0","","","","","","","","","","","","","","","NaN",""
"","S1","","html-keyboard-response","11","62957","0.0-1.0-11.0","0","0","54712","","null","","","null","1","","","","","","","","","","","","","","","",""
"","ISI","","html-keyboard-response","12","63462","0.0-1.0-12.0","0","0","54712","","null","","","null","1","NaN","","","","","","","","","","","","","","",""
"","S2","","html-keyboard-response","13","63719","0.0-1.0-13.0","0","0","54712","","null","","","null","1","","NaN","","","","","","","","","","","","","",""
"","response","","html-keyboard-response","14","65474","0.0-1.0-14.0-0.0","0","0","54712","","null","","","null","1","","","1","1","training","adjacent","BA","2","1","R.jpg","L.jpg","NaN","0","0","",""
"","too_slow_prompt","","html-keyboard-response","15","66479","0.0-1.0-16.0-0.0","1","0","54712","","null","","","null","","","","","","","","","","","","","","","","",""
"","time_out","","html-keyboard-response","16","68498","0.0-1.0-17.0-0.0","0","0","54712","","null","","","null","1","","","","","","","","","","","","","","","",""
"","ITI","","html-keyboard-response","17","69501","0.0-1.0-18.0","0","0","54712","","null","","","null","1","","","","","","","","","","","","","","","NaN",""
"","S1","","html-keyboard-response","18","69754","0.0-1.0-20.0","0","0","54712","","null","","","null","2","","","","","","","","","","","","","","","",""
"","ISI","","html-keyboard-response","19","70258","0.0-1.0-21.0","0","0","54712","","null","","","null","2","NaN","","","","","","","","","","","","","","",""
"","S2","","html-keyboard-response","20","70514","0.0-1.0-22.0","0","0","54712","","null","","","null","2","","NaN","","","","","","","","","","","","","",""
"","response","","html-keyboard-response","21","70813","0.0-1.0-23.0-0.0","0","0","54712","","293","","","68","2","","","1","2","training","adjacent","CD","3","4","N.jpg","P.jpg","1","1","1","",""
"","feedback","","html-keyboard-response","22","71819","0.0-1.0-24.0-0.0","0","0","54712","","null","","","null","2","","","","","","","","","","","","","","","",""
"","ITI","","html-keyboard-response","23","72825","0.0-1.0-27.0","0","0","54712","","null","","","null","2","","","","","","","","","","","","","","","NaN",""
"","S1","","html-keyboard-response","24","73081","0.0-1.0-29.0","0","0","54712","","null","","","null","3","","","","","","","","","","","","","","","",""
"","ISI","","html-keyboard-response","25","73586","0.0-1.0-30.0","0","0","54712","","null","","","null","3","NaN","","","","","","","","","","","","","","",""
"","S2","","html-keyboard-response","26","73839","0.0-1.0-31.0","0","0","54712","","null","","","null","3","","NaN","","","","","","","","","","","","","",""
"","response","","html-keyboard-response","27","74403","0.0-1.0-32.0-0.0","0","0","54712","","559","","","68","3","","","1","3","training","adjacent","DE","4","5","P.jpg","Q.jpg","1","1","1","",""
"","feedback","","html-keyboard-response","28","75407","0.0-1.0-33.0-0.0","0","0","54712","","null","","","null","3","","","","","","","","","","","","","","","",""
"","ITI","","html-keyboard-response","29","76417","0.0-1.0-36.0","0","0","54712","","null","","","null","3","","","","","","","","","","","","","","","NaN",""
"","S1","","html-keyboard-response","30","76672","0.0-1.0-38.0","0","0","54712","","null","","","null","4","","","","","","","","","","","","","","","",""
"","ISI","","html-keyboard-response","31","77175","0.0-1.0-39.0","0","0","54712","","null","","","null","4","NaN","","","","","","","","","","","","","","",""
"","S2","","html-keyboard-response","32","77431","0.0-1.0-40.0","0","0","54712","","null","","","null","4","","NaN","","","","","","","","","","","","","",""
"","response","","html-keyboard-response","33","77865","0.0-1.0-41.0-0.0","0","0","54712","","427","","","68","4","","","1","4","training","adjacent","DE","4","5","P.jpg","Q.jpg","1","1","1","",""
"","feedback","","html-keyboard-response","34","78870","0.0-1.0-42.0-0.0","0","0","54712","","null","","","null","4","","","","","","","","","","","","","","","",""
"","ITI","","html-keyboard-response","35","79876","0.0-1.0-45.0","0","0","54712","","null","","","null","4","","","","","","","","","","","","","","","NaN",""
"","S1","","html-keyboard-response","36","80129","0.0-1.0-47.0","0","0","54712","","null","","","null","5","","","","","","","","","","","","","","","",""
"","ISI","","html-keyboard-response","37","80633","0.0-1.0-48.0","0","0","54712","","null","","","null","5","NaN","","","","","","","","","","","","","","",""
"","S2","","html-keyboard-response","38","80885","0.0-1.0-49.0","0","0","54712","","null","","","null","5","","NaN","","","","","","","","","","","","","",""
"","response","","html-keyboard-response","39","81214","0.0-1.0-50.0-0.0","0","0","54712","","319","","","75","5","","","1","5","training","adjacent","AB","1","2","L.jpg","R.jpg","0","1","0","",""
"","feedback","","html-keyboard-response","40","82219","0.0-1.0-51.0-0.0","0","0","54712","","null","","","null","5","","","","","","","","","","","","","","","",""
"","time_out","","html-keyboard-response","41","84226","0.0-1.0-53.0-0.0","0","0","54712","","null","","","null","5","","","","","","","","","","","","","","","",""
"","ITI","","html-keyboard-response","42","85231","0.0-1.0-54.0","0","0","54712","","null","","","null","5","","","","","","","","","","","","","","","NaN",""
"","S1","","html-keyboard-response","43","85486","0.0-1.0-56.0","0","0","54712","","null","","","null","6","","","","","","","","","","","","","","","",""
"","ISI","","html-keyboard-response","44","85990","0.0-1.0-57.0","0","0","54712","","null","","","null","6","NaN","","","","","","","","","","","","","","",""
"","S2","","html-keyboard-response","45","86246","0.0-1.0-58.0","0","0","54712","","null","","","null","6","","NaN","","","","","","","","","","","","","",""
"","response","","html-keyboard-response","46","86626","0.0-1.0-59.0-0.0","0","0","54712","","376","","","68","6","","","1","6","training","adjacent","DC","4","3","P.jpg","N.jpg","1","0","0","",""
"","feedback","","html-keyboard-response","47","87635","0.0-1.0-60.0-0.0","0","0","54712","","null","","","null","6","","","","","","","","","","","","","","","",""
"","time_out","","html-keyboard-response","48","89643","0.0-1.0-62.0-0.0","0","0","54712","","null","","","null","6","","","","","","","","","","","","","","","",""
"","ITI","","html-keyboard-response","49","90647","0.0-1.0-63.0","0","0","54712","","null","","","null","6","","","","","","","","","","","","","","","NaN",""
"","S1","","html-keyboard-response","50","90899","0.0-1.0-65.0","0","0","54712","","null","","","null","7","","","","","","","","","","","","","","","",""
"","ISI","","html-keyboard-response","51","91402","0.0-1.0-66.0","0","0","54712","","null","","","null","7","NaN","","","","","","","","","","","","","","",""
"","S2","","html-keyboard-response","52","91658","0.0-1.0-67.0","0","0","54712","","null","","","null","7","","NaN","","","","","","","","","","","","","",""
"","response","","html-keyboard-response","53","91838","0.0-1.0-68.0-0.0","0","0","54712","","175","","","75","7","","","1","7","training","adjacent","CB","3","2","N.jpg","R.jpg","0","0","1","",""
"","feedback","","html-keyboard-response","54","92843","0.0-1.0-69.0-0.0","0","0","54712","","null","","","null","7","","","","","","","","","","","","","","","",""
"","ITI","","html-keyboard-response","55","93848","0.0-1.0-72.0","0","0","54712","","null","","","null","7","","","","","","","","","","","","","","","NaN",""
"","S1","","html-keyboard-response","56","94103","0.0-1.0-74.0","0","0","54712","","null","","","null","8","","","","","","","","","","","","","","","",""
"","ISI","","html-keyboard-response","57","94610","0.0-1.0-75.0","0","0","54712","","null","","","null","8","NaN","","","","","","","","","","","","","","",""
"","S2","","html-keyboard-response","58","94867","0.0-1.0-76.0","0","0","54712","","null","","","null","8","","NaN","","","","","","","","","","","","","",""
"","response","","html-keyboard-response","59","95156","0.0-1.0-77.0-0.0","0","0","54712","","284","","","75","8","","","1","8","training","adjacent","EF","5","6","Q.jpg","O.jpg","0","1","0","",""
"","feedback","","html-keyboard-response","60","96161","0.0-1.0-78.0-0.0","0","0","54712","","null","","","null","8","","","","","","","","","","","","","","","",""
"","time_out","","html-keyboard-response","61","98168","0.0-1.0-80.0-0.0","0","0","54712","","null","","","null","8","","","","","","","","","","","","","","","",""
"","ITI","","html-keyboard-response","62","99173","0.0-1.0-81.0","0","0","54712","","null","","","null","8","","","","","","","","","","","","","","","NaN",""
"","S1","","html-keyboard-response","63","99426","0.0-1.0-83.0","0","0","54712","","null","","","null","9","","","","","","","","","","","","","","","",""
"","ISI","","html-keyboard-response","64","99930","0.0-1.0-84.0","0","0","54712","","null","","","null","9","NaN","","","","","","","","","","","","","","",""
"","S2","","html-keyboard-response","65","100185","0.0-1.0-85.0","0","0","54712","","null","","","null","9","","NaN","","","","","","","","","","","","","",""
"","response","","html-keyboard-response","66","100738","0.0-1.0-86.0-0.0","0","0","54712","","549","","","68","9","","","1","9","training","adjacent","EF","5","6","Q.jpg","O.jpg","1","1","1","",""
"","feedback","","html-keyboard-response","67","101744","0.0-1.0-87.0-0.0","0","0","54712","","null","","","null","9","","","","","","","","","","","","","","","",""
"","ITI","","html-keyboard-response","68","102747","0.0-1.0-90.0","0","0","54712","","null","","","null","9","","","","","","","","","","","","","","","NaN",""
"","S1","","html-keyboard-response","69","103000","0.0-1.0-92.0","0","0","54712","","null","","","null","10","","","","","","","","","","","","","","","",""
"","ISI","","html-keyboard-response","70","103504","0.0-1.0-93.0","0","0","54712","","null","","","null","10","NaN","","","","","","","","","","","","","","",""
"","S2","","html-keyboard-response","71","103761","0.0-1.0-94.0","0","0","54712","","null","","","null","10","","NaN","","","","","","","","","","","","","",""
"","response","","html-keyboard-response","72","104289","0.0-1.0-95.0-0.0","0","0","54712","","523","","","68","10","","","1","10","training","adjacent","BC","2","3","R.jpg","N.jpg","1","1","1","",""
"","feedback","","html-keyboard-response","73","105297","0.0-1.0-96.0-0.0","0","0","54712","","null","","","null","10","","","","","","","","","","","","","","","",""
"","ITI","","html-keyboard-response","74","106305","0.0-1.0-99.0","0","0","54712","","null","","","null","10","","","","","","","","","","","","","","","NaN",""
"","S1","","html-keyboard-response","75","106558","0.0-1.0-101.0","0","0","54712","","null","","","null","11","","","","","","","","","","","","","","","",""
"","ISI","","html-keyboard-response","76","107063","0.0-1.0-102.0","0","0","54712","","null","","","null","11","NaN","","","","","","","","","","","","","","",""
"","S2","","html-keyboard-response","77","107319","0.0-1.0-103.0","0","0","54712","","null","","","null","11","","NaN","","","","","","","","","","","","","",""
"","response","","html-keyboard-response","78","107571","0.0-1.0-104.0-0.0","0","0","54712","","246","","","75","11","","","1","11","training","adjacent","AB","1","2","L.jpg","R.jpg","0","1","0","",""
"","feedback","","html-keyboard-response","79","108575","0.0-1.0-105.0-0.0","0","0","54712","","null","","","null","11","","","","","","","","","","","","","","","",""
"","time_out","","html-keyboard-response","80","110581","0.0-1.0-107.0-0.0","0","0","54712","","null","","","null","11","","","","","","","","","","","","","","","",""
"","ITI","","html-keyboard-response","81","111585","0.0-1.0-108.0","0","0","54712","","null","","","null","11","","","","","","","","","","","","","","","NaN",""
"","S1","","html-keyboard-response","82","111838","0.0-1.0-110.0","0","0","54712","","null","","","null","12","","","","","","","","","","","","","","","",""
"","ISI","","html-keyboard-response","83","112341","0.0-1.0-111.0","0","0","54712","","null","","","null","12","NaN","","","","","","","","","","","","","","",""
"","S2","","html-keyboard-response","84","112596","0.0-1.0-112.0","0","0","54712","","null","","","null","12","","NaN","","","","","","","","","","","","","",""
"","response","","html-keyboard-response","85","113002","0.0-1.0-113.0-0.0","0","0","54712","","402","","","68","12","","","1","12","training","adjacent","CD","3","4","N.jpg","P.jpg","1","1","1","",""
"","feedback","","html-keyboard-response","86","114007","0.0-1.0-114.0-0.0","0","0","54712","","null","","","null","12","","","","","","","","","","","","","","","",""
"","ITI","","html-keyboard-response","87","115011","0.0-1.0-117.0","0","0","54712","","null","","","null","12","","","","","","","","","","","","","","","NaN",""
"","S1","","html-keyboard-response","88","115264","0.0-1.0-119.0","0","0","54712","","null","","","null","13","","","","","","","","","","","","","","","",""
"","ISI","","html-keyboard-response","89","115771","0.0-1.0-120.0","0","0","54712","","null","","","null","13","NaN","","","","","","","","","","","","","","",""
"","S2","","html-keyboard-response","90","116027","0.0-1.0-121.0","0","0","54712","","null","","","null","13","","NaN","","","","","","","","","","","","","",""
"","response","","html-keyboard-response","91","116280","0.0-1.0-122.0-0.0","0","0","54712","","248","","","75","13","","","1","13","training","adjacent","FE","6","5","O.jpg","Q.jpg","0","0","1","",""
"","feedback","","html-keyboard-response","92","117284","0.0-1.0-123.0-0.0","0","0","54712","","null","","","null","13","","","","","","","","","","","","","","","",""
"","ITI","","html-keyboard-response","93","118289","0.0-1.0-126.0","0","0","54712","","null","","","null","13","","","","","","","","","","","","","","","NaN",""
"","S1","","html-keyboard-response","94","118544","0.0-1.0-128.0","0","0","54712","","null","","","null","14","","","","","","","","","","","","","","","",""
"","ISI","","html-keyboard-response","95","119049","0.0-1.0-129.0","0","0","54712","","null","","","null","14","NaN","","","","","","","","","","","","","","",""
"","S2","","html-keyboard-response","96","119303","0.0-1.0-130.0","0","0","54712","","null","","","null","14","","NaN","","","","","","","","","","","","","",""
"","response","","html-keyboard-response","97","119688","0.0-1.0-131.0-0.0","0","0","54712","","381","","","75","14","","","1","14","training","adjacent","EF","5","6","Q.jpg","O.jpg","0","1","0","",""
"","feedback","","html-keyboard-response","98","120695","0.0-1.0-132.0-0.0","0","0","54712","","null","","","null","14","","","","","","","","","","","","","","","",""
"","time_out","","html-keyboard-response","99","122699","0.0-1.0-134.0-0.0","0","0","54712","","null","","","null","14","","","","","","","","","","","","","","","",""
"","ITI","","html-keyboard-response","100","123704","0.0-1.0-135.0","0","0","54712","","null","","","null","14","","","","","","","","","","","","","","","NaN",""
"","S1","","html-keyboard-response","101","123960","0.0-1.0-137.0","0","0","54712","","null","","","null","15","","","","","","","","","","","","","","","",""
"","ISI","","html-keyboard-response","102","124481","0.0-1.0-138.0","0","0","54712","","null","","","null","15","NaN","","","","","","","","","","","","","","",""
"","S2","","html-keyboard-response","103","124739","0.0-1.0-139.0","0","0","54712","","null","","","null","15","","NaN","","","","","","","","","","","","","",""
"","response","","html-keyboard-response","104","125154","0.0-1.0-140.0-0.0","0","0","54712","","410","","","68","15","","","1","15","training","adjacent","GF","7","6","M.jpg","O.jpg","1","0","0","",""
"","feedback","","html-keyboard-response","105","126159","0.0-1.0-141.0-0.0","0","0","54712","","null","","","null","15","","","","","","","","","","","","","","","",""
"","time_out","","html-keyboard-response","106","128168","0.0-1.0-143.0-0.0","0","0","54712","","null","","","null","15","","","","","","","","","","","","","","","",""
"","ITI","","html-keyboard-response","107","129176","0.0-1.0-144.0","0","0","54712","","null","","","null","15","","","","","","","","","","","","","","","NaN",""
"","S1","","html-keyboard-response","108","129430","0.0-1.0-146.0","0","0","54712","","null","","","null","16","","","","","","","","","","","","","","","",""
"","ISI","","html-keyboard-response","109","129934","0.0-1.0-147.0","0","0","54712","","null","","","null","16","NaN","","","","","","","","","","","","","","",""
"","S2","","html-keyboard-response","110","130192","0.0-1.0-148.0","0","0","54712","","null","","","null","16","","NaN","","","","","","","","","","","","","",""
"","response","","html-keyboard-response","111","130276","0.0-1.0-149.0-0.0","0","0","54712","","78","","","75","16","","","1","16","training","adjacent","FG","6","7","O.jpg","M.jpg","0","1","0","",""
"","feedback","","html-keyboard-response","112","131281","0.0-1.0-150.0-0.0","0","0","54712","","null","","","null","16","","","","","","","","","","","","","","","",""
"","time_out","","html-keyboard-response","113","133287","0.0-1.0-152.0-0.0","0","0","54712","","null","","","null","16","","","","","","","","","","","","","","","",""
"","ITI","","html-keyboard-response","114","134290","0.0-1.0-153.0","0","0","54712","","null","","","null","16","","","","","","","","","","","","","","","NaN",""
"","S1","","html-keyboard-response","115","134551","0.0-1.0-155.0","0","0","54712","","null","","","null","17","","","","","","","","","","","","","","","",""
"","ISI","","html-keyboard-response","116","135054","0.0-1.0-156.0","0","0","54712","","null","","","null","17","NaN","","","","","","","","","","","","","","",""
"","S2","","html-keyboard-response","117","135307","0.0-1.0-157.0","0","0","54712","","null","","","null","17","","NaN","","","","","","","","","","","","","",""
"","response","","html-keyboard-response","118","135805","0.0-1.0-158.0-0.0","0","0","54712","","493","","","68","17","","","1","17","training","adjacent","GF","7","6","M.jpg","O.jpg","1","0","0","",""
"","feedback","","html-keyboard-response","119","136810","0.0-1.0-159.0-0.0","0","0","54712","","null","","","null","17","","","","","","","","","","","","","","","",""
"","time_out","","html-keyboard-response","120","138818","0.0-1.0-161.0-0.0","0","0","54712","","null","","","null","17","","","","","","","","","","","","","","","",""
"","ITI","","html-keyboard-response","121","139824","0.0-1.0-162.0","0","0","54712","","null","","","null","17","","","","","","","","","","","","","","","NaN",""
"","S1","","html-keyboard-response","122","140079","0.0-1.0-164.0","0","0","54712","","null","","","null","18","","","","","","","","","","","","","","","",""
"","ISI","","html-keyboard-response","123","140584","0.0-1.0-165.0","0","0","54712","","null","","","null","18","NaN","","","","","","","","","","","","","","",""
"","S2","","html-keyboard-response","124","140842","0.0-1.0-166.0","0","0","54712","","null","","","null","18","","NaN","","","","","","","","","","","","","",""
"","response","","html-keyboard-response","125","141140","0.0-1.0-167.0-0.0","0","0","54712","","293","","","75","18","","","1","18","training","adjacent","BA","2","1","R.jpg","L.jpg","0","0","1","",""
"","feedback","","html-keyboard-response","126","142145","0.0-1.0-168.0-0.0","0","0","54712","","null","","","null","18","","","","","","","","","","","","","","","",""
"","ITI","","html-keyboard-response","127","143149","0.0-1.0-171.0","0","0","54712","","null","","","null","18","","","","","","","","","","","","","","","NaN",""
"","S1","","html-keyboard-response","128","143402","0.0-1.0-173.0","0","0","54712","","null","","","null","19","","","","","","","","","","","","","","","",""
"","ISI","","html-keyboard-response","129","143905","0.0-1.0-174.0","0","0","54712","","null","","","null","19","NaN","","","","","","","","","","","","","","",""
"","S2","","html-keyboard-response","130","144161","0.0-1.0-175.0","0","0","54712","","null","","","null","19","","NaN","","","","","","","","","","","","","",""
"","response","","html-keyboard-response","131","144488","0.0-1.0-176.0-0.0","0","0","54712","","323","","","75","19","","","1","19","training","adjacent","FE","6","5","O.jpg","Q.jpg","0","0","1","",""
"","feedback","","html-keyboard-response","132","145493","0.0-1.0-177.0-0.0","0","0","54712","","null","","","null","19","","","","","","","","","","","","","","","",""
"","ITI","","html-keyboard-response","133","146496","0.0-1.0-180.0","0","0","54712","","null","","","null","19","","","","","","","","","","","","","","","NaN",""
"","S1","","html-keyboard-response","134","146761","0.0-1.0-182.0","0","0","54712","","null","","","null","20","","","","","","","","","","","","","","","",""
"","ISI","","html-keyboard-response","135","147266","0.0-1.0-183.0","0","0","54712","","null","","","null","20","NaN","","","","","","","","","","","","","","",""
"","S2","","html-keyboard-response","136","147518","0.0-1.0-184.0","0","0","54712","","null","","","null","20","","NaN","","","","","","","","","","","","","",""
"","response","","html-keyboard-response","137","147732","0.0-1.0-185.0-0.0","0","0","54712","","210","","","75","20","","","1","20","training","adjacent","CB","3","2","N.jpg","R.jpg","0","0","1","",""
"","feedback","","html-keyboard-response","138","148738","0.0-1.0-186.0-0.0","0","0","54712","","null","","","null","20","","","","","","","","","","","","","","","",""
"","ITI","","html-keyboard-response","139","149743","0.0-1.0-189.0","0","0","54712","","null","","","null","20","","","","","","","","","","","","","","","NaN",""
"","S1","","html-keyboard-response","140","149997","0.0-1.0-191.0","0","0","54712","","null","","","null","21","","","","","","","","","","","","","","","",""
"","ISI","","html-keyboard-response","141","150500","0.0-1.0-192.0","0","0","54712","","null","","","null","21","NaN","","","","","","","","","","","","","","",""
"","S2","","html-keyboard-response","142","150754","0.0-1.0-193.0","0","0","54712","","null","","","null","21","","NaN","","","","","","","","","","","","","",""
"","response","","html-keyboard-response","143","151180","0.0-1.0-194.0-0.0","0","0","54712","","422","","","68","21","","","1","21","training","adjacent","DE","4","5","P.jpg","Q.jpg","1","1","1","",""
"","feedback","","html-keyboard-response","144","152183","0.0-1.0-195.0-0.0","0","0","54712","","null","","","null","21","","","","","","","","","","","","","","","",""
"","ITI","","html-keyboard-response","145","153188","0.0-1.0-198.0","0","0","54712","","null","","","null","21","","","","","","","","","","","","","","","NaN",""
"","S1","","html-keyboard-response","146","153441","0.0-1.0-200.0","0","0","54712","","null","","","null","22","","","","","","","","","","","","","","","",""
"","ISI","","html-keyboard-response","147","153948","0.0-1.0-201.0","0","0","54712","","null","","","null","22","NaN","","","","","","","","","","","","","","",""
"","S2","","html-keyboard-response","148","154203","0.0-1.0-202.0","0","0","54712","","null","","","null","22","","NaN","","","","","","","","","","","","","",""
"","response","","html-keyboard-response","149","154515","0.0-1.0-203.0-0.0","0","0","54712","","306","","","68","22","","","1","22","training","adjacent","ED","5","4","Q.jpg","P.jpg","1","0","0","",""
"","feedback","","html-keyboard-response","150","155520","0.0-1.0-204.0-0.0","0","0","54712","","null","","","null","22","","","","","","","","","","","","","","","",""
"","time_out","","html-keyboard-response","151","157525","0.0-1.0-206.0-0.0","0","0","54712","","null","","","null","22","","","","","","","","","","","","","","","",""
"","ITI","","html-keyboard-response","152","158531","0.0-1.0-207.0","0","0","54712","","null","","","null","22","","","","","","","","","","","","","","","NaN",""
"","S1","","html-keyboard-response","153","158786","0.0-1.0-209.0","0","0","54712","","null","","","null","23","","","","","","","","","","","","","","","",""
"","ISI","","html-keyboard-response","154","159288","0.0-1.0-210.0","0","0","54712","","null","","","null","23","NaN","","","","","","","","","","","","","","",""
"","S2","","html-keyboard-response","155","159550","0.0-1.0-211.0","0","0","54712","","null","","","null","23","","NaN","","","","","","","","","","","","","",""
"","response","","html-keyboard-response","156","159665","0.0-1.0-212.0-0.0","0","0","54712","","112","","","75","23","","","1","23","training","adjacent","FG","6","7","O.jpg","M.jpg","0","1","0","",""
"","feedback","","html-keyboard-response","157","160670","0.0-1.0-213.0-0.0","0","0","54712","","null","","","null","23","","","","","","","","","","","","","","","",""
"","time_out","","html-keyboard-response","158","162674","0.0-1.0-215.0-0.0","0","0","54712","","null","","","null","23","","","","","","","","","","","","","","","",""
"","ITI","","html-keyboard-response","159","163680","0.0-1.0-216.0","0","0","54712","","null","","","null","23","","","","","","","","","","","","","","","NaN",""
"","S1","","html-keyboard-response","160","163935","0.0-1.0-218.0","0","0","54712","","null","","","null","24","","","","","","","","","","","","","","","",""
"","ISI","","html-keyboard-response","161","164439","0.0-1.0-219.0","0","0","54712","","null","","","null","24","NaN","","","","","","","","","","","","","","",""
"","S2","","html-keyboard-response","162","164694","0.0-1.0-220.0","0","0","54712","","null","","","null","24","","NaN","","","","","","","","","","","","","",""
"","response","","html-keyboard-response","163","164878","0.0-1.0-221.0-0.0","0","0","54712","","179","","","68","24","","","1","24","training","adjacent","DC","4","3","P.jpg","N.jpg","1","0","0","",""
"","feedback","","html-keyboard-response","164","165886","0.0-1.0-222.0-0.0","0","0","54712","","null","","","null","24","","","","","","","","","","","","","","","",""
"","time_out","","html-keyboard-response","165","167893","0.0-1.0-224.0-0.0","0","0","54712","","null","","","null","24","","","","","","","","","","","","","","","",""
"","ITI","","html-keyboard-response","166","168897","0.0-1.0-225.0","0","0","54712","","null","","","null","24","","","","","","","","","","","","","","","NaN",""
"","S1","","html-keyboard-response","167","169150","0.0-1.0-227.0","0","0","54712","","null","","","null","25","","","","","","","","","","","","","","","",""
"","ISI","","html-keyboard-response","168","169655","0.0-1.0-228.0","0","0","54712","","null","","","null","25","NaN","","","","","","","","","","","","","","",""
"","S2","","html-keyboard-response","169","169911","0.0-1.0-229.0","0","0","54712","","null","","","null","25","","NaN","","","","","","","","","","","","","",""
"","response","","html-keyboard-response","170","170331","0.0-1.0-230.0-0.0","0","0","54712","","417","","","75","25","","","1","25","training","adjacent","FE","6","5","O.jpg","Q.jpg","0","0","1","",""
"","feedback","","html-keyboard-response","171","171335","0.0-1.0-231.0-0.0","0","0","54712","","null","","","null","25","","","","","","","","","","","","","","","",""
"","ITI","","html-keyboard-response","172","172342","0.0-1.0-234.0","0","0","54712","","null","","","null","25","","","","","","","","","","","","","","","NaN",""
"","S1","","html-keyboard-response","173","172597","0.0-1.0-236.0","0","0","54712","","null","","","null","26","","","","","","","","","","","","","","","",""
"","ISI","","html-keyboard-response","174","173101","0.0-1.0-237.0","0","0","54712","","null","","","null","26","NaN","","","","","","","","","","","","","","",""
"","S2","","html-keyboard-response","175","173357","0.0-1.0-238.0","0","0","54712","","null","","","null","26","","NaN","","","","","","","","","","","","","",""
"","response","","html-keyboard-response","176","174058","0.0-1.0-239.0-0.0","0","0","54712","","696","","","68","26","","","1","26","training","adjacent","CB","3","2","N.jpg","R.jpg","1","0","0","",""
"","feedback","","html-keyboard-response","177","175065","0.0-1.0-240.0-0.0","0","0","54712","","null","","","null","26","","","","","","","","","","","","","","","",""
"","time_out","","html-keyboard-response","178","177070","0.0-1.0-242.0-0.0","0","0","54712","","null","","","null","26","","","","","","","","","","","","","","","",""
"","ITI","","html-keyboard-response","179","178075","0.0-1.0-243.0","0","0","54712","","null","","","null","26","","","","","","","","","","","","","","","NaN",""
"","S1","","html-keyboard-response","180","178342","0.0-1.0-245.0","0","0","54712","","null","","","null","27","","","","","","","","","","","","","","","",""
"","ISI","","html-keyboard-response","181","178847","0.0-1.0-246.0","0","0","54712","","null","","","null","27","NaN","","","","","","","","","","","","","","",""
"","S2","","html-keyboard-response","182","179103","0.0-1.0-247.0","0","0","54712","","null","","","null","27","","NaN","","","","","","","","","","","","","",""
"","response","","html-keyboard-response","183","179467","0.0-1.0-248.0-0.0","0","0","54712","","360","","","68","27","","","1","27","training","adjacent","BC","2","3","R.jpg","N.jpg","1","1","1","",""
"","feedback","","html-keyboard-response","184","180473","0.0-1.0-249.0-0.0","0","0","54712","","null","","","null","27","","","","","","","","","","","","","","","",""
"","ITI","","html-keyboard-response","185","181480","0.0-1.0-252.0","0","0","54712","","null","","","null","27","","","","","","","","","","","","","","","NaN",""
"","S1","","html-keyboard-response","186","181735","0.0-1.0-254.0","0","0","54712","","null","","","null","28","","","","","","","","","","","","","","","",""
"","ISI","","html-keyboard-response","187","182238","0.0-1.0-255.0","0","0","54712","","null","","","null","28","NaN","","","","","","","","","","","","","","",""
"","S2","","html-keyboard-response","188","182496","0.0-1.0-256.0","0","0","54712","","null","","","null","28","","NaN","","","","","","","","","","","","","",""
"","response","","html-keyboard-response","189","182819","0.0-1.0-257.0-0.0","0","0","54712","","318","","","68","28","","","1","28","training","adjacent","FE","6","5","O.jpg","Q.jpg","1","0","0","",""
"","feedback","","html-keyboard-response","190","183827","0.0-1.0-258.0-0.0","0","0","54712","","null","","","null","28","","","","","","","","","","","","","","","",""
"","time_out","","html-keyboard-response","191","185832","0.0-1.0-260.0-0.0","0","0","54712","","null","","","null","28","","","","","","","","","","","","","","","",""
"","ITI","","html-keyboard-response","192","186836","0.0-1.0-261.0","0","0","54712","","null","","","null","28","","","","","","","","","","","","","","","NaN",""
"","S1","","html-keyboard-response","193","187092","0.0-1.0-263.0","0","0","54712","","null","","","null","29","","","","","","","","","","","","","","","",""
"","ISI","","html-keyboard-response","194","187596","0.0-1.0-264.0","0","0","54712","","null","","","null","29","NaN","","","","","","","","","","","","","","",""
"","S2","","html-keyboard-response","195","187851","0.0-1.0-265.0","0","0","54712","","null","","","null","29","","NaN","","","","","","","","","","","","","",""
"","response","","html-keyboard-response","196","187973","0.0-1.0-266.0-0.0","0","0","54712","","114","","","75","29","","","1","29","training","adjacent","CB","3","2","N.jpg","R.jpg","0","0","1","",""
"","feedback","","html-keyboard-response","197","188976","0.0-1.0-267.0-0.0","0","0","54712","","null","","","null","29","","","","","","","","","","","","","","","",""
"","ITI","","html-keyboard-response","198","189980","0.0-1.0-270.0","0","0","54712","","null","","","null","29","","","","","","","","","","","","","","","NaN",""
"","S1","","html-keyboard-response","199","190234","0.0-1.0-272.0","0","0","54712","","null","","","null","30","","","","","","","","","","","","","","","",""
"","ISI","","html-keyboard-response","200","190736","0.0-1.0-273.0","0","0","54712","","null","","","null","30","NaN","","","","","","","","","","","","","","",""
"","S2","","html-keyboard-response","201","190990","0.0-1.0-274.0","0","0","54712","","null","","","null","30","","NaN","","","","","","","","","","","","","",""
"","response","","html-keyboard-response","202","191156","0.0-1.0-275.0-0.0","0","0","54712","","162","","","75","30","","","1","30","training","adjacent","CD","3","4","N.jpg","P.jpg","0","1","0","",""
"","feedback","","html-keyboard-response","203","192161","0.0-1.0-276.0-0.0","0","0","54712","","null","","","null","30","","","","","","","","","","","","","","","",""
"","time_out","","html-keyboard-response","204","194170","0.0-1.0-278.0-0.0","0","0","54712","","null","","","null","30","","","","","","","","","","","","","","","",""
"","ITI","","html-keyboard-response","205","195174","0.0-1.0-279.0","0","0","54712","","null","","","null","30","","","","","","","","","","","","","","","NaN",""
"","S1","","html-keyboard-response","206","195432","0.0-1.0-281.0","0","0","54712","","null","","","null","31","","","","","","","","","","","","","","","",""
"","ISI","","html-keyboard-response","207","195936","0.0-1.0-282.0","0","0","54712","","193","","","68","31","d","","","","","","","","","","","","","","",""
"","S2","","html-keyboard-response","208","196192","0.0-1.0-283.0","0","0","54712","","null","","","null","31","","NaN","","","","","","","","","","","","","",""
"","response","","html-keyboard-response","209","196816","0.0-1.0-284.0-0.0","0","0","54712","","620","","","68","31","","","1","31","training","adjacent","GF","7","6","M.jpg","O.jpg","1","0","0","",""
"","feedback","","html-keyboard-response","210","197821","0.0-1.0-285.0-0.0","0","0","54712","","null","","","null","31","","","","","","","","","","","","","","","",""
"","time_out","","html-keyboard-response","211","199827","0.0-1.0-287.0-0.0","0","0","54712","","null","","","null","31","","","","","","","","","","","","","","","",""
"","ITI","","html-keyboard-response","212","200832","0.0-1.0-288.0","0","0","54712","","null","","","null","31","","","","","","","","","","","","","","","NaN",""
"","S1","","html-keyboard-response","213","201087","0.0-1.0-290.0","0","0","54712","","null","","","null","32","","","","","","","","","","","","","","","",""
"","ISI","","html-keyboard-response","214","201592","0.0-1.0-291.0","0","0","54712","","null","","","null","32","NaN","","","","","","","","","","","","","","",""
"","S2","","html-keyboard-response","215","201849","0.0-1.0-292.0","0","0","54712","","null","","","null","32","","NaN","","","","","","","","","","","","","",""
"","response","","html-keyboard-response","216","202104","0.0-1.0-293.0-0.0","0","0","54712","","252","","","75","32","","","1","32","training","adjacent","ED","5","4","Q.jpg","P.jpg","0","0","1","",""
"","feedback","","html-keyboard-response","217","203109","0.0-1.0-294.0-0.0","0","0","54712","","null","","","null","32","","","","","","","","","","","","","","","",""
"","ITI","","html-keyboard-response","218","204112","0.0-1.0-297.0","0","0","54712","","null","","","null","32","","","","","","","","","","","","","","","NaN",""
"","S1","","html-keyboard-response","219","204368","0.0-1.0-299.0","0","0","54712","","null","","","null","33","","","","","","","","","","","","","","","",""
"","ISI","","html-keyboard-response","220","204872","0.0-1.0-300.0","0","0","54712","","null","","","null","33","NaN","","","","","","","","","","","","","","",""
"","S2","","html-keyboard-response","221","205126","0.0-1.0-301.0","0","0","54712","","null","","","null","33","","NaN","","","","","","","","","","","","","",""
"","response","","html-keyboard-response","222","205508","0.0-1.0-302.0-0.0","0","0","54712","","376","","","75","33","","","1","33","training","adjacent","FG","6","7","O.jpg","M.jpg","0","1","0","",""
"","feedback","","html-keyboard-response","223","206514","0.0-1.0-303.0-0.0","0","0","54712","","null","","","null","33","","","","","","","","","","","","","","","",""
"","time_out","","html-keyboard-response","224","208519","0.0-1.0-305.0-0.0","0","0","54712","","null","","","null","33","","","","","","","","","","","","","","","",""
"","ITI","","html-keyboard-response","225","209523","0.0-1.0-306.0","0","0","54712","","null","","","null","33","","","","","","","","","","","","","","","NaN",""
"","S1","","html-keyboard-response","226","209776","0.0-1.0-308.0","0","0","54712","","null","","","null","34","","","","","","","","","","","","","","","",""
"","ISI","","html-keyboard-response","227","210280","0.0-1.0-309.0","0","0","54712","","null","","","null","34","NaN","","","","","","","","","","","","","","",""
"","S2","","html-keyboard-response","228","210534","0.0-1.0-310.0","0","0","54712","","null","","","null","34","","NaN","","","","","","","","","","","","","",""
"","response","","html-keyboard-response","229","210977","0.0-1.0-311.0-0.0","0","0","54712","","440","","","75","34","","","1","34","training","adjacent","CD","3","4","N.jpg","P.jpg","0","1","0","",""
"","feedback","","html-keyboard-response","230","211982","0.0-1.0-312.0-0.0","0","0","54712","","null","","","null","34","","","","","","","","","","","","","","","",""
"","time_out","","html-keyboard-response","231","213989","0.0-1.0-314.0-0.0","0","0","54712","","null","","","null","34","","","","","","","","","","","","","","","",""
"","ITI","","html-keyboard-response","232","214994","0.0-1.0-315.0","0","0","54712","","null","","","null","34","","","","","","","","","","","","","","","NaN",""
"","S1","","html-keyboard-response","233","215251","0.0-1.0-317.0","0","0","54712","","null","","","null","35","","","","","","","","","","","","","","","",""
"","ISI","","html-keyboard-response","234","215754","0.0-1.0-318.0","0","0","54712","","null","","","null","35","NaN","","","","","","","","","","","","","","",""
"","S2","","html-keyboard-response","235","216011","0.0-1.0-319.0","0","0","54712","","null","","","null","35","","NaN","","","","","","","","","","","","","",""
"","response","","html-keyboard-response","236","216306","0.0-1.0-320.0-0.0","0","0","54712","","292","","","68","35","","","1","35","training","adjacent","DC","4","3","P.jpg","N.jpg","1","0","0","",""
"","feedback","","html-keyboard-response","237","217309","0.0-1.0-321.0-0.0","0","0","54712","","null","","","null","35","","","","","","","","","","","","","","","",""
"","time_out","","html-keyboard-response","238","219315","0.0-1.0-323.0-0.0","0","0","54712","","null","","","null","35","","","","","","","","","","","","","","","",""
"","ITI","","html-keyboard-response","239","220319","0.0-1.0-324.0","0","0","54712","","null","","","null","35","","","","","","","","","","","","","","","NaN",""
"","S1","","html-keyboard-response","240","220573","0.0-1.0-326.0","0","0","54712","","null","","","null","36","","","","","","","","","","","","","","","",""
"","ISI","","html-keyboard-response","241","221079","0.0-1.0-327.0","0","0","54712","","null","","","null","36","NaN","","","","","","","","","","","","","","",""
"","S2","","html-keyboard-response","242","221333","0.0-1.0-328.0","0","0","54712","","null","","","null","36","","NaN","","","","","","","","","","","","","",""
"","response","","html-keyboard-response","243","221784","0.0-1.0-329.0-0.0","0","0","54712","","444","","","68","36","","","1","36","training","adjacent","BA","2","1","R.jpg","L.jpg","1","0","0","",""
"","feedback","","html-keyboard-response","244","222790","0.0-1.0-330.0-0.0","0","0","54712","","null","","","null","36","","","","","","","","","","","","","","","",""
"","time_out","","html-keyboard-response","245","224795","0.0-1.0-332.0-0.0","0","0","54712","","null","","","null","36","","","","","","","","","","","","","","","",""
"","ITI","","html-keyboard-response","246","225802","0.0-1.0-333.0","0","0","54712","","null","","","null","36","","","","","","","","","","","","","","","NaN",""
"","S1","","html-keyboard-response","247","226057","0.0-1.0-335.0","0","0","54712","","null","","","null","37","","","","","","","","","","","","","","","",""
"","ISI","","html-keyboard-response","248","226560","0.0-1.0-336.0","0","0","54712","","null","","","null","37","NaN","","","","","","","","","","","","","","",""
"","S2","","html-keyboard-response","249","226815","0.0-1.0-337.0","0","0","54712","","null","","","null","37","","NaN","","","","","","","","","","","","","",""
"","response","","html-keyboard-response","250","227292","0.0-1.0-338.0-0.0","0","0","54712","","473","","","75","37","","","1","37","training","adjacent","DC","4","3","P.jpg","N.jpg","0","0","1","",""
"","feedback","","html-keyboard-response","251","228297","0.0-1.0-339.0-0.0","0","0","54712","","null","","","null","37","","","","","","","","","","","","","","","",""
"","ITI","","html-keyboard-response","252","229303","0.0-1.0-342.0","0","0","54712","","null","","","null","37","","","","","","","","","","","","","","","NaN",""
"","S1","","html-keyboard-response","253","229560","0.0-1.0-344.0","0","0","54712","","null","","","null","38","","","","","","","","","","","","","","","",""
"","ISI","","html-keyboard-response","254","230067","0.0-1.0-345.0","0","0","54712","","null","","","null","38","NaN","","","","","","","","","","","","","","",""
"","S2","","html-keyboard-response","255","230321","0.0-1.0-346.0","0","0","54712","","null","","","null","38","","NaN","","","","","","","","","","","","","",""
"","response","","html-keyboard-response","256","230796","0.0-1.0-347.0-0.0","0","0","54712","","470","","","75","38","","","1","38","training","adjacent","GF","7","6","M.jpg","O.jpg","0","0","1","",""
"","feedback","","html-keyboard-response","257","231800","0.0-1.0-348.0-0.0","0","0","54712","","null","","","null","38","","","","","","","","","","","","","","","",""
"","ITI","","html-keyboard-response","258","232813","0.0-1.0-351.0","0","0","54712","","null","","","null","38","","","","","","","","","","","","","","","NaN",""
"","S1","","html-keyboard-response","259","233065","0.0-1.0-353.0","0","0","54712","","null","","","null","39","","","","","","","","","","","","","","","",""
"","ISI","","html-keyboard-response","260","233568","0.0-1.0-354.0","0","0","54712","","null","","","null","39","NaN","","","","","","","","","","","","","","",""
"","S2","","html-keyboard-response","261","233823","0.0-1.0-355.0","0","0","54712","","null","","","null","39","","NaN","","","","","","","","","","","","","",""
"","response","","html-keyboard-response","262","234031","0.0-1.0-356.0-0.0","0","0","54712","","202","","","75","39","","","1","39","training","adjacent","BA","2","1","R.jpg","L.jpg","0","0","1","",""
"","feedback","","html-keyboard-response","263","235036","0.0-1.0-357.0-0.0","0","0","54712","","null","","","null","39","","","","","","","","","","","","","","","",""
"","ITI","","html-keyboard-response","264","236040","0.0-1.0-360.0","0","0","54712","","null","","","null","39","","","","","","","","","","","","","","","NaN",""
"","S1","","html-keyboard-response","265","236295","0.0-1.0-362.0","0","0","54712","","null","","","null","40","","","","","","","","","","","","","","","",""
"","ISI","","html-keyboard-response","266","236798","0.0-1.0-363.0","0","0","54712","","null","","","null","40","NaN","","","","","","","","","","","","","","",""
"","S2","","html-keyboard-response","267","237055","0.0-1.0-364.0","0","0","54712","","null","","","null","40","","NaN","","","","","","","","","","","","","",""
"","response","","html-keyboard-response","268","237706","0.0-1.0-365.0-0.0","0","0","54712","","646","","","68","40","","","1","40","training","adjacent","AB","1","2","L.jpg","R.jpg","1","1","1","",""
"","feedback","","html-keyboard-response","269","238710","0.0-1.0-366.0-0.0","0","0","54712","","null","","","null","40","","","","","","","","","","","","","","","",""
"","ITI","","html-keyboard-response","270","239713","0.0-1.0-369.0","0","0","54712","","null","","","null","40","","","","","","","","","","","","","","","NaN",""
"","S1","","html-keyboard-response","271","239965","0.0-1.0-371.0","0","0","54712","","null","","","null","41","","","","","","","","","","","","","","","",""
"","ISI","","html-keyboard-response","272","240499","0.0-1.0-372.0","0","0","54712","","null","","","null","41","NaN","","","","","","","","","","","","","","",""
"","S2","","html-keyboard-response","273","240755","0.0-1.0-373.0","0","0","54712","","null","","","null","41","","NaN","","","","","","","","","","","","","",""
"","response","","html-keyboard-response","274","241406","0.0-1.0-374.0-0.0","0","0","54712","","645","","","68","41","","","1","41","training","adjacent","ED","5","4","Q.jpg","P.jpg","1","0","0","",""
"","feedback","","html-keyboard-response","275","242411","0.0-1.0-375.0-0.0","0","0","54712","","null","","","null","41","","","","","","","","","","","","","","","",""
"","time_out","","html-keyboard-response","276","244418","0.0-1.0-377.0-0.0","0","0","54712","","null","","","null","41","","","","","","","","","","","","","","","",""
"","ITI","","html-keyboard-response","277","245423","0.0-1.0-378.0","0","0","54712","","null","","","null","41","","","","","","","","","","","","","","","NaN",""
"","S1","","html-keyboard-response","278","245678","0.0-1.0-380.0","0","0","54712","","null","","","null","42","","","","","","","","","","","","","","","",""
"","ISI","","html-keyboard-response","279","246182","0.0-1.0-381.0","0","0","54712","","null","","","null","42","NaN","","","","","","","","","","","","","","",""
"","S2","","html-keyboard-response","280","246439","0.0-1.0-382.0","0","0","54712","","null","","","null","42","","NaN","","","","","","","","","","","","","",""
"","response","","html-keyboard-response","281","246661","0.0-1.0-383.0-0.0","0","0","54712","","217","","","75","42","","","1","42","training","adjacent","BC","2","3","R.jpg","N.jpg","0","1","0","",""
"","feedback","","html-keyboard-response","282","247665","0.0-1.0-384.0-0.0","0","0","54712","","null","","","null","42","","","","","","","","","","","","","","","",""
"","time_out","","html-keyboard-response","283","249670","0.0-1.0-386.0-0.0","0","0","54712","","null","","","null","42","","","","","","","","","","","","","","","",""
"","ITI","","html-keyboard-response","284","250675","0.0-1.0-387.0","0","0","54712","","null","","","null","42","","","","","","","","","","","","","","","NaN",""
"","S1","","html-keyboard-response","285","250931","0.0-1.0-389.0","0","0","54712","","null","","","null","43","","","","","","","","","","","","","","","",""
"","ISI","","html-keyboard-response","286","251446","0.0-1.0-390.0","0","0","54712","","null","","","null","43","NaN","","","","","","","","","","","","","","",""
"","S2","","html-keyboard-response","287","251702","0.0-1.0-391.0","0","0","54712","","null","","","null","43","","NaN","","","","","","","","","","","","","",""
"","response","","html-keyboard-response","288","251795","0.0-1.0-392.0-0.0","0","0","54712","","90","","","68","43","","","1","43","training","adjacent","EF","5","6","Q.jpg","O.jpg","1","1","1","",""
"","feedback","","html-keyboard-response","289","252799","0.0-1.0-393.0-0.0","0","0","54712","","null","","","null","43","","","","","","","","","","","","","","","",""
"","ITI","","html-keyboard-response","290","253802","0.0-1.0-396.0","0","0","54712","","null","","","null","43","","","","","","","","","","","","","","","NaN",""
"","S1","","html-keyboard-response","291","254057","0.0-1.0-398.0","0","0","54712","","null","","","null","44","","","","","","","","","","","","","","","",""
"","ISI","","html-keyboard-response","292","254560","0.0-1.0-399.0","0","0","54712","","null","","","null","44","NaN","","","","","","","","","","","","","","",""
"","S2","","html-keyboard-response","293","254815","0.0-1.0-400.0","0","0","54712","","null","","","null","44","","NaN","","","","","","","","","","","","","",""
"","response","","html-keyboard-response","294","255566","0.0-1.0-401.0-0.0","0","0","54712","","744","","","68","44","","","1","44","training","adjacent","DE","4","5","P.jpg","Q.jpg","1","1","1","",""
"","feedback","","html-keyboard-response","295","256573","0.0-1.0-402.0-0.0","0","0","54712","","null","","","null","44","","","","","","","","","","","","","","","",""
"","ITI","","html-keyboard-response","296","257577","0.0-1.0-405.0","0","0","54712","","null","","","null","44","","","","","","","","","","","","","","","NaN",""
"","S1","","html-keyboard-response","297","257832","0.0-1.0-407.0","0","0","54712","","null","","","null","45","","","","","","","","","","","","","","","",""
"","ISI","","html-keyboard-response","298","258336","0.0-1.0-408.0","0","0","54712","","null","","","null","45","NaN","","","","","","","","","","","","","","",""
"","S2","","html-keyboard-response","299","258593","0.0-1.0-409.0","0","0","54712","","null","","","null","45","","NaN","","","","","","","","","","","","","",""
"","response","","html-keyboard-response","300","259067","0.0-1.0-410.0-0.0","0","0","54712","","469","","","68","45","","","1","45","training","adjacent","BC","2","3","R.jpg","N.jpg","1","1","1","",""
"","feedback","","html-keyboard-response","301","260073","0.0-1.0-411.0-0.0","0","0","54712","","null","","","null","45","","","","","","","","","","","","","","","",""
"","ITI","","html-keyboard-response","302","261076","0.0-1.0-414.0","0","0","54712","","null","","","null","45","","","","","","","","","","","","","","","NaN",""
"","S1","","html-keyboard-response","303","261329","0.0-1.0-416.0","0","0","54712","","null","","","null","46","","","","","","","","","","","","","","","",""
"","ISI","","html-keyboard-response","304","261833","0.0-1.0-417.0","0","0","54712","","null","","","null","46","NaN","","","","","","","","","","","","","","",""
"","S2","","html-keyboard-response","305","262089","0.0-1.0-418.0","0","0","54712","","null","","","null","46","","NaN","","","","","","","","","","","","","",""
"","response","","html-keyboard-response","306","262462","0.0-1.0-419.0-0.0","0","0","54712","","371","","","75","46","","","1","46","training","adjacent","AB","1","2","L.jpg","R.jpg","0","1","0","",""
"","feedback","","html-keyboard-response","307","263469","0.0-1.0-420.0-0.0","0","0","54712","","null","","","null","46","","","","","","","","","","","","","","","",""
"","time_out","","html-keyboard-response","308","265475","0.0-1.0-422.0-0.0","0","0","54712","","null","","","null","46","","","","","","","","","","","","","","","",""
"","ITI","","html-keyboard-response","309","266480","0.0-1.0-423.0","0","0","54712","","null","","","null","46","","","","","","","","","","","","","","","NaN",""
"","S1","","html-keyboard-response","310","266734","0.0-1.0-425.0","0","0","54712","","null","","","null","47","","","","","","","","","","","","","","","",""
"","ISI","","html-keyboard-response","311","267239","0.0-1.0-426.0","0","0","54712","","null","","","null","47","NaN","","","","","","","","","","","","","","",""
"","S2","","html-keyboard-response","312","267492","0.0-1.0-427.0","0","0","54712","","null","","","null","47","","NaN","","","","","","","","","","","","","",""
"","response","","html-keyboard-response","313","267685","0.0-1.0-428.0-0.0","0","0","54712","","187","","","68","47","","","1","47","training","adjacent","ED","5","4","Q.jpg","P.jpg","1","0","0","",""
"","feedback","","html-keyboard-response","314","268692","0.0-1.0-429.0-0.0","0","0","54712","","null","","","null","47","","","","","","","","","","","","","","","",""
"","time_out","","html-keyboard-response","315","270698","0.0-1.0-431.0-0.0","0","0","54712","","null","","","null","47","","","","","","","","","","","","","","","",""
"","ITI","","html-keyboard-response","316","271703","0.0-1.0-432.0","0","0","54712","","null","","","null","47","","","","","","","","","","","","","","","NaN",""
"","block_over","","html-keyboard-response","317","273566","0.0-1.0-433.0-0.0","0","0","54712","","1857","","","32","47","","","","","","","","","","","","","","","",""
"","S1","","html-keyboard-response","318","273820","0.0-1.0-434.0","0","0","54712","","null","","","null","48","","","","","","","","","","","","","","","",""
"","ISI","","html-keyboard-response","319","274323","0.0-1.0-435.0","0","0","54712","","null","","","null","48","NaN","","","","","","","","","","","","","","",""
"","S2","","html-keyboard-response","320","274577","0.0-1.0-436.0","0","0","54712","","null","","","null","48","","NaN","","","","","","","","","","","","","",""
"","response","","html-keyboard-response","321","274960","0.0-1.0-437.0-0.0","0","0","54712","","380","","","75","48","","","2","48","training","adjacent","FE","6","5","O.jpg","Q.jpg","0","0","1","",""
"","feedback","","html-keyboard-response","322","275966","0.0-1.0-438.0-0.0","0","0","54712","","null","","","null","48","","","","","","","","","","","","","","","",""
"","ITI","","html-keyboard-response","323","276969","0.0-1.0-441.0","0","0","54712","","null","","","null","48","","","","","","","","","","","","","","","NaN",""
"","S1","","html-keyboard-response","324","277224","0.0-1.0-443.0","0","0","54712","","null","","","null","49","","","","","","","","","","","","","","","",""
"","ISI","","html-keyboard-response","325","277727","0.0-1.0-444.0","0","0","54712","","null","","","null","49","NaN","","","","","","","","","","","","","","",""
"","S2","","html-keyboard-response","326","277982","0.0-1.0-445.0","0","0","54712","","null","","","null","49","","NaN","","","","","","","","","","","","","",""
"","response","","html-keyboard-response","327","278252","0.0-1.0-446.0-0.0","0","0","54712","","268","","","75","49","","","2","49","training","adjacent","FG","6","7","O.jpg","M.jpg","0","1","0","",""
"","feedback","","html-keyboard-response","328","279257","0.0-1.0-447.0-0.0","0","0","54712","","null","","","null","49","","","","","","","","","","","","","","","",""
"","time_out","","html-keyboard-response","329","281262","0.0-1.0-449.0-0.0","0","0","54712","","null","","","null","49","","","","","","","","","","","","","","","",""
"","ITI","","html-keyboard-response","330","282267","0.0-1.0-450.0","0","0","54712","","null","","","null","49","","","","","","","","","","","","","","","NaN",""
"","S1","","html-keyboard-response","331","282524","0.0-1.0-452.0","0","0","54712","","null","","","null","50","","","","","","","","","","","","","","","",""
"","ISI","","html-keyboard-response","332","283029","0.0-1.0-453.0","0","0","54712","","null","","","null","50","NaN","","","","","","","","","","","","","","",""
"","S2","","html-keyboard-response","333","283285","0.0-1.0-454.0","0","0","54712","","null","","","null","50","","NaN","","","","","","","","","","","","","",""
"","response","","html-keyboard-response","334","283514","0.0-1.0-455.0-0.0","0","0","54712","","224","","","68","50","","","2","50","training","adjacent","EF","5","6","Q.jpg","O.jpg","1","1","1","",""
"","feedback","","html-keyboard-response","335","284518","0.0-1.0-456.0-0.0","0","0","54712","","null","","","null","50","","","","","","","","","","","","","","","",""
"","ITI","","html-keyboard-response","336","285523","0.0-1.0-459.0","0","0","54712","","null","","","null","50","","","","","","","","","","","","","","","NaN",""
"","S1","","html-keyboard-response","337","285776","0.0-1.0-461.0","0","0","54712","","null","","","null","51","","","","","","","","","","","","","","","",""
"","ISI","","html-keyboard-response","338","286283","0.0-1.0-462.0","0","0","54712","","null","","","null","51","NaN","","","","","","","","","","","","","","",""
"","S2","","html-keyboard-response","339","286537","0.0-1.0-463.0","0","0","54712","","null","","","null","51","","NaN","","","","","","","","","","","","","",""
"","response","","html-keyboard-response","340","286840","0.0-1.0-464.0-0.0","0","0","54712","","298","","","75","51","","","2","51","training","adjacent","CB","3","2","N.jpg","R.jpg","0","0","1","",""
"","feedback","","html-keyboard-response","341","287846","0.0-1.0-465.0-0.0","0","0","54712","","null","","","null","51","","","","","","","","","","","","","","","",""
"","ITI","","html-keyboard-response","342","288851","0.0-1.0-468.0","0","0","54712","","null","","","null","51","","","","","","","","","","","","","","","NaN",""
"","S1","","html-keyboard-response","343","289105","0.0-1.0-470.0","0","0","54712","","null","","","null","52","","","","","","","","","","","","","","","",""
"","ISI","","html-keyboard-response","344","289608","0.0-1.0-471.0","0","0","54712","","null","","","null","52","NaN","","","","","","","","","","","","","","",""
"","S2","","html-keyboard-response","345","289863","0.0-1.0-472.0","0","0","54712","","null","","","null","52","","NaN","","","","","","","","","","","","","",""
"","response","","html-keyboard-response","346","290459","0.0-1.0-473.0-0.0","0","0","54712","","593","","","68","52","","","2","52","training","adjacent","BC","2","3","R.jpg","N.jpg","1","1","1","",""
"","feedback","","html-keyboard-response","347","291464","0.0-1.0-474.0-0.0","0","0","54712","","null","","","null","52","","","","","","","","","","","","","","","",""
"","ITI","","html-keyboard-response","348","292485","0.0-1.0-477.0","0","0","54712","","null","","","null","52","","","","","","","","","","","","","","","NaN",""
"","S1","","html-keyboard-response","349","292740","0.0-1.0-479.0","0","0","54712","","null","","","null","53","","","","","","","","","","","","","","","",""
"","ISI","","html-keyboard-response","350","293246","0.0-1.0-480.0","0","0","54712","","null","","","null","53","NaN","","","","","","","","","","","","","","",""
"","S2","","html-keyboard-response","351","293501","0.0-1.0-481.0","0","0","54712","","null","","","null","53","","NaN","","","","","","","","","","","","","",""
"","response","","html-keyboard-response","352","293740","0.0-1.0-482.0-0.0","0","0","54712","","236","","","68","53","","","2","53","training","adjacent","GF","7","6","M.jpg","O.jpg","1","0","0","",""
"","feedback","","html-keyboard-response","353","294744","0.0-1.0-483.0-0.0","0","0","54712","","null","","","null","53","","","","","","","","","","","","","","","",""
"","time_out","","html-keyboard-response","354","296751","0.0-1.0-485.0-0.0","0","0","54712","","null","","","null","53","","","","","","","","","","","","","","","",""
"","ITI","","html-keyboard-response","355","297758","0.0-1.0-486.0","0","0","54712","","null","","","null","53","","","","","","","","","","","","","","","NaN",""
"","S1","","html-keyboard-response","356","298013","0.0-1.0-488.0","0","0","54712","","null","","","null","54","","","","","","","","","","","","","","","",""
"","ISI","","html-keyboard-response","357","298517","0.0-1.0-489.0","0","0","54712","","null","","","null","54","NaN","","","","","","","","","","","","","","",""
"","S2","","html-keyboard-response","358","298781","0.0-1.0-490.0","0","0","54712","","null","","","null","54","","NaN","","","","","","","","","","","","","",""
"","response","","html-keyboard-response","359","299003","0.0-1.0-491.0-0.0","0","0","54712","","217","","","75","54","","","2","54","training","adjacent","BA","2","1","R.jpg","L.jpg","0","0","1","",""
"","feedback","","html-keyboard-response","360","300006","0.0-1.0-492.0-0.0","0","0","54712","","null","","","null","54","","","","","","","","","","","","","","","",""
"","ITI","","html-keyboard-response","361","301012","0.0-1.0-495.0","0","0","54712","","null","","","null","54","","","","","","","","","","","","","","","NaN",""
"","S1","","html-keyboard-response","362","301266","0.0-1.0-497.0","0","0","54712","","null","","","null","55","","","","","","","","","","","","","","","",""
"","ISI","","html-keyboard-response","363","301771","0.0-1.0-498.0","0","0","54712","","null","","","null","55","NaN","","","","","","","","","","","","","","",""
"","S2","","html-keyboard-response","364","302027","0.0-1.0-499.0","0","0","54712","","null","","","null","55","","NaN","","","","","","","","","","","","","",""
"","response","","html-keyboard-response","365","302086","0.0-1.0-500.0-0.0","0","0","54712","","54","","","75","55","","","2","55","training","adjacent","DE","4","5","P.jpg","Q.jpg","0","1","0","",""
"","feedback","","html-keyboard-response","366","303093","0.0-1.0-501.0-0.0","0","0","54712","","null","","","null","55","","","","","","","","","","","","","","","",""
"","time_out","","html-keyboard-response","367","305101","0.0-1.0-503.0-0.0","0","0","54712","","null","","","null","55","","","","","","","","","","","","","","","",""
"","ITI","","html-keyboard-response","368","306105","0.0-1.0-504.0","0","0","54712","","null","","","null","55","","","","","","","","","","","","","","","NaN",""
"","S1","","html-keyboard-response","369","306360","0.0-1.0-506.0","0","0","54712","","null","","","null","56","","","","","","","","","","","","","","","",""
"","ISI","","html-keyboard-response","370","306864","0.0-1.0-507.0","0","0","54712","","null","","","null","56","NaN","","","","","","","","","","","","","","",""
"","S2","","html-keyboard-response","371","306976","0.0-1.0-508.0","0","0","54712","","106","","","68","56","","d","2","56","training","adjacent","DC","4","3","P.jpg","N.jpg","1","0","0","",""
"","feedback","","html-keyboard-response","372","307984","0.0-1.0-510.0-0.0","0","0","54712","","null","","","null","56","","","","","","","","","","","","","","","",""
"","time_out","","html-keyboard-response","373","309992","0.0-1.0-512.0-0.0","0","0","54712","","null","","","null","56","","","","","","","","","","","","","","","",""
"","ITI","","html-keyboard-response","374","310999","0.0-1.0-513.0","0","0","54712","","null","","","null","56","","","","","","","","","","","","","","","NaN",""
"","S1","","html-keyboard-response","375","311253","0.0-1.0-515.0","0","0","54712","","null","","","null","57","","","","","","","","","","","","","","","",""
"","ISI","","html-keyboard-response","376","311757","0.0-1.0-516.0","0","0","54712","","null","","","null","57","NaN","","","","","","","","","","","","","","",""
"","S2","","html-keyboard-response","377","312011","0.0-1.0-517.0","0","0","54712","","null","","","null","57","","NaN","","","","","","","","","","","","","",""
"","response","","html-keyboard-response","378","312020","0.0-1.0-518.0-0.0","0","0","54712","","6","","","75","57","","","2","57","training","adjacent","CB","3","2","N.jpg","R.jpg","0","0","1","",""
"","feedback","","html-keyboard-response","379","313025","0.0-1.0-519.0-0.0","0","0","54712","","null","","","null","57","","","","","","","","","","","","","","","",""
"","ITI","","html-keyboard-response","380","314031","0.0-1.0-522.0","0","0","54712","","null","","","null","57","","","","","","","","","","","","","","","NaN",""
"","S1","","html-keyboard-response","381","314285","0.0-1.0-524.0","0","0","54712","","null","","","null","58","","","","","","","","","","","","","","","",""
"","ISI","","html-keyboard-response","382","314791","0.0-1.0-525.0","0","0","54712","","null","","","null","58","NaN","","","","","","","","","","","","","","",""
"","S2","","html-keyboard-response","383","315047","0.0-1.0-526.0","0","0","54712","","null","","","null","58","","NaN","","","","","","","","","","","","","",""
"","response","","html-keyboard-response","384","315333","0.0-1.0-527.0-0.0","0","0","54712","","281","","","75","58","","","2","58","training","adjacent","CB","3","2","N.jpg","R.jpg","0","0","1","",""
"","feedback","","html-keyboard-response","385","316348","0.0-1.0-528.0-0.0","0","0","54712","","null","","","null","58","","","","","","","","","","","","","","","",""
"","ITI","","html-keyboard-response","386","317357","0.0-1.0-531.0","0","0","54712","","null","","","null","58","","","","","","","","","","","","","","","NaN",""
"","S1","","html-keyboard-response","387","317620","0.0-1.0-533.0","0","0","54712","","null","","","null","59","","","","","","","","","","","","","","","",""
"","ISI","","html-keyboard-response","388","318126","0.0-1.0-534.0","0","0","54712","","null","","","null","59","NaN","","","","","","","","","","","","","","",""
"","S2","","html-keyboard-response","389","318380","0.0-1.0-535.0","0","0","54712","","null","","","null","59","","NaN","","","","","","","","","","","","","",""
"","response","","html-keyboard-response","390","318733","0.0-1.0-536.0-0.0","0","0","54712","","347","","","75","59","","","2","59","training","adjacent","BC","2","3","R.jpg","N.jpg","0","1","0","",""
"","feedback","","html-keyboard-response","391","319744","0.0-1.0-537.0-0.0","0","0","54712","","null","","","null","59","","","","","","","","","","","","","","","",""
"","time_out","","html-keyboard-response","392","321749","0.0-1.0-539.0-0.0","0","0","54712","","null","","","null","59","","","","","","","","","","","","","","","",""
"","ITI","","html-keyboard-response","393","322753","0.0-1.0-540.0","0","0","54712","","null","","","null","59","","","","","","","","","","","","","","","NaN",""
"","S1","","html-keyboard-response","394","323007","0.0-1.0-542.0","0","0","54712","","null","","","null","60","","","","","","","","","","","","","","","",""
"","ISI","","html-keyboard-response","395","323510","0.0-1.0-543.0","0","0","54712","","null","","","null","60","NaN","","","","","","","","","","","","","","",""
"","S2","","html-keyboard-response","396","323766","0.0-1.0-544.0","0","0","54712","","null","","","null","60","","NaN","","","","","","","","","","","","","",""
"","response","","html-keyboard-response","397","324231","0.0-1.0-545.0-0.0","0","0","54712","","462","","","68","60","","","2","60","training","adjacent","EF","5","6","Q.jpg","O.jpg","1","1","1","",""
"","feedback","","html-keyboard-response","398","325240","0.0-1.0-546.0-0.0","0","0","54712","","null","","","null","60","","","","","","","","","","","","","","","",""
"","ITI","","html-keyboard-response","399","326246","0.0-1.0-549.0","0","0","54712","","null","","","null","60","","","","","","","","","","","","","","","NaN",""
"","S1","","html-keyboard-response","400","326501","0.0-1.0-551.0","0","0","54712","","null","","","null","61","","","","","","","","","","","","","","","",""
"","ISI","","html-keyboard-response","401","327008","0.0-1.0-552.0","0","0","54712","","null","","","null","61","NaN","","","","","","","","","","","","","","",""
"","S2","","html-keyboard-response","402","327281","0.0-1.0-553.0","0","0","54712","","null","","","null","61","","NaN","","","","","","","","","","","","","",""
"","response","","html-keyboard-response","403","327555","0.0-1.0-554.0-0.0","0","0","54712","","271","","","75","61","","","2","61","training","adjacent","GF","7","6","M.jpg","O.jpg","0","0","1","",""
"","feedback","","html-keyboard-response","404","328559","0.0-1.0-555.0-0.0","0","0","54712","","null","","","null","61","","","","","","","","","","","","","","","",""
"","ITI","","html-keyboard-response","405","329566","0.0-1.0-558.0","0","0","54712","","null","","","null","61","","","","","","","","","","","","","","","NaN",""
"","S1","","html-keyboard-response","406","329822","0.0-1.0-560.0","0","0","54712","","null","","","null","62","","","","","","","","","","","","","","","",""
"","ISI","","html-keyboard-response","407","330328","0.0-1.0-561.0","0","0","54712","","null","","","null","62","NaN","","","","","","","","","","","","","","",""
"","S2","","html-keyboard-response","408","330582","0.0-1.0-562.0","0","0","54712","","null","","","null","62","","NaN","","","","","","","","","","","","","",""
"","response","","html-keyboard-response","409","330896","0.0-1.0-563.0-0.0","0","0","54712","","310","","","68","62","","","2","62","training","adjacent","DE","4","5","P.jpg","Q.jpg","1","1","1","",""
"","feedback","","html-keyboard-response","410","331900","0.0-1.0-564.0-0.0","0","0","54712","","null","","","null","62","","","","","","","","","","","","","","","",""
"","ITI","","html-keyboard-response","411","332933","0.0-1.0-567.0","0","0","54712","","null","","","null","62","","","","","","","","","","","","","","","NaN",""
"","S1","","html-keyboard-response","412","333187","0.0-1.0-569.0","0","0","54712","","null","","","null","63","","","","","","","","","","","","","","","",""
"","ISI","","html-keyboard-response","413","333692","0.0-1.0-570.0","0","0","54712","","null","","","null","63","NaN","","","","","","","","","","","","","","",""
"","S2","","html-keyboard-response","414","333947","0.0-1.0-571.0","0","0","54712","","null","","","null","63","","NaN","","","","","","","","","","","","","",""
"","response","","html-keyboard-response","415","334130","0.0-1.0-572.0-0.0","0","0","54712","","179","","","75","63","","","2","63","training","adjacent","ED","5","4","Q.jpg","P.jpg","0","0","1","",""
"","feedback","","html-keyboard-response","416","335144","0.0-1.0-573.0-0.0","0","0","54712","","null","","","null","63","","","","","","","","","","","","","","","",""
"","ITI","","html-keyboard-response","417","336149","0.0-1.0-576.0","0","0","54712","","null","","","null","63","","","","","","","","","","","","","","","NaN",""
"","S1","","html-keyboard-response","418","336404","0.0-1.0-578.0","0","0","54712","","null","","","null","64","","","","","","","","","","","","","","","",""
"","ISI","","html-keyboard-response","419","336909","0.0-1.0-579.0","0","0","54712","","null","","","null","64","NaN","","","","","","","","","","","","","","",""
"","S2","","html-keyboard-response","420","337166","0.0-1.0-580.0","0","0","54712","","null","","","null","64","","NaN","","","","","","","","","","","","","",""
"","response","","html-keyboard-response","421","337527","0.0-1.0-581.0-0.0","0","0","54712","","354","","","68","64","","","2","64","training","adjacent","FE","6","5","O.jpg","Q.jpg","1","0","0","",""
"","feedback","","html-keyboard-response","422","338541","0.0-1.0-582.0-0.0","0","0","54712","","null","","","null","64","","","","","","","","","","","","","","","",""
"","time_out","","html-keyboard-response","423","340547","0.0-1.0-584.0-0.0","0","0","54712","","null","","","null","64","","","","","","","","","","","","","","","",""
"","ITI","","html-keyboard-response","424","341555","0.0-1.0-585.0","0","0","54712","","null","","","null","64","","","","","","","","","","","","","","","NaN",""
"","S1","","html-keyboard-response","425","341810","0.0-1.0-587.0","0","0","54712","","null","","","null","65","","","","","","","","","","","","","","","",""
"","ISI","","html-keyboard-response","426","342314","0.0-1.0-588.0","0","0","54712","","null","","","null","65","NaN","","","","","","","","","","","","","","",""
"","S2","","html-keyboard-response","427","342571","0.0-1.0-589.0","0","0","54712","","null","","","null","65","","NaN","","","","","","","","","","","","","",""
"","response","","html-keyboard-response","428","342879","0.0-1.0-590.0-0.0","0","0","54712","","304","","","68","65","","","2","65","training","adjacent","CD","3","4","N.jpg","P.jpg","1","1","1","",""
"","feedback","","html-keyboard-response","429","343887","0.0-1.0-591.0-0.0","0","0","54712","","null","","","null","65","","","","","","","","","","","","","","","",""
"","ITI","","html-keyboard-response","430","344891","0.0-1.0-594.0","0","0","54712","","null","","","null","65","","","","","","","","","","","","","","","NaN",""
"","S1","","html-keyboard-response","431","345143","0.0-1.0-596.0","0","0","54712","","null","","","null","66","","","","","","","","","","","","","","","",""
"","ISI","","html-keyboard-response","432","345646","0.0-1.0-597.0","0","0","54712","","null","","","null","66","NaN","","","","","","","","","","","","","","",""
"","S2","","html-keyboard-response","433","345901","0.0-1.0-598.0","0","0","54712","","null","","","null","66","","NaN","","","","","","","","","","","","","",""
"","response","","html-keyboard-response","434","346332","0.0-1.0-599.0-0.0","0","0","54712","","429","","","75","66","","","2","66","training","adjacent","AB","1","2","L.jpg","R.jpg","0","1","0","",""
"","feedback","","html-keyboard-response","435","347340","0.0-1.0-600.0-0.0","0","0","54712","","null","","","null","66","","","","","","","","","","","","","","","",""
"","time_out","","html-keyboard-response","436","349347","0.0-1.0-602.0-0.0","0","0","54712","","null","","","null","66","","","","","","","","","","","","","","","",""
"","ITI","","html-keyboard-response","437","350351","0.0-1.0-603.0","0","0","54712","","null","","","null","66","","","","","","","","","","","","","","","NaN",""
"","S1","","html-keyboard-response","438","350609","0.0-1.0-605.0","0","0","54712","","null","","","null","67","","","","","","","","","","","","","","","",""
"","ISI","","html-keyboard-response","439","351120","0.0-1.0-606.0","0","0","54712","","null","","","null","67","NaN","","","","","","","","","","","","","","",""
"","S2","","html-keyboard-response","440","351376","0.0-1.0-607.0","0","0","54712","","null","","","null","67","","NaN","","","","","","","","","","","","","",""
"","response","","html-keyboard-response","441","351695","0.0-1.0-608.0-0.0","0","0","54712","","315","","","68","67","","","2","67","training","adjacent","FG","6","7","O.jpg","M.jpg","1","1","1","",""
"","feedback","","html-keyboard-response","442","352700","0.0-1.0-609.0-0.0","0","0","54712","","null","","","null","67","","","","","","","","","","","","","","","",""
"","ITI","","html-keyboard-response","443","353703","0.0-1.0-612.0","0","0","54712","","null","","","null","67","","","","","","","","","","","","","","","NaN",""
"","S1","","html-keyboard-response","444","353960","0.0-1.0-614.0","0","0","54712","","null","","","null","68","","","","","","","","","","","","","","","",""
"","ISI","","html-keyboard-response","445","354509","0.0-1.0-615.0","0","0","54712","","null","","","null","68","NaN","","","","","","","","","","","","","","",""
"","S2","","html-keyboard-response","446","354769","0.0-1.0-616.0","0","0","54712","","null","","","null","68","","NaN","","","","","","","","","","","","","",""
"","response","","html-keyboard-response","447","355102","0.0-1.0-617.0-0.0","0","0","54712","","327","","","68","68","","","2","68","training","adjacent","ED","5","4","Q.jpg","P.jpg","1","0","0","",""
"","feedback","","html-keyboard-response","448","356107","0.0-1.0-618.0-0.0","0","0","54712","","null","","","null","68","","","","","","","","","","","","","","","",""
"","time_out","","html-keyboard-response","449","358114","0.0-1.0-620.0-0.0","0","0","54712","","null","","","null","68","","","","","","","","","","","","","","","",""
"","ITI","","html-keyboard-response","450","359119","0.0-1.0-621.0","0","0","54712","","null","","","null","68","","","","","","","","","","","","","","","NaN",""
"","S1","","html-keyboard-response","451","359376","0.0-1.0-623.0","0","0","54712","","null","","","null","69","","","","","","","","","","","","","","","",""
"","ISI","","html-keyboard-response","452","359880","0.0-1.0-624.0","0","0","54712","","416","","","75","69","k","","","","","","","","","","","","","","",""
"","S2","","html-keyboard-response","453","360140","0.0-1.0-625.0","0","0","54712","","null","","","null","69","","NaN","","","","","","","","","","","","","",""
"","response","","html-keyboard-response","454","360792","0.0-1.0-626.0-0.0","0","0","54712","","647","","","75","69","","","2","69","training","adjacent","DE","4","5","P.jpg","Q.jpg","0","1","0","",""
"","feedback","","html-keyboard-response","455","361798","0.0-1.0-627.0-0.0","0","0","54712","","null","","","null","69","","","","","","","","","","","","","","","",""
"","time_out","","html-keyboard-response","456","363806","0.0-1.0-629.0-0.0","0","0","54712","","null","","","null","69","","","","","","","","","","","","","","","",""
"","ITI","","html-keyboard-response","457","364811","0.0-1.0-630.0","0","0","54712","","null","","","null","69","","","","","","","","","","","","","","","NaN",""
"","S1","","html-keyboard-response","458","365066","0.0-1.0-632.0","0","0","54712","","null","","","null","70","","","","","","","","","","","","","","","",""
"","ISI","","html-keyboard-response","459","365570","0.0-1.0-633.0","0","0","54712","","null","","","null","70","NaN","","","","","","","","","","","","","","",""
"","S2","","html-keyboard-response","460","365831","0.0-1.0-634.0","0","0","54712","","null","","","null","70","","NaN","","","","","","","","","","","","","",""
"","response","","html-keyboard-response","461","365972","0.0-1.0-635.0-0.0","0","0","54712","","138","","","68","70","","","2","70","training","adjacent","FG","6","7","O.jpg","M.jpg","1","1","1","",""
"","feedback","","html-keyboard-response","462","366979","0.0-1.0-636.0-0.0","0","0","54712","","null","","","null","70","","","","","","","","","","","","","","","",""
"","ITI","","html-keyboard-response","463","367983","0.0-1.0-639.0","0","0","54712","","null","","","null","70","","","","","","","","","","","","","","","NaN",""
"","S1","","html-keyboard-response","464","368237","0.0-1.0-641.0","0","0","54712","","null","","","null","71","","","","","","","","","","","","","","","",""
"","ISI","","html-keyboard-response","465","368739","0.0-1.0-642.0","0","0","54712","","null","","","null","71","NaN","","","","","","","","","","","","","","",""
"","S2","","html-keyboard-response","466","368996","0.0-1.0-643.0","0","0","54712","","null","","","null","71","","NaN","","","","","","","","","","","","","",""
"","response","","html-keyboard-response","467","369189","0.0-1.0-644.0-0.0","0","0","54712","","187","","","68","71","","","2","71","training","adjacent","AB","1","2","L.jpg","R.jpg","1","1","1","",""
"","feedback","","html-keyboard-response","468","370197","0.0-1.0-645.0-0.0","0","0","54712","","null","","","null","71","","","","","","","","","","","","","","","",""
"","ITI","","html-keyboard-response","469","371201","0.0-1.0-648.0","0","0","54712","","null","","","null","71","","","","","","","","","","","","","","","NaN",""
"","S1","","html-keyboard-response","470","371457","0.0-1.0-650.0","0","0","54712","","null","","","null","72","","","","","","","","","","","","","","","",""
"","ISI","","html-keyboard-response","471","371963","0.0-1.0-651.0","0","0","54712","","null","","","null","72","NaN","","","","","","","","","","","","","","",""
"","S2","","html-keyboard-response","472","372216","0.0-1.0-652.0","0","0","54712","","null","","","null","72","","NaN","","","","","","","","","","","","","",""
"","response","","html-keyboard-response","473","372639","0.0-1.0-653.0-0.0","0","0","54712","","418","","","75","72","","","2","72","training","adjacent","GF","7","6","M.jpg","O.jpg","0","0","1","",""
"","feedback","","html-keyboard-response","474","373646","0.0-1.0-654.0-0.0","0","0","54712","","null","","","null","72","","","","","","","","","","","","","","","",""
"","ITI","","html-keyboard-response","475","374649","0.0-1.0-657.0","0","0","54712","","null","","","null","72","","","","","","","","","","","","","","","NaN",""
"","S1","","html-keyboard-response","476","374902","0.0-1.0-659.0","0","0","54712","","null","","","null","73","","","","","","","","","","","","","","","",""
"","ISI","","html-keyboard-response","477","375406","0.0-1.0-660.0","0","0","54712","","null","","","null","73","NaN","","","","","","","","","","","","","","",""
"","S2","","html-keyboard-response","478","375662","0.0-1.0-661.0","0","0","54712","","null","","","null","73","","NaN","","","","","","","","","","","","","",""
"","response","","html-keyboard-response","479","375970","0.0-1.0-662.0-0.0","0","0","54712","","304","","","68","73","","","2","73","training","adjacent","AB","1","2","L.jpg","R.jpg","1","1","1","",""
"","feedback","","html-keyboard-response","480","376977","0.0-1.0-663.0-0.0","0","0","54712","","null","","","null","73","","","","","","","","","","","","","","","",""
"","ITI","","html-keyboard-response","481","377986","0.0-1.0-666.0","0","0","54712","","null","","","null","73","","","","","","","","","","","","","","","NaN",""
"","S1","","html-keyboard-response","482","378242","0.0-1.0-668.0","0","0","54712","","null","","","null","74","","","","","","","","","","","","","","","",""
"","ISI","","html-keyboard-response","483","378747","0.0-1.0-669.0","0","0","54712","","null","","","null","74","NaN","","","","","","","","","","","","","","",""
"","S2","","html-keyboard-response","484","379021","0.0-1.0-670.0","0","0","54712","","null","","","null","74","","NaN","","","","","","","","","","","","","",""
"","response","","html-keyboard-response","485","379258","0.0-1.0-671.0-0.0","0","0","54712","","229","","","68","74","","","2","74","training","adjacent","EF","5","6","Q.jpg","O.jpg","1","1","1","",""
"","feedback","","html-keyboard-response","486","380268","0.0-1.0-672.0-0.0","0","0","54712","","null","","","null","74","","","","","","","","","","","","","","","",""
"","ITI","","html-keyboard-response","487","381277","0.0-1.0-675.0","0","0","54712","","null","","","null","74","","","","","","","","","","","","","","","NaN",""
"","S1","","html-keyboard-response","488","381535","0.0-1.0-677.0","0","0","54712","","null","","","null","75","","","","","","","","","","","","","","","",""
"","ISI","","html-keyboard-response","489","382043","0.0-1.0-678.0","0","0","54712","","null","","","null","75","NaN","","","","","","","","","","","","","","",""
"","S2","","html-keyboard-response","490","382298","0.0-1.0-679.0","0","0","54712","","null","","","null","75","","NaN","","","","","","","","","","","","","",""
"","response","","html-keyboard-response","491","382391","0.0-1.0-680.0-0.0","0","0","54712","","87","","","68","75","","","2","75","training","adjacent","BA","2","1","R.jpg","L.jpg","1","0","0","",""
"","feedback","","html-keyboard-response","492","383398","0.0-1.0-681.0-0.0","0","0","54712","","null","","","null","75","","","","","","","","","","","","","","","",""
"","time_out","","html-keyboard-response","493","385405","0.0-1.0-683.0-0.0","0","0","54712","","null","","","null","75","","","","","","","","","","","","","","","",""
"","ITI","","html-keyboard-response","494","386409","0.0-1.0-684.0","0","0","54712","","null","","","null","75","","","","","","","","","","","","","","","NaN",""
"","S1","","html-keyboard-response","495","386667","0.0-1.0-686.0","0","0","54712","","null","","","null","76","","","","","","","","","","","","","","","",""
"","ISI","","html-keyboard-response","496","387171","0.0-1.0-687.0","0","0","54712","","317","","","75","76","k","","","","","","","","","","","","","","",""
"","S2","","html-keyboard-response","497","387427","0.0-1.0-688.0","0","0","54712","","null","","","null","76","","NaN","","","","","","","","","","","","","",""
"","response","","html-keyboard-response","498","388031","0.0-1.0-689.0-0.0","0","0","54712","","600","","","75","76","","","2","76","training","adjacent","FE","6","5","O.jpg","Q.jpg","0","0","1","",""
"","feedback","","html-keyboard-response","499","389042","0.0-1.0-690.0-0.0","0","0","54712","","null","","","null","76","","","","","","","","","","","","","","","",""
"","ITI","","html-keyboard-response","500","390048","0.0-1.0-693.0","0","0","54712","","null","","","null","76","","","","","","","","","","","","","","","NaN",""
"","S1","","html-keyboard-response","501","390307","0.0-1.0-695.0","0","0","54712","","null","","","null","77","","","","","","","","","","","","","","","",""
"","ISI","","html-keyboard-response","502","390809","0.0-1.0-696.0","0","0","54712","","null","","","null","77","NaN","","","","","","","","","","","","","","",""
"","S2","","html-keyboard-response","503","391062","0.0-1.0-697.0","0","0","54712","","null","","","null","77","","NaN","","","","","","","","","","","","","",""
"","response","","html-keyboard-response","504","391352","0.0-1.0-698.0-0.0","0","0","54712","","283","","","75","77","","","2","77","training","adjacent","AB","1","2","L.jpg","R.jpg","0","1","0","",""
"","feedback","","html-keyboard-response","505","392373","0.0-1.0-699.0-0.0","0","0","54712","","null","","","null","77","","","","","","","","","","","","","","","",""
"","time_out","","html-keyboard-response","506","394398","0.0-1.0-701.0-0.0","0","0","54712","","null","","","null","77","","","","","","","","","","","","","","","",""
"","ITI","","html-keyboard-response","507","395403","0.0-1.0-702.0","0","0","54712","","null","","","null","77","","","","","","","","","","","","","","","NaN",""
"","S1","","html-keyboard-response","508","395657","0.0-1.0-704.0","0","0","54712","","null","","","null","78","","","","","","","","","","","","","","","",""
"","ISI","","html-keyboard-response","509","396162","0.0-1.0-705.0","0","0","54712","","null","","","null","78","NaN","","","","","","","","","","","","","","",""
"","S2","","html-keyboard-response","510","396417","0.0-1.0-706.0","0","0","54712","","null","","","null","78","","NaN","","","","","","","","","","","","","",""
"","response","","html-keyboard-response","511","396520","0.0-1.0-707.0-0.0","0","0","54712","","101","","","68","78","","","2","78","training","adjacent","CD","3","4","N.jpg","P.jpg","1","1","1","",""
"","feedback","","html-keyboard-response","512","397523","0.0-1.0-708.0-0.0","0","0","54712","","null","","","null","78","","","","","","","","","","","","","","","",""
"","ITI","","html-keyboard-response","513","398530","0.0-1.0-711.0","0","0","54712","","null","","","null","78","","","","","","","","","","","","","","","NaN",""
"","S1","","html-keyboard-response","514","398784","0.0-1.0-713.0","0","0","54712","","null","","","null","79","","","","","","","","","","","","","","","",""
"","ISI","","html-keyboard-response","515","399289","0.0-1.0-714.0","0","0","54712","","null","","","null","79","NaN","","","","","","","","","","","","","","",""
"","S2","","html-keyboard-response","516","399546","0.0-1.0-715.0","0","0","54712","","null","","","null","79","","NaN","","","","","","","","","","","","","",""
"","response","","html-keyboard-response","517","399766","0.0-1.0-716.0-0.0","0","0","54712","","215","","","68","79","","","2","79","training","adjacent","CD","3","4","N.jpg","P.jpg","1","1","1","",""
"","feedback","","html-keyboard-response","518","400773","0.0-1.0-717.0-0.0","0","0","54712","","null","","","null","79","","","","","","","","","","","","","","","",""
"","ITI","","html-keyboard-response","519","401777","0.0-1.0-720.0","0","0","54712","","null","","","null","79","","","","","","","","","","","","","","","NaN",""
"","S1","","html-keyboard-response","520","402032","0.0-1.0-722.0","0","0","54712","","null","","","null","80","","","","","","","","","","","","","","","",""
"","ISI","","html-keyboard-response","521","402536","0.0-1.0-723.0","0","0","54712","","null","","","null","80","NaN","","","","","","","","","","","","","","",""
"","S2","","html-keyboard-response","522","402794","0.0-1.0-724.0","0","0","54712","","null","","","null","80","","NaN","","","","","","","","","","","","","",""
"","response","","html-keyboard-response","523","403104","0.0-1.0-725.0-0.0","0","0","54712","","303","","","75","80","","","2","80","training","adjacent","ED","5","4","Q.jpg","P.jpg","0","0","1","",""
"","feedback","","html-keyboard-response","524","404109","0.0-1.0-726.0-0.0","0","0","54712","","null","","","null","80","","","","","","","","","","","","","","","",""
"","ITI","","html-keyboard-response","525","405113","0.0-1.0-729.0","0","0","54712","","null","","","null","80","","","","","","","","","","","","","","","NaN",""
"","S1","","html-keyboard-response","526","405368","0.0-1.0-731.0","0","0","54712","","null","","","null","81","","","","","","","","","","","","","","","",""
"","ISI","","html-keyboard-response","527","405872","0.0-1.0-732.0","0","0","54712","","null","","","null","81","NaN","","","","","","","","","","","","","","",""
"","S2","","html-keyboard-response","528","406127","0.0-1.0-733.0","0","0","54712","","null","","","null","81","","NaN","","","","","","","","","","","","","",""
"","response","","html-keyboard-response","529","406750","0.0-1.0-734.0-0.0","0","0","54712","","618","","","75","81","","","2","81","training","adjacent","EF","5","6","Q.jpg","O.jpg","0","1","0","",""
"","feedback","","html-keyboard-response","530","407754","0.0-1.0-735.0-0.0","0","0","54712","","null","","","null","81","","","","","","","","","","","","","","","",""
"","time_out","","html-keyboard-response","531","409762","0.0-1.0-737.0-0.0","0","0","54712","","null","","","null","81","","","","","","","","","","","","","","","",""
"","ITI","","html-keyboard-response","532","410768","0.0-1.0-738.0","0","0","54712","","null","","","null","81","","","","","","","","","","","","","","","NaN",""
"","S1","","html-keyboard-response","533","411024","0.0-1.0-740.0","0","0","54712","","null","","","null","82","","","","","","","","","","","","","","","",""
"","ISI","","html-keyboard-response","534","411530","0.0-1.0-741.0","0","0","54712","","null","","","null","82","NaN","","","","","","","","","","","","","","",""
"","S2","","html-keyboard-response","535","411784","0.0-1.0-742.0","0","0","54712","","null","","","null","82","","NaN","","","","","","","","","","","","","",""
"","response","","html-keyboard-response","536","412012","0.0-1.0-743.0-0.0","0","0","54712","","225","","","68","82","","","2","82","training","adjacent","DC","4","3","P.jpg","N.jpg","1","0","0","",""
"","feedback","","html-keyboard-response","537","413017","0.0-1.0-744.0-0.0","0","0","54712","","null","","","null","82","","","","","","","","","","","","","","","",""
"","time_out","","html-keyboard-response","538","415022","0.0-1.0-746.0-0.0","0","0","54712","","null","","","null","82","","","","","","","","","","","","","","","",""
"","ITI","","html-keyboard-response","539","416026","0.0-1.0-747.0","0","0","54712","","null","","","null","82","","","","","","","","","","","","","","","NaN",""
"","S1","","html-keyboard-response","540","416281","0.0-1.0-749.0","0","0","54712","","null","","","null","83","","","","","","","","","","","","","","","",""
"","ISI","","html-keyboard-response","541","416789","0.0-1.0-750.0","0","0","54712","","null","","","null","83","NaN","","","","","","","","","","","","","","",""
"","S2","","html-keyboard-response","542","417025","0.0-1.0-751.0","0","0","54712","","232","","","75","83","","k","2","83","training","adjacent","FE","6","5","O.jpg","Q.jpg","0","0","1","",""
"","feedback","","html-keyboard-response","543","418029","0.0-1.0-753.0-0.0","0","0","54712","","null","","","null","83","","","","","","","","","","","","","","","",""
"","ITI","","html-keyboard-response","544","419033","0.0-1.0-756.0","0","0","54712","","null","","","null","83","","","","","","","","","","","","","","","NaN",""
"","S1","","html-keyboard-response","545","419288","0.0-1.0-758.0","0","0","54712","","null","","","null","84","","","","","","","","","","","","","","","",""
"","ISI","","html-keyboard-response","546","419791","0.0-1.0-759.0","0","0","54712","","null","","","null","84","NaN","","","","","","","","","","","","","","",""
"","S2","","html-keyboard-response","547","420046","0.0-1.0-760.0","0","0","54712","","null","","","null","84","","NaN","","","","","","","","","","","","","",""
"","response","","html-keyboard-response","548","420588","0.0-1.0-761.0-0.0","0","0","54712","","536","","","68","84","","","2","84","training","adjacent","BA","2","1","R.jpg","L.jpg","1","0","0","",""
"","feedback","","html-keyboard-response","549","421595","0.0-1.0-762.0-0.0","0","0","54712","","null","","","null","84","","","","","","","","","","","","","","","",""
"","time_out","","html-keyboard-response","550","423601","0.0-1.0-764.0-0.0","0","0","54712","","null","","","null","84","","","","","","","","","","","","","","","",""
"","ITI","","html-keyboard-response","551","424606","0.0-1.0-765.0","0","0","54712","","null","","","null","84","","","","","","","","","","","","","","","NaN",""
"","S1","","html-keyboard-response","552","424860","0.0-1.0-767.0","0","0","54712","","null","","","null","85","","","","","","","","","","","","","","","",""
"","ISI","","html-keyboard-response","553","425364","0.0-1.0-768.0","0","0","54712","","null","","","null","85","NaN","","","","","","","","","","","","","","",""
"","S2","","html-keyboard-response","554","425620","0.0-1.0-769.0","0","0","54712","","null","","","null","85","","NaN","","","","","","","","","","","","","",""
"","response","","html-keyboard-response","555","425887","0.0-1.0-770.0-0.0","0","0","54712","","217","","","75","85","","","2","85","training","adjacent","BC","2","3","R.jpg","N.jpg","0","1","0","",""
"","feedback","","html-keyboard-response","556","426902","0.0-1.0-771.0-0.0","0","0","54712","","null","","","null","85","","","","","","","","","","","","","","","",""
"","time_out","","html-keyboard-response","557","428911","0.0-1.0-773.0-0.0","0","0","54712","","null","","","null","85","","","","","","","","","","","","","","","",""
"","ITI","","html-keyboard-response","558","429916","0.0-1.0-774.0","0","0","54712","","null","","","null","85","","","","","","","","","","","","","","","NaN",""
"","S1","","html-keyboard-response","559","430169","0.0-1.0-776.0","0","0","54712","","null","","","null","86","","","","","","","","","","","","","","","",""
"","ISI","","html-keyboard-response","560","430695","0.0-1.0-777.0","0","0","54712","","null","","","null","86","NaN","","","","","","","","","","","","","","",""
"","S2","","html-keyboard-response","561","430951","0.0-1.0-778.0","0","0","54712","","null","","","null","86","","NaN","","","","","","","","","","","","","",""
"","response","","html-keyboard-response","562","431372","0.0-1.0-779.0-0.0","0","0","54712","","411","","","68","86","","","2","86","training","adjacent","ED","5","4","Q.jpg","P.jpg","1","0","0","",""
"","feedback","","html-keyboard-response","563","432377","0.0-1.0-780.0-0.0","0","0","54712","","null","","","null","86","","","","","","","","","","","","","","","",""
"","time_out","","html-keyboard-response","564","434381","0.0-1.0-782.0-0.0","0","0","54712","","null","","","null","86","","","","","","","","","","","","","","","",""
"","ITI","","html-keyboard-response","565","435385","0.0-1.0-783.0","0","0","54712","","null","","","null","86","","","","","","","","","","","","","","","NaN",""
"","S1","","html-keyboard-response","566","435642","0.0-1.0-785.0","0","0","54712","","null","","","null","87","","","","","","","","","","","","","","","",""
"","ISI","","html-keyboard-response","567","436148","0.0-1.0-786.0","0","0","54712","","null","","","null","87","NaN","","","","","","","","","","","","","","",""
"","S2","","html-keyboard-response","568","436407","0.0-1.0-787.0","0","0","54712","","null","","","null","87","","NaN","","","","","","","","","","","","","",""
"","response","","html-keyboard-response","569","436600","0.0-1.0-788.0-0.0","0","0","54712","","186","","","75","87","","","2","87","training","adjacent","CD","3","4","N.jpg","P.jpg","0","1","0","",""
"","feedback","","html-keyboard-response","570","437605","0.0-1.0-789.0-0.0","0","0","54712","","null","","","null","87","","","","","","","","","","","","","","","",""
"","time_out","","html-keyboard-response","571","439612","0.0-1.0-791.0-0.0","0","0","54712","","null","","","null","87","","","","","","","","","","","","","","","",""
"","ITI","","html-keyboard-response","572","440631","0.0-1.0-792.0","0","0","54712","","null","","","null","87","","","","","","","","","","","","","","","NaN",""
"","S1","","html-keyboard-response","573","440885","0.0-1.0-794.0","0","0","54712","","null","","","null","88","","","","","","","","","","","","","","","",""
"","ISI","","html-keyboard-response","574","441390","0.0-1.0-795.0","0","0","54712","","null","","","null","88","NaN","","","","","","","","","","","","","","",""
"","S2","","html-keyboard-response","575","441644","0.0-1.0-796.0","0","0","54712","","null","","","null","88","","NaN","","","","","","","","","","","","","",""
"","response","","html-keyboard-response","576","442064","0.0-1.0-797.0-0.0","0","0","54712","","416","","","68","88","","","2","88","training","adjacent","CB","3","2","N.jpg","R.jpg","1","0","0","",""
"","feedback","","html-keyboard-response","577","443069","0.0-1.0-798.0-0.0","0","0","54712","","null","","","null","88","","","","","","","","","","","","","","","",""
"","time_out","","html-keyboard-response","578","445075","0.0-1.0-800.0-0.0","0","0","54712","","null","","","null","88","","","","","","","","","","","","","","","",""
"","ITI","","html-keyboard-response","579","446081","0.0-1.0-801.0","0","0","54712","","null","","","null","88","","","","","","","","","","","","","","","NaN",""
"","S1","","html-keyboard-response","580","446337","0.0-1.0-803.0","0","0","54712","","null","","","null","89","","","","","","","","","","","","","","","",""
"","ISI","","html-keyboard-response","581","446854","0.0-1.0-804.0","0","0","54712","","null","","","null","89","NaN","","","","","","","","","","","","","","",""
"","S2","","html-keyboard-response","582","446978","0.0-1.0-805.0","0","0","54712","","119","","","75","89","","k","2","89","training","adjacent","DC","4","3","P.jpg","N.jpg","0","0","1","",""
"","feedback","","html-keyboard-response","583","447986","0.0-1.0-807.0-0.0","0","0","54712","","null","","","null","89","","","","","","","","","","","","","","","",""
