"success","ttype","start_time","trial_type","trial_index","time_elapsed","internal_node_id","warning","missed_checkup","PID","view_history","rt","responses","repeat_instructions","key_press","index","keypress_isi","keypress_S2","block","trial_num","phase","group_type","pair_type","S1_stim","S2_stim","S1_img","S2_img","S1_chosen","S1_higher","accuracy","keypress_iti","total_bonus_tally"
"true","full_screen","d04132023hr1444","fullscreen","0","321502","0.0-0.0","0","0","70073","","","","","","","","","","","","","","","","","","","","","",""
"","instructions","","instructions","1","406442","0.0-1.0-0.0-0.0","0","0","70073","[{""page_index"":0,""viewing_time"":6990},{""page_index"":1,""viewing_time"":47030},{""page_index"":2,""viewing_time"":28639},{""page_index"":3,""viewing_time"":2275}]","84935","","","","","","","","","","","","","","","","","","","",""
"","comprehension_check","","survey-multi-choice","2","435610","0.0-1.0-0.0-1.0","0","0","70073","","29159","{""Q0"":""True"",""Q1"":""K"",""Q2"":""Only when the screen 'MAKE A CHOICE' is shown"",""Q3"":""Green mark"",""Q4"":""either D or K""}","1","","","","","","","","","","","","","","","","","",""
"","missed_instruction_checkup","","html-keyboard-response","3","437237","0.0-1.0-0.0-2.0-0.0","0","1","70073","","1620","","","32","","","","","","","","","","","","","","","","",""
"","instructions","","instructions","4","480781","0.0-1.0-0.1-0.1","0","0","70073","[{""page_index"":0,""viewing_time"":11555},{""page_index"":1,""viewing_time"":18931},{""page_index"":2,""viewing_time"":12180},{""page_index"":3,""viewing_time"":871}]","43537","","","","","","","","","","","","","","","","","","","",""
"","comprehension_check","","survey-multi-choice","5","497749","0.0-1.0-0.1-1.1","0","0","70073","","16960","{""Q0"":""True"",""Q1"":""K"",""Q2"":""Once the second image appears and while the screen 'MAKE A CHOICE' is shown"",""Q3"":""Green mark"",""Q4"":""either D or K""}","0","","","","","","","","","","","","","","","","","",""
"","start_exp","","html-keyboard-response","6","499014","0.0-1.0-1.0","0","0","70073","","1256","","","32","","","","","","","","","","","","","","","","",""
"","S1","","html-keyboard-response","7","499270","0.0-1.0-2.0","0","0","70073","","null","","","null","0","","","","","","","","","","","","","","","",""
"","ISI","","html-keyboard-response","8","500280","0.0-1.0-3.0","0","0","70073","","null","","","null","0","NaN","","","","","","","","","","","","","","",""
"","S2","","html-keyboard-response","9","500534","0.0-1.0-4.0","0","0","70073","","null","","","null","0","","NaN","","","","","","","","","","","","","",""
"","response","","html-keyboard-response","10","502140","0.0-1.0-5.0-0.0","0","0","70073","","1602","","","75","0","","","1","0","training","adjacent","FE","6","5","R.jpg","O.jpg","1","0","0","",""
"","feedback","","html-keyboard-response","11","503151","0.0-1.0-6.0-0.0","0","0","70073","","null","","","null","0","","","","","","","","","","","","","","","",""
"","time_out","","html-keyboard-response","12","505159","0.0-1.0-8.0-0.0","0","0","70073","","null","","","null","0","","","","","","","","","","","","","","","",""
"","ITI","","html-keyboard-response","13","506167","0.0-1.0-9.0","0","0","70073","","null","","","null","0","","","","","","","","","","","","","","","NaN",""
"","S1","","html-keyboard-response","14","506422","0.0-1.0-11.0","0","0","70073","","null","","","null","1","","","","","","","","","","","","","","","",""
"","ISI","","html-keyboard-response","15","507430","0.0-1.0-12.0","0","0","70073","","null","","","null","1","NaN","","","","","","","","","","","","","","",""
"","S2","","html-keyboard-response","16","507686","0.0-1.0-13.0","0","0","70073","","null","","","null","1","","NaN","","","","","","","","","","","","","",""
"","response","","html-keyboard-response","17","508031","0.0-1.0-14.0-0.0","0","0","70073","","340","","","68","1","","","1","1","training","adjacent","ED","5","4","O.jpg","L.jpg","0","0","1","",""
"","feedback","","html-keyboard-response","18","509038","0.0-1.0-15.0-0.0","0","0","70073","","null","","","null","1","","","","","","","","","","","","","","","",""
"","ITI","","html-keyboard-response","19","510046","0.0-1.0-18.0","0","0","70073","","null","","","null","1","","","","","","","","","","","","","","","NaN",""
"","S1","","html-keyboard-response","20","510303","0.0-1.0-20.0","0","0","70073","","null","","","null","2","","","","","","","","","","","","","","","",""
"","ISI","","html-keyboard-response","21","511310","0.0-1.0-21.0","0","0","70073","","null","","","null","2","NaN","","","","","","","","","","","","","","",""
"","S2","","html-keyboard-response","22","511566","0.0-1.0-22.0","0","0","70073","","null","","","null","2","","NaN","","","","","","","","","","","","","",""
"","response","","html-keyboard-response","23","512055","0.0-1.0-23.0-0.0","0","0","70073","","485","","","68","2","","","1","2","training","adjacent","FG","6","7","R.jpg","N.jpg","0","1","0","",""
"","feedback","","html-keyboard-response","24","513063","0.0-1.0-24.0-0.0","0","0","70073","","null","","","null","2","","","","","","","","","","","","","","","",""
"","time_out","","html-keyboard-response","25","515070","0.0-1.0-26.0-0.0","0","0","70073","","null","","","null","2","","","","","","","","","","","","","","","",""
"","ITI","","html-keyboard-response","26","516078","0.0-1.0-27.0","0","0","70073","","null","","","null","2","","","","","","","","","","","","","","","NaN",""
"","S1","","html-keyboard-response","27","516334","0.0-1.0-29.0","0","0","70073","","null","","","null","3","","","","","","","","","","","","","","","",""
"","ISI","","html-keyboard-response","28","517342","0.0-1.0-30.0","0","0","70073","","null","","","null","3","NaN","","","","","","","","","","","","","","",""
"","S2","","html-keyboard-response","29","517599","0.0-1.0-31.0","0","0","70073","","null","","","null","3","","NaN","","","","","","","","","","","","","",""
"","response","","html-keyboard-response","30","518082","0.0-1.0-32.0-0.0","0","0","70073","","481","","","68","3","","","1","3","training","adjacent","BA","2","1","P.jpg","M.jpg","0","0","1","",""
"","feedback","","html-keyboard-response","31","519095","0.0-1.0-33.0-0.0","0","0","70073","","null","","","null","3","","","","","","","","","","","","","","","",""
"","ITI","","html-keyboard-response","32","520102","0.0-1.0-36.0","0","0","70073","","null","","","null","3","","","","","","","","","","","","","","","NaN",""
"","S1","","html-keyboard-response","33","520359","0.0-1.0-38.0","0","0","70073","","null","","","null","4","","","","","","","","","","","","","","","",""
"","ISI","","html-keyboard-response","34","521366","0.0-1.0-39.0","0","0","70073","","null","","","null","4","NaN","","","","","","","","","","","","","","",""
"","S2","","html-keyboard-response","35","521622","0.0-1.0-40.0","0","0","70073","","null","","","null","4","","NaN","","","","","","","","","","","","","",""
"","response","","html-keyboard-response","36","521795","0.0-1.0-41.0-0.0","0","0","70073","","167","","","75","4","","","1","4","training","adjacent","CB","3","2","Q.jpg","P.jpg","1","0","0","",""
"","feedback","","html-keyboard-response","37","522806","0.0-1.0-42.0-0.0","0","0","70073","","null","","","null","4","","","","","","","","","","","","","","","",""
"","time_out","","html-keyboard-response","38","524814","0.0-1.0-44.0-0.0","0","0","70073","","null","","","null","4","","","","","","","","","","","","","","","",""
"","ITI","","html-keyboard-response","39","525822","0.0-1.0-45.0","0","0","70073","","null","","","null","4","","","","","","","","","","","","","","","NaN",""
"","S1","","html-keyboard-response","40","526079","0.0-1.0-47.0","0","0","70073","","null","","","null","5","","","","","","","","","","","","","","","",""
"","ISI","","html-keyboard-response","41","527086","0.0-1.0-48.0","0","0","70073","","null","","","null","5","NaN","","","","","","","","","","","","","","",""
"","S2","","html-keyboard-response","42","527342","0.0-1.0-49.0","0","0","70073","","null","","","null","5","","NaN","","","","","","","","","","","","","",""
"","response","","html-keyboard-response","43","527966","0.0-1.0-50.0-0.0","0","0","70073","","619","","","75","5","","","1","5","training","adjacent","FE","6","5","R.jpg","O.jpg","1","0","0","",""
"","feedback","","html-keyboard-response","44","528975","0.0-1.0-51.0-0.0","0","0","70073","","null","","","null","5","","","","","","","","","","","","","","","",""
"","time_out","","html-keyboard-response","45","530982","0.0-1.0-53.0-0.0","0","0","70073","","null","","","null","5","","","","","","","","","","","","","","","",""
"","ITI","","html-keyboard-response","46","531992","0.0-1.0-54.0","0","0","70073","","null","","","null","5","","","","","","","","","","","","","","","NaN",""
"","S1","","html-keyboard-response","47","532254","0.0-1.0-56.0","0","0","70073","","null","","","null","6","","","","","","","","","","","","","","","",""
"","ISI","","html-keyboard-response","48","533262","0.0-1.0-57.0","0","0","70073","","null","","","null","6","NaN","","","","","","","","","","","","","","",""
"","S2","","html-keyboard-response","49","533518","0.0-1.0-58.0","0","0","70073","","null","","","null","6","","NaN","","","","","","","","","","","","","",""
"","response","","html-keyboard-response","50","533759","0.0-1.0-59.0-0.0","0","0","70073","","236","","","68","6","","","1","6","training","adjacent","AB","1","2","M.jpg","P.jpg","0","1","0","",""
"","feedback","","html-keyboard-response","51","534766","0.0-1.0-60.0-0.0","0","0","70073","","null","","","null","6","","","","","","","","","","","","","","","",""
"","time_out","","html-keyboard-response","52","536774","0.0-1.0-62.0-0.0","0","0","70073","","null","","","null","6","","","","","","","","","","","","","","","",""
"","ITI","","html-keyboard-response","53","537782","0.0-1.0-63.0","0","0","70073","","null","","","null","6","","","","","","","","","","","","","","","NaN",""
"","S1","","html-keyboard-response","54","538038","0.0-1.0-65.0","0","0","70073","","null","","","null","7","","","","","","","","","","","","","","","",""
"","ISI","","html-keyboard-response","55","539046","0.0-1.0-66.0","0","0","70073","","null","","","null","7","NaN","","","","","","","","","","","","","","",""
"","S2","","html-keyboard-response","56","539302","0.0-1.0-67.0","0","0","70073","","null","","","null","7","","NaN","","","","","","","","","","","","","",""
"","response","","html-keyboard-response","57","540479","0.0-1.0-68.0-0.0","0","0","70073","","1172","","","75","7","","","1","7","training","adjacent","BC","2","3","P.jpg","Q.jpg","1","1","1","",""
"","feedback","","html-keyboard-response","58","541486","0.0-1.0-69.0-0.0","0","0","70073","","null","","","null","7","","","","","","","","","","","","","","","",""
"","ITI","","html-keyboard-response","59","542495","0.0-1.0-72.0","0","0","70073","","null","","","null","7","","","","","","","","","","","","","","","NaN",""
"","S1","","html-keyboard-response","60","542752","0.0-1.0-74.0","0","0","70073","","null","","","null","8","","","","","","","","","","","","","","","",""
"","ISI","","html-keyboard-response","61","543758","0.0-1.0-75.0","0","0","70073","","null","","","null","8","NaN","","","","","","","","","","","","","","",""
"","S2","","html-keyboard-response","62","544015","0.0-1.0-76.0","0","0","70073","","null","","","null","8","","NaN","","","","","","","","","","","","","",""
"","response","","html-keyboard-response","63","544216","0.0-1.0-77.0-0.0","0","0","70073","","197","","","68","8","","","1","8","training","adjacent","CD","3","4","Q.jpg","L.jpg","0","1","0","",""
"","feedback","","html-keyboard-response","64","545222","0.0-1.0-78.0-0.0","0","0","70073","","null","","","null","8","","","","","","","","","","","","","","","",""
"","time_out","","html-keyboard-response","65","547231","0.0-1.0-80.0-0.0","0","0","70073","","null","","","null","8","","","","","","","","","","","","","","","",""
"","ITI","","html-keyboard-response","66","548239","0.0-1.0-81.0","0","0","70073","","null","","","null","8","","","","","","","","","","","","","","","NaN",""
"","S1","","html-keyboard-response","67","548495","0.0-1.0-83.0","0","0","70073","","null","","","null","9","","","","","","","","","","","","","","","",""
"","ISI","","html-keyboard-response","68","549503","0.0-1.0-84.0","0","0","70073","","null","","","null","9","NaN","","","","","","","","","","","","","","",""
"","S2","","html-keyboard-response","69","549760","0.0-1.0-85.0","0","0","70073","","null","","","null","9","","NaN","","","","","","","","","","","","","",""
"","response","","html-keyboard-response","70","550401","0.0-1.0-86.0-0.0","0","0","70073","","638","","","68","9","","","1","9","training","adjacent","AB","1","2","M.jpg","P.jpg","0","1","0","",""
"","feedback","","html-keyboard-response","71","551406","0.0-1.0-87.0-0.0","0","0","70073","","null","","","null","9","","","","","","","","","","","","","","","",""
"","time_out","","html-keyboard-response","72","553414","0.0-1.0-89.0-0.0","0","0","70073","","null","","","null","9","","","","","","","","","","","","","","","",""
"","ITI","","html-keyboard-response","73","554424","0.0-1.0-90.0","0","0","70073","","null","","","null","9","","","","","","","","","","","","","","","NaN",""
"","S1","","html-keyboard-response","74","554686","0.0-1.0-92.0","0","0","70073","","null","","","null","10","","","","","","","","","","","","","","","",""
"","ISI","","html-keyboard-response","75","555694","0.0-1.0-93.0","0","0","70073","","null","","","null","10","NaN","","","","","","","","","","","","","","",""
"","S2","","html-keyboard-response","76","555950","0.0-1.0-94.0","0","0","70073","","null","","","null","10","","NaN","","","","","","","","","","","","","",""
"","response","","html-keyboard-response","77","556424","0.0-1.0-95.0-0.0","0","0","70073","","469","","","75","10","","","1","10","training","adjacent","FE","6","5","R.jpg","O.jpg","1","0","0","",""
"","feedback","","html-keyboard-response","78","557430","0.0-1.0-96.0-0.0","0","0","70073","","null","","","null","10","","","","","","","","","","","","","","","",""
"","time_out","","html-keyboard-response","79","559439","0.0-1.0-98.0-0.0","0","0","70073","","null","","","null","10","","","","","","","","","","","","","","","",""
"","ITI","","html-keyboard-response","80","560446","0.0-1.0-99.0","0","0","70073","","null","","","null","10","","","","","","","","","","","","","","","NaN",""
"","S1","","html-keyboard-response","81","560703","0.0-1.0-101.0","0","0","70073","","null","","","null","11","","","","","","","","","","","","","","","",""
"","ISI","","html-keyboard-response","82","561711","0.0-1.0-102.0","0","0","70073","","null","","","null","11","NaN","","","","","","","","","","","","","","",""
"","S2","","html-keyboard-response","83","561966","0.0-1.0-103.0","0","0","70073","","null","","","null","11","","NaN","","","","","","","","","","","","","",""
"","response","","html-keyboard-response","84","562636","0.0-1.0-104.0-0.0","0","0","70073","","665","","","75","11","","","1","11","training","adjacent","EF","5","6","O.jpg","R.jpg","1","1","1","",""
"","feedback","","html-keyboard-response","85","563646","0.0-1.0-105.0-0.0","0","0","70073","","null","","","null","11","","","","","","","","","","","","","","","",""
"","ITI","","html-keyboard-response","86","564654","0.0-1.0-108.0","0","0","70073","","null","","","null","11","","","","","","","","","","","","","","","NaN",""
"","S1","","html-keyboard-response","87","564911","0.0-1.0-110.0","0","0","70073","","null","","","null","12","","","","","","","","","","","","","","","",""
"","ISI","","html-keyboard-response","88","565918","0.0-1.0-111.0","0","0","70073","","null","","","null","12","NaN","","","","","","","","","","","","","","",""
"","S2","","html-keyboard-response","89","566175","0.0-1.0-112.0","0","0","70073","","null","","","null","12","","NaN","","","","","","","","","","","","","",""
"","response","","html-keyboard-response","90","566432","0.0-1.0-113.0-0.0","0","0","70073","","253","","","75","12","","","1","12","training","adjacent","BC","2","3","P.jpg","Q.jpg","1","1","1","",""
"","feedback","","html-keyboard-response","91","567438","0.0-1.0-114.0-0.0","0","0","70073","","null","","","null","12","","","","","","","","","","","","","","","",""
"","ITI","","html-keyboard-response","92","568446","0.0-1.0-117.0","0","0","70073","","null","","","null","12","","","","","","","","","","","","","","","NaN",""
"","S1","","html-keyboard-response","93","568703","0.0-1.0-119.0","0","0","70073","","null","","","null","13","","","","","","","","","","","","","","","",""
"","ISI","","html-keyboard-response","94","569710","0.0-1.0-120.0","0","0","70073","","null","","","null","13","NaN","","","","","","","","","","","","","","",""
"","S2","","html-keyboard-response","95","569966","0.0-1.0-121.0","0","0","70073","","null","","","null","13","","NaN","","","","","","","","","","","","","",""
"","response","","html-keyboard-response","96","570088","0.0-1.0-122.0-0.0","0","0","70073","","118","","","68","13","","","1","13","training","adjacent","CD","3","4","Q.jpg","L.jpg","0","1","0","",""
"","feedback","","html-keyboard-response","97","571095","0.0-1.0-123.0-0.0","0","0","70073","","null","","","null","13","","","","","","","","","","","","","","","",""
"","time_out","","html-keyboard-response","98","573102","0.0-1.0-125.0-0.0","0","0","70073","","null","","","null","13","","","","","","","","","","","","","","","",""
"","ITI","","html-keyboard-response","99","574110","0.0-1.0-126.0","0","0","70073","","null","","","null","13","","","","","","","","","","","","","","","NaN",""
"","S1","","html-keyboard-response","100","574366","0.0-1.0-128.0","0","0","70073","","null","","","null","14","","","","","","","","","","","","","","","",""
"","ISI","","html-keyboard-response","101","575375","0.0-1.0-129.0","0","0","70073","","null","","","null","14","NaN","","","","","","","","","","","","","","",""
"","S2","","html-keyboard-response","102","575630","0.0-1.0-130.0","0","0","70073","","null","","","null","14","","NaN","","","","","","","","","","","","","",""
"","response","","html-keyboard-response","103","576009","0.0-1.0-131.0-0.0","0","0","70073","","375","","","68","14","","","1","14","training","adjacent","AB","1","2","M.jpg","P.jpg","0","1","0","",""
"","feedback","","html-keyboard-response","104","577014","0.0-1.0-132.0-0.0","0","0","70073","","null","","","null","14","","","","","","","","","","","","","","","",""
"","time_out","","html-keyboard-response","105","579023","0.0-1.0-134.0-0.0","0","0","70073","","null","","","null","14","","","","","","","","","","","","","","","",""
"","ITI","","html-keyboard-response","106","580030","0.0-1.0-135.0","0","0","70073","","null","","","null","14","","","","","","","","","","","","","","","NaN",""
"","S1","","html-keyboard-response","107","580286","0.0-1.0-137.0","0","0","70073","","null","","","null","15","","","","","","","","","","","","","","","",""
"","ISI","","html-keyboard-response","108","581294","0.0-1.0-138.0","0","0","70073","","null","","","null","15","NaN","","","","","","","","","","","","","","",""
"","S2","","html-keyboard-response","109","581550","0.0-1.0-139.0","0","0","70073","","null","","","null","15","","NaN","","","","","","","","","","","","","",""
"","response","","html-keyboard-response","110","581819","0.0-1.0-140.0-0.0","0","0","70073","","264","","","75","15","","","1","15","training","adjacent","GF","7","6","N.jpg","R.jpg","1","0","0","",""
"","feedback","","html-keyboard-response","111","582830","0.0-1.0-141.0-0.0","0","0","70073","","null","","","null","15","","","","","","","","","","","","","","","",""
"","time_out","","html-keyboard-response","112","584839","0.0-1.0-143.0-0.0","0","0","70073","","null","","","null","15","","","","","","","","","","","","","","","",""
"","ITI","","html-keyboard-response","113","585846","0.0-1.0-144.0","0","0","70073","","null","","","null","15","","","","","","","","","","","","","","","NaN",""
"","S1","","html-keyboard-response","114","586102","0.0-1.0-146.0","0","0","70073","","null","","","null","16","","","","","","","","","","","","","","","",""
"","ISI","","html-keyboard-response","115","587110","0.0-1.0-147.0","0","0","70073","","null","","","null","16","NaN","","","","","","","","","","","","","","",""
"","S2","","html-keyboard-response","116","587367","0.0-1.0-148.0","0","0","70073","","null","","","null","16","","NaN","","","","","","","","","","","","","",""
"","response","","html-keyboard-response","117","587467","0.0-1.0-149.0-0.0","0","0","70073","","96","","","75","16","","","1","16","training","adjacent","BC","2","3","P.jpg","Q.jpg","1","1","1","",""
"","feedback","","html-keyboard-response","118","588478","0.0-1.0-150.0-0.0","0","0","70073","","null","","","null","16","","","","","","","","","","","","","","","",""
"","ITI","","html-keyboard-response","119","589486","0.0-1.0-153.0","0","0","70073","","null","","","null","16","","","","","","","","","","","","","","","NaN",""
"","S1","","html-keyboard-response","120","589743","0.0-1.0-155.0","0","0","70073","","null","","","null","17","","","","","","","","","","","","","","","",""
"","ISI","","html-keyboard-response","121","590750","0.0-1.0-156.0","0","0","70073","","null","","","null","17","NaN","","","","","","","","","","","","","","",""
"","S2","","html-keyboard-response","122","591007","0.0-1.0-157.0","0","0","70073","","null","","","null","17","","NaN","","","","","","","","","","","","","",""
"","response","","html-keyboard-response","123","591356","0.0-1.0-158.0-0.0","0","0","70073","","346","","","75","17","","","1","17","training","adjacent","EF","5","6","O.jpg","R.jpg","1","1","1","",""
"","feedback","","html-keyboard-response","124","592366","0.0-1.0-159.0-0.0","0","0","70073","","null","","","null","17","","","","","","","","","","","","","","","",""
"","ITI","","html-keyboard-response","125","593374","0.0-1.0-162.0","0","0","70073","","null","","","null","17","","","","","","","","","","","","","","","NaN",""
"","S1","","html-keyboard-response","126","593630","0.0-1.0-164.0","0","0","70073","","null","","","null","18","","","","","","","","","","","","","","","",""
"","ISI","","html-keyboard-response","127","594639","0.0-1.0-165.0","0","0","70073","","null","","","null","18","NaN","","","","","","","","","","","","","","",""
"","S2","","html-keyboard-response","128","594894","0.0-1.0-166.0","0","0","70073","","null","","","null","18","","NaN","","","","","","","","","","","","","",""
"","response","","html-keyboard-response","129","595048","0.0-1.0-167.0-0.0","0","0","70073","","148","","","68","18","","","1","18","training","adjacent","DC","4","3","L.jpg","Q.jpg","0","0","1","",""
"","feedback","","html-keyboard-response","130","596054","0.0-1.0-168.0-0.0","0","0","70073","","null","","","null","18","","","","","","","","","","","","","","","",""
"","ITI","","html-keyboard-response","131","597063","0.0-1.0-171.0","0","0","70073","","null","","","null","18","","","","","","","","","","","","","","","NaN",""
"","S1","","html-keyboard-response","132","597318","0.0-1.0-173.0","0","0","70073","","null","","","null","19","","","","","","","","","","","","","","","",""
"","ISI","","html-keyboard-response","133","598326","0.0-1.0-174.0","0","0","70073","","null","","","null","19","NaN","","","","","","","","","","","","","","",""
"","S2","","html-keyboard-response","134","598583","0.0-1.0-175.0","0","0","70073","","null","","","null","19","","NaN","","","","","","","","","","","","","",""
"","response","","html-keyboard-response","135","598692","0.0-1.0-176.0-0.0","0","0","70073","","106","","","68","19","","","1","19","training","adjacent","DC","4","3","L.jpg","Q.jpg","0","0","1","",""
"","feedback","","html-keyboard-response","136","599702","0.0-1.0-177.0-0.0","0","0","70073","","null","","","null","19","","","","","","","","","","","","","","","",""
"","ITI","","html-keyboard-response","137","600711","0.0-1.0-180.0","0","0","70073","","null","","","null","19","","","","","","","","","","","","","","","NaN",""
"","S1","","html-keyboard-response","138","600967","0.0-1.0-182.0","0","0","70073","","null","","","null","20","","","","","","","","","","","","","","","",""
"","ISI","","html-keyboard-response","139","601974","0.0-1.0-183.0","0","0","70073","","null","","","null","20","NaN","","","","","","","","","","","","","","",""
"","S2","","html-keyboard-response","140","602230","0.0-1.0-184.0","0","0","70073","","null","","","null","20","","NaN","","","","","","","","","","","","","",""
"","response","","html-keyboard-response","141","602945","0.0-1.0-185.0-0.0","0","0","70073","","711","","","68","20","","","1","20","training","adjacent","BA","2","1","P.jpg","M.jpg","0","0","1","",""
"","feedback","","html-keyboard-response","142","603950","0.0-1.0-186.0-0.0","0","0","70073","","null","","","null","20","","","","","","","","","","","","","","","",""
"","ITI","","html-keyboard-response","143","604959","0.0-1.0-189.0","0","0","70073","","null","","","null","20","","","","","","","","","","","","","","","NaN",""
"","S1","","html-keyboard-response","144","605214","0.0-1.0-191.0","0","0","70073","","null","","","null","21","","","","","","","","","","","","","","","",""
"","ISI","","html-keyboard-response","145","606222","0.0-1.0-192.0","0","0","70073","","null","","","null","21","NaN","","","","","","","","","","","","","","",""
"","S2","","html-keyboard-response","146","606478","0.0-1.0-193.0","0","0","70073","","null","","","null","21","","NaN","","","","","","","","","","","","","",""
"","response","","html-keyboard-response","147","606612","0.0-1.0-194.0-0.0","0","0","70073","","130","","","68","21","","","1","21","training","adjacent","FE","6","5","R.jpg","O.jpg","0","0","1","",""
"","feedback","","html-keyboard-response","148","607622","0.0-1.0-195.0-0.0","0","0","70073","","null","","","null","21","","","","","","","","","","","","","","","",""
"","ITI","","html-keyboard-response","149","608630","0.0-1.0-198.0","0","0","70073","","null","","","null","21","","","","","","","","","","","","","","","NaN",""
"","S1","","html-keyboard-response","150","608886","0.0-1.0-200.0","0","0","70073","","null","","","null","22","","","","","","","","","","","","","","","",""
"","ISI","","html-keyboard-response","151","609894","0.0-1.0-201.0","0","0","70073","","null","","","null","22","NaN","","","","","","","","","","","","","","",""
"","S2","","html-keyboard-response","152","610151","0.0-1.0-202.0","0","0","70073","","null","","","null","22","","NaN","","","","","","","","","","","","","",""
"","response","","html-keyboard-response","153","610314","0.0-1.0-203.0-0.0","0","0","70073","","160","","","75","22","","","1","22","training","adjacent","ED","5","4","O.jpg","L.jpg","1","0","0","",""
"","feedback","","html-keyboard-response","154","611326","0.0-1.0-204.0-0.0","0","0","70073","","null","","","null","22","","","","","","","","","","","","","","","",""
"","time_out","","html-keyboard-response","155","613334","0.0-1.0-206.0-0.0","0","0","70073","","null","","","null","22","","","","","","","","","","","","","","","",""
"","ITI","","html-keyboard-response","156","614343","0.0-1.0-207.0","0","0","70073","","null","","","null","22","","","","","","","","","","","","","","","NaN",""
"","S1","","html-keyboard-response","157","614598","0.0-1.0-209.0","0","0","70073","","null","","","null","23","","","","","","","","","","","","","","","",""
"","ISI","","html-keyboard-response","158","615606","0.0-1.0-210.0","0","0","70073","","null","","","null","23","NaN","","","","","","","","","","","","","","",""
"","S2","","html-keyboard-response","159","615862","0.0-1.0-211.0","0","0","70073","","null","","","null","23","","NaN","","","","","","","","","","","","","",""
"","response","","html-keyboard-response","160","615988","0.0-1.0-212.0-0.0","0","0","70073","","121","","","68","23","","","1","23","training","adjacent","DE","4","5","L.jpg","O.jpg","0","1","0","",""
"","feedback","","html-keyboard-response","161","616998","0.0-1.0-213.0-0.0","0","0","70073","","null","","","null","23","","","","","","","","","","","","","","","",""
"","time_out","","html-keyboard-response","162","619007","0.0-1.0-215.0-0.0","0","0","70073","","null","","","null","23","","","","","","","","","","","","","","","",""
"","ITI","","html-keyboard-response","163","620014","0.0-1.0-216.0","0","0","70073","","null","","","null","23","","","","","","","","","","","","","","","NaN",""
"","S1","","html-keyboard-response","164","620270","0.0-1.0-218.0","0","0","70073","","null","","","null","24","","","","","","","","","","","","","","","",""
"","ISI","","html-keyboard-response","165","621278","0.0-1.0-219.0","0","0","70073","","null","","","null","24","NaN","","","","","","","","","","","","","","",""
"","S2","","html-keyboard-response","166","621534","0.0-1.0-220.0","0","0","70073","","null","","","null","24","","NaN","","","","","","","","","","","","","",""
"","response","","html-keyboard-response","167","621740","0.0-1.0-221.0-0.0","0","0","70073","","202","","","68","24","","","1","24","training","adjacent","CB","3","2","Q.jpg","P.jpg","0","0","1","",""
"","feedback","","html-keyboard-response","168","622751","0.0-1.0-222.0-0.0","0","0","70073","","null","","","null","24","","","","","","","","","","","","","","","",""
"","ITI","","html-keyboard-response","169","623759","0.0-1.0-225.0","0","0","70073","","null","","","null","24","","","","","","","","","","","","","","","NaN",""
"","S1","","html-keyboard-response","170","624014","0.0-1.0-227.0","0","0","70073","","null","","","null","25","","","","","","","","","","","","","","","",""
"","ISI","","html-keyboard-response","171","625022","0.0-1.0-228.0","0","0","70073","","null","","","null","25","NaN","","","","","","","","","","","","","","",""
"","S2","","html-keyboard-response","172","625278","0.0-1.0-229.0","0","0","70073","","null","","","null","25","","NaN","","","","","","","","","","","","","",""
"","response","","html-keyboard-response","173","625326","0.0-1.0-230.0-0.0","0","0","70073","","44","","","75","25","","","1","25","training","adjacent","CD","3","4","Q.jpg","L.jpg","1","1","1","",""
"","feedback","","html-keyboard-response","174","626335","0.0-1.0-231.0-0.0","0","0","70073","","null","","","null","25","","","","","","","","","","","","","","","",""
"","ITI","","html-keyboard-response","175","627342","0.0-1.0-234.0","0","0","70073","","null","","","null","25","","","","","","","","","","","","","","","NaN",""
"","S1","","html-keyboard-response","176","627598","0.0-1.0-236.0","0","0","70073","","null","","","null","26","","","","","","","","","","","","","","","",""
"","ISI","","html-keyboard-response","177","628607","0.0-1.0-237.0","0","0","70073","","null","","","null","26","NaN","","","","","","","","","","","","","","",""
"","S2","","html-keyboard-response","178","628862","0.0-1.0-238.0","0","0","70073","","null","","","null","26","","NaN","","","","","","","","","","","","","",""
"","response","","html-keyboard-response","179","629148","0.0-1.0-239.0-0.0","0","0","70073","","281","","","68","26","","","1","26","training","adjacent","GF","7","6","N.jpg","R.jpg","0","0","1","",""
"","feedback","","html-keyboard-response","180","630158","0.0-1.0-240.0-0.0","0","0","70073","","null","","","null","26","","","","","","","","","","","","","","","",""
"","ITI","","html-keyboard-response","181","631166","0.0-1.0-243.0","0","0","70073","","null","","","null","26","","","","","","","","","","","","","","","NaN",""
"","S1","","html-keyboard-response","182","631424","0.0-1.0-245.0","0","0","70073","","null","","","null","27","","","","","","","","","","","","","","","",""
"","ISI","","html-keyboard-response","183","632431","0.0-1.0-246.0","0","0","70073","","null","","","null","27","NaN","","","","","","","","","","","","","","",""
"","S2","","html-keyboard-response","184","632686","0.0-1.0-247.0","0","0","70073","","null","","","null","27","","NaN","","","","","","","","","","","","","",""
"","response","","html-keyboard-response","185","632872","0.0-1.0-248.0-0.0","0","0","70073","","181","","","75","27","","","1","27","training","adjacent","DC","4","3","L.jpg","Q.jpg","1","0","0","",""
"","feedback","","html-keyboard-response","186","633879","0.0-1.0-249.0-0.0","0","0","70073","","null","","","null","27","","","","","","","","","","","","","","","",""
"","time_out","","html-keyboard-response","187","635886","0.0-1.0-251.0-0.0","0","0","70073","","null","","","null","27","","","","","","","","","","","","","","","",""
"","ITI","","html-keyboard-response","188","636894","0.0-1.0-252.0","0","0","70073","","null","","","null","27","","","","","","","","","","","","","","","NaN",""
"","S1","","html-keyboard-response","189","637150","0.0-1.0-254.0","0","0","70073","","null","","","null","28","","","","","","","","","","","","","","","",""
"","ISI","","html-keyboard-response","190","638158","0.0-1.0-255.0","0","0","70073","","null","","","null","28","NaN","","","","","","","","","","","","","","",""
"","S2","","html-keyboard-response","191","638414","0.0-1.0-256.0","0","0","70073","","null","","","null","28","","NaN","","","","","","","","","","","","","",""
"","response","","html-keyboard-response","192","638607","0.0-1.0-257.0-0.0","0","0","70073","","189","","","75","28","","","1","28","training","adjacent","FG","6","7","R.jpg","N.jpg","1","1","1","",""
"","feedback","","html-keyboard-response","193","639615","0.0-1.0-258.0-0.0","0","0","70073","","null","","","null","28","","","","","","","","","","","","","","","",""
"","ITI","","html-keyboard-response","194","640622","0.0-1.0-261.0","0","0","70073","","null","","","null","28","","","","","","","","","","","","","","","NaN",""
"","S1","","html-keyboard-response","195","640878","0.0-1.0-263.0","0","0","70073","","null","","","null","29","","","","","","","","","","","","","","","",""
"","ISI","","html-keyboard-response","196","641886","0.0-1.0-264.0","0","0","70073","","null","","","null","29","NaN","","","","","","","","","","","","","","",""
"","S2","","html-keyboard-response","197","642142","0.0-1.0-265.0","0","0","70073","","null","","","null","29","","NaN","","","","","","","","","","","","","",""
"","response","","html-keyboard-response","198","642165","0.0-1.0-266.0-0.0","0","0","70073","","21","","","68","29","","","1","29","training","adjacent","DE","4","5","L.jpg","O.jpg","0","1","0","",""
"","feedback","","html-keyboard-response","199","643174","0.0-1.0-267.0-0.0","0","0","70073","","null","","","null","29","","","","","","","","","","","","","","","",""
"","time_out","","html-keyboard-response","200","645182","0.0-1.0-269.0-0.0","0","0","70073","","null","","","null","29","","","","","","","","","","","","","","","",""
"","ITI","","html-keyboard-response","201","646191","0.0-1.0-270.0","0","0","70073","","null","","","null","29","","","","","","","","","","","","","","","NaN",""
"","S1","","html-keyboard-response","202","646446","0.0-1.0-272.0","0","0","70073","","null","","","null","30","","","","","","","","","","","","","","","",""
"","ISI","","html-keyboard-response","203","647454","0.0-1.0-273.0","0","0","70073","","null","","","null","30","NaN","","","","","","","","","","","","","","",""
"","S2","","html-keyboard-response","204","647710","0.0-1.0-274.0","0","0","70073","","null","","","null","30","","NaN","","","","","","","","","","","","","",""
"","response","","html-keyboard-response","205","647885","0.0-1.0-275.0-0.0","0","0","70073","","171","","","75","30","","","1","30","training","adjacent","CB","3","2","Q.jpg","P.jpg","1","0","0","",""
"","feedback","","html-keyboard-response","206","648894","0.0-1.0-276.0-0.0","0","0","70073","","null","","","null","30","","","","","","","","","","","","","","","",""
"","time_out","","html-keyboard-response","207","650903","0.0-1.0-278.0-0.0","0","0","70073","","null","","","null","30","","","","","","","","","","","","","","","",""
"","ITI","","html-keyboard-response","208","651910","0.0-1.0-279.0","0","0","70073","","null","","","null","30","","","","","","","","","","","","","","","NaN",""
"","S1","","html-keyboard-response","209","652166","0.0-1.0-281.0","0","0","70073","","null","","","null","31","","","","","","","","","","","","","","","",""
"","ISI","","html-keyboard-response","210","653174","0.0-1.0-282.0","0","0","70073","","null","","","null","31","NaN","","","","","","","","","","","","","","",""
"","S2","","html-keyboard-response","211","653431","0.0-1.0-283.0","0","0","70073","","null","","","null","31","","NaN","","","","","","","","","","","","","",""
"","response","","html-keyboard-response","212","653546","0.0-1.0-284.0-0.0","0","0","70073","","111","","","68","31","","","1","31","training","adjacent","DE","4","5","L.jpg","O.jpg","0","1","0","",""
"","feedback","","html-keyboard-response","213","654558","0.0-1.0-285.0-0.0","0","0","70073","","null","","","null","31","","","","","","","","","","","","","","","",""
"","time_out","","html-keyboard-response","214","656567","0.0-1.0-287.0-0.0","0","0","70073","","null","","","null","31","","","","","","","","","","","","","","","",""
"","ITI","","html-keyboard-response","215","657575","0.0-1.0-288.0","0","0","70073","","null","","","null","31","","","","","","","","","","","","","","","NaN",""
"","S1","","html-keyboard-response","216","657830","0.0-1.0-290.0","0","0","70073","","null","","","null","32","","","","","","","","","","","","","","","",""
"","ISI","","html-keyboard-response","217","658838","0.0-1.0-291.0","0","0","70073","","null","","","null","32","NaN","","","","","","","","","","","","","","",""
"","S2","","html-keyboard-response","218","659094","0.0-1.0-292.0","0","0","70073","","null","","","null","32","","NaN","","","","","","","","","","","","","",""
"","response","","html-keyboard-response","219","659144","0.0-1.0-293.0-0.0","0","0","70073","","45","","","75","32","","","1","32","training","adjacent","ED","5","4","O.jpg","L.jpg","1","0","0","",""
"","feedback","","html-keyboard-response","220","660151","0.0-1.0-294.0-0.0","0","0","70073","","null","","","null","32","","","","","","","","","","","","","","","",""
"","time_out","","html-keyboard-response","221","662159","0.0-1.0-296.0-0.0","0","0","70073","","null","","","null","32","","","","","","","","","","","","","","","",""
"","ITI","","html-keyboard-response","222","663170","0.0-1.0-297.0","0","0","70073","","null","","","null","32","","","","","","","","","","","","","","","NaN",""
"","S1","","html-keyboard-response","223","663431","0.0-1.0-299.0","0","0","70073","","null","","","null","33","","","","","","","","","","","","","","","",""
"","ISI","","html-keyboard-response","224","664439","0.0-1.0-300.0","0","0","70073","","null","","","null","33","NaN","","","","","","","","","","","","","","",""
"","S2","","html-keyboard-response","225","664695","0.0-1.0-301.0","0","0","70073","","null","","","null","33","","NaN","","","","","","","","","","","","","",""
"","response","","html-keyboard-response","226","664947","0.0-1.0-302.0-0.0","0","0","70073","","248","","","75","33","","","1","33","training","adjacent","ED","5","4","O.jpg","L.jpg","1","0","0","",""
"","feedback","","html-keyboard-response","227","665960","0.0-1.0-303.0-0.0","0","0","70073","","null","","","null","33","","","","","","","","","","","","","","","",""
"","time_out","","html-keyboard-response","228","667966","0.0-1.0-305.0-0.0","0","0","70073","","null","","","null","33","","","","","","","","","","","","","","","",""
"","ITI","","html-keyboard-response","229","668974","0.0-1.0-306.0","0","0","70073","","null","","","null","33","","","","","","","","","","","","","","","NaN",""
"","S1","","html-keyboard-response","230","669231","0.0-1.0-308.0","0","0","70073","","null","","","null","34","","","","","","","","","","","","","","","",""
"","ISI","","html-keyboard-response","231","670239","0.0-1.0-309.0","0","0","70073","","null","","","null","34","NaN","","","","","","","","","","","","","","",""
"","S2","","html-keyboard-response","232","670494","0.0-1.0-310.0","0","0","70073","","null","","","null","34","","NaN","","","","","","","","","","","","","",""
"","response","","html-keyboard-response","233","670809","0.0-1.0-311.0-0.0","0","0","70073","","311","","","68","34","","","1","34","training","adjacent","EF","5","6","O.jpg","R.jpg","0","1","0","",""
"","feedback","","html-keyboard-response","234","671815","0.0-1.0-312.0-0.0","0","0","70073","","null","","","null","34","","","","","","","","","","","","","","","",""
"","time_out","","html-keyboard-response","235","673823","0.0-1.0-314.0-0.0","0","0","70073","","null","","","null","34","","","","","","","","","","","","","","","",""
"","ITI","","html-keyboard-response","236","674830","0.0-1.0-315.0","0","0","70073","","null","","","null","34","","","","","","","","","","","","","","","NaN",""
"","S1","","html-keyboard-response","237","675086","0.0-1.0-317.0","0","0","70073","","null","","","null","35","","","","","","","","","","","","","","","",""
"","ISI","","html-keyboard-response","238","676094","0.0-1.0-318.0","0","0","70073","","null","","","null","35","NaN","","","","","","","","","","","","","","",""
"","S2","","html-keyboard-response","239","676350","0.0-1.0-319.0","0","0","70073","","null","","","null","35","","NaN","","","","","","","","","","","","","",""
"","response","","html-keyboard-response","240","676539","0.0-1.0-320.0-0.0","0","0","70073","","183","","","75","35","","","1","35","training","adjacent","FG","6","7","R.jpg","N.jpg","1","1","1","",""
"","feedback","","html-keyboard-response","241","677550","0.0-1.0-321.0-0.0","0","0","70073","","null","","","null","35","","","","","","","","","","","","","","","",""
"","ITI","","html-keyboard-response","242","678558","0.0-1.0-324.0","0","0","70073","","null","","","null","35","","","","","","","","","","","","","","","NaN",""
"","S1","","html-keyboard-response","243","678814","0.0-1.0-326.0","0","0","70073","","null","","","null","36","","","","","","","","","","","","","","","",""
"","ISI","","html-keyboard-response","244","679822","0.0-1.0-327.0","0","0","70073","","null","","","null","36","NaN","","","","","","","","","","","","","","",""
"","S2","","html-keyboard-response","245","680078","0.0-1.0-328.0","0","0","70073","","null","","","null","36","","NaN","","","","","","","","","","","","","",""
"","response","","html-keyboard-response","246","680280","0.0-1.0-329.0-0.0","0","0","70073","","197","","","68","36","","","1","36","training","adjacent","DE","4","5","L.jpg","O.jpg","0","1","0","",""
"","feedback","","html-keyboard-response","247","681286","0.0-1.0-330.0-0.0","0","0","70073","","null","","","null","36","","","","","","","","","","","","","","","",""
"","time_out","","html-keyboard-response","248","683294","0.0-1.0-332.0-0.0","0","0","70073","","null","","","null","36","","","","","","","","","","","","","","","",""
"","ITI","","html-keyboard-response","249","684302","0.0-1.0-333.0","0","0","70073","","null","","","null","36","","","","","","","","","","","","","","","NaN",""
"","S1","","html-keyboard-response","250","684558","0.0-1.0-335.0","0","0","70073","","null","","","null","37","","","","","","","","","","","","","","","",""
"","ISI","","html-keyboard-response","251","685566","0.0-1.0-336.0","0","0","70073","","null","","","null","37","NaN","","","","","","","","","","","","","","",""
"","S2","","html-keyboard-response","252","685822","0.0-1.0-337.0","0","0","70073","","null","","","null","37","","NaN","","","","","","","","","","","","","",""
"","response","","html-keyboard-response","253","686197","0.0-1.0-338.0-0.0","0","0","70073","","369","","","68","37","","","1","37","training","adjacent","GF","7","6","N.jpg","R.jpg","0","0","1","",""
"","feedback","","html-keyboard-response","254","687206","0.0-1.0-339.0-0.0","0","0","70073","","null","","","null","37","","","","","","","","","","","","","","","",""
"","ITI","","html-keyboard-response","255","688214","0.0-1.0-342.0","0","0","70073","","null","","","null","37","","","","","","","","","","","","","","","NaN",""
"","S1","","html-keyboard-response","256","688471","0.0-1.0-344.0","0","0","70073","","null","","","null","38","","","","","","","","","","","","","","","",""
"","ISI","","html-keyboard-response","257","689482","0.0-1.0-345.0","0","0","70073","","null","","","null","38","NaN","","","","","","","","","","","","","","",""
"","S2","","html-keyboard-response","258","689742","0.0-1.0-346.0","0","0","70073","","null","","","null","38","","NaN","","","","","","","","","","","","","",""
"","response","","html-keyboard-response","259","689873","0.0-1.0-347.0-0.0","0","0","70073","","127","","","68","38","","","1","38","training","adjacent","GF","7","6","N.jpg","R.jpg","0","0","1","",""
"","feedback","","html-keyboard-response","260","690879","0.0-1.0-348.0-0.0","0","0","70073","","null","","","null","38","","","","","","","","","","","","","","","",""
"","ITI","","html-keyboard-response","261","691886","0.0-1.0-351.0","0","0","70073","","null","","","null","38","","","","","","","","","","","","","","","NaN",""
"","S1","","html-keyboard-response","262","692142","0.0-1.0-353.0","0","0","70073","","null","","","null","39","","","","","","","","","","","","","","","",""
"","ISI","","html-keyboard-response","263","693150","0.0-1.0-354.0","0","0","70073","","null","","","null","39","NaN","","","","","","","","","","","","","","",""
"","S2","","html-keyboard-response","264","693407","0.0-1.0-355.0","0","0","70073","","null","","","null","39","","NaN","","","","","","","","","","","","","",""
"","response","","html-keyboard-response","265","693732","0.0-1.0-356.0-0.0","0","0","70073","","320","","","75","39","","","1","39","training","adjacent","AB","1","2","M.jpg","P.jpg","1","1","1","",""
"","feedback","","html-keyboard-response","266","694742","0.0-1.0-357.0-0.0","0","0","70073","","null","","","null","39","","","","","","","","","","","","","","","",""
"","ITI","","html-keyboard-response","267","695754","0.0-1.0-360.0","0","0","70073","","null","","","null","39","","","","","","","","","","","","","","","NaN",""
"","S1","","html-keyboard-response","268","696014","0.0-1.0-362.0","0","0","70073","","null","","","null","40","","","","","","","","","","","","","","","",""
"","ISI","","html-keyboard-response","269","697022","0.0-1.0-363.0","0","0","70073","","null","","","null","40","NaN","","","","","","","","","","","","","","",""
"","S2","","html-keyboard-response","270","697278","0.0-1.0-364.0","0","0","70073","","null","","","null","40","","NaN","","","","","","","","","","","","","",""
"","response","","html-keyboard-response","271","697629","0.0-1.0-365.0-0.0","0","0","70073","","347","","","68","40","","","1","40","training","adjacent","DC","4","3","L.jpg","Q.jpg","0","0","1","",""
"","feedback","","html-keyboard-response","272","698638","0.0-1.0-366.0-0.0","0","0","70073","","null","","","null","40","","","","","","","","","","","","","","","",""
"","ITI","","html-keyboard-response","273","699646","0.0-1.0-369.0","0","0","70073","","null","","","null","40","","","","","","","","","","","","","","","NaN",""
"","S1","","html-keyboard-response","274","699902","0.0-1.0-371.0","0","0","70073","","null","","","null","41","","","","","","","","","","","","","","","",""
"","ISI","","html-keyboard-response","275","700910","0.0-1.0-372.0","0","0","70073","","null","","","null","41","NaN","","","","","","","","","","","","","","",""
"","S2","","html-keyboard-response","276","701166","0.0-1.0-373.0","0","0","70073","","null","","","null","41","","NaN","","","","","","","","","","","","","",""
"","response","","html-keyboard-response","277","701375","0.0-1.0-374.0-0.0","0","0","70073","","205","","","68","41","","","1","41","training","adjacent","BA","2","1","P.jpg","M.jpg","0","0","1","",""
"","feedback","","html-keyboard-response","278","702382","0.0-1.0-375.0-0.0","0","0","70073","","null","","","null","41","","","","","","","","","","","","","","","",""
"","ITI","","html-keyboard-response","279","703391","0.0-1.0-378.0","0","0","70073","","null","","","null","41","","","","","","","","","","","","","","","NaN",""
"","S1","","html-keyboard-response","280","703646","0.0-1.0-380.0","0","0","70073","","null","","","null","42","","","","","","","","","","","","","","","",""
"","ISI","","html-keyboard-response","281","704654","0.0-1.0-381.0","0","0","70073","","null","","","null","42","NaN","","","","","","","","","","","","","","",""
"","S2","","html-keyboard-response","282","704911","0.0-1.0-382.0","0","0","70073","","null","","","null","42","","NaN","","","","","","","","","","","","","",""
"","response","","html-keyboard-response","283","705172","0.0-1.0-383.0-0.0","0","0","70073","","257","","","75","42","","","1","42","training","adjacent","FG","6","7","R.jpg","N.jpg","1","1","1","",""
"","feedback","","html-keyboard-response","284","706183","0.0-1.0-384.0-0.0","0","0","70073","","null","","","null","42","","","","","","","","","","","","","","","",""
"","ITI","","html-keyboard-response","285","707191","0.0-1.0-387.0","0","0","70073","","null","","","null","42","","","","","","","","","","","","","","","NaN",""
"","S1","","html-keyboard-response","286","707446","0.0-1.0-389.0","0","0","70073","","null","","","null","43","","","","","","","","","","","","","","","",""
"","ISI","","html-keyboard-response","287","708455","0.0-1.0-390.0","0","0","70073","","null","","","null","43","NaN","","","","","","","","","","","","","","",""
"","S2","","html-keyboard-response","288","708710","0.0-1.0-391.0","0","0","70073","","null","","","null","43","","NaN","","","","","","","","","","","","","",""
"","response","","html-keyboard-response","289","708829","0.0-1.0-392.0-0.0","0","0","70073","","115","","","75","43","","","1","43","training","adjacent","CB","3","2","Q.jpg","P.jpg","1","0","0","",""
"","feedback","","html-keyboard-response","290","709838","0.0-1.0-393.0-0.0","0","0","70073","","null","","","null","43","","","","","","","","","","","","","","","",""
"","time_out","","html-keyboard-response","291","711846","0.0-1.0-395.0-0.0","0","0","70073","","null","","","null","43","","","","","","","","","","","","","","","",""
"","ITI","","html-keyboard-response","292","712855","0.0-1.0-396.0","0","0","70073","","null","","","null","43","","","","","","","","","","","","","","","NaN",""
"","S1","","html-keyboard-response","293","713110","0.0-1.0-398.0","0","0","70073","","null","","","null","44","","","","","","","","","","","","","","","",""
"","ISI","","html-keyboard-response","294","714118","0.0-1.0-399.0","0","0","70073","","null","","","null","44","NaN","","","","","","","","","","","","","","",""
"","S2","","html-keyboard-response","295","714374","0.0-1.0-400.0","0","0","70073","","null","","","null","44","","NaN","","","","","","","","","","","","","",""
"","response","","html-keyboard-response","296","714700","0.0-1.0-401.0-0.0","0","0","70073","","321","","","75","44","","","1","44","training","adjacent","BC","2","3","P.jpg","Q.jpg","1","1","1","",""
"","feedback","","html-keyboard-response","297","715710","0.0-1.0-402.0-0.0","0","0","70073","","null","","","null","44","","","","","","","","","","","","","","","",""
"","ITI","","html-keyboard-response","298","716718","0.0-1.0-405.0","0","0","70073","","null","","","null","44","","","","","","","","","","","","","","","NaN",""
"","S1","","html-keyboard-response","299","716974","0.0-1.0-407.0","0","0","70073","","null","","","null","45","","","","","","","","","","","","","","","",""
"","ISI","","html-keyboard-response","300","717982","0.0-1.0-408.0","0","0","70073","","null","","","null","45","NaN","","","","","","","","","","","","","","",""
"","S2","","html-keyboard-response","301","718239","0.0-1.0-409.0","0","0","70073","","null","","","null","45","","NaN","","","","","","","","","","","","","",""
"","response","","html-keyboard-response","302","718534","0.0-1.0-410.0-0.0","0","0","70073","","292","","","75","45","","","1","45","training","adjacent","EF","5","6","O.jpg","R.jpg","1","1","1","",""
"","feedback","","html-keyboard-response","303","719542","0.0-1.0-411.0-0.0","0","0","70073","","null","","","null","45","","","","","","","","","","","","","","","",""
"","ITI","","html-keyboard-response","304","720551","0.0-1.0-414.0","0","0","70073","","null","","","null","45","","","","","","","","","","","","","","","NaN",""
"","S1","","html-keyboard-response","305","720806","0.0-1.0-416.0","0","0","70073","","null","","","null","46","","","","","","","","","","","","","","","",""
"","ISI","","html-keyboard-response","306","721814","0.0-1.0-417.0","0","0","70073","","null","","","null","46","NaN","","","","","","","","","","","","","","",""
"","S2","","html-keyboard-response","307","722071","0.0-1.0-418.0","0","0","70073","","null","","","null","46","","NaN","","","","","","","","","","","","","",""
"","response","","html-keyboard-response","308","722379","0.0-1.0-419.0-0.0","0","0","70073","","303","","","68","46","","","1","46","training","adjacent","BA","2","1","P.jpg","M.jpg","0","0","1","",""
"","feedback","","html-keyboard-response","309","723390","0.0-1.0-420.0-0.0","0","0","70073","","null","","","null","46","","","","","","","","","","","","","","","",""
"","ITI","","html-keyboard-response","310","724399","0.0-1.0-423.0","0","0","70073","","null","","","null","46","","","","","","","","","","","","","","","NaN",""
"","S1","","html-keyboard-response","311","724654","0.0-1.0-425.0","0","0","70073","","null","","","null","47","","","","","","","","","","","","","","","",""
"","ISI","","html-keyboard-response","312","725662","0.0-1.0-426.0","0","0","70073","","null","","","null","47","NaN","","","","","","","","","","","","","","",""
"","S2","","html-keyboard-response","313","725919","0.0-1.0-427.0","0","0","70073","","null","","","null","47","","NaN","","","","","","","","","","","","","",""
"","response","","html-keyboard-response","314","726187","0.0-1.0-428.0-0.0","0","0","70073","","265","","","75","47","","","1","47","training","adjacent","CD","3","4","Q.jpg","L.jpg","1","1","1","",""
"","feedback","","html-keyboard-response","315","727199","0.0-1.0-429.0-0.0","0","0","70073","","null","","","null","47","","","","","","","","","","","","","","","",""
"","ITI","","html-keyboard-response","316","728207","0.0-1.0-432.0","0","0","70073","","null","","","null","47","","","","","","","","","","","","","","","NaN",""
"","block_over","","html-keyboard-response","317","738280","0.0-1.0-433.0-0.0","0","0","70073","","10068","","","32","47","","","","","","","","","","","","","","","",""
"","S1","","html-keyboard-response","318","738542","0.0-1.0-434.0","0","0","70073","","null","","","null","48","","","","","","","","","","","","","","","",""
"","ISI","","html-keyboard-response","319","739551","0.0-1.0-435.0","0","0","70073","","null","","","null","48","NaN","","","","","","","","","","","","","","",""
"","S2","","html-keyboard-response","320","739806","0.0-1.0-436.0","0","0","70073","","null","","","null","48","","NaN","","","","","","","","","","","","","",""
"","response","","html-keyboard-response","321","740183","0.0-1.0-437.0-0.0","0","0","70073","","371","","","68","48","","","2","48","training","adjacent","BC","2","3","P.jpg","Q.jpg","0","1","0","",""
"","feedback","","html-keyboard-response","322","741191","0.0-1.0-438.0-0.0","0","0","70073","","null","","","null","48","","","","","","","","","","","","","","","",""
"","time_out","","html-keyboard-response","323","743199","0.0-1.0-440.0-0.0","0","0","70073","","null","","","null","48","","","","","","","","","","","","","","","",""
"","ITI","","html-keyboard-response","324","744207","0.0-1.0-441.0","0","0","70073","","null","","","null","48","","","","","","","","","","","","","","","NaN",""
"","S1","","html-keyboard-response","325","744462","0.0-1.0-443.0","0","0","70073","","null","","","null","49","","","","","","","","","","","","","","","",""
"","ISI","","html-keyboard-response","326","745470","0.0-1.0-444.0","0","0","70073","","null","","","null","49","NaN","","","","","","","","","","","","","","",""
"","S2","","html-keyboard-response","327","745727","0.0-1.0-445.0","0","0","70073","","null","","","null","49","","NaN","","","","","","","","","","","","","",""
"","response","","html-keyboard-response","328","745983","0.0-1.0-446.0-0.0","0","0","70073","","251","","","68","49","","","2","49","training","adjacent","FE","6","5","R.jpg","O.jpg","0","0","1","",""
"","feedback","","html-keyboard-response","329","746991","0.0-1.0-447.0-0.0","0","0","70073","","null","","","null","49","","","","","","","","","","","","","","","",""
"","ITI","","html-keyboard-response","330","747998","0.0-1.0-450.0","0","0","70073","","null","","","null","49","","","","","","","","","","","","","","","NaN",""
"","S1","","html-keyboard-response","331","748255","0.0-1.0-452.0","0","0","70073","","null","","","null","50","","","","","","","","","","","","","","","",""
"","ISI","","html-keyboard-response","332","749263","0.0-1.0-453.0","0","0","70073","","null","","","null","50","NaN","","","","","","","","","","","","","","",""
"","S2","","html-keyboard-response","333","749518","0.0-1.0-454.0","0","0","70073","","null","","","null","50","","NaN","","","","","","","","","","","","","",""
"","response","","html-keyboard-response","334","749886","0.0-1.0-455.0-0.0","0","0","70073","","364","","","68","50","","","2","50","training","adjacent","FE","6","5","R.jpg","O.jpg","0","0","1","",""
"","feedback","","html-keyboard-response","335","750894","0.0-1.0-456.0-0.0","0","0","70073","","null","","","null","50","","","","","","","","","","","","","","","",""
"","ITI","","html-keyboard-response","336","751902","0.0-1.0-459.0","0","0","70073","","null","","","null","50","","","","","","","","","","","","","","","NaN",""
"","S1","","html-keyboard-response","337","752158","0.0-1.0-461.0","0","0","70073","","null","","","null","51","","","","","","","","","","","","","","","",""
"","ISI","","html-keyboard-response","338","753166","0.0-1.0-462.0","0","0","70073","","null","","","null","51","NaN","","","","","","","","","","","","","","",""
"","S2","","html-keyboard-response","339","753424","0.0-1.0-463.0","0","0","70073","","null","","","null","51","","NaN","","","","","","","","","","","","","",""
"","response","","html-keyboard-response","340","753639","0.0-1.0-464.0-0.0","0","0","70073","","210","","","68","51","","","2","51","training","adjacent","EF","5","6","O.jpg","R.jpg","0","1","0","",""
"","feedback","","html-keyboard-response","341","754646","0.0-1.0-465.0-0.0","0","0","70073","","null","","","null","51","","","","","","","","","","","","","","","",""
"","time_out","","html-keyboard-response","342","756655","0.0-1.0-467.0-0.0","0","0","70073","","null","","","null","51","","","","","","","","","","","","","","","",""
"","ITI","","html-keyboard-response","343","757664","0.0-1.0-468.0","0","0","70073","","null","","","null","51","","","","","","","","","","","","","","","NaN",""
"","S1","","html-keyboard-response","344","757919","0.0-1.0-470.0","0","0","70073","","null","","","null","52","","","","","","","","","","","","","","","",""
"","ISI","","html-keyboard-response","345","758926","0.0-1.0-471.0","0","0","70073","","null","","","null","52","NaN","","","","","","","","","","","","","","",""
"","S2","","html-keyboard-response","346","759185","0.0-1.0-472.0","0","0","70073","","null","","","null","52","","NaN","","","","","","","","","","","","","",""
"","response","","html-keyboard-response","347","759550","0.0-1.0-473.0-0.0","0","0","70073","","361","","","68","52","","","2","52","training","adjacent","BA","2","1","P.jpg","M.jpg","0","0","1","",""
"","feedback","","html-keyboard-response","348","760558","0.0-1.0-474.0-0.0","0","0","70073","","null","","","null","52","","","","","","","","","","","","","","","",""
"","ITI","","html-keyboard-response","349","761566","0.0-1.0-477.0","0","0","70073","","null","","","null","52","","","","","","","","","","","","","","","NaN",""
"","S1","","html-keyboard-response","350","761822","0.0-1.0-479.0","0","0","70073","","null","","","null","53","","","","","","","","","","","","","","","",""
"","ISI","","html-keyboard-response","351","762830","0.0-1.0-480.0","0","0","70073","","null","","","null","53","NaN","","","","","","","","","","","","","","",""
"","S2","","html-keyboard-response","352","763086","0.0-1.0-481.0","0","0","70073","","null","","","null","53","","NaN","","","","","","","","","","","","","",""
"","response","","html-keyboard-response","353","763474","0.0-1.0-482.0-0.0","0","0","70073","","383","","","75","53","","","2","53","training","adjacent","CD","3","4","Q.jpg","L.jpg","1","1","1","",""
"","feedback","","html-keyboard-response","354","764487","0.0-1.0-483.0-0.0","0","0","70073","","null","","","null","53","","","","","","","","","","","","","","","",""
"","ITI","","html-keyboard-response","355","765494","0.0-1.0-486.0","0","0","70073","","null","","","null","53","","","","","","","","","","","","","","","NaN",""
"","S1","","html-keyboard-response","356","765751","0.0-1.0-488.0","0","0","70073","","null","","","null","54","","","","","","","","","","","","","","","",""
"","ISI","","html-keyboard-response","357","766758","0.0-1.0-489.0","0","0","70073","","null","","","null","54","NaN","","","","","","","","","","","","","","",""
"","S2","","html-keyboard-response","358","767014","0.0-1.0-490.0","0","0","70073","","null","","","null","54","","NaN","","","","","","","","","","","","","",""
"","response","","html-keyboard-response","359","767225","0.0-1.0-491.0-0.0","0","0","70073","","206","","","75","54","","","2","54","training","adjacent","CD","3","4","Q.jpg","L.jpg","1","1","1","",""
"","feedback","","html-keyboard-response","360","768230","0.0-1.0-492.0-0.0","0","0","70073","","null","","","null","54","","","","","","","","","","","","","","","",""
"","ITI","","html-keyboard-response","361","769239","0.0-1.0-495.0","0","0","70073","","null","","","null","54","","","","","","","","","","","","","","","NaN",""
"","S1","","html-keyboard-response","362","769494","0.0-1.0-497.0","0","0","70073","","null","","","null","55","","","","","","","","","","","","","","","",""
"","ISI","","html-keyboard-response","363","770502","0.0-1.0-498.0","0","0","70073","","null","","","null","55","NaN","","","","","","","","","","","","","","",""
"","S2","","html-keyboard-response","364","770758","0.0-1.0-499.0","0","0","70073","","null","","","null","55","","NaN","","","","","","","","","","","","","",""
"","response","","html-keyboard-response","365","770962","0.0-1.0-500.0-0.0","0","0","70073","","200","","","68","55","","","2","55","training","adjacent","FG","6","7","R.jpg","N.jpg","0","1","0","",""
"","feedback","","html-keyboard-response","366","771974","0.0-1.0-501.0-0.0","0","0","70073","","null","","","null","55","","","","","","","","","","","","","","","",""
"","time_out","","html-keyboard-response","367","773983","0.0-1.0-503.0-0.0","0","0","70073","","null","","","null","55","","","","","","","","","","","","","","","",""
"","ITI","","html-keyboard-response","368","774990","0.0-1.0-504.0","0","0","70073","","null","","","null","55","","","","","","","","","","","","","","","NaN",""
"","S1","","html-keyboard-response","369","775246","0.0-1.0-506.0","0","0","70073","","null","","","null","56","","","","","","","","","","","","","","","",""
"","ISI","","html-keyboard-response","370","776254","0.0-1.0-507.0","0","0","70073","","null","","","null","56","NaN","","","","","","","","","","","","","","",""
"","S2","","html-keyboard-response","371","776511","0.0-1.0-508.0","0","0","70073","","null","","","null","56","","NaN","","","","","","","","","","","","","",""
"","response","","html-keyboard-response","372","776636","0.0-1.0-509.0-0.0","0","0","70073","","119","","","68","56","","","2","56","training","adjacent","GF","7","6","N.jpg","R.jpg","0","0","1","",""
"","feedback","","html-keyboard-response","373","777646","0.0-1.0-510.0-0.0","0","0","70073","","null","","","null","56","","","","","","","","","","","","","","","",""
"","ITI","","html-keyboard-response","374","778655","0.0-1.0-513.0","0","0","70073","","null","","","null","56","","","","","","","","","","","","","","","NaN",""
"","S1","","html-keyboard-response","375","778911","0.0-1.0-515.0","0","0","70073","","null","","","null","57","","","","","","","","","","","","","","","",""
"","ISI","","html-keyboard-response","376","779919","0.0-1.0-516.0","0","0","70073","","null","","","null","57","NaN","","","","","","","","","","","","","","",""
"","S2","","html-keyboard-response","377","780174","0.0-1.0-517.0","0","0","70073","","null","","","null","57","","NaN","","","","","","","","","","","","","",""
"","response","","html-keyboard-response","378","780414","0.0-1.0-518.0-0.0","0","0","70073","","235","","","68","57","","","2","57","training","adjacent","CB","3","2","Q.jpg","P.jpg","0","0","1","",""
"","feedback","","html-keyboard-response","379","781422","0.0-1.0-519.0-0.0","0","0","70073","","null","","","null","57","","","","","","","","","","","","","","","",""
"","ITI","","html-keyboard-response","380","782430","0.0-1.0-522.0","0","0","70073","","null","","","null","57","","","","","","","","","","","","","","","NaN",""
"","S1","","html-keyboard-response","381","782686","0.0-1.0-524.0","0","0","70073","","null","","","null","58","","","","","","","","","","","","","","","",""
"","ISI","","html-keyboard-response","382","783694","0.0-1.0-525.0","0","0","70073","","null","","","null","58","NaN","","","","","","","","","","","","","","",""
"","S2","","html-keyboard-response","383","783951","0.0-1.0-526.0","0","0","70073","","null","","","null","58","","NaN","","","","","","","","","","","","","",""
"","response","","html-keyboard-response","384","784266","0.0-1.0-527.0-0.0","0","0","70073","","312","","","68","58","","","2","58","training","adjacent","BA","2","1","P.jpg","M.jpg","0","0","1","",""
"","feedback","","html-keyboard-response","385","785278","0.0-1.0-528.0-0.0","0","0","70073","","null","","","null","58","","","","","","","","","","","","","","","",""
"","ITI","","html-keyboard-response","386","786286","0.0-1.0-531.0","0","0","70073","","null","","","null","58","","","","","","","","","","","","","","","NaN",""
"","S1","","html-keyboard-response","387","786542","0.0-1.0-533.0","0","0","70073","","null","","","null","59","","","","","","","","","","","","","","","",""
"","ISI","","html-keyboard-response","388","787551","0.0-1.0-534.0","0","0","70073","","null","","","null","59","NaN","","","","","","","","","","","","","","",""
"","S2","","html-keyboard-response","389","787806","0.0-1.0-535.0","0","0","70073","","null","","","null","59","","NaN","","","","","","","","","","","","","",""
"","response","","html-keyboard-response","390","787988","0.0-1.0-536.0-0.0","0","0","70073","","178","","","68","59","","","2","59","training","adjacent","GF","7","6","N.jpg","R.jpg","0","0","1","",""
"","feedback","","html-keyboard-response","391","788999","0.0-1.0-537.0-0.0","0","0","70073","","null","","","null","59","","","","","","","","","","","","","","","",""
"","ITI","","html-keyboard-response","392","790007","0.0-1.0-540.0","0","0","70073","","null","","","null","59","","","","","","","","","","","","","","","NaN",""
"","S1","","html-keyboard-response","393","790262","0.0-1.0-542.0","0","0","70073","","null","","","null","60","","","","","","","","","","","","","","","",""
"","ISI","","html-keyboard-response","394","791271","0.0-1.0-543.0","0","0","70073","","null","","","null","60","NaN","","","","","","","","","","","","","","",""
"","S2","","html-keyboard-response","395","791526","0.0-1.0-544.0","0","0","70073","","null","","","null","60","","NaN","","","","","","","","","","","","","",""
"","response","","html-keyboard-response","396","791895","0.0-1.0-545.0-0.0","0","0","70073","","365","","","68","60","","","2","60","training","adjacent","BC","2","3","P.jpg","Q.jpg","0","1","0","",""
"","feedback","","html-keyboard-response","397","792903","0.0-1.0-546.0-0.0","0","0","70073","","null","","","null","60","","","","","","","","","","","","","","","",""
"","time_out","","html-keyboard-response","398","794911","0.0-1.0-548.0-0.0","0","0","70073","","null","","","null","60","","","","","","","","","","","","","","","",""
"","ITI","","html-keyboard-response","399","795919","0.0-1.0-549.0","0","0","70073","","null","","","null","60","","","","","","","","","","","","","","","NaN",""
"","S1","","html-keyboard-response","400","796174","0.0-1.0-551.0","0","0","70073","","null","","","null","61","","","","","","","","","","","","","","","",""
"","ISI","","html-keyboard-response","401","797182","0.0-1.0-552.0","0","0","70073","","null","","","null","61","NaN","","","","","","","","","","","","","","",""
"","S2","","html-keyboard-response","402","797439","0.0-1.0-553.0","0","0","70073","","null","","","null","61","","NaN","","","","","","","","","","","","","",""
"","response","","html-keyboard-response","403","797627","0.0-1.0-554.0-0.0","0","0","70073","","184","","","75","61","","","2","61","training","adjacent","FG","6","7","R.jpg","N.jpg","1","1","1","",""
"","feedback","","html-keyboard-response","404","798638","0.0-1.0-555.0-0.0","0","0","70073","","null","","","null","61","","","","","","","","","","","","","","","",""
"","ITI","","html-keyboard-response","405","799646","0.0-1.0-558.0","0","0","70073","","null","","","null","61","","","","","","","","","","","","","","","NaN",""
"","S1","","html-keyboard-response","406","799903","0.0-1.0-560.0","0","0","70073","","null","","","null","62","","","","","","","","","","","","","","","",""
"","ISI","","html-keyboard-response","407","800910","0.0-1.0-561.0","0","0","70073","","null","","","null","62","NaN","","","","","","","","","","","","","","",""
"","S2","","html-keyboard-response","408","801166","0.0-1.0-562.0","0","0","70073","","null","","","null","62","","NaN","","","","","","","","","","","","","",""
"","response","","html-keyboard-response","409","801392","0.0-1.0-563.0-0.0","0","0","70073","","222","","","75","62","","","2","62","training","adjacent","ED","5","4","O.jpg","L.jpg","1","0","0","",""
"","feedback","","html-keyboard-response","410","802398","0.0-1.0-564.0-0.0","0","0","70073","","null","","","null","62","","","","","","","","","","","","","","","",""
"","time_out","","html-keyboard-response","411","804406","0.0-1.0-566.0-0.0","0","0","70073","","null","","","null","62","","","","","","","","","","","","","","","",""
"","ITI","","html-keyboard-response","412","805414","0.0-1.0-567.0","0","0","70073","","null","","","null","62","","","","","","","","","","","","","","","NaN",""
"","S1","","html-keyboard-response","413","805670","0.0-1.0-569.0","0","0","70073","","null","","","null","63","","","","","","","","","","","","","","","",""
"","ISI","","html-keyboard-response","414","806678","0.0-1.0-570.0","0","0","70073","","null","","","null","63","NaN","","","","","","","","","","","","","","",""
"","S2","","html-keyboard-response","415","806934","0.0-1.0-571.0","0","0","70073","","null","","","null","63","","NaN","","","","","","","","","","","","","",""
"","response","","html-keyboard-response","416","807137","0.0-1.0-572.0-0.0","0","0","70073","","198","","","68","63","","","2","63","training","adjacent","DE","4","5","L.jpg","O.jpg","0","1","0","",""
"","feedback","","html-keyboard-response","417","808142","0.0-1.0-573.0-0.0","0","0","70073","","null","","","null","63","","","","","","","","","","","","","","","",""
"","time_out","","html-keyboard-response","418","810151","0.0-1.0-575.0-0.0","0","0","70073","","null","","","null","63","","","","","","","","","","","","","","","",""
"","ITI","","html-keyboard-response","419","811159","0.0-1.0-576.0","0","0","70073","","null","","","null","63","","","","","","","","","","","","","","","NaN",""
"","S1","","html-keyboard-response","420","811414","0.0-1.0-578.0","0","0","70073","","null","","","null","64","","","","","","","","","","","","","","","",""
"","ISI","","html-keyboard-response","421","812423","0.0-1.0-579.0","0","0","70073","","136","","","75","64","k","","","","","","","","","","","","","","",""
"","S2","","html-keyboard-response","422","812679","0.0-1.0-580.0","0","0","70073","","null","","","null","64","","NaN","","","","","","","","","","","","","",""
"","response","","html-keyboard-response","423","813038","0.0-1.0-581.0-0.0","0","0","70073","","355","","","75","64","","","2","64","training","adjacent","AB","1","2","M.jpg","P.jpg","1","1","1","",""
"","feedback","","html-keyboard-response","424","814046","0.0-1.0-582.0-0.0","0","0","70073","","null","","","null","64","","","","","","","","","","","","","","","",""
"","ITI","","html-keyboard-response","425","815054","0.0-1.0-585.0","0","0","70073","","null","","","null","64","","","","","","","","","","","","","","","NaN",""
"","S1","","html-keyboard-response","426","815311","0.0-1.0-587.0","0","0","70073","","null","","","null","65","","","","","","","","","","","","","","","",""
"","ISI","","html-keyboard-response","427","816319","0.0-1.0-588.0","0","0","70073","","482","","","75","65","k","","","","","","","","","","","","","","",""
"","S2","","html-keyboard-response","428","816574","0.0-1.0-589.0","0","0","70073","","null","","","null","65","","NaN","","","","","","","","","","","","","",""
"","response","","html-keyboard-response","429","816767","0.0-1.0-590.0-0.0","0","0","70073","","189","","","75","65","","","2","65","training","adjacent","FG","6","7","R.jpg","N.jpg","1","1","1","",""
"","feedback","","html-keyboard-response","430","817774","0.0-1.0-591.0-0.0","0","0","70073","","null","","","null","65","","","","","","","","","","","","","","","",""
"","ITI","","html-keyboard-response","431","818783","0.0-1.0-594.0","0","0","70073","","null","","","null","65","","","","","","","","","","","","","","","NaN",""
"","S1","","html-keyboard-response","432","819038","0.0-1.0-596.0","0","0","70073","","null","","","null","66","","","","","","","","","","","","","","","",""
"","ISI","","html-keyboard-response","433","820046","0.0-1.0-597.0","0","0","70073","","null","","","null","66","NaN","","","","","","","","","","","","","","",""
"","S2","","html-keyboard-response","434","820302","0.0-1.0-598.0","0","0","70073","","null","","","null","66","","NaN","","","","","","","","","","","","","",""
"","response","","html-keyboard-response","435","820858","0.0-1.0-599.0-0.0","0","0","70073","","552","","","68","66","","","2","66","training","adjacent","AB","1","2","M.jpg","P.jpg","0","1","0","",""
"","feedback","","html-keyboard-response","436","821870","0.0-1.0-600.0-0.0","0","0","70073","","null","","","null","66","","","","","","","","","","","","","","","",""
"","time_out","","html-keyboard-response","437","823878","0.0-1.0-602.0-0.0","0","0","70073","","null","","","null","66","","","","","","","","","","","","","","","",""
"","ITI","","html-keyboard-response","438","824886","0.0-1.0-603.0","0","0","70073","","null","","","null","66","","","","","","","","","","","","","","","NaN",""
"","S1","","html-keyboard-response","439","825143","0.0-1.0-605.0","0","0","70073","","null","","","null","67","","","","","","","","","","","","","","","",""
"","ISI","","html-keyboard-response","440","826150","0.0-1.0-606.0","0","0","70073","","null","","","null","67","NaN","","","","","","","","","","","","","","",""
"","S2","","html-keyboard-response","441","826406","0.0-1.0-607.0","0","0","70073","","null","","","null","67","","NaN","","","","","","","","","","","","","",""
"","response","","html-keyboard-response","442","826795","0.0-1.0-608.0-0.0","0","0","70073","","384","","","68","67","","","2","67","training","adjacent","EF","5","6","O.jpg","R.jpg","0","1","0","",""
"","feedback","","html-keyboard-response","443","827806","0.0-1.0-609.0-0.0","0","0","70073","","null","","","null","67","","","","","","","","","","","","","","","",""
"","time_out","","html-keyboard-response","444","829815","0.0-1.0-611.0-0.0","0","0","70073","","null","","","null","67","","","","","","","","","","","","","","","",""
"","ITI","","html-keyboard-response","445","830822","0.0-1.0-612.0","0","0","70073","","null","","","null","67","","","","","","","","","","","","","","","NaN",""
"","S1","","html-keyboard-response","446","831078","0.0-1.0-614.0","0","0","70073","","null","","","null","68","","","","","","","","","","","","","","","",""
"","ISI","","html-keyboard-response","447","832086","0.0-1.0-615.0","0","0","70073","","null","","","null","68","NaN","","","","","","","","","","","","","","",""
"","S2","","html-keyboard-response","448","832342","0.0-1.0-616.0","0","0","70073","","null","","","null","68","","NaN","","","","","","","","","","","","","",""
"","response","","html-keyboard-response","449","832736","0.0-1.0-617.0-0.0","0","0","70073","","390","","","68","68","","","2","68","training","adjacent","CB","3","2","Q.jpg","P.jpg","0","0","1","",""
"","feedback","","html-keyboard-response","450","833743","0.0-1.0-618.0-0.0","0","0","70073","","null","","","null","68","","","","","","","","","","","","","","","",""
"","ITI","","html-keyboard-response","451","834750","0.0-1.0-621.0","0","0","70073","","null","","","null","68","","","","","","","","","","","","","","","NaN",""
"","S1","","html-keyboard-response","452","835006","0.0-1.0-623.0","0","0","70073","","null","","","null","69","","","","","","","","","","","","","","","",""
"","ISI","","html-keyboard-response","453","836015","0.0-1.0-624.0","0","0","70073","","null","","","null","69","NaN","","","","","","","","","","","","","","",""
"","S2","","html-keyboard-response","454","836270","0.0-1.0-625.0","0","0","70073","","null","","","null","69","","NaN","","","","","","","","","","","","","",""
"","response","","html-keyboard-response","455","836711","0.0-1.0-626.0-0.0","0","0","70073","","437","","","75","69","","","2","69","training","adjacent","BC","2","3","P.jpg","Q.jpg","1","1","1","",""
"","feedback","","html-keyboard-response","456","837719","0.0-1.0-627.0-0.0","0","0","70073","","null","","","null","69","","","","","","","","","","","","","","","",""
"","ITI","","html-keyboard-response","457","838727","0.0-1.0-630.0","0","0","70073","","null","","","null","69","","","","","","","","","","","","","","","NaN",""
"","S1","","html-keyboard-response","458","838982","0.0-1.0-632.0","0","0","70073","","null","","","null","70","","","","","","","","","","","","","","","",""
"","ISI","","html-keyboard-response","459","839990","0.0-1.0-633.0","0","0","70073","","null","","","null","70","NaN","","","","","","","","","","","","","","",""
"","S2","","html-keyboard-response","460","840247","0.0-1.0-634.0","0","0","70073","","null","","","null","70","","NaN","","","","","","","","","","","","","",""
"","response","","html-keyboard-response","461","840705","0.0-1.0-635.0-0.0","0","0","70073","","454","","","75","70","","","2","70","training","adjacent","BC","2","3","P.jpg","Q.jpg","1","1","1","",""
"","feedback","","html-keyboard-response","462","841711","0.0-1.0-636.0-0.0","0","0","70073","","null","","","null","70","","","","","","","","","","","","","","","",""
"","ITI","","html-keyboard-response","463","842718","0.0-1.0-639.0","0","0","70073","","null","","","null","70","","","","","","","","","","","","","","","NaN",""
"","S1","","html-keyboard-response","464","842974","0.0-1.0-641.0","0","0","70073","","null","","","null","71","","","","","","","","","","","","","","","",""
"","ISI","","html-keyboard-response","465","843982","0.0-1.0-642.0","0","0","70073","","null","","","null","71","NaN","","","","","","","","","","","","","","",""
"","S2","","html-keyboard-response","466","844239","0.0-1.0-643.0","0","0","70073","","null","","","null","71","","NaN","","","","","","","","","","","","","",""
"","response","","html-keyboard-response","467","844670","0.0-1.0-644.0-0.0","0","0","70073","","427","","","75","71","","","2","71","training","adjacent","CD","3","4","Q.jpg","L.jpg","1","1","1","",""
"","feedback","","html-keyboard-response","468","845678","0.0-1.0-645.0-0.0","0","0","70073","","null","","","null","71","","","","","","","","","","","","","","","",""
"","ITI","","html-keyboard-response","469","846686","0.0-1.0-648.0","0","0","70073","","null","","","null","71","","","","","","","","","","","","","","","NaN",""
"","S1","","html-keyboard-response","470","846942","0.0-1.0-650.0","0","0","70073","","null","","","null","72","","","","","","","","","","","","","","","",""
"","ISI","","html-keyboard-response","471","847951","0.0-1.0-651.0","0","0","70073","","null","","","null","72","NaN","","","","","","","","","","","","","","",""
"","S2","","html-keyboard-response","472","848206","0.0-1.0-652.0","0","0","70073","","null","","","null","72","","NaN","","","","","","","","","","","","","",""
"","response","","html-keyboard-response","473","848252","0.0-1.0-653.0-0.0","0","0","70073","","42","","","68","72","","","2","72","training","adjacent","GF","7","6","N.jpg","R.jpg","0","0","1","",""
"","feedback","","html-keyboard-response","474","849262","0.0-1.0-654.0-0.0","0","0","70073","","null","","","null","72","","","","","","","","","","","","","","","",""
"","ITI","","html-keyboard-response","475","850270","0.0-1.0-657.0","0","0","70073","","null","","","null","72","","","","","","","","","","","","","","","NaN",""
"","S1","","html-keyboard-response","476","850526","0.0-1.0-659.0","0","0","70073","","null","","","null","73","","","","","","","","","","","","","","","",""
"","ISI","","html-keyboard-response","477","851534","0.0-1.0-660.0","0","0","70073","","null","","","null","73","NaN","","","","","","","","","","","","","","",""
"","S2","","html-keyboard-response","478","851790","0.0-1.0-661.0","0","0","70073","","null","","","null","73","","NaN","","","","","","","","","","","","","",""
"","response","","html-keyboard-response","479","851979","0.0-1.0-662.0-0.0","0","0","70073","","185","","","68","73","","","2","73","training","adjacent","FE","6","5","R.jpg","O.jpg","0","0","1","",""
"","feedback","","html-keyboard-response","480","852990","0.0-1.0-663.0-0.0","0","0","70073","","null","","","null","73","","","","","","","","","","","","","","","",""
"","ITI","","html-keyboard-response","481","853998","0.0-1.0-666.0","0","0","70073","","null","","","null","73","","","","","","","","","","","","","","","NaN",""
"","S1","","html-keyboard-response","482","854255","0.0-1.0-668.0","0","0","70073","","null","","","null","74","","","","","","","","","","","","","","","",""
"","ISI","","html-keyboard-response","483","855262","0.0-1.0-669.0","0","0","70073","","null","","","null","74","NaN","","","","","","","","","","","","","","",""
"","S2","","html-keyboard-response","484","855518","0.0-1.0-670.0","0","0","70073","","null","","","null","74","","NaN","","","","","","","","","","","","","",""
"","response","","html-keyboard-response","485","855762","0.0-1.0-671.0-0.0","0","0","70073","","240","","","68","74","","","2","74","training","adjacent","CB","3","2","Q.jpg","P.jpg","0","0","1","",""
"","feedback","","html-keyboard-response","486","856774","0.0-1.0-672.0-0.0","0","0","70073","","null","","","null","74","","","","","","","","","","","","","","","",""
"","ITI","","html-keyboard-response","487","857782","0.0-1.0-675.0","0","0","70073","","null","","","null","74","","","","","","","","","","","","","","","NaN",""
"","S1","","html-keyboard-response","488","858038","0.0-1.0-677.0","0","0","70073","","null","","","null","75","","","","","","","","","","","","","","","",""
"","ISI","","html-keyboard-response","489","859046","0.0-1.0-678.0","0","0","70073","","null","","","null","75","NaN","","","","","","","","","","","","","","",""
"","S2","","html-keyboard-response","490","859302","0.0-1.0-679.0","0","0","70073","","null","","","null","75","","NaN","","","","","","","","","","","","","",""
"","response","","html-keyboard-response","491","859674","0.0-1.0-680.0-0.0","0","0","70073","","368","","","75","75","","","2","75","training","adjacent","EF","5","6","O.jpg","R.jpg","1","1","1","",""
"","feedback","","html-keyboard-response","492","860686","0.0-1.0-681.0-0.0","0","0","70073","","null","","","null","75","","","","","","","","","","","","","","","",""
"","ITI","","html-keyboard-response","493","861694","0.0-1.0-684.0","0","0","70073","","null","","","null","75","","","","","","","","","","","","","","","NaN",""
"","S1","","html-keyboard-response","494","861950","0.0-1.0-686.0","0","0","70073","","null","","","null","76","","","","","","","","","","","","","","","",""
"","ISI","","html-keyboard-response","495","862959","0.0-1.0-687.0","0","0","70073","","null","","","null","76","NaN","","","","","","","","","","","","","","",""
"","S2","","html-keyboard-response","496","863223","0.0-1.0-688.0","0","0","70073","","null","","","null","76","","NaN","","","","","","","","","","","","","",""
"","response","","html-keyboard-response","497","863336","0.0-1.0-689.0-0.0","0","0","70073","","107","","","68","76","","","2","76","training","adjacent","DC","4","3","L.jpg","Q.jpg","0","0","1","",""
"","feedback","","html-keyboard-response","498","864343","0.0-1.0-690.0-0.0","0","0","70073","","null","","","null","76","","","","","","","","","","","","","","","",""
"","ITI","","html-keyboard-response","499","865351","0.0-1.0-693.0","0","0","70073","","null","","","null","76","","","","","","","","","","","","","","","NaN",""
"","S1","","html-keyboard-response","500","865606","0.0-1.0-695.0","0","0","70073","","null","","","null","77","","","","","","","","","","","","","","","",""
"","ISI","","html-keyboard-response","501","866614","0.0-1.0-696.0","0","0","70073","","null","","","null","77","NaN","","","","","","","","","","","","","","",""
"","S2","","html-keyboard-response","502","866871","0.0-1.0-697.0","0","0","70073","","null","","","null","77","","NaN","","","","","","","","","","","","","",""
"","response","","html-keyboard-response","503","867130","0.0-1.0-698.0-0.0","0","0","70073","","254","","","68","77","","","2","77","training","adjacent","DC","4","3","L.jpg","Q.jpg","0","0","1","",""
"","feedback","","html-keyboard-response","504","868144","0.0-1.0-699.0-0.0","0","0","70073","","null","","","null","77","","","","","","","","","","","","","","","",""
"","ITI","","html-keyboard-response","505","869150","0.0-1.0-702.0","0","0","70073","","null","","","null","77","","","","","","","","","","","","","","","NaN",""
"","S1","","html-keyboard-response","506","869407","0.0-1.0-704.0","0","0","70073","","null","","","null","78","","","","","","","","","","","","","","","",""
"","ISI","","html-keyboard-response","507","870414","0.0-1.0-705.0","0","0","70073","","null","","","null","78","NaN","","","","","","","","","","","","","","",""
"","S2","","html-keyboard-response","508","870671","0.0-1.0-706.0","0","0","70073","","null","","","null","78","","NaN","","","","","","","","","","","","","",""
"","response","","html-keyboard-response","509","870706","0.0-1.0-707.0-0.0","0","0","70073","","31","","","68","78","","","2","78","training","adjacent","DC","4","3","L.jpg","Q.jpg","0","0","1","",""
"","feedback","","html-keyboard-response","510","871719","0.0-1.0-708.0-0.0","0","0","70073","","null","","","null","78","","","","","","","","","","","","","","","",""
"","ITI","","html-keyboard-response","511","872726","0.0-1.0-711.0","0","0","70073","","null","","","null","78","","","","","","","","","","","","","","","NaN",""
"","S1","","html-keyboard-response","512","872983","0.0-1.0-713.0","0","0","70073","","null","","","null","79","","","","","","","","","","","","","","","",""
"","ISI","","html-keyboard-response","513","873990","0.0-1.0-714.0","0","0","70073","","null","","","null","79","NaN","","","","","","","","","","","","","","",""
"","S2","","html-keyboard-response","514","874247","0.0-1.0-715.0","0","0","70073","","null","","","null","79","","NaN","","","","","","","","","","","","","",""
"","response","","html-keyboard-response","515","874428","0.0-1.0-716.0-0.0","0","0","70073","","176","","","75","79","","","2","79","training","adjacent","ED","5","4","O.jpg","L.jpg","1","0","0","",""
"","feedback","","html-keyboard-response","516","875438","0.0-1.0-717.0-0.0","0","0","70073","","null","","","null","79","","","","","","","","","","","","","","","",""
"","time_out","","html-keyboard-response","517","877446","0.0-1.0-719.0-0.0","0","0","70073","","null","","","null","79","","","","","","","","","","","","","","","",""
"","ITI","","html-keyboard-response","518","878454","0.0-1.0-720.0","0","0","70073","","null","","","null","79","","","","","","","","","","","","","","","NaN",""
"","S1","","html-keyboard-response","519","878711","0.0-1.0-722.0","0","0","70073","","null","","","null","80","","","","","","","","","","","","","","","",""
"","ISI","","html-keyboard-response","520","879720","0.0-1.0-723.0","0","0","70073","","null","","","null","80","NaN","","","","","","","","","","","","","","",""
"","S2","","html-keyboard-response","521","879982","0.0-1.0-724.0","0","0","70073","","null","","","null","80","","NaN","","","","","","","","","","","","","",""
"","response","","html-keyboard-response","522","880122","0.0-1.0-725.0-0.0","0","0","70073","","136","","","75","80","","","2","80","training","adjacent","FG","6","7","R.jpg","N.jpg","1","1","1","",""
"","feedback","","html-keyboard-response","523","881134","0.0-1.0-726.0-0.0","0","0","70073","","null","","","null","80","","","","","","","","","","","","","","","",""
"","ITI","","html-keyboard-response","524","882142","0.0-1.0-729.0","0","0","70073","","null","","","null","80","","","","","","","","","","","","","","","NaN",""
"","S1","","html-keyboard-response","525","882398","0.0-1.0-731.0","0","0","70073","","null","","","null","81","","","","","","","","","","","","","","","",""
"","ISI","","html-keyboard-response","526","883406","0.0-1.0-732.0","0","0","70073","","null","","","null","81","NaN","","","","","","","","","","","","","","",""
"","S2","","html-keyboard-response","527","883662","0.0-1.0-733.0","0","0","70073","","null","","","null","81","","NaN","","","","","","","","","","","","","",""
"","response","","html-keyboard-response","528","883745","0.0-1.0-734.0-0.0","0","0","70073","","78","","","75","81","","","2","81","training","adjacent","AB","1","2","M.jpg","P.jpg","1","1","1","",""
"","feedback","","html-keyboard-response","529","884750","0.0-1.0-735.0-0.0","0","0","70073","","null","","","null","81","","","","","","","","","","","","","","","",""
"","ITI","","html-keyboard-response","530","885758","0.0-1.0-738.0","0","0","70073","","null","","","null","81","","","","","","","","","","","","","","","NaN",""
"","S1","","html-keyboard-response","531","886014","0.0-1.0-740.0","0","0","70073","","null","","","null","82","","","","","","","","","","","","","","","",""
"","ISI","","html-keyboard-response","532","887022","0.0-1.0-741.0","0","0","70073","","null","","","null","82","NaN","","","","","","","","","","","","","","",""
"","S2","","html-keyboard-response","533","887278","0.0-1.0-742.0","0","0","70073","","null","","","null","82","","NaN","","","","","","","","","","","","","",""
"","response","","html-keyboard-response","534","887360","0.0-1.0-743.0-0.0","0","0","70073","","78","","","75","82","","","2","82","training","adjacent","DE","4","5","L.jpg","O.jpg","1","1","1","",""
"","feedback","","html-keyboard-response","535","888366","0.0-1.0-744.0-0.0","0","0","70073","","null","","","null","82","","","","","","","","","","","","","","","",""
"","ITI","","html-keyboard-response","536","889374","0.0-1.0-747.0","0","0","70073","","null","","","null","82","","","","","","","","","","","","","","","NaN",""
"","S1","","html-keyboard-response","537","889631","0.0-1.0-749.0","0","0","70073","","null","","","null","83","","","","","","","","","","","","","","","",""
"","ISI","","html-keyboard-response","538","890638","0.0-1.0-750.0","0","0","70073","","null","","","null","83","NaN","","","","","","","","","","","","","","",""
"","S2","","html-keyboard-response","539","890895","0.0-1.0-751.0","0","0","70073","","null","","","null","83","","NaN","","","","","","","","","","","","","",""
"","response","","html-keyboard-response","540","890971","0.0-1.0-752.0-0.0","0","0","70073","","71","","","75","83","","","2","83","training","adjacent","CD","3","4","Q.jpg","L.jpg","1","1","1","",""
"","feedback","","html-keyboard-response","541","891982","0.0-1.0-753.0-0.0","0","0","70073","","null","","","null","83","","","","","","","","","","","","","","","",""
"","ITI","","html-keyboard-response","542","892990","0.0-1.0-756.0","0","0","70073","","null","","","null","83","","","","","","","","","","","","","","","NaN",""
"","S1","","html-keyboard-response","543","893247","0.0-1.0-758.0","0","0","70073","","null","","","null","84","","","","","","","","","","","","","","","",""
"","ISI","","html-keyboard-response","544","894254","0.0-1.0-759.0","0","0","70073","","null","","","null","84","NaN","","","","","","","","","","","","","","",""
"","S2","","html-keyboard-response","545","894510","0.0-1.0-760.0","0","0","70073","","null","","","null","84","","NaN","","","","","","","","","","","","","",""
"","response","","html-keyboard-response","546","894639","0.0-1.0-761.0-0.0","0","0","70073","","125","","","75","84","","","2","84","training","adjacent","DE","4","5","L.jpg","O.jpg","1","1","1","",""
"","feedback","","html-keyboard-response","547","895647","0.0-1.0-762.0-0.0","0","0","70073","","null","","","null","84","","","","","","","","","","","","","","","",""
"","ITI","","html-keyboard-response","548","896655","0.0-1.0-765.0","0","0","70073","","null","","","null","84","","","","","","","","","","","","","","","NaN",""
"","S1","","html-keyboard-response","549","896911","0.0-1.0-767.0","0","0","70073","","null","","","null","85","","","","","","","","","","","","","","","",""
"","ISI","","html-keyboard-response","550","897918","0.0-1.0-768.0","0","0","70073","","null","","","null","85","NaN","","","","","","","","","","","","","","",""
"","S2","","html-keyboard-response","551","898175","0.0-1.0-769.0","0","0","70073","","null","","","null","85","","NaN","","","","","","","","","","","","","",""
"","response","","html-keyboard-response","552","898320","0.0-1.0-770.0-0.0","0","0","70073","","141","","","75","85","","","2","85","training","adjacent","ED","5","4","O.jpg","L.jpg","1","0","0","",""
"","feedback","","html-keyboard-response","553","899328","0.0-1.0-771.0-0.0","0","0","70073","","null","","","null","85","","","","","","","","","","","","","","","",""
"","time_out","","html-keyboard-response","554","901334","0.0-1.0-773.0-0.0","0","0","70073","","null","","","null","85","","","","","","","","","","","","","","","",""
"","ITI","","html-keyboard-response","555","902342","0.0-1.0-774.0","0","0","70073","","null","","","null","85","","","","","","","","","","","","","","","NaN",""
"","S1","","html-keyboard-response","556","902599","0.0-1.0-776.0","0","0","70073","","null","","","null","86","","","","","","","","","","","","","","","",""
"","ISI","","html-keyboard-response","557","903607","0.0-1.0-777.0","0","0","70073","","null","","","null","86","NaN","","","","","","","","","","","","","","",""
"","S2","","html-keyboard-response","558","903864","0.0-1.0-778.0","0","0","70073","","null","","","null","86","","NaN","","","","","","","","","","","","","",""
"","response","","html-keyboard-response","559","904449","0.0-1.0-779.0-0.0","0","0","70073","","579","","","68","86","","","2","86","training","adjacent","BA","2","1","P.jpg","M.jpg","0","0","1","",""
"","feedback","","html-keyboard-response","560","905455","0.0-1.0-780.0-0.0","0","0","70073","","null","","","null","86","","","","","","","","","","","","","","","",""
"","ITI","","html-keyboard-response","561","906462","0.0-1.0-783.0","0","0","70073","","null","","","null","86","","","","","","","","","","","","","","","NaN",""
"","S1","","html-keyboard-response","562","906718","0.0-1.0-785.0","0","0","70073","","null","","","null","87","","","","","","","","","","","","","","","",""
"","ISI","","html-keyboard-response","563","907727","0.0-1.0-786.0","0","0","70073","","null","","","null","87","NaN","","","","","","","","","","","","","","",""
"","S2","","html-keyboard-response","564","907983","0.0-1.0-787.0","0","0","70073","","null","","","null","87","","NaN","","","","","","","","","","","","","",""
"","response","","html-keyboard-response","565","908097","0.0-1.0-788.0-0.0","0","0","70073","","107","","","75","87","","","2","87","training","adjacent","AB","1","2","M.jpg","P.jpg","1","1","1","",""
"","feedback","","html-keyboard-response","566","909102","0.0-1.0-789.0-0.0","0","0","70073","","null","","","null","87","","","","","","","","","","","","","","","",""
"","ITI","","html-keyboard-response","567","910110","0.0-1.0-792.0","0","0","70073","","null","","","null","87","","","","","","","","","","","","","","","NaN",""
"","S1","","html-keyboard-response","568","910366","0.0-1.0-794.0","0","0","70073","","null","","","null","88","","","","","","","","","","","","","","","",""
"","ISI","","html-keyboard-response","569","911374","0.0-1.0-795.0","0","0","70073","","null","","","null","88","NaN","","","","","","","","","","","","","","",""
"","S2","","html-keyboard-response","570","911630","0.0-1.0-796.0","0","0","70073","","null","","","null","88","","NaN","","","","","","","","","","","","","",""
"","response","","html-keyboard-response","571","911790","0.0-1.0-797.0-0.0","0","0","70073","","156","","","68","88","","","2","88","training","adjacent","DC","4","3","L.jpg","Q.jpg","0","0","1","",""
"","feedback","","html-keyboard-response","572","912798","0.0-1.0-798.0-0.0","0","0","70073","","null","","","null","88","","","","","","","","","","","","","","","",""
"","ITI","","html-keyboard-response","573","913806","0.0-1.0-801.0","0","0","70073","","null","","","null","88","","","","","","","","","","","","","","","NaN",""
"","S1","","html-keyboard-response","574","914062","0.0-1.0-803.0","0","0","70073","","null","","","null","89","","","","","","","","","","","","","","","",""
"","ISI","","html-keyboard-response","575","915071","0.0-1.0-804.0","0","0","70073","","206","","","75","89","k","","","","","","","","","","","","","","",""
"","S2","","html-keyboard-response","576","915327","0.0-1.0-805.0","0","0","70073","","null","","","null","89","","NaN","","","","","","","","","","","","","",""
"","response","","html-keyboard-response","577","915347","0.0-1.0-806.0-0.0","0","0","70073","","16","","","75","89","","","2","89","training","adjacent","ED","5","4","O.jpg","L.jpg","1","0","0","",""
"","feedback","","html-keyboard-response","578","916358","0.0-1.0-807.0-0.0","0","0","70073","","null","","","null","89","","","","","","","","","","","","","","","",""
"","time_out","","html-keyboard-response","579","918366","0.0-1.0-809.0-0.0","0","0","70073","","null","","","null","89","","","","","","","","","","","","","","","",""
"","ITI","","html-keyboard-response","580","919374","0.0-1.0-810.0","0","0","70073","","null","","","null","89","","","","","","","","","","","","","","","NaN",""
"","S1","","html-keyboard-response","581","919631","0.0-1.0-812.0","0","0","70073","","null","","","null","90","","","","","","","","","","","","","","","",""
