"success","ttype","start_time","trial_type","trial_index","time_elapsed","internal_node_id","warning","missed_checkup","PID","view_history","rt","responses","repeat_instructions","key_press","index","keypress_isi","keypress_S2","block","trial_num","phase","group_type","pair_type","S1_stim","S2_stim","S1_img","S2_img","S1_chosen","S1_higher","accuracy","keypress_iti","total_bonus_tally"
"true","full_screen","d03082023hr1441","fullscreen","0","4929","0.0-0.0","0","0","63135","","","","","","","","","","","","","","","","","","","","","",""
"","instructions","","instructions","1","48601","0.0-1.0-0.0-0.0","0","0","63135","[{""page_index"":0,""viewing_time"":6930},{""page_index"":1,""viewing_time"":24963},{""page_index"":2,""viewing_time"":9508},{""page_index"":3,""viewing_time"":2266}]","43668","","","","","","","","","","","","","","","","","","","",""
"","comprehension_check","","survey-multi-choice","2","79284","0.0-1.0-0.0-1.0","0","0","63135","","30673","{""Q0"":""True"",""Q1"":""K"",""Q2"":""Once the second image appears and while the screen 'MAKE A CHOICE' is shown"",""Q3"":""Green mark"",""Q4"":""either D or K""}","0","","","","","","","","","","","","","","","","","",""
"","start_exp","","html-keyboard-response","3","81644","0.0-1.0-1.0","0","0","63135","","2353","","","32","","","","","","","","","","","","","","","","",""
"","S1","","html-keyboard-response","4","81905","0.0-1.0-2.0","0","0","63135","","null","","","null","0","","","","","","","","","","","","","","","",""
"","ISI","","html-keyboard-response","5","82064","0.0-1.0-3.0","0","0","63135","","null","","","null","0","NaN","","","","","","","","","","","","","","",""
"","S2","","html-keyboard-response","6","82321","0.0-1.0-4.0","0","0","63135","","null","","","null","0","","NaN","","","","","","","","","","","","","",""
"","response","","html-keyboard-response","7","83494","0.0-1.0-5.0-0.0","0","0","63135","","1169","","","68","0","","","1","0","training","adjacent","DC","4","3","P.jpg","O.jpg","0","0","1","",""
"","feedback","","html-keyboard-response","8","84504","0.0-1.0-6.0-0.0","0","0","63135","","null","","","null","0","","","","","","","","","","","","","","","",""
"","ITI","","html-keyboard-response","9","85513","0.0-1.0-9.0","0","0","63135","","null","","","null","0","","","","","","","","","","","","","","","NaN",""
"","S1","","html-keyboard-response","10","85769","0.0-1.0-11.0","0","0","63135","","null","","","null","1","","","","","","","","","","","","","","","",""
"","ISI","","html-keyboard-response","11","85929","0.0-1.0-12.0","0","0","63135","","null","","","null","1","NaN","","","","","","","","","","","","","","",""
"","S2","","html-keyboard-response","12","86185","0.0-1.0-13.0","0","0","63135","","null","","","null","1","","NaN","","","","","","","","","","","","","",""
"","response","","html-keyboard-response","13","87944","0.0-1.0-14.0-0.0","0","0","63135","","null","","","null","1","","","1","1","training","adjacent","GF","7","6","Q.jpg","R.jpg","NaN","0","0","",""
"","too_slow_prompt","","html-keyboard-response","14","88953","0.0-1.0-16.0-0.0","1","0","63135","","null","","","null","","","","","","","","","","","","","","","","",""
"","time_out","","html-keyboard-response","15","90960","0.0-1.0-17.0-0.0","0","0","63135","","null","","","null","1","","","","","","","","","","","","","","","",""
"","ITI","","html-keyboard-response","16","91968","0.0-1.0-18.0","0","0","63135","","null","","","null","1","","","","","","","","","","","","","","","NaN",""
"","S1","","html-keyboard-response","17","92225","0.0-1.0-20.0","0","0","63135","","null","","","null","2","","","","","","","","","","","","","","","",""
"","ISI","","html-keyboard-response","18","92385","0.0-1.0-21.0","0","0","63135","","null","","","null","2","NaN","","","","","","","","","","","","","","",""
"","S2","","html-keyboard-response","19","92641","0.0-1.0-22.0","0","0","63135","","null","","","null","2","","NaN","","","","","","","","","","","","","",""
"","response","","html-keyboard-response","20","93044","0.0-1.0-23.0-0.0","0","0","63135","","400","","","75","2","","","1","2","training","adjacent","CD","3","4","O.jpg","P.jpg","1","1","1","",""
"","feedback","","html-keyboard-response","21","94049","0.0-1.0-24.0-0.0","0","0","63135","","null","","","null","2","","","","","","","","","","","","","","","",""
"","ITI","","html-keyboard-response","22","95056","0.0-1.0-27.0","0","0","63135","","null","","","null","2","","","","","","","","","","","","","","","NaN",""
"","S1","","html-keyboard-response","23","95313","0.0-1.0-29.0","0","0","63135","","null","","","null","3","","","","","","","","","","","","","","","",""
"","ISI","","html-keyboard-response","24","95473","0.0-1.0-30.0","0","0","63135","","null","","","null","3","NaN","","","","","","","","","","","","","","",""
"","S2","","html-keyboard-response","25","95729","0.0-1.0-31.0","0","0","63135","","null","","","null","3","","NaN","","","","","","","","","","","","","",""
"","response","","html-keyboard-response","26","96424","0.0-1.0-32.0-0.0","0","0","63135","","692","","","75","3","","","1","3","training","adjacent","FE","6","5","R.jpg","L.jpg","1","0","0","",""
"","feedback","","html-keyboard-response","27","97433","0.0-1.0-33.0-0.0","0","0","63135","","null","","","null","3","","","","","","","","","","","","","","","",""
"","time_out","","html-keyboard-response","28","99440","0.0-1.0-35.0-0.0","0","0","63135","","null","","","null","3","","","","","","","","","","","","","","","",""
"","ITI","","html-keyboard-response","29","100449","0.0-1.0-36.0","0","0","63135","","null","","","null","3","","","","","","","","","","","","","","","NaN",""
"","S1","","html-keyboard-response","30","100705","0.0-1.0-38.0","0","0","63135","","null","","","null","4","","","","","","","","","","","","","","","",""
"","ISI","","html-keyboard-response","31","100865","0.0-1.0-39.0","0","0","63135","","null","","","null","4","NaN","","","","","","","","","","","","","","",""
"","S2","","html-keyboard-response","32","101121","0.0-1.0-40.0","0","0","63135","","null","","","null","4","","NaN","","","","","","","","","","","","","",""
"","response","","html-keyboard-response","33","101669","0.0-1.0-41.0-0.0","0","0","63135","","544","","","68","4","","","1","4","training","adjacent","FE","6","5","R.jpg","L.jpg","0","0","1","",""
"","feedback","","html-keyboard-response","34","102681","0.0-1.0-42.0-0.0","0","0","63135","","null","","","null","4","","","","","","","","","","","","","","","",""
"","ITI","","html-keyboard-response","35","103689","0.0-1.0-45.0","0","0","63135","","null","","","null","4","","","","","","","","","","","","","","","NaN",""
"","S1","","html-keyboard-response","36","103945","0.0-1.0-47.0","0","0","63135","","null","","","null","5","","","","","","","","","","","","","","","",""
"","ISI","","html-keyboard-response","37","104104","0.0-1.0-48.0","0","0","63135","","null","","","null","5","NaN","","","","","","","","","","","","","","",""
"","S2","","html-keyboard-response","38","104360","0.0-1.0-49.0","0","0","63135","","null","","","null","5","","NaN","","","","","","","","","","","","","",""
"","response","","html-keyboard-response","39","105112","0.0-1.0-50.0-0.0","0","0","63135","","748","","","68","5","","","1","5","training","adjacent","BA","2","1","N.jpg","M.jpg","0","0","1","",""
"","feedback","","html-keyboard-response","40","106121","0.0-1.0-51.0-0.0","0","0","63135","","null","","","null","5","","","","","","","","","","","","","","","",""
"","ITI","","html-keyboard-response","41","107128","0.0-1.0-54.0","0","0","63135","","null","","","null","5","","","","","","","","","","","","","","","NaN",""
"","S1","","html-keyboard-response","42","107384","0.0-1.0-56.0","0","0","63135","","null","","","null","6","","","","","","","","","","","","","","","",""
"","ISI","","html-keyboard-response","43","107544","0.0-1.0-57.0","0","0","63135","","null","","","null","6","NaN","","","","","","","","","","","","","","",""
"","S2","","html-keyboard-response","44","107801","0.0-1.0-58.0","0","0","63135","","null","","","null","6","","NaN","","","","","","","","","","","","","",""
"","response","","html-keyboard-response","45","108232","0.0-1.0-59.0-0.0","0","0","63135","","428","","","75","6","","","1","6","training","adjacent","BC","2","3","N.jpg","O.jpg","1","1","1","",""
"","feedback","","html-keyboard-response","46","109240","0.0-1.0-60.0-0.0","0","0","63135","","null","","","null","6","","","","","","","","","","","","","","","",""
"","ITI","","html-keyboard-response","47","110248","0.0-1.0-63.0","0","0","63135","","null","","","null","6","","","","","","","","","","","","","","","NaN",""
"","S1","","html-keyboard-response","48","110504","0.0-1.0-65.0","0","0","63135","","null","","","null","7","","","","","","","","","","","","","","","",""
"","ISI","","html-keyboard-response","49","110665","0.0-1.0-66.0","0","0","63135","","null","","","null","7","NaN","","","","","","","","","","","","","","",""
"","S2","","html-keyboard-response","50","110920","0.0-1.0-67.0","0","0","63135","","null","","","null","7","","NaN","","","","","","","","","","","","","",""
"","response","","html-keyboard-response","51","111285","0.0-1.0-68.0-0.0","0","0","63135","","361","","","68","7","","","1","7","training","adjacent","ED","5","4","L.jpg","P.jpg","0","0","1","",""
"","feedback","","html-keyboard-response","52","112297","0.0-1.0-69.0-0.0","0","0","63135","","null","","","null","7","","","","","","","","","","","","","","","",""
"","ITI","","html-keyboard-response","53","113305","0.0-1.0-72.0","0","0","63135","","null","","","null","7","","","","","","","","","","","","","","","NaN",""
"","S1","","html-keyboard-response","54","113560","0.0-1.0-74.0","0","0","63135","","null","","","null","8","","","","","","","","","","","","","","","",""
"","ISI","","html-keyboard-response","55","113720","0.0-1.0-75.0","0","0","63135","","null","","","null","8","NaN","","","","","","","","","","","","","","",""
"","S2","","html-keyboard-response","56","113976","0.0-1.0-76.0","0","0","63135","","null","","","null","8","","NaN","","","","","","","","","","","","","",""
"","response","","html-keyboard-response","57","114338","0.0-1.0-77.0-0.0","0","0","63135","","357","","","75","8","","","1","8","training","adjacent","FG","6","7","R.jpg","Q.jpg","1","1","1","",""
"","feedback","","html-keyboard-response","58","115344","0.0-1.0-78.0-0.0","0","0","63135","","null","","","null","8","","","","","","","","","","","","","","","",""
"","ITI","","html-keyboard-response","59","116353","0.0-1.0-81.0","0","0","63135","","null","","","null","8","","","","","","","","","","","","","","","NaN",""
"","S1","","html-keyboard-response","60","116608","0.0-1.0-83.0","0","0","63135","","null","","","null","9","","","","","","","","","","","","","","","",""
"","ISI","","html-keyboard-response","61","116769","0.0-1.0-84.0","0","0","63135","","null","","","null","9","NaN","","","","","","","","","","","","","","",""
"","S2","","html-keyboard-response","62","117024","0.0-1.0-85.0","0","0","63135","","null","","","null","9","","NaN","","","","","","","","","","","","","",""
"","response","","html-keyboard-response","63","117439","0.0-1.0-86.0-0.0","0","0","63135","","411","","","75","9","","","1","9","training","adjacent","BA","2","1","N.jpg","M.jpg","1","0","0","",""
"","feedback","","html-keyboard-response","64","118449","0.0-1.0-87.0-0.0","0","0","63135","","null","","","null","9","","","","","","","","","","","","","","","",""
"","time_out","","html-keyboard-response","65","120456","0.0-1.0-89.0-0.0","0","0","63135","","null","","","null","9","","","","","","","","","","","","","","","",""
"","ITI","","html-keyboard-response","66","121465","0.0-1.0-90.0","0","0","63135","","null","","","null","9","","","","","","","","","","","","","","","NaN",""
"","S1","","html-keyboard-response","67","121720","0.0-1.0-92.0","0","0","63135","","null","","","null","10","","","","","","","","","","","","","","","",""
"","ISI","","html-keyboard-response","68","121881","0.0-1.0-93.0","0","0","63135","","null","","","null","10","NaN","","","","","","","","","","","","","","",""
"","S2","","html-keyboard-response","69","122136","0.0-1.0-94.0","0","0","63135","","null","","","null","10","","NaN","","","","","","","","","","","","","",""
"","response","","html-keyboard-response","70","122147","0.0-1.0-95.0-0.0","0","0","63135","","7","","","68","10","","","1","10","training","adjacent","AB","1","2","M.jpg","N.jpg","0","1","0","",""
"","feedback","","html-keyboard-response","71","123152","0.0-1.0-96.0-0.0","0","0","63135","","null","","","null","10","","","","","","","","","","","","","","","",""
"","time_out","","html-keyboard-response","72","125160","0.0-1.0-98.0-0.0","0","0","63135","","null","","","null","10","","","","","","","","","","","","","","","",""
"","ITI","","html-keyboard-response","73","126168","0.0-1.0-99.0","0","0","63135","","null","","","null","10","","","","","","","","","","","","","","","NaN",""
"","S1","","html-keyboard-response","74","126424","0.0-1.0-101.0","0","0","63135","","null","","","null","11","","","","","","","","","","","","","","","",""
"","ISI","","html-keyboard-response","75","126584","0.0-1.0-102.0","0","0","63135","","null","","","null","11","NaN","","","","","","","","","","","","","","",""
"","S2","","html-keyboard-response","76","126840","0.0-1.0-103.0","0","0","63135","","null","","","null","11","","NaN","","","","","","","","","","","","","",""
"","response","","html-keyboard-response","77","127066","0.0-1.0-104.0-0.0","0","0","63135","","222","","","68","11","","","1","11","training","adjacent","FE","6","5","R.jpg","L.jpg","0","0","1","",""
"","feedback","","html-keyboard-response","78","128072","0.0-1.0-105.0-0.0","0","0","63135","","null","","","null","11","","","","","","","","","","","","","","","",""
"","ITI","","html-keyboard-response","79","129080","0.0-1.0-108.0","0","0","63135","","null","","","null","11","","","","","","","","","","","","","","","NaN",""
"","S1","","html-keyboard-response","80","129336","0.0-1.0-110.0","0","0","63135","","null","","","null","12","","","","","","","","","","","","","","","",""
"","ISI","","html-keyboard-response","81","129496","0.0-1.0-111.0","0","0","63135","","null","","","null","12","NaN","","","","","","","","","","","","","","",""
"","S2","","html-keyboard-response","82","129752","0.0-1.0-112.0","0","0","63135","","null","","","null","12","","NaN","","","","","","","","","","","","","",""
"","response","","html-keyboard-response","83","130105","0.0-1.0-113.0-0.0","0","0","63135","","349","","","68","12","","","1","12","training","adjacent","BC","2","3","N.jpg","O.jpg","0","1","0","",""
"","feedback","","html-keyboard-response","84","131112","0.0-1.0-114.0-0.0","0","0","63135","","null","","","null","12","","","","","","","","","","","","","","","",""
"","time_out","","html-keyboard-response","85","133120","0.0-1.0-116.0-0.0","0","0","63135","","null","","","null","12","","","","","","","","","","","","","","","",""
"","ITI","","html-keyboard-response","86","134128","0.0-1.0-117.0","0","0","63135","","null","","","null","12","","","","","","","","","","","","","","","NaN",""
"","S1","","html-keyboard-response","87","134385","0.0-1.0-119.0","0","0","63135","","null","","","null","13","","","","","","","","","","","","","","","",""
"","ISI","","html-keyboard-response","88","134545","0.0-1.0-120.0","0","0","63135","","null","","","null","13","NaN","","","","","","","","","","","","","","",""
"","S2","","html-keyboard-response","89","134801","0.0-1.0-121.0","0","0","63135","","null","","","null","13","","NaN","","","","","","","","","","","","","",""
"","response","","html-keyboard-response","90","135168","0.0-1.0-122.0-0.0","0","0","63135","","364","","","75","13","","","1","13","training","adjacent","ED","5","4","L.jpg","P.jpg","1","0","0","",""
"","feedback","","html-keyboard-response","91","136176","0.0-1.0-123.0-0.0","0","0","63135","","null","","","null","13","","","","","","","","","","","","","","","",""
"","time_out","","html-keyboard-response","92","138184","0.0-1.0-125.0-0.0","0","0","63135","","null","","","null","13","","","","","","","","","","","","","","","",""
"","ITI","","html-keyboard-response","93","139193","0.0-1.0-126.0","0","0","63135","","null","","","null","13","","","","","","","","","","","","","","","NaN",""
"","S1","","html-keyboard-response","94","139448","0.0-1.0-128.0","0","0","63135","","null","","","null","14","","","","","","","","","","","","","","","",""
"","ISI","","html-keyboard-response","95","139608","0.0-1.0-129.0","0","0","63135","","null","","","null","14","NaN","","","","","","","","","","","","","","",""
"","S2","","html-keyboard-response","96","139864","0.0-1.0-130.0","0","0","63135","","null","","","null","14","","NaN","","","","","","","","","","","","","",""
"","response","","html-keyboard-response","97","140051","0.0-1.0-131.0-0.0","0","0","63135","","183","","","75","14","","","1","14","training","adjacent","CD","3","4","O.jpg","P.jpg","1","1","1","",""
"","feedback","","html-keyboard-response","98","141057","0.0-1.0-132.0-0.0","0","0","63135","","null","","","null","14","","","","","","","","","","","","","","","",""
"","ITI","","html-keyboard-response","99","142065","0.0-1.0-135.0","0","0","63135","","null","","","null","14","","","","","","","","","","","","","","","NaN",""
"","S1","","html-keyboard-response","100","142321","0.0-1.0-137.0","0","0","63135","","null","","","null","15","","","","","","","","","","","","","","","",""
"","ISI","","html-keyboard-response","101","142480","0.0-1.0-138.0","0","0","63135","","null","","","null","15","NaN","","","","","","","","","","","","","","",""
"","S2","","html-keyboard-response","102","142736","0.0-1.0-139.0","0","0","63135","","null","","","null","15","","NaN","","","","","","","","","","","","","",""
"","response","","html-keyboard-response","103","143060","0.0-1.0-140.0-0.0","0","0","63135","","320","","","68","15","","","1","15","training","adjacent","GF","7","6","Q.jpg","R.jpg","0","0","1","",""
"","feedback","","html-keyboard-response","104","144064","0.0-1.0-141.0-0.0","0","0","63135","","null","","","null","15","","","","","","","","","","","","","","","",""
"","ITI","","html-keyboard-response","105","145072","0.0-1.0-144.0","0","0","63135","","null","","","null","15","","","","","","","","","","","","","","","NaN",""
"","S1","","html-keyboard-response","106","145329","0.0-1.0-146.0","0","0","63135","","null","","","null","16","","","","","","","","","","","","","","","",""
"","ISI","","html-keyboard-response","107","145489","0.0-1.0-147.0","0","0","63135","","null","","","null","16","NaN","","","","","","","","","","","","","","",""
"","S2","","html-keyboard-response","108","145744","0.0-1.0-148.0","0","0","63135","","null","","","null","16","","NaN","","","","","","","","","","","","","",""
"","response","","html-keyboard-response","109","146199","0.0-1.0-149.0-0.0","0","0","63135","","451","","","68","16","","","1","16","training","adjacent","CD","3","4","O.jpg","P.jpg","0","1","0","",""
"","feedback","","html-keyboard-response","110","147208","0.0-1.0-150.0-0.0","0","0","63135","","null","","","null","16","","","","","","","","","","","","","","","",""
"","time_out","","html-keyboard-response","111","149217","0.0-1.0-152.0-0.0","0","0","63135","","null","","","null","16","","","","","","","","","","","","","","","",""
"","ITI","","html-keyboard-response","112","150225","0.0-1.0-153.0","0","0","63135","","null","","","null","16","","","","","","","","","","","","","","","NaN",""
"","S1","","html-keyboard-response","113","150480","0.0-1.0-155.0","0","0","63135","","null","","","null","17","","","","","","","","","","","","","","","",""
"","ISI","","html-keyboard-response","114","150640","0.0-1.0-156.0","0","0","63135","","null","","","null","17","NaN","","","","","","","","","","","","","","",""
"","S2","","html-keyboard-response","115","150896","0.0-1.0-157.0","0","0","63135","","null","","","null","17","","NaN","","","","","","","","","","","","","",""
"","response","","html-keyboard-response","116","151189","0.0-1.0-158.0-0.0","0","0","63135","","289","","","68","17","","","1","17","training","adjacent","FE","6","5","R.jpg","L.jpg","0","0","1","",""
"","feedback","","html-keyboard-response","117","152201","0.0-1.0-159.0-0.0","0","0","63135","","null","","","null","17","","","","","","","","","","","","","","","",""
"","ITI","","html-keyboard-response","118","153208","0.0-1.0-162.0","0","0","63135","","null","","","null","17","","","","","","","","","","","","","","","NaN",""
"","S1","","html-keyboard-response","119","153464","0.0-1.0-164.0","0","0","63135","","null","","","null","18","","","","","","","","","","","","","","","",""
"","ISI","","html-keyboard-response","120","153624","0.0-1.0-165.0","0","0","63135","","null","","","null","18","NaN","","","","","","","","","","","","","","",""
"","S2","","html-keyboard-response","121","153880","0.0-1.0-166.0","0","0","63135","","null","","","null","18","","NaN","","","","","","","","","","","","","",""
"","response","","html-keyboard-response","122","154764","0.0-1.0-167.0-0.0","0","0","63135","","880","","","68","18","","","1","18","training","adjacent","DC","4","3","P.jpg","O.jpg","0","0","1","",""
"","feedback","","html-keyboard-response","123","155768","0.0-1.0-168.0-0.0","0","0","63135","","null","","","null","18","","","","","","","","","","","","","","","",""
"","ITI","","html-keyboard-response","124","156776","0.0-1.0-171.0","0","0","63135","","null","","","null","18","","","","","","","","","","","","","","","NaN",""
"","S1","","html-keyboard-response","125","157033","0.0-1.0-173.0","0","0","63135","","null","","","null","19","","","","","","","","","","","","","","","",""
"","ISI","","html-keyboard-response","126","157192","0.0-1.0-174.0","0","0","63135","","null","","","null","19","NaN","","","","","","","","","","","","","","",""
"","S2","","html-keyboard-response","127","157449","0.0-1.0-175.0","0","0","63135","","null","","","null","19","","NaN","","","","","","","","","","","","","",""
"","response","","html-keyboard-response","128","157740","0.0-1.0-176.0-0.0","0","0","63135","","288","","","75","19","","","1","19","training","adjacent","CB","3","2","O.jpg","N.jpg","1","0","0","",""
"","feedback","","html-keyboard-response","129","158744","0.0-1.0-177.0-0.0","0","0","63135","","null","","","null","19","","","","","","","","","","","","","","","",""
"","time_out","","html-keyboard-response","130","160752","0.0-1.0-179.0-0.0","0","0","63135","","null","","","null","19","","","","","","","","","","","","","","","",""
"","ITI","","html-keyboard-response","131","161760","0.0-1.0-180.0","0","0","63135","","null","","","null","19","","","","","","","","","","","","","","","NaN",""
"","S1","","html-keyboard-response","132","162017","0.0-1.0-182.0","0","0","63135","","null","","","null","20","","","","","","","","","","","","","","","",""
"","ISI","","html-keyboard-response","133","162176","0.0-1.0-183.0","0","0","63135","","null","","","null","20","NaN","","","","","","","","","","","","","","",""
"","S2","","html-keyboard-response","134","162432","0.0-1.0-184.0","0","0","63135","","null","","","null","20","","NaN","","","","","","","","","","","","","",""
"","response","","html-keyboard-response","135","162788","0.0-1.0-185.0-0.0","0","0","63135","","352","","","68","20","","","1","20","training","adjacent","GF","7","6","Q.jpg","R.jpg","0","0","1","",""
"","feedback","","html-keyboard-response","136","163793","0.0-1.0-186.0-0.0","0","0","63135","","null","","","null","20","","","","","","","","","","","","","","","",""
"","ITI","","html-keyboard-response","137","164800","0.0-1.0-189.0","0","0","63135","","null","","","null","20","","","","","","","","","","","","","","","NaN",""
"","S1","","html-keyboard-response","138","165056","0.0-1.0-191.0","0","0","63135","","null","","","null","21","","","","","","","","","","","","","","","",""
"","ISI","","html-keyboard-response","139","165217","0.0-1.0-192.0","0","0","63135","","null","","","null","21","NaN","","","","","","","","","","","","","","",""
"","S2","","html-keyboard-response","140","165472","0.0-1.0-193.0","0","0","63135","","null","","","null","21","","NaN","","","","","","","","","","","","","",""
"","response","","html-keyboard-response","141","165739","0.0-1.0-194.0-0.0","0","0","63135","","263","","","75","21","","","1","21","training","adjacent","BC","2","3","N.jpg","O.jpg","1","1","1","",""
"","feedback","","html-keyboard-response","142","166745","0.0-1.0-195.0-0.0","0","0","63135","","null","","","null","21","","","","","","","","","","","","","","","",""
"","ITI","","html-keyboard-response","143","167753","0.0-1.0-198.0","0","0","63135","","null","","","null","21","","","","","","","","","","","","","","","NaN",""
"","S1","","html-keyboard-response","144","168009","0.0-1.0-200.0","0","0","63135","","null","","","null","22","","","","","","","","","","","","","","","",""
"","ISI","","html-keyboard-response","145","168168","0.0-1.0-201.0","0","0","63135","","null","","","null","22","NaN","","","","","","","","","","","","","","",""
"","S2","","html-keyboard-response","146","168424","0.0-1.0-202.0","0","0","63135","","null","","","null","22","","NaN","","","","","","","","","","","","","",""
"","response","","html-keyboard-response","147","168851","0.0-1.0-203.0-0.0","0","0","63135","","423","","","75","22","","","1","22","training","adjacent","CB","3","2","O.jpg","N.jpg","1","0","0","",""
"","feedback","","html-keyboard-response","148","169857","0.0-1.0-204.0-0.0","0","0","63135","","null","","","null","22","","","","","","","","","","","","","","","",""
"","time_out","","html-keyboard-response","149","171864","0.0-1.0-206.0-0.0","0","0","63135","","null","","","null","22","","","","","","","","","","","","","","","",""
"","ITI","","html-keyboard-response","150","172872","0.0-1.0-207.0","0","0","63135","","null","","","null","22","","","","","","","","","","","","","","","NaN",""
"","S1","","html-keyboard-response","151","173128","0.0-1.0-209.0","0","0","63135","","null","","","null","23","","","","","","","","","","","","","","","",""
"","ISI","","html-keyboard-response","152","173288","0.0-1.0-210.0","0","0","63135","","null","","","null","23","NaN","","","","","","","","","","","","","","",""
"","S2","","html-keyboard-response","153","173545","0.0-1.0-211.0","0","0","63135","","null","","","null","23","","NaN","","","","","","","","","","","","","",""
"","response","","html-keyboard-response","154","173858","0.0-1.0-212.0-0.0","0","0","63135","","311","","","68","23","","","1","23","training","adjacent","AB","1","2","M.jpg","N.jpg","0","1","0","",""
"","feedback","","html-keyboard-response","155","174865","0.0-1.0-213.0-0.0","0","0","63135","","null","","","null","23","","","","","","","","","","","","","","","",""
"","time_out","","html-keyboard-response","156","176873","0.0-1.0-215.0-0.0","0","0","63135","","null","","","null","23","","","","","","","","","","","","","","","",""
"","ITI","","html-keyboard-response","157","177880","0.0-1.0-216.0","0","0","63135","","null","","","null","23","","","","","","","","","","","","","","","NaN",""
"","S1","","html-keyboard-response","158","178136","0.0-1.0-218.0","0","0","63135","","null","","","null","24","","","","","","","","","","","","","","","",""
"","ISI","","html-keyboard-response","159","178296","0.0-1.0-219.0","0","0","63135","","null","","","null","24","NaN","","","","","","","","","","","","","","",""
"","S2","","html-keyboard-response","160","178552","0.0-1.0-220.0","0","0","63135","","null","","","null","24","","NaN","","","","","","","","","","","","","",""
"","response","","html-keyboard-response","161","178827","0.0-1.0-221.0-0.0","0","0","63135","","271","","","75","24","","","1","24","training","adjacent","DE","4","5","P.jpg","L.jpg","1","1","1","",""
"","feedback","","html-keyboard-response","162","179833","0.0-1.0-222.0-0.0","0","0","63135","","null","","","null","24","","","","","","","","","","","","","","","",""
"","ITI","","html-keyboard-response","163","180841","0.0-1.0-225.0","0","0","63135","","null","","","null","24","","","","","","","","","","","","","","","NaN",""
"","S1","","html-keyboard-response","164","181096","0.0-1.0-227.0","0","0","63135","","null","","","null","25","","","","","","","","","","","","","","","",""
"","ISI","","html-keyboard-response","165","181256","0.0-1.0-228.0","0","0","63135","","null","","","null","25","NaN","","","","","","","","","","","","","","",""
"","S2","","html-keyboard-response","166","181513","0.0-1.0-229.0","0","0","63135","","null","","","null","25","","NaN","","","","","","","","","","","","","",""
"","response","","html-keyboard-response","167","181865","0.0-1.0-230.0-0.0","0","0","63135","","349","","","75","25","","","1","25","training","adjacent","DE","4","5","P.jpg","L.jpg","1","1","1","",""
"","feedback","","html-keyboard-response","168","182872","0.0-1.0-231.0-0.0","0","0","63135","","null","","","null","25","","","","","","","","","","","","","","","",""
"","ITI","","html-keyboard-response","169","183881","0.0-1.0-234.0","0","0","63135","","null","","","null","25","","","","","","","","","","","","","","","NaN",""
"","S1","","html-keyboard-response","170","184136","0.0-1.0-236.0","0","0","63135","","null","","","null","26","","","","","","","","","","","","","","","",""
"","ISI","","html-keyboard-response","171","184296","0.0-1.0-237.0","0","0","63135","","null","","","null","26","NaN","","","","","","","","","","","","","","",""
"","S2","","html-keyboard-response","172","184553","0.0-1.0-238.0","0","0","63135","","null","","","null","26","","NaN","","","","","","","","","","","","","",""
"","response","","html-keyboard-response","173","184819","0.0-1.0-239.0-0.0","0","0","63135","","264","","","75","26","","","1","26","training","adjacent","ED","5","4","L.jpg","P.jpg","1","0","0","",""
"","feedback","","html-keyboard-response","174","185824","0.0-1.0-240.0-0.0","0","0","63135","","null","","","null","26","","","","","","","","","","","","","","","",""
"","time_out","","html-keyboard-response","175","187832","0.0-1.0-242.0-0.0","0","0","63135","","null","","","null","26","","","","","","","","","","","","","","","",""
"","ITI","","html-keyboard-response","176","188840","0.0-1.0-243.0","0","0","63135","","null","","","null","26","","","","","","","","","","","","","","","NaN",""
"","S1","","html-keyboard-response","177","189097","0.0-1.0-245.0","0","0","63135","","null","","","null","27","","","","","","","","","","","","","","","",""
"","ISI","","html-keyboard-response","178","189256","0.0-1.0-246.0","0","0","63135","","null","","","null","27","NaN","","","","","","","","","","","","","","",""
"","S2","","html-keyboard-response","179","189513","0.0-1.0-247.0","0","0","63135","","null","","","null","27","","NaN","","","","","","","","","","","","","",""
"","response","","html-keyboard-response","180","189938","0.0-1.0-248.0-0.0","0","0","63135","","421","","","68","27","","","1","27","training","adjacent","BA","2","1","N.jpg","M.jpg","0","0","1","",""
"","feedback","","html-keyboard-response","181","190944","0.0-1.0-249.0-0.0","0","0","63135","","null","","","null","27","","","","","","","","","","","","","","","",""
"","ITI","","html-keyboard-response","182","191953","0.0-1.0-252.0","0","0","63135","","null","","","null","27","","","","","","","","","","","","","","","NaN",""
"","S1","","html-keyboard-response","183","192208","0.0-1.0-254.0","0","0","63135","","null","","","null","28","","","","","","","","","","","","","","","",""
"","ISI","","html-keyboard-response","184","192368","0.0-1.0-255.0","0","0","63135","","null","","","null","28","NaN","","","","","","","","","","","","","","",""
"","S2","","html-keyboard-response","185","192624","0.0-1.0-256.0","0","0","63135","","null","","","null","28","","NaN","","","","","","","","","","","","","",""
"","response","","html-keyboard-response","186","192903","0.0-1.0-257.0-0.0","0","0","63135","","275","","","75","28","","","1","28","training","adjacent","DE","4","5","P.jpg","L.jpg","1","1","1","",""
"","feedback","","html-keyboard-response","187","193912","0.0-1.0-258.0-0.0","0","0","63135","","null","","","null","28","","","","","","","","","","","","","","","",""
"","ITI","","html-keyboard-response","188","194920","0.0-1.0-261.0","0","0","63135","","null","","","null","28","","","","","","","","","","","","","","","NaN",""
"","S1","","html-keyboard-response","189","195177","0.0-1.0-263.0","0","0","63135","","null","","","null","29","","","","","","","","","","","","","","","",""
"","ISI","","html-keyboard-response","190","195337","0.0-1.0-264.0","0","0","63135","","null","","","null","29","NaN","","","","","","","","","","","","","","",""
"","S2","","html-keyboard-response","191","195592","0.0-1.0-265.0","0","0","63135","","null","","","null","29","","NaN","","","","","","","","","","","","","",""
"","response","","html-keyboard-response","192","195908","0.0-1.0-266.0-0.0","0","0","63135","","312","","","68","29","","","1","29","training","adjacent","EF","5","6","L.jpg","R.jpg","0","1","0","",""
"","feedback","","html-keyboard-response","193","196912","0.0-1.0-267.0-0.0","0","0","63135","","null","","","null","29","","","","","","","","","","","","","","","",""
"","time_out","","html-keyboard-response","194","198921","0.0-1.0-269.0-0.0","0","0","63135","","null","","","null","29","","","","","","","","","","","","","","","",""
"","ITI","","html-keyboard-response","195","199928","0.0-1.0-270.0","0","0","63135","","null","","","null","29","","","","","","","","","","","","","","","NaN",""
"","S1","","html-keyboard-response","196","200185","0.0-1.0-272.0","0","0","63135","","null","","","null","30","","","","","","","","","","","","","","","",""
"","ISI","","html-keyboard-response","197","200344","0.0-1.0-273.0","0","0","63135","","null","","","null","30","NaN","","","","","","","","","","","","","","",""
"","S2","","html-keyboard-response","198","200601","0.0-1.0-274.0","0","0","63135","","null","","","null","30","","NaN","","","","","","","","","","","","","",""
"","response","","html-keyboard-response","199","200877","0.0-1.0-275.0-0.0","0","0","63135","","274","","","68","30","","","1","30","training","adjacent","EF","5","6","L.jpg","R.jpg","0","1","0","",""
"","feedback","","html-keyboard-response","200","201889","0.0-1.0-276.0-0.0","0","0","63135","","null","","","null","30","","","","","","","","","","","","","","","",""
"","time_out","","html-keyboard-response","201","203896","0.0-1.0-278.0-0.0","0","0","63135","","null","","","null","30","","","","","","","","","","","","","","","",""
"","ITI","","html-keyboard-response","202","204905","0.0-1.0-279.0","0","0","63135","","null","","","null","30","","","","","","","","","","","","","","","NaN",""
"","S1","","html-keyboard-response","203","205161","0.0-1.0-281.0","0","0","63135","","null","","","null","31","","","","","","","","","","","","","","","",""
"","ISI","","html-keyboard-response","204","205320","0.0-1.0-282.0","0","0","63135","","null","","","null","31","NaN","","","","","","","","","","","","","","",""
"","S2","","html-keyboard-response","205","205576","0.0-1.0-283.0","0","0","63135","","null","","","null","31","","NaN","","","","","","","","","","","","","",""
"","response","","html-keyboard-response","206","205709","0.0-1.0-284.0-0.0","0","0","63135","","129","","","75","31","","","1","31","training","adjacent","CB","3","2","O.jpg","N.jpg","1","0","0","",""
"","feedback","","html-keyboard-response","207","206720","0.0-1.0-285.0-0.0","0","0","63135","","null","","","null","31","","","","","","","","","","","","","","","",""
"","time_out","","html-keyboard-response","208","208728","0.0-1.0-287.0-0.0","0","0","63135","","null","","","null","31","","","","","","","","","","","","","","","",""
"","ITI","","html-keyboard-response","209","209737","0.0-1.0-288.0","0","0","63135","","null","","","null","31","","","","","","","","","","","","","","","NaN",""
"","S1","","html-keyboard-response","210","209992","0.0-1.0-290.0","0","0","63135","","null","","","null","32","","","","","","","","","","","","","","","",""
"","ISI","","html-keyboard-response","211","210152","0.0-1.0-291.0","0","0","63135","","null","","","null","32","NaN","","","","","","","","","","","","","","",""
"","S2","","html-keyboard-response","212","210409","0.0-1.0-292.0","0","0","63135","","null","","","null","32","","NaN","","","","","","","","","","","","","",""
"","response","","html-keyboard-response","213","210659","0.0-1.0-293.0-0.0","0","0","63135","","247","","","68","32","","","1","32","training","adjacent","BC","2","3","N.jpg","O.jpg","0","1","0","",""
"","feedback","","html-keyboard-response","214","211665","0.0-1.0-294.0-0.0","0","0","63135","","null","","","null","32","","","","","","","","","","","","","","","",""
"","time_out","","html-keyboard-response","215","213672","0.0-1.0-296.0-0.0","0","0","63135","","null","","","null","32","","","","","","","","","","","","","","","",""
"","ITI","","html-keyboard-response","216","214681","0.0-1.0-297.0","0","0","63135","","null","","","null","32","","","","","","","","","","","","","","","NaN",""
"","S1","","html-keyboard-response","217","214936","0.0-1.0-299.0","0","0","63135","","null","","","null","33","","","","","","","","","","","","","","","",""
"","ISI","","html-keyboard-response","218","215097","0.0-1.0-300.0","0","0","63135","","null","","","null","33","NaN","","","","","","","","","","","","","","",""
"","S2","","html-keyboard-response","219","215352","0.0-1.0-301.0","0","0","63135","","null","","","null","33","","NaN","","","","","","","","","","","","","",""
"","response","","html-keyboard-response","220","215760","0.0-1.0-302.0-0.0","0","0","63135","","404","","","75","33","","","1","33","training","adjacent","DC","4","3","P.jpg","O.jpg","1","0","0","",""
"","feedback","","html-keyboard-response","221","216769","0.0-1.0-303.0-0.0","0","0","63135","","null","","","null","33","","","","","","","","","","","","","","","",""
"","time_out","","html-keyboard-response","222","218776","0.0-1.0-305.0-0.0","0","0","63135","","null","","","null","33","","","","","","","","","","","","","","","",""
"","ITI","","html-keyboard-response","223","219784","0.0-1.0-306.0","0","0","63135","","null","","","null","33","","","","","","","","","","","","","","","NaN",""
"","S1","","html-keyboard-response","224","220041","0.0-1.0-308.0","0","0","63135","","null","","","null","34","","","","","","","","","","","","","","","",""
"","ISI","","html-keyboard-response","225","220200","0.0-1.0-309.0","0","0","63135","","null","","","null","34","NaN","","","","","","","","","","","","","","",""
"","S2","","html-keyboard-response","226","220457","0.0-1.0-310.0","0","0","63135","","null","","","null","34","","NaN","","","","","","","","","","","","","",""
"","response","","html-keyboard-response","227","220774","0.0-1.0-311.0-0.0","0","0","63135","","313","","","75","34","","","1","34","training","adjacent","EF","5","6","L.jpg","R.jpg","1","1","1","",""
"","feedback","","html-keyboard-response","228","221784","0.0-1.0-312.0-0.0","0","0","63135","","null","","","null","34","","","","","","","","","","","","","","","",""
"","ITI","","html-keyboard-response","229","222793","0.0-1.0-315.0","0","0","63135","","null","","","null","34","","","","","","","","","","","","","","","NaN",""
"","S1","","html-keyboard-response","230","223048","0.0-1.0-317.0","0","0","63135","","null","","","null","35","","","","","","","","","","","","","","","",""
"","ISI","","html-keyboard-response","231","223209","0.0-1.0-318.0","0","0","63135","","null","","","null","35","NaN","","","","","","","","","","","","","","",""
"","S2","","html-keyboard-response","232","223464","0.0-1.0-319.0","0","0","63135","","null","","","null","35","","NaN","","","","","","","","","","","","","",""
"","response","","html-keyboard-response","233","223832","0.0-1.0-320.0-0.0","0","0","63135","","364","","","68","35","","","1","35","training","adjacent","EF","5","6","L.jpg","R.jpg","0","1","0","",""
"","feedback","","html-keyboard-response","234","224841","0.0-1.0-321.0-0.0","0","0","63135","","null","","","null","35","","","","","","","","","","","","","","","",""
"","time_out","","html-keyboard-response","235","226849","0.0-1.0-323.0-0.0","0","0","63135","","null","","","null","35","","","","","","","","","","","","","","","",""
"","ITI","","html-keyboard-response","236","227856","0.0-1.0-324.0","0","0","63135","","null","","","null","35","","","","","","","","","","","","","","","NaN",""
"","S1","","html-keyboard-response","237","228112","0.0-1.0-326.0","0","0","63135","","null","","","null","36","","","","","","","","","","","","","","","",""
"","ISI","","html-keyboard-response","238","228273","0.0-1.0-327.0","0","0","63135","","null","","","null","36","NaN","","","","","","","","","","","","","","",""
"","S2","","html-keyboard-response","239","228528","0.0-1.0-328.0","0","0","63135","","null","","","null","36","","NaN","","","","","","","","","","","","","",""
"","response","","html-keyboard-response","240","228767","0.0-1.0-329.0-0.0","0","0","63135","","235","","","75","36","","","1","36","training","adjacent","DE","4","5","P.jpg","L.jpg","1","1","1","",""
"","feedback","","html-keyboard-response","241","229776","0.0-1.0-330.0-0.0","0","0","63135","","null","","","null","36","","","","","","","","","","","","","","","",""
"","ITI","","html-keyboard-response","242","230784","0.0-1.0-333.0","0","0","63135","","null","","","null","36","","","","","","","","","","","","","","","NaN",""
"","S1","","html-keyboard-response","243","231041","0.0-1.0-335.0","0","0","63135","","null","","","null","37","","","","","","","","","","","","","","","",""
"","ISI","","html-keyboard-response","244","231201","0.0-1.0-336.0","0","0","63135","","null","","","null","37","NaN","","","","","","","","","","","","","","",""
"","S2","","html-keyboard-response","245","231456","0.0-1.0-337.0","0","0","63135","","null","","","null","37","","NaN","","","","","","","","","","","","","",""
"","response","","html-keyboard-response","246","231762","0.0-1.0-338.0-0.0","0","0","63135","","302","","","75","37","","","1","37","training","adjacent","BA","2","1","N.jpg","M.jpg","1","0","0","",""
"","feedback","","html-keyboard-response","247","232768","0.0-1.0-339.0-0.0","0","0","63135","","null","","","null","37","","","","","","","","","","","","","","","",""
"","time_out","","html-keyboard-response","248","234776","0.0-1.0-341.0-0.0","0","0","63135","","null","","","null","37","","","","","","","","","","","","","","","",""
"","ITI","","html-keyboard-response","249","235784","0.0-1.0-342.0","0","0","63135","","null","","","null","37","","","","","","","","","","","","","","","NaN",""
"","S1","","html-keyboard-response","250","236041","0.0-1.0-344.0","0","0","63135","","null","","","null","38","","","","","","","","","","","","","","","",""
"","ISI","","html-keyboard-response","251","236200","0.0-1.0-345.0","0","0","63135","","null","","","null","38","NaN","","","","","","","","","","","","","","",""
"","S2","","html-keyboard-response","252","236456","0.0-1.0-346.0","0","0","63135","","null","","","null","38","","NaN","","","","","","","","","","","","","",""
"","response","","html-keyboard-response","253","236740","0.0-1.0-347.0-0.0","0","0","63135","","279","","","75","38","","","1","38","training","adjacent","FG","6","7","R.jpg","Q.jpg","1","1","1","",""
"","feedback","","html-keyboard-response","254","237745","0.0-1.0-348.0-0.0","0","0","63135","","null","","","null","38","","","","","","","","","","","","","","","",""
"","ITI","","html-keyboard-response","255","238752","0.0-1.0-351.0","0","0","63135","","null","","","null","38","","","","","","","","","","","","","","","NaN",""
"","S1","","html-keyboard-response","256","239009","0.0-1.0-353.0","0","0","63135","","null","","","null","39","","","","","","","","","","","","","","","",""
"","ISI","","html-keyboard-response","257","239169","0.0-1.0-354.0","0","0","63135","","null","","","null","39","NaN","","","","","","","","","","","","","","",""
"","S2","","html-keyboard-response","258","239424","0.0-1.0-355.0","0","0","63135","","null","","","null","39","","NaN","","","","","","","","","","","","","",""
"","response","","html-keyboard-response","259","239650","0.0-1.0-356.0-0.0","0","0","63135","","222","","","75","39","","","1","39","training","adjacent","GF","7","6","Q.jpg","R.jpg","1","0","0","",""
"","feedback","","html-keyboard-response","260","240657","0.0-1.0-357.0-0.0","0","0","63135","","null","","","null","39","","","","","","","","","","","","","","","",""
"","time_out","","html-keyboard-response","261","242664","0.0-1.0-359.0-0.0","0","0","63135","","null","","","null","39","","","","","","","","","","","","","","","",""
"","ITI","","html-keyboard-response","262","243673","0.0-1.0-360.0","0","0","63135","","null","","","null","39","","","","","","","","","","","","","","","NaN",""
"","S1","","html-keyboard-response","263","243928","0.0-1.0-362.0","0","0","63135","","null","","","null","40","","","","","","","","","","","","","","","",""
"","ISI","","html-keyboard-response","264","244088","0.0-1.0-363.0","0","0","63135","","null","","","null","40","NaN","","","","","","","","","","","","","","",""
"","S2","","html-keyboard-response","265","244345","0.0-1.0-364.0","0","0","63135","","null","","","null","40","","NaN","","","","","","","","","","","","","",""
"","response","","html-keyboard-response","266","244912","0.0-1.0-365.0-0.0","0","0","63135","","564","","","68","40","","","1","40","training","adjacent","AB","1","2","M.jpg","N.jpg","0","1","0","",""
"","feedback","","html-keyboard-response","267","245920","0.0-1.0-366.0-0.0","0","0","63135","","null","","","null","40","","","","","","","","","","","","","","","",""
"","time_out","","html-keyboard-response","268","247928","0.0-1.0-368.0-0.0","0","0","63135","","null","","","null","40","","","","","","","","","","","","","","","",""
"","ITI","","html-keyboard-response","269","248936","0.0-1.0-369.0","0","0","63135","","null","","","null","40","","","","","","","","","","","","","","","NaN",""
"","S1","","html-keyboard-response","270","249193","0.0-1.0-371.0","0","0","63135","","null","","","null","41","","","","","","","","","","","","","","","",""
"","ISI","","html-keyboard-response","271","249352","0.0-1.0-372.0","0","0","63135","","null","","","null","41","NaN","","","","","","","","","","","","","","",""
"","S2","","html-keyboard-response","272","249608","0.0-1.0-373.0","0","0","63135","","null","","","null","41","","NaN","","","","","","","","","","","","","",""
"","response","","html-keyboard-response","273","249768","0.0-1.0-374.0-0.0","0","0","63135","","155","","","68","41","","","1","41","training","adjacent","CD","3","4","O.jpg","P.jpg","0","1","0","",""
"","feedback","","html-keyboard-response","274","250776","0.0-1.0-375.0-0.0","0","0","63135","","null","","","null","41","","","","","","","","","","","","","","","",""
"","time_out","","html-keyboard-response","275","252784","0.0-1.0-377.0-0.0","0","0","63135","","null","","","null","41","","","","","","","","","","","","","","","",""
"","ITI","","html-keyboard-response","276","253793","0.0-1.0-378.0","0","0","63135","","null","","","null","41","","","","","","","","","","","","","","","NaN",""
"","S1","","html-keyboard-response","277","254049","0.0-1.0-380.0","0","0","63135","","null","","","null","42","","","","","","","","","","","","","","","",""
"","ISI","","html-keyboard-response","278","254208","0.0-1.0-381.0","0","0","63135","","null","","","null","42","NaN","","","","","","","","","","","","","","",""
"","S2","","html-keyboard-response","279","254464","0.0-1.0-382.0","0","0","63135","","null","","","null","42","","NaN","","","","","","","","","","","","","",""
"","response","","html-keyboard-response","280","255176","0.0-1.0-383.0-0.0","0","0","63135","","708","","","75","42","","","1","42","training","adjacent","CB","3","2","O.jpg","N.jpg","1","0","0","",""
"","feedback","","html-keyboard-response","281","256184","0.0-1.0-384.0-0.0","0","0","63135","","null","","","null","42","","","","","","","","","","","","","","","",""
"","time_out","","html-keyboard-response","282","258192","0.0-1.0-386.0-0.0","0","0","63135","","null","","","null","42","","","","","","","","","","","","","","","",""
"","ITI","","html-keyboard-response","283","259200","0.0-1.0-387.0","0","0","63135","","null","","","null","42","","","","","","","","","","","","","","","NaN",""
"","S1","","html-keyboard-response","284","259456","0.0-1.0-389.0","0","0","63135","","null","","","null","43","","","","","","","","","","","","","","","",""
"","ISI","","html-keyboard-response","285","259616","0.0-1.0-390.0","0","0","63135","","null","","","null","43","NaN","","","","","","","","","","","","","","",""
"","S2","","html-keyboard-response","286","259872","0.0-1.0-391.0","0","0","63135","","null","","","null","43","","NaN","","","","","","","","","","","","","",""
"","response","","html-keyboard-response","287","260419","0.0-1.0-392.0-0.0","0","0","63135","","542","","","68","43","","","1","43","training","adjacent","FG","6","7","R.jpg","Q.jpg","0","1","0","",""
"","feedback","","html-keyboard-response","288","261425","0.0-1.0-393.0-0.0","0","0","63135","","null","","","null","43","","","","","","","","","","","","","","","",""
"","time_out","","html-keyboard-response","289","263433","0.0-1.0-395.0-0.0","0","0","63135","","null","","","null","43","","","","","","","","","","","","","","","",""
"","ITI","","html-keyboard-response","290","264440","0.0-1.0-396.0","0","0","63135","","null","","","null","43","","","","","","","","","","","","","","","NaN",""
"","S1","","html-keyboard-response","291","264697","0.0-1.0-398.0","0","0","63135","","null","","","null","44","","","","","","","","","","","","","","","",""
"","ISI","","html-keyboard-response","292","264856","0.0-1.0-399.0","0","0","63135","","null","","","null","44","NaN","","","","","","","","","","","","","","",""
"","S2","","html-keyboard-response","293","265113","0.0-1.0-400.0","0","0","63135","","null","","","null","44","","NaN","","","","","","","","","","","","","",""
"","response","","html-keyboard-response","294","266654","0.0-1.0-401.0-0.0","0","0","63135","","1534","","","75","44","","","1","44","training","adjacent","ED","5","4","L.jpg","P.jpg","1","0","0","",""
"","feedback","","html-keyboard-response","295","267665","0.0-1.0-402.0-0.0","0","0","63135","","null","","","null","44","","","","","","","","","","","","","","","",""
"","time_out","","html-keyboard-response","296","269672","0.0-1.0-404.0-0.0","0","0","63135","","null","","","null","44","","","","","","","","","","","","","","","",""
"","ITI","","html-keyboard-response","297","270680","0.0-1.0-405.0","0","0","63135","","null","","","null","44","","","","","","","","","","","","","","","NaN",""
"","S1","","html-keyboard-response","298","270941","0.0-1.0-407.0","0","0","63135","","null","","","null","45","","","","","","","","","","","","","","","",""
"","ISI","","html-keyboard-response","299","271096","0.0-1.0-408.0","0","0","63135","","null","","","null","45","NaN","","","","","","","","","","","","","","",""
"","S2","","html-keyboard-response","300","271352","0.0-1.0-409.0","0","0","63135","","null","","","null","45","","NaN","","","","","","","","","","","","","",""
"","response","","html-keyboard-response","301","272192","0.0-1.0-410.0-0.0","0","0","63135","","836","","","68","45","","","1","45","training","adjacent","DC","4","3","P.jpg","O.jpg","0","0","1","",""
"","feedback","","html-keyboard-response","302","273200","0.0-1.0-411.0-0.0","0","0","63135","","null","","","null","45","","","","","","","","","","","","","","","",""
"","ITI","","html-keyboard-response","303","274209","0.0-1.0-414.0","0","0","63135","","null","","","null","45","","","","","","","","","","","","","","","NaN",""
"","S1","","html-keyboard-response","304","274465","0.0-1.0-416.0","0","0","63135","","null","","","null","46","","","","","","","","","","","","","","","",""
"","ISI","","html-keyboard-response","305","274625","0.0-1.0-417.0","0","0","63135","","null","","","null","46","NaN","","","","","","","","","","","","","","",""
"","S2","","html-keyboard-response","306","274881","0.0-1.0-418.0","0","0","63135","","null","","","null","46","","NaN","","","","","","","","","","","","","",""
"","response","","html-keyboard-response","307","275668","0.0-1.0-419.0-0.0","0","0","63135","","784","","","68","46","","","1","46","training","adjacent","FG","6","7","R.jpg","Q.jpg","0","1","0","",""
"","feedback","","html-keyboard-response","308","276672","0.0-1.0-420.0-0.0","0","0","63135","","null","","","null","46","","","","","","","","","","","","","","","",""
"","time_out","","html-keyboard-response","309","278681","0.0-1.0-422.0-0.0","0","0","63135","","null","","","null","46","","","","","","","","","","","","","","","",""
"","ITI","","html-keyboard-response","310","279689","0.0-1.0-423.0","0","0","63135","","null","","","null","46","","","","","","","","","","","","","","","NaN",""
"","S1","","html-keyboard-response","311","279945","0.0-1.0-425.0","0","0","63135","","null","","","null","47","","","","","","","","","","","","","","","",""
"","ISI","","html-keyboard-response","312","280104","0.0-1.0-426.0","0","0","63135","","null","","","null","47","NaN","","","","","","","","","","","","","","",""
"","S2","","html-keyboard-response","313","280361","0.0-1.0-427.0","0","0","63135","","null","","","null","47","","NaN","","","","","","","","","","","","","",""
"","response","","html-keyboard-response","314","280620","0.0-1.0-428.0-0.0","0","0","63135","","256","","","75","47","","","1","47","training","adjacent","AB","1","2","M.jpg","N.jpg","1","1","1","",""
"","feedback","","html-keyboard-response","315","281624","0.0-1.0-429.0-0.0","0","0","63135","","null","","","null","47","","","","","","","","","","","","","","","",""
"","ITI","","html-keyboard-response","316","282633","0.0-1.0-432.0","0","0","63135","","935","","","17","47","","","","","","","","","","","","","","","ctrl",""
"","block_over","","html-keyboard-response","317","292621","0.0-1.0-433.0-0.0","0","0","63135","","9983","","","32","47","","","","","","","","","","","","","","","",""
"","S1","","html-keyboard-response","318","292881","0.0-1.0-434.0","0","0","63135","","null","","","null","48","","","","","","","","","","","","","","","",""
"","ISI","","html-keyboard-response","319","293040","0.0-1.0-435.0","0","0","63135","","null","","","null","48","NaN","","","","","","","","","","","","","","",""
"","S2","","html-keyboard-response","320","293297","0.0-1.0-436.0","0","0","63135","","null","","","null","48","","NaN","","","","","","","","","","","","","",""
"","response","","html-keyboard-response","321","293731","0.0-1.0-437.0-0.0","0","0","63135","","431","","","75","48","","","2","48","training","adjacent","CB","3","2","O.jpg","N.jpg","1","0","0","",""
"","feedback","","html-keyboard-response","322","294737","0.0-1.0-438.0-0.0","0","0","63135","","null","","","null","48","","","","","","","","","","","","","","","",""
"","time_out","","html-keyboard-response","323","296744","0.0-1.0-440.0-0.0","0","0","63135","","null","","","null","48","","","","","","","","","","","","","","","",""
"","ITI","","html-keyboard-response","324","297753","0.0-1.0-441.0","0","0","63135","","null","","","null","48","","","","","","","","","","","","","","","NaN",""
"","S1","","html-keyboard-response","325","298009","0.0-1.0-443.0","0","0","63135","","null","","","null","49","","","","","","","","","","","","","","","",""
"","ISI","","html-keyboard-response","326","298169","0.0-1.0-444.0","0","0","63135","","null","","","null","49","NaN","","","","","","","","","","","","","","",""
"","S2","","html-keyboard-response","327","298425","0.0-1.0-445.0","0","0","63135","","null","","","null","49","","NaN","","","","","","","","","","","","","",""
"","response","","html-keyboard-response","328","298528","0.0-1.0-446.0-0.0","0","0","63135","","100","","","68","49","","","2","49","training","adjacent","CD","3","4","O.jpg","P.jpg","0","1","0","",""
"","feedback","","html-keyboard-response","329","299536","0.0-1.0-447.0-0.0","0","0","63135","","null","","","null","49","","","","","","","","","","","","","","","",""
"","time_out","","html-keyboard-response","330","301545","0.0-1.0-449.0-0.0","0","0","63135","","null","","","null","49","","","","","","","","","","","","","","","",""
"","ITI","","html-keyboard-response","331","302553","0.0-1.0-450.0","0","0","63135","","null","","","null","49","","","","","","","","","","","","","","","NaN",""
"","S1","","html-keyboard-response","332","302808","0.0-1.0-452.0","0","0","63135","","null","","","null","50","","","","","","","","","","","","","","","",""
"","ISI","","html-keyboard-response","333","302969","0.0-1.0-453.0","0","0","63135","","null","","","null","50","NaN","","","","","","","","","","","","","","",""
"","S2","","html-keyboard-response","334","303224","0.0-1.0-454.0","0","0","63135","","null","","","null","50","","NaN","","","","","","","","","","","","","",""
"","response","","html-keyboard-response","335","303412","0.0-1.0-455.0-0.0","0","0","63135","","184","","","75","50","","","2","50","training","adjacent","AB","1","2","M.jpg","N.jpg","1","1","1","",""
"","feedback","","html-keyboard-response","336","304417","0.0-1.0-456.0-0.0","0","0","63135","","null","","","null","50","","","","","","","","","","","","","","","",""
"","ITI","","html-keyboard-response","337","305424","0.0-1.0-459.0","0","0","63135","","null","","","null","50","","","","","","","","","","","","","","","NaN",""
"","S1","","html-keyboard-response","338","305680","0.0-1.0-461.0","0","0","63135","","null","","","null","51","","","","","","","","","","","","","","","",""
"","ISI","","html-keyboard-response","339","305841","0.0-1.0-462.0","0","0","63135","","null","","","null","51","NaN","","","","","","","","","","","","","","",""
"","S2","","html-keyboard-response","340","306097","0.0-1.0-463.0","0","0","63135","","null","","","null","51","","NaN","","","","","","","","","","","","","",""
"","response","","html-keyboard-response","341","306382","0.0-1.0-464.0-0.0","0","0","63135","","282","","","75","51","","","2","51","training","adjacent","BC","2","3","N.jpg","O.jpg","1","1","1","",""
"","feedback","","html-keyboard-response","342","307393","0.0-1.0-465.0-0.0","0","0","63135","","null","","","null","51","","","","","","","","","","","","","","","",""
"","ITI","","html-keyboard-response","343","308400","0.0-1.0-468.0","0","0","63135","","null","","","null","51","","","","","","","","","","","","","","","NaN",""
"","S1","","html-keyboard-response","344","308657","0.0-1.0-470.0","0","0","63135","","null","","","null","52","","","","","","","","","","","","","","","",""
"","ISI","","html-keyboard-response","345","308817","0.0-1.0-471.0","0","0","63135","","null","","","null","52","NaN","","","","","","","","","","","","","","",""
"","S2","","html-keyboard-response","346","309073","0.0-1.0-472.0","0","0","63135","","null","","","null","52","","NaN","","","","","","","","","","","","","",""
"","response","","html-keyboard-response","347","309417","0.0-1.0-473.0-0.0","0","0","63135","","342","","","68","52","","","2","52","training","adjacent","EF","5","6","L.jpg","R.jpg","0","1","0","",""
"","feedback","","html-keyboard-response","348","310424","0.0-1.0-474.0-0.0","0","0","63135","","null","","","null","52","","","","","","","","","","","","","","","",""
"","time_out","","html-keyboard-response","349","312433","0.0-1.0-476.0-0.0","0","0","63135","","null","","","null","52","","","","","","","","","","","","","","","",""
"","ITI","","html-keyboard-response","350","313440","0.0-1.0-477.0","0","0","63135","","null","","","null","52","","","","","","","","","","","","","","","NaN",""
"","S1","","html-keyboard-response","351","313697","0.0-1.0-479.0","0","0","63135","","null","","","null","53","","","","","","","","","","","","","","","",""
"","ISI","","html-keyboard-response","352","313856","0.0-1.0-480.0","0","0","63135","","null","","","null","53","NaN","","","","","","","","","","","","","","",""
"","S2","","html-keyboard-response","353","314113","0.0-1.0-481.0","0","0","63135","","null","","","null","53","","NaN","","","","","","","","","","","","","",""
"","response","","html-keyboard-response","354","314798","0.0-1.0-482.0-0.0","0","0","63135","","681","","","68","53","","","2","53","training","adjacent","EF","5","6","L.jpg","R.jpg","0","1","0","",""
"","feedback","","html-keyboard-response","355","315809","0.0-1.0-483.0-0.0","0","0","63135","","null","","","null","53","","","","","","","","","","","","","","","",""
"","time_out","","html-keyboard-response","356","317816","0.0-1.0-485.0-0.0","0","0","63135","","null","","","null","53","","","","","","","","","","","","","","","",""
"","ITI","","html-keyboard-response","357","318825","0.0-1.0-486.0","0","0","63135","","null","","","null","53","","","","","","","","","","","","","","","NaN",""
"","S1","","html-keyboard-response","358","319081","0.0-1.0-488.0","0","0","63135","","null","","","null","54","","","","","","","","","","","","","","","",""
"","ISI","","html-keyboard-response","359","319241","0.0-1.0-489.0","0","0","63135","","null","","","null","54","NaN","","","","","","","","","","","","","","",""
"","S2","","html-keyboard-response","360","319497","0.0-1.0-490.0","0","0","63135","","null","","","null","54","","NaN","","","","","","","","","","","","","",""
"","response","","html-keyboard-response","361","319779","0.0-1.0-491.0-0.0","0","0","63135","","279","","","68","54","","","2","54","training","adjacent","BA","2","1","N.jpg","M.jpg","0","0","1","",""
"","feedback","","html-keyboard-response","362","320784","0.0-1.0-492.0-0.0","0","0","63135","","null","","","null","54","","","","","","","","","","","","","","","",""
"","ITI","","html-keyboard-response","363","321792","0.0-1.0-495.0","0","0","63135","","null","","","null","54","","","","","","","","","","","","","","","NaN",""
"","S1","","html-keyboard-response","364","322049","0.0-1.0-497.0","0","0","63135","","null","","","null","55","","","","","","","","","","","","","","","",""
"","ISI","","html-keyboard-response","365","322208","0.0-1.0-498.0","0","0","63135","","null","","","null","55","NaN","","","","","","","","","","","","","","",""
"","S2","","html-keyboard-response","366","322464","0.0-1.0-499.0","0","0","63135","","null","","","null","55","","NaN","","","","","","","","","","","","","",""
"","response","","html-keyboard-response","367","322706","0.0-1.0-500.0-0.0","0","0","63135","","238","","","68","55","","","2","55","training","adjacent","DC","4","3","P.jpg","O.jpg","0","0","1","",""
"","feedback","","html-keyboard-response","368","323712","0.0-1.0-501.0-0.0","0","0","63135","","null","","","null","55","","","","","","","","","","","","","","","",""
"","ITI","","html-keyboard-response","369","324720","0.0-1.0-504.0","0","0","63135","","null","","","null","55","","","","","","","","","","","","","","","NaN",""
"","S1","","html-keyboard-response","370","324977","0.0-1.0-506.0","0","0","63135","","null","","","null","56","","","","","","","","","","","","","","","",""
"","ISI","","html-keyboard-response","371","325136","0.0-1.0-507.0","0","0","63135","","null","","","null","56","NaN","","","","","","","","","","","","","","",""
"","S2","","html-keyboard-response","372","325393","0.0-1.0-508.0","0","0","63135","","null","","","null","56","","NaN","","","","","","","","","","","","","",""
"","response","","html-keyboard-response","373","325678","0.0-1.0-509.0-0.0","0","0","63135","","281","","","68","56","","","2","56","training","adjacent","CD","3","4","O.jpg","P.jpg","0","1","0","",""
"","feedback","","html-keyboard-response","374","326688","0.0-1.0-510.0-0.0","0","0","63135","","null","","","null","56","","","","","","","","","","","","","","","",""
"","time_out","","html-keyboard-response","375","328696","0.0-1.0-512.0-0.0","0","0","63135","","null","","","null","56","","","","","","","","","","","","","","","",""
"","ITI","","html-keyboard-response","376","329704","0.0-1.0-513.0","0","0","63135","","null","","","null","56","","","","","","","","","","","","","","","NaN",""
"","S1","","html-keyboard-response","377","329960","0.0-1.0-515.0","0","0","63135","","null","","","null","57","","","","","","","","","","","","","","","",""
"","ISI","","html-keyboard-response","378","330120","0.0-1.0-516.0","0","0","63135","","null","","","null","57","NaN","","","","","","","","","","","","","","",""
"","S2","","html-keyboard-response","379","330376","0.0-1.0-517.0","0","0","63135","","null","","","null","57","","NaN","","","","","","","","","","","","","",""
"","response","","html-keyboard-response","380","330525","0.0-1.0-518.0-0.0","0","0","63135","","145","","","75","57","","","2","57","training","adjacent","DE","4","5","P.jpg","L.jpg","1","1","1","",""
"","feedback","","html-keyboard-response","381","331537","0.0-1.0-519.0-0.0","0","0","63135","","null","","","null","57","","","","","","","","","","","","","","","",""
"","ITI","","html-keyboard-response","382","332545","0.0-1.0-522.0","0","0","63135","","739","","","75","57","","","","","","","","","","","","","","","k",""
"","S1","","html-keyboard-response","383","332800","0.0-1.0-524.0","0","0","63135","","null","","","null","58","","","","","","","","","","","","","","","",""
"","ISI","","html-keyboard-response","384","332960","0.0-1.0-525.0","0","0","63135","","null","","","null","58","NaN","","","","","","","","","","","","","","",""
"","S2","","html-keyboard-response","385","333217","0.0-1.0-526.0","0","0","63135","","null","","","null","58","","NaN","","","","","","","","","","","","","",""
"","response","","html-keyboard-response","386","333468","0.0-1.0-527.0-0.0","0","0","63135","","247","","","68","58","","","2","58","training","adjacent","FE","6","5","R.jpg","L.jpg","0","0","1","",""
"","feedback","","html-keyboard-response","387","334472","0.0-1.0-528.0-0.0","0","0","63135","","null","","","null","58","","","","","","","","","","","","","","","",""
"","ITI","","html-keyboard-response","388","335480","0.0-1.0-531.0","0","0","63135","","null","","","null","58","","","","","","","","","","","","","","","NaN",""
"","S1","","html-keyboard-response","389","335737","0.0-1.0-533.0","0","0","63135","","null","","","null","59","","","","","","","","","","","","","","","",""
"","ISI","","html-keyboard-response","390","335896","0.0-1.0-534.0","0","0","63135","","null","","","null","59","NaN","","","","","","","","","","","","","","",""
"","S2","","html-keyboard-response","391","336152","0.0-1.0-535.0","0","0","63135","","null","","","null","59","","NaN","","","","","","","","","","","","","",""
"","response","","html-keyboard-response","392","336362","0.0-1.0-536.0-0.0","0","0","63135","","206","","","75","59","","","2","59","training","adjacent","GF","7","6","Q.jpg","R.jpg","1","0","0","",""
"","feedback","","html-keyboard-response","393","337369","0.0-1.0-537.0-0.0","0","0","63135","","null","","","null","59","","","","","","","","","","","","","","","",""
"","time_out","","html-keyboard-response","394","339376","0.0-1.0-539.0-0.0","0","0","63135","","null","","","null","59","","","","","","","","","","","","","","","",""
"","ITI","","html-keyboard-response","395","340385","0.0-1.0-540.0","0","0","63135","","null","","","null","59","","","","","","","","","","","","","","","NaN",""
"","S1","","html-keyboard-response","396","340641","0.0-1.0-542.0","0","0","63135","","null","","","null","60","","","","","","","","","","","","","","","",""
"","ISI","","html-keyboard-response","397","340800","0.0-1.0-543.0","0","0","63135","","null","","","null","60","NaN","","","","","","","","","","","","","","",""
"","S2","","html-keyboard-response","398","341057","0.0-1.0-544.0","0","0","63135","","null","","","null","60","","NaN","","","","","","","","","","","","","",""
"","response","","html-keyboard-response","399","341297","0.0-1.0-545.0-0.0","0","0","63135","","236","","","68","60","","","2","60","training","adjacent","BA","2","1","N.jpg","M.jpg","0","0","1","",""
"","feedback","","html-keyboard-response","400","342304","0.0-1.0-546.0-0.0","0","0","63135","","null","","","null","60","","","","","","","","","","","","","","","",""
"","ITI","","html-keyboard-response","401","343312","0.0-1.0-549.0","0","0","63135","","null","","","null","60","","","","","","","","","","","","","","","NaN",""
"","S1","","html-keyboard-response","402","343568","0.0-1.0-551.0","0","0","63135","","null","","","null","61","","","","","","","","","","","","","","","",""
"","ISI","","html-keyboard-response","403","343729","0.0-1.0-552.0","0","0","63135","","null","","","null","61","NaN","","","","","","","","","","","","","","",""
"","S2","","html-keyboard-response","404","343984","0.0-1.0-553.0","0","0","63135","","null","","","null","61","","NaN","","","","","","","","","","","","","",""
"","response","","html-keyboard-response","405","344220","0.0-1.0-554.0-0.0","0","0","63135","","231","","","75","61","","","2","61","training","adjacent","AB","1","2","M.jpg","N.jpg","1","1","1","",""
"","feedback","","html-keyboard-response","406","345233","0.0-1.0-555.0-0.0","0","0","63135","","null","","","null","61","","","","","","","","","","","","","","","",""
"","ITI","","html-keyboard-response","407","346240","0.0-1.0-558.0","0","0","63135","","null","","","null","61","","","","","","","","","","","","","","","NaN",""
"","S1","","html-keyboard-response","408","346497","0.0-1.0-560.0","0","0","63135","","null","","","null","62","","","","","","","","","","","","","","","",""
"","ISI","","html-keyboard-response","409","346656","0.0-1.0-561.0","0","0","63135","","null","","","null","62","NaN","","","","","","","","","","","","","","",""
"","S2","","html-keyboard-response","410","346913","0.0-1.0-562.0","0","0","63135","","null","","","null","62","","NaN","","","","","","","","","","","","","",""
"","response","","html-keyboard-response","411","347134","0.0-1.0-563.0-0.0","0","0","63135","","218","","","75","62","","","2","62","training","adjacent","GF","7","6","Q.jpg","R.jpg","1","0","0","",""
"","feedback","","html-keyboard-response","412","348144","0.0-1.0-564.0-0.0","0","0","63135","","null","","","null","62","","","","","","","","","","","","","","","",""
"","time_out","","html-keyboard-response","413","350152","0.0-1.0-566.0-0.0","0","0","63135","","null","","","null","62","","","","","","","","","","","","","","","",""
"","ITI","","html-keyboard-response","414","351160","0.0-1.0-567.0","0","0","63135","","null","","","null","62","","","","","","","","","","","","","","","NaN",""
"","S1","","html-keyboard-response","415","351416","0.0-1.0-569.0","0","0","63135","","null","","","null","63","","","","","","","","","","","","","","","",""
"","ISI","","html-keyboard-response","416","351576","0.0-1.0-570.0","0","0","63135","","null","","","null","63","NaN","","","","","","","","","","","","","","",""
"","S2","","html-keyboard-response","417","351833","0.0-1.0-571.0","0","0","63135","","null","","","null","63","","NaN","","","","","","","","","","","","","",""
"","response","","html-keyboard-response","418","352058","0.0-1.0-572.0-0.0","0","0","63135","","221","","","68","63","","","2","63","training","adjacent","CB","3","2","O.jpg","N.jpg","0","0","1","",""
"","feedback","","html-keyboard-response","419","353065","0.0-1.0-573.0-0.0","0","0","63135","","null","","","null","63","","","","","","","","","","","","","","","",""
"","ITI","","html-keyboard-response","420","354072","0.0-1.0-576.0","0","0","63135","","null","","","null","63","","","","","","","","","","","","","","","NaN",""
"","S1","","html-keyboard-response","421","354328","0.0-1.0-578.0","0","0","63135","","null","","","null","64","","","","","","","","","","","","","","","",""
"","ISI","","html-keyboard-response","422","354488","0.0-1.0-579.0","0","0","63135","","null","","","null","64","NaN","","","","","","","","","","","","","","",""
"","S2","","html-keyboard-response","423","354744","0.0-1.0-580.0","0","0","63135","","null","","","null","64","","NaN","","","","","","","","","","","","","",""
"","response","","html-keyboard-response","424","355141","0.0-1.0-581.0-0.0","0","0","63135","","393","","","75","64","","","2","64","training","adjacent","EF","5","6","L.jpg","R.jpg","1","1","1","",""
"","feedback","","html-keyboard-response","425","356153","0.0-1.0-582.0-0.0","0","0","63135","","null","","","null","64","","","","","","","","","","","","","","","",""
"","ITI","","html-keyboard-response","426","357160","0.0-1.0-585.0","0","0","63135","","null","","","null","64","","","","","","","","","","","","","","","NaN",""
"","S1","","html-keyboard-response","427","357416","0.0-1.0-587.0","0","0","63135","","null","","","null","65","","","","","","","","","","","","","","","",""
"","ISI","","html-keyboard-response","428","357576","0.0-1.0-588.0","0","0","63135","","null","","","null","65","NaN","","","","","","","","","","","","","","",""
"","S2","","html-keyboard-response","429","357833","0.0-1.0-589.0","0","0","63135","","null","","","null","65","","NaN","","","","","","","","","","","","","",""
"","response","","html-keyboard-response","430","358287","0.0-1.0-590.0-0.0","0","0","63135","","450","","","75","65","","","2","65","training","adjacent","DE","4","5","P.jpg","L.jpg","1","1","1","",""
"","feedback","","html-keyboard-response","431","359298","0.0-1.0-591.0-0.0","0","0","63135","","null","","","null","65","","","","","","","","","","","","","","","",""
"","ITI","","html-keyboard-response","432","360305","0.0-1.0-594.0","0","0","63135","","null","","","null","65","","","","","","","","","","","","","","","NaN",""
"","S1","","html-keyboard-response","433","360560","0.0-1.0-596.0","0","0","63135","","null","","","null","66","","","","","","","","","","","","","","","",""
"","ISI","","html-keyboard-response","434","360720","0.0-1.0-597.0","0","0","63135","","null","","","null","66","NaN","","","","","","","","","","","","","","",""
"","S2","","html-keyboard-response","435","360979","0.0-1.0-598.0","0","0","63135","","null","","","null","66","","NaN","","","","","","","","","","","","","",""
"","response","","html-keyboard-response","436","361220","0.0-1.0-599.0-0.0","0","0","63135","","237","","","68","66","","","2","66","training","adjacent","GF","7","6","Q.jpg","R.jpg","0","0","1","",""
"","feedback","","html-keyboard-response","437","362224","0.0-1.0-600.0-0.0","0","0","63135","","null","","","null","66","","","","","","","","","","","","","","","",""
"","ITI","","html-keyboard-response","438","363232","0.0-1.0-603.0","0","0","63135","","null","","","null","66","","","","","","","","","","","","","","","NaN",""
"","S1","","html-keyboard-response","439","363489","0.0-1.0-605.0","0","0","63135","","null","","","null","67","","","","","","","","","","","","","","","",""
"","ISI","","html-keyboard-response","440","363648","0.0-1.0-606.0","0","0","63135","","null","","","null","67","NaN","","","","","","","","","","","","","","",""
"","S2","","html-keyboard-response","441","363905","0.0-1.0-607.0","0","0","63135","","null","","","null","67","","NaN","","","","","","","","","","","","","",""
"","response","","html-keyboard-response","442","364123","0.0-1.0-608.0-0.0","0","0","63135","","215","","","75","67","","","2","67","training","adjacent","ED","5","4","L.jpg","P.jpg","1","0","0","",""
"","feedback","","html-keyboard-response","443","365129","0.0-1.0-609.0-0.0","0","0","63135","","null","","","null","67","","","","","","","","","","","","","","","",""
"","time_out","","html-keyboard-response","444","367136","0.0-1.0-611.0-0.0","0","0","63135","","null","","","null","67","","","","","","","","","","","","","","","",""
"","ITI","","html-keyboard-response","445","368145","0.0-1.0-612.0","0","0","63135","","null","","","null","67","","","","","","","","","","","","","","","NaN",""
"","S1","","html-keyboard-response","446","368400","0.0-1.0-614.0","0","0","63135","","null","","","null","68","","","","","","","","","","","","","","","",""
"","ISI","","html-keyboard-response","447","368561","0.0-1.0-615.0","0","0","63135","","null","","","null","68","NaN","","","","","","","","","","","","","","",""
"","S2","","html-keyboard-response","448","368817","0.0-1.0-616.0","0","0","63135","","null","","","null","68","","NaN","","","","","","","","","","","","","",""
"","response","","html-keyboard-response","449","369063","0.0-1.0-617.0-0.0","0","0","63135","","243","","","75","68","","","2","68","training","adjacent","DC","4","3","P.jpg","O.jpg","1","0","0","",""
"","feedback","","html-keyboard-response","450","370072","0.0-1.0-618.0-0.0","0","0","63135","","null","","","null","68","","","","","","","","","","","","","","","",""
"","time_out","","html-keyboard-response","451","372080","0.0-1.0-620.0-0.0","0","0","63135","","null","","","null","68","","","","","","","","","","","","","","","",""
"","ITI","","html-keyboard-response","452","373089","0.0-1.0-621.0","0","0","63135","","null","","","null","68","","","","","","","","","","","","","","","NaN",""
"","S1","","html-keyboard-response","453","373345","0.0-1.0-623.0","0","0","63135","","null","","","null","69","","","","","","","","","","","","","","","",""
"","ISI","","html-keyboard-response","454","373504","0.0-1.0-624.0","0","0","63135","","null","","","null","69","NaN","","","","","","","","","","","","","","",""
"","S2","","html-keyboard-response","455","373761","0.0-1.0-625.0","0","0","63135","","null","","","null","69","","NaN","","","","","","","","","","","","","",""
"","response","","html-keyboard-response","456","373971","0.0-1.0-626.0-0.0","0","0","63135","","207","","","75","69","","","2","69","training","adjacent","FG","6","7","R.jpg","Q.jpg","1","1","1","",""
"","feedback","","html-keyboard-response","457","374977","0.0-1.0-627.0-0.0","0","0","63135","","null","","","null","69","","","","","","","","","","","","","","","",""
"","ITI","","html-keyboard-response","458","375984","0.0-1.0-630.0","0","0","63135","","null","","","null","69","","","","","","","","","","","","","","","NaN",""
"","S1","","html-keyboard-response","459","376240","0.0-1.0-632.0","0","0","63135","","null","","","null","70","","","","","","","","","","","","","","","",""
"","ISI","","html-keyboard-response","460","376401","0.0-1.0-633.0","0","0","63135","","null","","","null","70","NaN","","","","","","","","","","","","","","",""
"","S2","","html-keyboard-response","461","376656","0.0-1.0-634.0","0","0","63135","","null","","","null","70","","NaN","","","","","","","","","","","","","",""
"","response","","html-keyboard-response","462","376943","0.0-1.0-635.0-0.0","0","0","63135","","283","","","68","70","","","2","70","training","adjacent","DC","4","3","P.jpg","O.jpg","0","0","1","",""
"","feedback","","html-keyboard-response","463","377952","0.0-1.0-636.0-0.0","0","0","63135","","null","","","null","70","","","","","","","","","","","","","","","",""
"","ITI","","html-keyboard-response","464","378961","0.0-1.0-639.0","0","0","63135","","463","","","189","70","","","","","","","","","","","","","","","",""
"","S1","","html-keyboard-response","465","379218","0.0-1.0-641.0","0","0","63135","","null","","","null","71","","","","","","","","","","","","","","","",""
"","ISI","","html-keyboard-response","466","379376","0.0-1.0-642.0","0","0","63135","","null","","","null","71","NaN","","","","","","","","","","","","","","",""
"","S2","","html-keyboard-response","467","379632","0.0-1.0-643.0","0","0","63135","","null","","","null","71","","NaN","","","","","","","","","","","","","",""
"","response","","html-keyboard-response","468","379707","0.0-1.0-644.0-0.0","0","0","63135","","71","","","75","71","","","2","71","training","adjacent","AB","1","2","M.jpg","N.jpg","1","1","1","",""
"","feedback","","html-keyboard-response","469","380712","0.0-1.0-645.0-0.0","0","0","63135","","null","","","null","71","","","","","","","","","","","","","","","",""
"","ITI","","html-keyboard-response","470","381720","0.0-1.0-648.0","0","0","63135","","null","","","null","71","","","","","","","","","","","","","","","NaN",""
"","S1","","html-keyboard-response","471","381976","0.0-1.0-650.0","0","0","63135","","null","","","null","72","","","","","","","","","","","","","","","",""
"","ISI","","html-keyboard-response","472","382137","0.0-1.0-651.0","0","0","63135","","null","","","null","72","NaN","","","","","","","","","","","","","","",""
"","S2","","html-keyboard-response","473","382393","0.0-1.0-652.0","0","0","63135","","null","","","null","72","","NaN","","","","","","","","","","","","","",""
"","response","","html-keyboard-response","474","382554","0.0-1.0-653.0-0.0","0","0","63135","","158","","","75","72","","","2","72","training","adjacent","CB","3","2","O.jpg","N.jpg","1","0","0","",""
"","feedback","","html-keyboard-response","475","383560","0.0-1.0-654.0-0.0","0","0","63135","","null","","","null","72","","","","","","","","","","","","","","","",""
"","time_out","","html-keyboard-response","476","385569","0.0-1.0-656.0-0.0","0","0","63135","","null","","","null","72","","","","","","","","","","","","","","","",""
"","ITI","","html-keyboard-response","477","386576","0.0-1.0-657.0","0","0","63135","","null","","","null","72","","","","","","","","","","","","","","","NaN",""
"","S1","","html-keyboard-response","478","386833","0.0-1.0-659.0","0","0","63135","","null","","","null","73","","","","","","","","","","","","","","","",""
"","ISI","","html-keyboard-response","479","386993","0.0-1.0-660.0","0","0","63135","","null","","","null","73","NaN","","","","","","","","","","","","","","",""
"","S2","","html-keyboard-response","480","387249","0.0-1.0-661.0","0","0","63135","","null","","","null","73","","NaN","","","","","","","","","","","","","",""
"","response","","html-keyboard-response","481","387425","0.0-1.0-662.0-0.0","0","0","63135","","173","","","68","73","","","2","73","training","adjacent","BA","2","1","N.jpg","M.jpg","0","0","1","",""
"","feedback","","html-keyboard-response","482","388432","0.0-1.0-663.0-0.0","0","0","63135","","null","","","null","73","","","","","","","","","","","","","","","",""
"","ITI","","html-keyboard-response","483","389440","0.0-1.0-666.0","0","0","63135","","null","","","null","73","","","","","","","","","","","","","","","NaN",""
"","S1","","html-keyboard-response","484","389696","0.0-1.0-668.0","0","0","63135","","null","","","null","74","","","","","","","","","","","","","","","",""
"","ISI","","html-keyboard-response","485","389857","0.0-1.0-669.0","0","0","63135","","null","","","null","74","NaN","","","","","","","","","","","","","","",""
"","S2","","html-keyboard-response","486","390112","0.0-1.0-670.0","0","0","63135","","null","","","null","74","","NaN","","","","","","","","","","","","","",""
"","response","","html-keyboard-response","487","390236","0.0-1.0-671.0-0.0","0","0","63135","","120","","","68","74","","","2","74","training","adjacent","DC","4","3","P.jpg","O.jpg","0","0","1","",""
"","feedback","","html-keyboard-response","488","391248","0.0-1.0-672.0-0.0","0","0","63135","","null","","","null","74","","","","","","","","","","","","","","","",""
"","ITI","","html-keyboard-response","489","392256","0.0-1.0-675.0","0","0","63135","","null","","","null","74","","","","","","","","","","","","","","","NaN",""
"","S1","","html-keyboard-response","490","392513","0.0-1.0-677.0","0","0","63135","","null","","","null","75","","","","","","","","","","","","","","","",""
"","ISI","","html-keyboard-response","491","392673","0.0-1.0-678.0","0","0","63135","","null","","","null","75","NaN","","","","","","","","","","","","","","",""
"","S2","","html-keyboard-response","492","392929","0.0-1.0-679.0","0","0","63135","","null","","","null","75","","NaN","","","","","","","","","","","","","",""
"","response","","html-keyboard-response","493","393103","0.0-1.0-680.0-0.0","0","0","63135","","171","","","68","75","","","2","75","training","adjacent","DE","4","5","P.jpg","L.jpg","0","1","0","",""
"","feedback","","html-keyboard-response","494","394113","0.0-1.0-681.0-0.0","0","0","63135","","null","","","null","75","","","","","","","","","","","","","","","",""
"","time_out","","html-keyboard-response","495","396120","0.0-1.0-683.0-0.0","0","0","63135","","null","","","null","75","","","","","","","","","","","","","","","",""
"","ITI","","html-keyboard-response","496","397129","0.0-1.0-684.0","0","0","63135","","null","","","null","75","","","","","","","","","","","","","","","NaN",""
"","S1","","html-keyboard-response","497","397385","0.0-1.0-686.0","0","0","63135","","null","","","null","76","","","","","","","","","","","","","","","",""
"","ISI","","html-keyboard-response","498","397544","0.0-1.0-687.0","0","0","63135","","null","","","null","76","NaN","","","","","","","","","","","","","","",""
"","S2","","html-keyboard-response","499","397801","0.0-1.0-688.0","0","0","63135","","null","","","null","76","","NaN","","","","","","","","","","","","","",""
"","response","","html-keyboard-response","500","397937","0.0-1.0-689.0-0.0","0","0","63135","","130","","","75","76","","","2","76","training","adjacent","FE","6","5","R.jpg","L.jpg","1","0","0","",""
"","feedback","","html-keyboard-response","501","398945","0.0-1.0-690.0-0.0","0","0","63135","","null","","","null","76","","","","","","","","","","","","","","","",""
"","time_out","","html-keyboard-response","502","400952","0.0-1.0-692.0-0.0","0","0","63135","","null","","","null","76","","","","","","","","","","","","","","","",""
"","ITI","","html-keyboard-response","503","401960","0.0-1.0-693.0","0","0","63135","","null","","","null","76","","","","","","","","","","","","","","","NaN",""
"","S1","","html-keyboard-response","504","402217","0.0-1.0-695.0","0","0","63135","","null","","","null","77","","","","","","","","","","","","","","","",""
"","ISI","","html-keyboard-response","505","402376","0.0-1.0-696.0","0","0","63135","","null","","","null","77","NaN","","","","","","","","","","","","","","",""
"","S2","","html-keyboard-response","506","402633","0.0-1.0-697.0","0","0","63135","","null","","","null","77","","NaN","","","","","","","","","","","","","",""
"","response","","html-keyboard-response","507","402815","0.0-1.0-698.0-0.0","0","0","63135","","179","","","75","77","","","2","77","training","adjacent","AB","1","2","M.jpg","N.jpg","1","1","1","",""
"","feedback","","html-keyboard-response","508","403824","0.0-1.0-699.0-0.0","0","0","63135","","null","","","null","77","","","","","","","","","","","","","","","",""
"","ITI","","html-keyboard-response","509","404833","0.0-1.0-702.0","0","0","63135","","null","","","null","77","","","","","","","","","","","","","","","NaN",""
"","S1","","html-keyboard-response","510","405089","0.0-1.0-704.0","0","0","63135","","null","","","null","78","","","","","","","","","","","","","","","",""
"","ISI","","html-keyboard-response","511","405249","0.0-1.0-705.0","0","0","63135","","48","","","68","78","d","","","","","","","","","","","","","","",""
"","S2","","html-keyboard-response","512","405493","0.0-1.0-706.0","0","0","63135","","240","","","68","78","","d","2","78","training","adjacent","GF","7","6","Q.jpg","R.jpg","0","0","1","",""
"","feedback","","html-keyboard-response","513","406504","0.0-1.0-708.0-0.0","0","0","63135","","null","","","null","78","","","","","","","","","","","","","","","",""
"","ITI","","html-keyboard-response","514","407512","0.0-1.0-711.0","0","0","63135","","743","","","189","78","","","","","","","","","","","","","","","",""
"","S1","","html-keyboard-response","515","407768","0.0-1.0-713.0","0","0","63135","","null","","","null","79","","","","","","","","","","","","","","","",""
"","ISI","","html-keyboard-response","516","407928","0.0-1.0-714.0","0","0","63135","","null","","","null","79","NaN","","","","","","","","","","","","","","",""
"","S2","","html-keyboard-response","517","408185","0.0-1.0-715.0","0","0","63135","","null","","","null","79","","NaN","","","","","","","","","","","","","",""
"","response","","html-keyboard-response","518","408354","0.0-1.0-716.0-0.0","0","0","63135","","165","","","75","79","","","2","79","training","adjacent","BA","2","1","N.jpg","M.jpg","1","0","0","",""
"","feedback","","html-keyboard-response","519","409361","0.0-1.0-717.0-0.0","0","0","63135","","null","","","null","79","","","","","","","","","","","","","","","",""
"","time_out","","html-keyboard-response","520","411368","0.0-1.0-719.0-0.0","0","0","63135","","null","","","null","79","","","","","","","","","","","","","","","",""
"","ITI","","html-keyboard-response","521","412376","0.0-1.0-720.0","0","0","63135","","null","","","null","79","","","","","","","","","","","","","","","NaN",""
"","S1","","html-keyboard-response","522","412632","0.0-1.0-722.0","0","0","63135","","null","","","null","80","","","","","","","","","","","","","","","",""
"","ISI","","html-keyboard-response","523","412792","0.0-1.0-723.0","0","0","63135","","null","","","null","80","NaN","","","","","","","","","","","","","","",""
"","S2","","html-keyboard-response","524","413048","0.0-1.0-724.0","0","0","63135","","null","","","null","80","","NaN","","","","","","","","","","","","","",""
"","response","","html-keyboard-response","525","413262","0.0-1.0-725.0-0.0","0","0","63135","","210","","","75","80","","","2","80","training","adjacent","CD","3","4","O.jpg","P.jpg","1","1","1","",""
"","feedback","","html-keyboard-response","526","414273","0.0-1.0-726.0-0.0","0","0","63135","","null","","","null","80","","","","","","","","","","","","","","","",""
"","ITI","","html-keyboard-response","527","415280","0.0-1.0-729.0","0","0","63135","","594","","","189","80","","","","","","","","","","","","","","","",""
"","S1","","html-keyboard-response","528","415537","0.0-1.0-731.0","0","0","63135","","null","","","null","81","","","","","","","","","","","","","","","",""
"","ISI","","html-keyboard-response","529","415696","0.0-1.0-732.0","0","0","63135","","null","","","null","81","NaN","","","","","","","","","","","","","","",""
"","S2","","html-keyboard-response","530","415952","0.0-1.0-733.0","0","0","63135","","null","","","null","81","","NaN","","","","","","","","","","","","","",""
"","response","","html-keyboard-response","531","416087","0.0-1.0-734.0-0.0","0","0","63135","","130","","","68","81","","","2","81","training","adjacent","CD","3","4","O.jpg","P.jpg","0","1","0","",""
"","feedback","","html-keyboard-response","532","417096","0.0-1.0-735.0-0.0","0","0","63135","","null","","","null","81","","","","","","","","","","","","","","","",""
"","time_out","","html-keyboard-response","533","419105","0.0-1.0-737.0-0.0","0","0","63135","","null","","","null","81","","","","","","","","","","","","","","","",""
"","ITI","","html-keyboard-response","534","420113","0.0-1.0-738.0","0","0","63135","","null","","","null","81","","","","","","","","","","","","","","","NaN",""
"","S1","","html-keyboard-response","535","420368","0.0-1.0-740.0","0","0","63135","","null","","","null","82","","","","","","","","","","","","","","","",""
"","ISI","","html-keyboard-response","536","420528","0.0-1.0-741.0","0","0","63135","","null","","","null","82","NaN","","","","","","","","","","","","","","",""
"","S2","","html-keyboard-response","537","420784","0.0-1.0-742.0","0","0","63135","","null","","","null","82","","NaN","","","","","","","","","","","","","",""
"","response","","html-keyboard-response","538","421014","0.0-1.0-743.0-0.0","0","0","63135","","226","","","68","82","","","2","82","training","adjacent","BC","2","3","N.jpg","O.jpg","0","1","0","",""
"","feedback","","html-keyboard-response","539","422025","0.0-1.0-744.0-0.0","0","0","63135","","null","","","null","82","","","","","","","","","","","","","","","",""
"","time_out","","html-keyboard-response","540","424032","0.0-1.0-746.0-0.0","0","0","63135","","null","","","null","82","","","","","","","","","","","","","","","",""
"","ITI","","html-keyboard-response","541","425040","0.0-1.0-747.0","0","0","63135","","null","","","null","82","","","","","","","","","","","","","","","NaN",""
"","S1","","html-keyboard-response","542","425296","0.0-1.0-749.0","0","0","63135","","null","","","null","83","","","","","","","","","","","","","","","",""
"","ISI","","html-keyboard-response","543","425457","0.0-1.0-750.0","0","0","63135","","null","","","null","83","NaN","","","","","","","","","","","","","","",""
"","S2","","html-keyboard-response","544","425713","0.0-1.0-751.0","0","0","63135","","null","","","null","83","","NaN","","","","","","","","","","","","","",""
"","response","","html-keyboard-response","545","425890","0.0-1.0-752.0-0.0","0","0","63135","","173","","","75","83","","","2","83","training","adjacent","ED","5","4","L.jpg","P.jpg","1","0","0","",""
"","feedback","","html-keyboard-response","546","426897","0.0-1.0-753.0-0.0","0","0","63135","","null","","","null","83","","","","","","","","","","","","","","","",""
"","time_out","","html-keyboard-response","547","428904","0.0-1.0-755.0-0.0","0","0","63135","","null","","","null","83","","","","","","","","","","","","","","","",""
"","ITI","","html-keyboard-response","548","429912","0.0-1.0-756.0","0","0","63135","","null","","","null","83","","","","","","","","","","","","","","","NaN",""
"","S1","","html-keyboard-response","549","430168","0.0-1.0-758.0","0","0","63135","","null","","","null","84","","","","","","","","","","","","","","","",""
"","ISI","","html-keyboard-response","550","430328","0.0-1.0-759.0","0","0","63135","","null","","","null","84","NaN","","","","","","","","","","","","","","",""
"","S2","","html-keyboard-response","551","430584","0.0-1.0-760.0","0","0","63135","","null","","","null","84","","NaN","","","","","","","","","","","","","",""
"","response","","html-keyboard-response","552","432344","0.0-1.0-761.0-0.0","0","0","63135","","null","","","null","84","","","2","84","training","adjacent","FG","6","7","R.jpg","Q.jpg","NaN","1","0","",""
"","too_slow_prompt","","html-keyboard-response","553","433353","0.0-1.0-763.0-0.0","1","0","63135","","null","","","null","","","","","","","","","","","","","","","","",""
"","time_out","","html-keyboard-response","554","435360","0.0-1.0-764.0-0.0","0","0","63135","","null","","","null","84","","","","","","","","","","","","","","","",""
"","ITI","","html-keyboard-response","555","436368","0.0-1.0-765.0","0","0","63135","","null","","","null","84","","","","","","","","","","","","","","","NaN",""
"","S1","","html-keyboard-response","556","436624","0.0-1.0-767.0","0","0","63135","","null","","","null","85","","","","","","","","","","","","","","","",""
"","ISI","","html-keyboard-response","557","436785","0.0-1.0-768.0","0","0","63135","","null","","","null","85","NaN","","","","","","","","","","","","","","",""
"","S2","","html-keyboard-response","558","437041","0.0-1.0-769.0","0","0","63135","","null","","","null","85","","NaN","","","","","","","","","","","","","",""
"","response","","html-keyboard-response","559","437207","0.0-1.0-770.0-0.0","0","0","63135","","163","","","75","85","","","2","85","training","adjacent","FE","6","5","R.jpg","L.jpg","1","0","0","",""
"","feedback","","html-keyboard-response","560","438216","0.0-1.0-771.0-0.0","0","0","63135","","null","","","null","85","","","","","","","","","","","","","","","",""
"","time_out","","html-keyboard-response","561","440224","0.0-1.0-773.0-0.0","0","0","63135","","null","","","null","85","","","","","","","","","","","","","","","",""
"","ITI","","html-keyboard-response","562","441233","0.0-1.0-774.0","0","0","63135","","null","","","null","85","","","","","","","","","","","","","","","NaN",""
"","S1","","html-keyboard-response","563","441489","0.0-1.0-776.0","0","0","63135","","null","","","null","86","","","","","","","","","","","","","","","",""
"","ISI","","html-keyboard-response","564","441649","0.0-1.0-777.0","0","0","63135","","null","","","null","86","NaN","","","","","","","","","","","","","","",""
"","S2","","html-keyboard-response","565","441905","0.0-1.0-778.0","0","0","63135","","null","","","null","86","","NaN","","","","","","","","","","","","","",""
"","response","","html-keyboard-response","566","442172","0.0-1.0-779.0-0.0","0","0","63135","","263","","","68","86","","","2","86","training","adjacent","EF","5","6","L.jpg","R.jpg","0","1","0","",""
"","feedback","","html-keyboard-response","567","443184","0.0-1.0-780.0-0.0","0","0","63135","","null","","","null","86","","","","","","","","","","","","","","","",""
"","time_out","","html-keyboard-response","568","445197","0.0-1.0-782.0-0.0","0","0","63135","","null","","","null","86","","","","","","","","","","","","","","","",""
"","ITI","","html-keyboard-response","569","446209","0.0-1.0-783.0","0","0","63135","","null","","","null","86","","","","","","","","","","","","","","","NaN",""
"","S1","","html-keyboard-response","570","446464","0.0-1.0-785.0","0","0","63135","","null","","","null","87","","","","","","","","","","","","","","","",""
"","ISI","","html-keyboard-response","571","446625","0.0-1.0-786.0","0","0","63135","","null","","","null","87","NaN","","","","","","","","","","","","","","",""
"","S2","","html-keyboard-response","572","446881","0.0-1.0-787.0","0","0","63135","","null","","","null","87","","NaN","","","","","","","","","","","","","",""
"","response","","html-keyboard-response","573","446970","0.0-1.0-788.0-0.0","0","0","63135","","85","","","75","87","","","2","87","training","adjacent","FG","6","7","R.jpg","Q.jpg","1","1","1","",""
"","feedback","","html-keyboard-response","574","447976","0.0-1.0-789.0-0.0","0","0","63135","","null","","","null","87","","","","","","","","","","","","","","","",""
"","ITI","","html-keyboard-response","575","448984","0.0-1.0-792.0","0","0","63135","","null","","","null","87","","","","","","","","","","","","","","","NaN",""
"","S1","","html-keyboard-response","576","449240","0.0-1.0-794.0","0","0","63135","","null","","","null","88","","","","","","","","","","","","","","","",""
"","ISI","","html-keyboard-response","577","449401","0.0-1.0-795.0","0","0","63135","","null","","","null","88","NaN","","","","","","","","","","","","","","",""
"","S2","","html-keyboard-response","578","449657","0.0-1.0-796.0","0","0","63135","","null","","","null","88","","NaN","","","","","","","","","","","","","",""
"","response","","html-keyboard-response","579","449812","0.0-1.0-797.0-0.0","0","0","63135","","152","","","68","88","","","2","88","training","adjacent","BC","2","3","N.jpg","O.jpg","0","1","0","",""
"","feedback","","html-keyboard-response","580","450824","0.0-1.0-798.0-0.0","0","0","63135","","null","","","null","88","","","","","","","","","","","","","","","",""
"","time_out","","html-keyboard-response","581","452833","0.0-1.0-800.0-0.0","0","0","63135","","null","","","null","88","","","","","","","","","","","","","","","",""
"","ITI","","html-keyboard-response","582","453841","0.0-1.0-801.0","0","0","63135","","null","","","null","88","","","","","","","","","","","","","","","NaN",""
