"success","ttype","start_time","trial_type","trial_index","time_elapsed","internal_node_id","warning","missed_checkup","PID","view_history","rt","responses","repeat_instructions","key_press","index","keypress_isi","keypress_S2","block","trial_num","phase","group_type","pair_type","S1_stim","S2_stim","S1_img","S2_img","S1_chosen","S1_higher","accuracy","keypress_iti","total_bonus_tally"
"true","full_screen","d04152023hr0046","fullscreen","0","5582","0.0-0.0","0","0","28489","","","","","","","","","","","","","","","","","","","","","",""
"","instructions","","instructions","1","31061","0.0-1.0-0.0-0.0","0","0","28489","[{""page_index"":0,""viewing_time"":2778},{""page_index"":1,""viewing_time"":16597},{""page_index"":2,""viewing_time"":4890},{""page_index"":3,""viewing_time"":1211}]","25477","","","","","","","","","","","","","","","","","","","",""
"","comprehension_check","","survey-multi-choice","2","45503","0.0-1.0-0.0-1.0","0","0","28489","","14437","{""Q0"":""True"",""Q1"":""K"",""Q2"":""Once the second image appears and while the screen 'MAKE A CHOICE' is shown"",""Q3"":""Green mark"",""Q4"":""either D or K""}","0","","","","","","","","","","","","","","","","","",""
"","start_exp","","html-keyboard-response","3","47341","0.0-1.0-1.0","0","0","28489","","1836","","","32","","","","","","","","","","","","","","","","",""
"","S1","","html-keyboard-response","4","47599","0.0-1.0-2.0","0","0","28489","","null","","","null","0","","","","","","","","","","","","","","","",""
"","ISI","","html-keyboard-response","5","48610","0.0-1.0-3.0","0","0","28489","","null","","","null","0","NaN","","","","","","","","","","","","","","",""
"","S2","","html-keyboard-response","6","48871","0.0-1.0-4.0","0","0","28489","","null","","","null","0","","NaN","","","","","","","","","","","","","",""
"","response","","html-keyboard-response","7","49617","0.0-1.0-5.0-0.0","0","0","28489","","744","","","75","0","","","1","0","training","adjacent","EF","5","6","O.jpg","M.jpg","1","1","1","",""
"","feedback","","html-keyboard-response","8","50624","0.0-1.0-6.0-0.0","0","0","28489","","null","","","null","0","","","","","","","","","","","","","","","",""
"","ITI","","html-keyboard-response","9","51634","0.0-1.0-9.0","0","0","28489","","null","","","null","0","","","","","","","","","","","","","","","NaN",""
"","S1","","html-keyboard-response","10","51895","0.0-1.0-11.0","0","0","28489","","null","","","null","1","","","","","","","","","","","","","","","",""
"","ISI","","html-keyboard-response","11","52904","0.0-1.0-12.0","0","0","28489","","null","","","null","1","NaN","","","","","","","","","","","","","","",""
"","S2","","html-keyboard-response","12","53161","0.0-1.0-13.0","0","0","28489","","null","","","null","1","","NaN","","","","","","","","","","","","","",""
"","response","","html-keyboard-response","13","54214","0.0-1.0-14.0-0.0","0","0","28489","","1052","","","68","1","","","1","1","training","adjacent","CB","3","2","L.jpg","N.jpg","0","0","1","",""
"","feedback","","html-keyboard-response","14","55227","0.0-1.0-15.0-0.0","0","0","28489","","null","","","null","1","","","","","","","","","","","","","","","",""
"","ITI","","html-keyboard-response","15","56231","0.0-1.0-18.0","0","0","28489","","null","","","null","1","","","","","","","","","","","","","","","NaN",""
"","S1","","html-keyboard-response","16","56487","0.0-1.0-20.0","0","0","28489","","null","","","null","2","","","","","","","","","","","","","","","",""
"","ISI","","html-keyboard-response","17","57497","0.0-1.0-21.0","0","0","28489","","null","","","null","2","NaN","","","","","","","","","","","","","","",""
"","S2","","html-keyboard-response","18","57752","0.0-1.0-22.0","0","0","28489","","null","","","null","2","","NaN","","","","","","","","","","","","","",""
"","response","","html-keyboard-response","19","59109","0.0-1.0-23.0-0.0","0","0","28489","","1354","","","68","2","","","1","2","training","adjacent","FE","6","5","M.jpg","O.jpg","0","0","1","",""
"","feedback","","html-keyboard-response","20","60121","0.0-1.0-24.0-0.0","0","0","28489","","null","","","null","2","","","","","","","","","","","","","","","",""
"","ITI","","html-keyboard-response","21","61130","0.0-1.0-27.0","0","0","28489","","null","","","null","2","","","","","","","","","","","","","","","NaN",""
"","S1","","html-keyboard-response","22","61392","0.0-1.0-29.0","0","0","28489","","null","","","null","3","","","","","","","","","","","","","","","",""
"","ISI","","html-keyboard-response","23","62402","0.0-1.0-30.0","0","0","28489","","null","","","null","3","NaN","","","","","","","","","","","","","","",""
"","S2","","html-keyboard-response","24","62664","0.0-1.0-31.0","0","0","28489","","null","","","null","3","","NaN","","","","","","","","","","","","","",""
"","response","","html-keyboard-response","25","63123","0.0-1.0-32.0-0.0","0","0","28489","","457","","","75","3","","","1","3","training","adjacent","EF","5","6","O.jpg","M.jpg","1","1","1","",""
"","feedback","","html-keyboard-response","26","64127","0.0-1.0-33.0-0.0","0","0","28489","","null","","","null","3","","","","","","","","","","","","","","","",""
"","ITI","","html-keyboard-response","27","65137","0.0-1.0-36.0","0","0","28489","","null","","","null","3","","","","","","","","","","","","","","","NaN",""
"","S1","","html-keyboard-response","28","65392","0.0-1.0-38.0","0","0","28489","","null","","","null","4","","","","","","","","","","","","","","","",""
"","ISI","","html-keyboard-response","29","66402","0.0-1.0-39.0","0","0","28489","","null","","","null","4","NaN","","","","","","","","","","","","","","",""
"","S2","","html-keyboard-response","30","66657","0.0-1.0-40.0","0","0","28489","","null","","","null","4","","NaN","","","","","","","","","","","","","",""
"","response","","html-keyboard-response","31","67728","0.0-1.0-41.0-0.0","0","0","28489","","1068","","","68","4","","","1","4","training","adjacent","CB","3","2","L.jpg","N.jpg","0","0","1","",""
"","feedback","","html-keyboard-response","32","68736","0.0-1.0-42.0-0.0","0","0","28489","","null","","","null","4","","","","","","","","","","","","","","","",""
"","ITI","","html-keyboard-response","33","69747","0.0-1.0-45.0","0","0","28489","","null","","","null","4","","","","","","","","","","","","","","","NaN",""
"","S1","","html-keyboard-response","34","70012","0.0-1.0-47.0","0","0","28489","","null","","","null","5","","","","","","","","","","","","","","","",""
"","ISI","","html-keyboard-response","35","71017","0.0-1.0-48.0","0","0","28489","","null","","","null","5","NaN","","","","","","","","","","","","","","",""
"","S2","","html-keyboard-response","36","71273","0.0-1.0-49.0","0","0","28489","","null","","","null","5","","NaN","","","","","","","","","","","","","",""
"","response","","html-keyboard-response","37","73032","0.0-1.0-50.0-0.0","0","0","28489","","null","","","null","5","","","1","5","training","adjacent","GF","7","6","Q.jpg","M.jpg","NaN","0","0","",""
"","too_slow_prompt","","html-keyboard-response","38","74041","0.0-1.0-52.0-0.0","1","0","28489","","null","","","null","","","","","","","","","","","","","","","","",""
"","time_out","","html-keyboard-response","39","76048","0.0-1.0-53.0-0.0","0","0","28489","","null","","","null","5","","","","","","","","","","","","","","","",""
"","ITI","","html-keyboard-response","40","77060","0.0-1.0-54.0","0","0","28489","","null","","","null","5","","","","","","","","","","","","","","","NaN",""
"","S1","","html-keyboard-response","41","77322","0.0-1.0-56.0","0","0","28489","","null","","","null","6","","","","","","","","","","","","","","","",""
"","ISI","","html-keyboard-response","42","78330","0.0-1.0-57.0","0","0","28489","","null","","","null","6","NaN","","","","","","","","","","","","","","",""
"","S2","","html-keyboard-response","43","78587","0.0-1.0-58.0","0","0","28489","","null","","","null","6","","NaN","","","","","","","","","","","","","",""
"","response","","html-keyboard-response","44","79183","0.0-1.0-59.0-0.0","0","0","28489","","594","","","68","6","","","1","6","training","adjacent","GF","7","6","Q.jpg","M.jpg","0","0","1","",""
"","feedback","","html-keyboard-response","45","80195","0.0-1.0-60.0-0.0","0","0","28489","","null","","","null","6","","","","","","","","","","","","","","","",""
"","ITI","","html-keyboard-response","46","81200","0.0-1.0-63.0","0","0","28489","","null","","","null","6","","","","","","","","","","","","","","","NaN",""
"","S1","","html-keyboard-response","47","81455","0.0-1.0-65.0","0","0","28489","","null","","","null","7","","","","","","","","","","","","","","","",""
"","ISI","","html-keyboard-response","48","82463","0.0-1.0-66.0","0","0","28489","","null","","","null","7","NaN","","","","","","","","","","","","","","",""
"","S2","","html-keyboard-response","49","82721","0.0-1.0-67.0","0","0","28489","","null","","","null","7","","NaN","","","","","","","","","","","","","",""
"","response","","html-keyboard-response","50","83038","0.0-1.0-68.0-0.0","0","0","28489","","316","","","75","7","","","1","7","training","adjacent","EF","5","6","O.jpg","M.jpg","1","1","1","",""
"","feedback","","html-keyboard-response","51","84050","0.0-1.0-69.0-0.0","0","0","28489","","null","","","null","7","","","","","","","","","","","","","","","",""
"","ITI","","html-keyboard-response","52","85059","0.0-1.0-72.0","0","0","28489","","null","","","null","7","","","","","","","","","","","","","","","NaN",""
"","S1","","html-keyboard-response","53","85320","0.0-1.0-74.0","0","0","28489","","null","","","null","8","","","","","","","","","","","","","","","",""
"","ISI","","html-keyboard-response","54","86330","0.0-1.0-75.0","0","0","28489","","null","","","null","8","NaN","","","","","","","","","","","","","","",""
"","S2","","html-keyboard-response","55","86593","0.0-1.0-76.0","0","0","28489","","null","","","null","8","","NaN","","","","","","","","","","","","","",""
"","response","","html-keyboard-response","56","87036","0.0-1.0-77.0-0.0","0","0","28489","","442","","","75","8","","","1","8","training","adjacent","ED","5","4","O.jpg","P.jpg","1","0","0","",""
"","feedback","","html-keyboard-response","57","88044","0.0-1.0-78.0-0.0","0","0","28489","","null","","","null","8","","","","","","","","","","","","","","","",""
"","time_out","","html-keyboard-response","58","90052","0.0-1.0-80.0-0.0","0","0","28489","","null","","","null","8","","","","","","","","","","","","","","","",""
"","ITI","","html-keyboard-response","59","91056","0.0-1.0-81.0","0","0","28489","","null","","","null","8","","","","","","","","","","","","","","","NaN",""
"","S1","","html-keyboard-response","60","91312","0.0-1.0-83.0","0","0","28489","","null","","","null","9","","","","","","","","","","","","","","","",""
"","ISI","","html-keyboard-response","61","92322","0.0-1.0-84.0","0","0","28489","","null","","","null","9","NaN","","","","","","","","","","","","","","",""
"","S2","","html-keyboard-response","62","92578","0.0-1.0-85.0","0","0","28489","","null","","","null","9","","NaN","","","","","","","","","","","","","",""
"","response","","html-keyboard-response","63","93587","0.0-1.0-86.0-0.0","0","0","28489","","1007","","","75","9","","","1","9","training","adjacent","DC","4","3","P.jpg","L.jpg","1","0","0","",""
"","feedback","","html-keyboard-response","64","94592","0.0-1.0-87.0-0.0","0","0","28489","","null","","","null","9","","","","","","","","","","","","","","","",""
"","time_out","","html-keyboard-response","65","96600","0.0-1.0-89.0-0.0","0","0","28489","","null","","","null","9","","","","","","","","","","","","","","","",""
"","ITI","","html-keyboard-response","66","97610","0.0-1.0-90.0","0","0","28489","","null","","","null","9","","","","","","","","","","","","","","","NaN",""
"","S1","","html-keyboard-response","67","97866","0.0-1.0-92.0","0","0","28489","","null","","","null","10","","","","","","","","","","","","","","","",""
"","ISI","","html-keyboard-response","68","98876","0.0-1.0-93.0","0","0","28489","","null","","","null","10","NaN","","","","","","","","","","","","","","",""
"","S2","","html-keyboard-response","69","99136","0.0-1.0-94.0","0","0","28489","","null","","","null","10","","NaN","","","","","","","","","","","","","",""
"","response","","html-keyboard-response","70","99734","0.0-1.0-95.0-0.0","0","0","28489","","596","","","68","10","","","1","10","training","adjacent","AB","1","2","R.jpg","N.jpg","0","1","0","",""
"","feedback","","html-keyboard-response","71","100745","0.0-1.0-96.0-0.0","0","0","28489","","null","","","null","10","","","","","","","","","","","","","","","",""
"","time_out","","html-keyboard-response","72","102754","0.0-1.0-98.0-0.0","0","0","28489","","null","","","null","10","","","","","","","","","","","","","","","",""
"","ITI","","html-keyboard-response","73","103763","0.0-1.0-99.0","0","0","28489","","null","","","null","10","","","","","","","","","","","","","","","NaN",""
"","S1","","html-keyboard-response","74","104025","0.0-1.0-101.0","0","0","28489","","null","","","null","11","","","","","","","","","","","","","","","",""
"","ISI","","html-keyboard-response","75","105035","0.0-1.0-102.0","0","0","28489","","null","","","null","11","NaN","","","","","","","","","","","","","","",""
"","S2","","html-keyboard-response","76","105296","0.0-1.0-103.0","0","0","28489","","null","","","null","11","","NaN","","","","","","","","","","","","","",""
"","response","","html-keyboard-response","77","105791","0.0-1.0-104.0-0.0","0","0","28489","","493","","","75","11","","","1","11","training","adjacent","BA","2","1","N.jpg","R.jpg","1","0","0","",""
"","feedback","","html-keyboard-response","78","106800","0.0-1.0-105.0-0.0","0","0","28489","","null","","","null","11","","","","","","","","","","","","","","","",""
"","time_out","","html-keyboard-response","79","108803","0.0-1.0-107.0-0.0","0","0","28489","","null","","","null","11","","","","","","","","","","","","","","","",""
"","ITI","","html-keyboard-response","80","109813","0.0-1.0-108.0","0","0","28489","","null","","","null","11","","","","","","","","","","","","","","","NaN",""
"","S1","","html-keyboard-response","81","110073","0.0-1.0-110.0","0","0","28489","","null","","","null","12","","","","","","","","","","","","","","","",""
"","ISI","","html-keyboard-response","82","111084","0.0-1.0-111.0","0","0","28489","","null","","","null","12","NaN","","","","","","","","","","","","","","",""
"","S2","","html-keyboard-response","83","111345","0.0-1.0-112.0","0","0","28489","","null","","","null","12","","NaN","","","","","","","","","","","","","",""
"","response","","html-keyboard-response","84","112021","0.0-1.0-113.0-0.0","0","0","28489","","674","","","75","12","","","1","12","training","adjacent","FG","6","7","M.jpg","Q.jpg","1","1","1","",""
"","feedback","","html-keyboard-response","85","113034","0.0-1.0-114.0-0.0","0","0","28489","","null","","","null","12","","","","","","","","","","","","","","","",""
"","ITI","","html-keyboard-response","86","114040","0.0-1.0-117.0","0","0","28489","","null","","","null","12","","","","","","","","","","","","","","","NaN",""
"","S1","","html-keyboard-response","87","114300","0.0-1.0-119.0","0","0","28489","","null","","","null","13","","","","","","","","","","","","","","","",""
"","ISI","","html-keyboard-response","88","115304","0.0-1.0-120.0","0","0","28489","","null","","","null","13","NaN","","","","","","","","","","","","","","",""
"","S2","","html-keyboard-response","89","115560","0.0-1.0-121.0","0","0","28489","","null","","","null","13","","NaN","","","","","","","","","","","","","",""
"","response","","html-keyboard-response","90","116329","0.0-1.0-122.0-0.0","0","0","28489","","768","","","68","13","","","1","13","training","adjacent","CB","3","2","L.jpg","N.jpg","0","0","1","",""
"","feedback","","html-keyboard-response","91","117336","0.0-1.0-123.0-0.0","0","0","28489","","null","","","null","13","","","","","","","","","","","","","","","",""
"","ITI","","html-keyboard-response","92","118346","0.0-1.0-126.0","0","0","28489","","null","","","null","13","","","","","","","","","","","","","","","NaN",""
"","S1","","html-keyboard-response","93","118601","0.0-1.0-128.0","0","0","28489","","null","","","null","14","","","","","","","","","","","","","","","",""
"","ISI","","html-keyboard-response","94","119612","0.0-1.0-129.0","0","0","28489","","null","","","null","14","NaN","","","","","","","","","","","","","","",""
"","S2","","html-keyboard-response","95","119873","0.0-1.0-130.0","0","0","28489","","null","","","null","14","","NaN","","","","","","","","","","","","","",""
"","response","","html-keyboard-response","96","121000","0.0-1.0-131.0-0.0","0","0","28489","","1125","","","75","14","","","1","14","training","adjacent","DC","4","3","P.jpg","L.jpg","1","0","0","",""
"","feedback","","html-keyboard-response","97","122009","0.0-1.0-132.0-0.0","0","0","28489","","null","","","null","14","","","","","","","","","","","","","","","",""
"","time_out","","html-keyboard-response","98","124018","0.0-1.0-134.0-0.0","0","0","28489","","null","","","null","14","","","","","","","","","","","","","","","",""
"","ITI","","html-keyboard-response","99","125028","0.0-1.0-135.0","0","0","28489","","null","","","null","14","","","","","","","","","","","","","","","NaN",""
"","S1","","html-keyboard-response","100","125289","0.0-1.0-137.0","0","0","28489","","null","","","null","15","","","","","","","","","","","","","","","",""
"","ISI","","html-keyboard-response","101","126298","0.0-1.0-138.0","0","0","28489","","null","","","null","15","NaN","","","","","","","","","","","","","","",""
"","S2","","html-keyboard-response","102","126555","0.0-1.0-139.0","0","0","28489","","null","","","null","15","","NaN","","","","","","","","","","","","","",""
"","response","","html-keyboard-response","103","127921","0.0-1.0-140.0-0.0","0","0","28489","","1364","","","68","15","","","1","15","training","adjacent","CD","3","4","L.jpg","P.jpg","0","1","0","",""
"","feedback","","html-keyboard-response","104","128929","0.0-1.0-141.0-0.0","0","0","28489","","null","","","null","15","","","","","","","","","","","","","","","",""
"","time_out","","html-keyboard-response","105","130938","0.0-1.0-143.0-0.0","0","0","28489","","null","","","null","15","","","","","","","","","","","","","","","",""
"","ITI","","html-keyboard-response","106","131948","0.0-1.0-144.0","0","0","28489","","null","","","null","15","","","","","","","","","","","","","","","NaN",""
"","S1","","html-keyboard-response","107","132209","0.0-1.0-146.0","0","0","28489","","null","","","null","16","","","","","","","","","","","","","","","",""
"","ISI","","html-keyboard-response","108","133219","0.0-1.0-147.0","0","0","28489","","null","","","null","16","NaN","","","","","","","","","","","","","","",""
"","S2","","html-keyboard-response","109","133474","0.0-1.0-148.0","0","0","28489","","null","","","null","16","","NaN","","","","","","","","","","","","","",""
"","response","","html-keyboard-response","110","134045","0.0-1.0-149.0-0.0","0","0","28489","","568","","","68","16","","","1","16","training","adjacent","DC","4","3","P.jpg","L.jpg","0","0","1","",""
"","feedback","","html-keyboard-response","111","135051","0.0-1.0-150.0-0.0","0","0","28489","","null","","","null","16","","","","","","","","","","","","","","","",""
"","ITI","","html-keyboard-response","112","136055","0.0-1.0-153.0","0","0","28489","","null","","","null","16","","","","","","","","","","","","","","","NaN",""
"","S1","","html-keyboard-response","113","136312","0.0-1.0-155.0","0","0","28489","","null","","","null","17","","","","","","","","","","","","","","","",""
"","ISI","","html-keyboard-response","114","137323","0.0-1.0-156.0","0","0","28489","","null","","","null","17","NaN","","","","","","","","","","","","","","",""
"","S2","","html-keyboard-response","115","137578","0.0-1.0-157.0","0","0","28489","","null","","","null","17","","NaN","","","","","","","","","","","","","",""
"","response","","html-keyboard-response","116","138336","0.0-1.0-158.0-0.0","0","0","28489","","756","","","68","17","","","1","17","training","adjacent","BA","2","1","N.jpg","R.jpg","0","0","1","",""
"","feedback","","html-keyboard-response","117","139350","0.0-1.0-159.0-0.0","0","0","28489","","null","","","null","17","","","","","","","","","","","","","","","",""
"","ITI","","html-keyboard-response","118","140364","0.0-1.0-162.0","0","0","28489","","null","","","null","17","","","","","","","","","","","","","","","NaN",""
"","S1","","html-keyboard-response","119","140626","0.0-1.0-164.0","0","0","28489","","null","","","null","18","","","","","","","","","","","","","","","",""
"","ISI","","html-keyboard-response","120","141636","0.0-1.0-165.0","0","0","28489","","null","","","null","18","NaN","","","","","","","","","","","","","","",""
"","S2","","html-keyboard-response","121","141897","0.0-1.0-166.0","0","0","28489","","null","","","null","18","","NaN","","","","","","","","","","","","","",""
"","response","","html-keyboard-response","122","142686","0.0-1.0-167.0-0.0","0","0","28489","","787","","","75","18","","","1","18","training","adjacent","DE","4","5","P.jpg","O.jpg","1","1","1","",""
"","feedback","","html-keyboard-response","123","143696","0.0-1.0-168.0-0.0","0","0","28489","","null","","","null","18","","","","","","","","","","","","","","","",""
"","ITI","","html-keyboard-response","124","144707","0.0-1.0-171.0","0","0","28489","","null","","","null","18","","","","","","","","","","","","","","","NaN",""
"","S1","","html-keyboard-response","125","144962","0.0-1.0-173.0","0","0","28489","","null","","","null","19","","","","","","","","","","","","","","","",""
"","ISI","","html-keyboard-response","126","145973","0.0-1.0-174.0","0","0","28489","","null","","","null","19","NaN","","","","","","","","","","","","","","",""
"","S2","","html-keyboard-response","127","146234","0.0-1.0-175.0","0","0","28489","","null","","","null","19","","NaN","","","","","","","","","","","","","",""
"","response","","html-keyboard-response","128","146710","0.0-1.0-176.0-0.0","0","0","28489","","474","","","68","19","","","1","19","training","adjacent","ED","5","4","O.jpg","P.jpg","0","0","1","",""
"","feedback","","html-keyboard-response","129","147720","0.0-1.0-177.0-0.0","0","0","28489","","null","","","null","19","","","","","","","","","","","","","","","",""
"","ITI","","html-keyboard-response","130","148730","0.0-1.0-180.0","0","0","28489","","null","","","null","19","","","","","","","","","","","","","","","NaN",""
"","S1","","html-keyboard-response","131","148986","0.0-1.0-182.0","0","0","28489","","null","","","null","20","","","","","","","","","","","","","","","",""
"","ISI","","html-keyboard-response","132","149995","0.0-1.0-183.0","0","0","28489","","null","","","null","20","NaN","","","","","","","","","","","","","","",""
"","S2","","html-keyboard-response","133","150251","0.0-1.0-184.0","0","0","28489","","null","","","null","20","","NaN","","","","","","","","","","","","","",""
"","response","","html-keyboard-response","134","151043","0.0-1.0-185.0-0.0","0","0","28489","","791","","","68","20","","","1","20","training","adjacent","BA","2","1","N.jpg","R.jpg","0","0","1","",""
"","feedback","","html-keyboard-response","135","152050","0.0-1.0-186.0-0.0","0","0","28489","","null","","","null","20","","","","","","","","","","","","","","","",""
"","ITI","","html-keyboard-response","136","153061","0.0-1.0-189.0","0","0","28489","","null","","","null","20","","","","","","","","","","","","","","","NaN",""
"","S1","","html-keyboard-response","137","153322","0.0-1.0-191.0","0","0","28489","","null","","","null","21","","","","","","","","","","","","","","","",""
"","ISI","","html-keyboard-response","138","154332","0.0-1.0-192.0","0","0","28489","","null","","","null","21","NaN","","","","","","","","","","","","","","",""
"","S2","","html-keyboard-response","139","154593","0.0-1.0-193.0","0","0","28489","","null","","","null","21","","NaN","","","","","","","","","","","","","",""
"","response","","html-keyboard-response","140","154972","0.0-1.0-194.0-0.0","0","0","28489","","377","","","68","21","","","1","21","training","adjacent","ED","5","4","O.jpg","P.jpg","0","0","1","",""
"","feedback","","html-keyboard-response","141","155980","0.0-1.0-195.0-0.0","0","0","28489","","null","","","null","21","","","","","","","","","","","","","","","",""
"","ITI","","html-keyboard-response","142","156985","0.0-1.0-198.0","0","0","28489","","null","","","null","21","","","","","","","","","","","","","","","NaN",""
"","S1","","html-keyboard-response","143","157245","0.0-1.0-200.0","0","0","28489","","null","","","null","22","","","","","","","","","","","","","","","",""
"","ISI","","html-keyboard-response","144","158250","0.0-1.0-201.0","0","0","28489","","null","","","null","22","NaN","","","","","","","","","","","","","","",""
"","S2","","html-keyboard-response","145","158506","0.0-1.0-202.0","0","0","28489","","null","","","null","22","","NaN","","","","","","","","","","","","","",""
"","response","","html-keyboard-response","146","158888","0.0-1.0-203.0-0.0","0","0","28489","","381","","","75","22","","","1","22","training","adjacent","DE","4","5","P.jpg","O.jpg","1","1","1","",""
"","feedback","","html-keyboard-response","147","159899","0.0-1.0-204.0-0.0","0","0","28489","","null","","","null","22","","","","","","","","","","","","","","","",""
"","ITI","","html-keyboard-response","148","160908","0.0-1.0-207.0","0","0","28489","","null","","","null","22","","","","","","","","","","","","","","","NaN",""
"","S1","","html-keyboard-response","149","161165","0.0-1.0-209.0","0","0","28489","","null","","","null","23","","","","","","","","","","","","","","","",""
"","ISI","","html-keyboard-response","150","162169","0.0-1.0-210.0","0","0","28489","","null","","","null","23","NaN","","","","","","","","","","","","","","",""
"","S2","","html-keyboard-response","151","162428","0.0-1.0-211.0","0","0","28489","","null","","","null","23","","NaN","","","","","","","","","","","","","",""
"","response","","html-keyboard-response","152","163175","0.0-1.0-212.0-0.0","0","0","28489","","744","","","68","23","","","1","23","training","adjacent","BC","2","3","N.jpg","L.jpg","0","1","0","",""
"","feedback","","html-keyboard-response","153","164189","0.0-1.0-213.0-0.0","0","0","28489","","null","","","null","23","","","","","","","","","","","","","","","",""
"","time_out","","html-keyboard-response","154","166197","0.0-1.0-215.0-0.0","0","0","28489","","null","","","null","23","","","","","","","","","","","","","","","",""
"","ITI","","html-keyboard-response","155","167201","0.0-1.0-216.0","0","0","28489","","null","","","null","23","","","","","","","","","","","","","","","NaN",""
"","S1","","html-keyboard-response","156","167457","0.0-1.0-218.0","0","0","28489","","null","","","null","24","","","","","","","","","","","","","","","",""
"","ISI","","html-keyboard-response","157","168468","0.0-1.0-219.0","0","0","28489","","null","","","null","24","NaN","","","","","","","","","","","","","","",""
"","S2","","html-keyboard-response","158","168723","0.0-1.0-220.0","0","0","28489","","null","","","null","24","","NaN","","","","","","","","","","","","","",""
"","response","","html-keyboard-response","159","169465","0.0-1.0-221.0-0.0","0","0","28489","","740","","","68","24","","","1","24","training","adjacent","BA","2","1","N.jpg","R.jpg","0","0","1","",""
"","feedback","","html-keyboard-response","160","170476","0.0-1.0-222.0-0.0","0","0","28489","","null","","","null","24","","","","","","","","","","","","","","","",""
"","ITI","","html-keyboard-response","161","171482","0.0-1.0-225.0","0","0","28489","","null","","","null","24","","","","","","","","","","","","","","","NaN",""
"","S1","","html-keyboard-response","162","171742","0.0-1.0-227.0","0","0","28489","","null","","","null","25","","","","","","","","","","","","","","","",""
"","ISI","","html-keyboard-response","163","172749","0.0-1.0-228.0","0","0","28489","","null","","","null","25","NaN","","","","","","","","","","","","","","",""
"","S2","","html-keyboard-response","164","173012","0.0-1.0-229.0","0","0","28489","","null","","","null","25","","NaN","","","","","","","","","","","","","",""
"","response","","html-keyboard-response","165","173573","0.0-1.0-230.0-0.0","0","0","28489","","560","","","68","25","","","1","25","training","adjacent","BC","2","3","N.jpg","L.jpg","0","1","0","",""
"","feedback","","html-keyboard-response","166","174579","0.0-1.0-231.0-0.0","0","0","28489","","null","","","null","25","","","","","","","","","","","","","","","",""
"","time_out","","html-keyboard-response","167","176589","0.0-1.0-233.0-0.0","0","0","28489","","null","","","null","25","","","","","","","","","","","","","","","",""
"","ITI","","html-keyboard-response","168","177593","0.0-1.0-234.0","0","0","28489","","null","","","null","25","","","","","","","","","","","","","","","NaN",""
"","S1","","html-keyboard-response","169","177854","0.0-1.0-236.0","0","0","28489","","null","","","null","26","","","","","","","","","","","","","","","",""
"","ISI","","html-keyboard-response","170","178859","0.0-1.0-237.0","0","0","28489","","null","","","null","26","NaN","","","","","","","","","","","","","","",""
"","S2","","html-keyboard-response","171","179114","0.0-1.0-238.0","0","0","28489","","null","","","null","26","","NaN","","","","","","","","","","","","","",""
"","response","","html-keyboard-response","172","179493","0.0-1.0-239.0-0.0","0","0","28489","","378","","","75","26","","","1","26","training","adjacent","DE","4","5","P.jpg","O.jpg","1","1","1","",""
"","feedback","","html-keyboard-response","173","180502","0.0-1.0-240.0-0.0","0","0","28489","","null","","","null","26","","","","","","","","","","","","","","","",""
"","ITI","","html-keyboard-response","174","181506","0.0-1.0-243.0","0","0","28489","","null","","","null","26","","","","","","","","","","","","","","","NaN",""
"","S1","","html-keyboard-response","175","181761","0.0-1.0-245.0","0","0","28489","","null","","","null","27","","","","","","","","","","","","","","","",""
"","ISI","","html-keyboard-response","176","182771","0.0-1.0-246.0","0","0","28489","","null","","","null","27","NaN","","","","","","","","","","","","","","",""
"","S2","","html-keyboard-response","177","183027","0.0-1.0-247.0","0","0","28489","","null","","","null","27","","NaN","","","","","","","","","","","","","",""
"","response","","html-keyboard-response","178","183856","0.0-1.0-248.0-0.0","0","0","28489","","827","","","75","27","","","1","27","training","adjacent","CD","3","4","L.jpg","P.jpg","1","1","1","",""
"","feedback","","html-keyboard-response","179","184867","0.0-1.0-249.0-0.0","0","0","28489","","null","","","null","27","","","","","","","","","","","","","","","",""
"","ITI","","html-keyboard-response","180","185877","0.0-1.0-252.0","0","0","28489","","null","","","null","27","","","","","","","","","","","","","","","NaN",""
"","S1","","html-keyboard-response","181","186138","0.0-1.0-254.0","0","0","28489","","null","","","null","28","","","","","","","","","","","","","","","",""
"","ISI","","html-keyboard-response","182","187148","0.0-1.0-255.0","0","0","28489","","null","","","null","28","NaN","","","","","","","","","","","","","","",""
"","S2","","html-keyboard-response","183","187409","0.0-1.0-256.0","0","0","28489","","null","","","null","28","","NaN","","","","","","","","","","","","","",""
"","response","","html-keyboard-response","184","188163","0.0-1.0-257.0-0.0","0","0","28489","","752","","","68","28","","","1","28","training","adjacent","BC","2","3","N.jpg","L.jpg","0","1","0","",""
"","feedback","","html-keyboard-response","185","189174","0.0-1.0-258.0-0.0","0","0","28489","","null","","","null","28","","","","","","","","","","","","","","","",""
"","time_out","","html-keyboard-response","186","191178","0.0-1.0-260.0-0.0","0","0","28489","","null","","","null","28","","","","","","","","","","","","","","","",""
"","ITI","","html-keyboard-response","187","192187","0.0-1.0-261.0","0","0","28489","","null","","","null","28","","","","","","","","","","","","","","","NaN",""
"","S1","","html-keyboard-response","188","192442","0.0-1.0-263.0","0","0","28489","","null","","","null","29","","","","","","","","","","","","","","","",""
"","ISI","","html-keyboard-response","189","193453","0.0-1.0-264.0","0","0","28489","","null","","","null","29","NaN","","","","","","","","","","","","","","",""
"","S2","","html-keyboard-response","190","193714","0.0-1.0-265.0","0","0","28489","","null","","","null","29","","NaN","","","","","","","","","","","","","",""
"","response","","html-keyboard-response","191","194466","0.0-1.0-266.0-0.0","0","0","28489","","751","","","68","29","","","1","29","training","adjacent","DC","4","3","P.jpg","L.jpg","0","0","1","",""
"","feedback","","html-keyboard-response","192","195478","0.0-1.0-267.0-0.0","0","0","28489","","null","","","null","29","","","","","","","","","","","","","","","",""
"","ITI","","html-keyboard-response","193","196482","0.0-1.0-270.0","0","0","28489","","null","","","null","29","","","","","","","","","","","","","","","NaN",""
"","S1","","html-keyboard-response","194","196738","0.0-1.0-272.0","0","0","28489","","null","","","null","30","","","","","","","","","","","","","","","",""
"","ISI","","html-keyboard-response","195","197748","0.0-1.0-273.0","0","0","28489","","null","","","null","30","NaN","","","","","","","","","","","","","","",""
"","S2","","html-keyboard-response","196","198004","0.0-1.0-274.0","0","0","28489","","null","","","null","30","","NaN","","","","","","","","","","","","","",""
"","response","","html-keyboard-response","197","198985","0.0-1.0-275.0-0.0","0","0","28489","","978","","","75","30","","","1","30","training","adjacent","AB","1","2","R.jpg","N.jpg","1","1","1","",""
"","feedback","","html-keyboard-response","198","199994","0.0-1.0-276.0-0.0","0","0","28489","","null","","","null","30","","","","","","","","","","","","","","","",""
"","ITI","","html-keyboard-response","199","201005","0.0-1.0-279.0","0","0","28489","","null","","","null","30","","","","","","","","","","","","","","","NaN",""
"","S1","","html-keyboard-response","200","201260","0.0-1.0-281.0","0","0","28489","","null","","","null","31","","","","","","","","","","","","","","","",""
"","ISI","","html-keyboard-response","201","202271","0.0-1.0-282.0","0","0","28489","","null","","","null","31","NaN","","","","","","","","","","","","","","",""
"","S2","","html-keyboard-response","202","202532","0.0-1.0-283.0","0","0","28489","","null","","","null","31","","NaN","","","","","","","","","","","","","",""
"","response","","html-keyboard-response","203","203268","0.0-1.0-284.0-0.0","0","0","28489","","734","","","68","31","","","1","31","training","adjacent","FE","6","5","M.jpg","O.jpg","0","0","1","",""
"","feedback","","html-keyboard-response","204","204273","0.0-1.0-285.0-0.0","0","0","28489","","null","","","null","31","","","","","","","","","","","","","","","",""
"","ITI","","html-keyboard-response","205","205283","0.0-1.0-288.0","0","0","28489","","null","","","null","31","","","","","","","","","","","","","","","NaN",""
"","S1","","html-keyboard-response","206","205539","0.0-1.0-290.0","0","0","28489","","null","","","null","32","","","","","","","","","","","","","","","",""
"","ISI","","html-keyboard-response","207","206549","0.0-1.0-291.0","0","0","28489","","null","","","null","32","NaN","","","","","","","","","","","","","","",""
"","S2","","html-keyboard-response","208","206810","0.0-1.0-292.0","0","0","28489","","null","","","null","32","","NaN","","","","","","","","","","","","","",""
"","response","","html-keyboard-response","209","207243","0.0-1.0-293.0-0.0","0","0","28489","","430","","","68","32","","","1","32","training","adjacent","ED","5","4","O.jpg","P.jpg","0","0","1","",""
"","feedback","","html-keyboard-response","210","208250","0.0-1.0-294.0-0.0","0","0","28489","","null","","","null","32","","","","","","","","","","","","","","","",""
"","ITI","","html-keyboard-response","211","209260","0.0-1.0-297.0","0","0","28489","","null","","","null","32","","","","","","","","","","","","","","","NaN",""
"","S1","","html-keyboard-response","212","209515","0.0-1.0-299.0","0","0","28489","","null","","","null","33","","","","","","","","","","","","","","","",""
"","ISI","","html-keyboard-response","213","210526","0.0-1.0-300.0","0","0","28489","","null","","","null","33","NaN","","","","","","","","","","","","","","",""
"","S2","","html-keyboard-response","214","210787","0.0-1.0-301.0","0","0","28489","","null","","","null","33","","NaN","","","","","","","","","","","","","",""
"","response","","html-keyboard-response","215","211246","0.0-1.0-302.0-0.0","0","0","28489","","457","","","75","33","","","1","33","training","adjacent","CB","3","2","L.jpg","N.jpg","1","0","0","",""
"","feedback","","html-keyboard-response","216","212255","0.0-1.0-303.0-0.0","0","0","28489","","null","","","null","33","","","","","","","","","","","","","","","",""
"","time_out","","html-keyboard-response","217","214258","0.0-1.0-305.0-0.0","0","0","28489","","null","","","null","33","","","","","","","","","","","","","","","",""
"","ITI","","html-keyboard-response","218","215268","0.0-1.0-306.0","0","0","28489","","null","","","null","33","","","","","","","","","","","","","","","NaN",""
"","S1","","html-keyboard-response","219","215523","0.0-1.0-308.0","0","0","28489","","null","","","null","34","","","","","","","","","","","","","","","",""
"","ISI","","html-keyboard-response","220","216534","0.0-1.0-309.0","0","0","28489","","null","","","null","34","NaN","","","","","","","","","","","","","","",""
"","S2","","html-keyboard-response","221","216795","0.0-1.0-310.0","0","0","28489","","null","","","null","34","","NaN","","","","","","","","","","","","","",""
"","response","","html-keyboard-response","222","217392","0.0-1.0-311.0-0.0","0","0","28489","","595","","","68","34","","","1","34","training","adjacent","EF","5","6","O.jpg","M.jpg","0","1","0","",""
"","feedback","","html-keyboard-response","223","218403","0.0-1.0-312.0-0.0","0","0","28489","","null","","","null","34","","","","","","","","","","","","","","","",""
"","time_out","","html-keyboard-response","224","220411","0.0-1.0-314.0-0.0","0","0","28489","","null","","","null","34","","","","","","","","","","","","","","","",""
"","ITI","","html-keyboard-response","225","221422","0.0-1.0-315.0","0","0","28489","","null","","","null","34","","","","","","","","","","","","","","","NaN",""
"","S1","","html-keyboard-response","226","221683","0.0-1.0-317.0","0","0","28489","","null","","","null","35","","","","","","","","","","","","","","","",""
"","ISI","","html-keyboard-response","227","222693","0.0-1.0-318.0","0","0","28489","","null","","","null","35","NaN","","","","","","","","","","","","","","",""
"","S2","","html-keyboard-response","228","222948","0.0-1.0-319.0","0","0","28489","","null","","","null","35","","NaN","","","","","","","","","","","","","",""
"","response","","html-keyboard-response","229","223350","0.0-1.0-320.0-0.0","0","0","28489","","400","","","75","35","","","1","35","training","adjacent","DE","4","5","P.jpg","O.jpg","1","1","1","",""
"","feedback","","html-keyboard-response","230","224359","0.0-1.0-321.0-0.0","0","0","28489","","null","","","null","35","","","","","","","","","","","","","","","",""
"","ITI","","html-keyboard-response","231","225375","0.0-1.0-324.0","0","0","28489","","null","","","null","35","","","","","","","","","","","","","","","NaN",""
"","S1","","html-keyboard-response","232","225636","0.0-1.0-326.0","0","0","28489","","null","","","null","36","","","","","","","","","","","","","","","",""
"","ISI","","html-keyboard-response","233","226646","0.0-1.0-327.0","0","0","28489","","null","","","null","36","NaN","","","","","","","","","","","","","","",""
"","S2","","html-keyboard-response","234","226907","0.0-1.0-328.0","0","0","28489","","null","","","null","36","","NaN","","","","","","","","","","","","","",""
"","response","","html-keyboard-response","235","227387","0.0-1.0-329.0-0.0","0","0","28489","","477","","","75","36","","","1","36","training","adjacent","AB","1","2","R.jpg","N.jpg","1","1","1","",""
"","feedback","","html-keyboard-response","236","228396","0.0-1.0-330.0-0.0","0","0","28489","","null","","","null","36","","","","","","","","","","","","","","","",""
"","ITI","","html-keyboard-response","237","229403","0.0-1.0-333.0","0","0","28489","","null","","","null","36","","","","","","","","","","","","","","","NaN",""
"","S1","","html-keyboard-response","238","229659","0.0-1.0-335.0","0","0","28489","","null","","","null","37","","","","","","","","","","","","","","","",""
"","ISI","","html-keyboard-response","239","230669","0.0-1.0-336.0","0","0","28489","","null","","","null","37","NaN","","","","","","","","","","","","","","",""
"","S2","","html-keyboard-response","240","230930","0.0-1.0-337.0","0","0","28489","","null","","","null","37","","NaN","","","","","","","","","","","","","",""
"","response","","html-keyboard-response","241","231436","0.0-1.0-338.0-0.0","0","0","28489","","504","","","68","37","","","1","37","training","adjacent","GF","7","6","Q.jpg","M.jpg","0","0","1","",""
"","feedback","","html-keyboard-response","242","232445","0.0-1.0-339.0-0.0","0","0","28489","","null","","","null","37","","","","","","","","","","","","","","","",""
"","ITI","","html-keyboard-response","243","233450","0.0-1.0-342.0","0","0","28489","","null","","","null","37","","","","","","","","","","","","","","","NaN",""
"","S1","","html-keyboard-response","244","233710","0.0-1.0-344.0","0","0","28489","","null","","","null","38","","","","","","","","","","","","","","","",""
"","ISI","","html-keyboard-response","245","234715","0.0-1.0-345.0","0","0","28489","","null","","","null","38","NaN","","","","","","","","","","","","","","",""
"","S2","","html-keyboard-response","246","234971","0.0-1.0-346.0","0","0","28489","","null","","","null","38","","NaN","","","","","","","","","","","","","",""
"","response","","html-keyboard-response","247","235365","0.0-1.0-347.0-0.0","0","0","28489","","393","","","75","38","","","1","38","training","adjacent","FG","6","7","M.jpg","Q.jpg","1","1","1","",""
"","feedback","","html-keyboard-response","248","236375","0.0-1.0-348.0-0.0","0","0","28489","","null","","","null","38","","","","","","","","","","","","","","","",""
"","ITI","","html-keyboard-response","249","237380","0.0-1.0-351.0","0","0","28489","","null","","","null","38","","","","","","","","","","","","","","","NaN",""
"","S1","","html-keyboard-response","250","237635","0.0-1.0-353.0","0","0","28489","","null","","","null","39","","","","","","","","","","","","","","","",""
"","ISI","","html-keyboard-response","251","238645","0.0-1.0-354.0","0","0","28489","","null","","","null","39","NaN","","","","","","","","","","","","","","",""
"","S2","","html-keyboard-response","252","238906","0.0-1.0-355.0","0","0","28489","","null","","","null","39","","NaN","","","","","","","","","","","","","",""
"","response","","html-keyboard-response","253","239259","0.0-1.0-356.0-0.0","0","0","28489","","351","","","75","39","","","1","39","training","adjacent","AB","1","2","R.jpg","N.jpg","1","1","1","",""
"","feedback","","html-keyboard-response","254","240271","0.0-1.0-357.0-0.0","0","0","28489","","null","","","null","39","","","","","","","","","","","","","","","",""
"","ITI","","html-keyboard-response","255","241275","0.0-1.0-360.0","0","0","28489","","null","","","null","39","","","","","","","","","","","","","","","NaN",""
"","S1","","html-keyboard-response","256","241531","0.0-1.0-362.0","0","0","28489","","null","","","null","40","","","","","","","","","","","","","","","",""
"","ISI","","html-keyboard-response","257","242541","0.0-1.0-363.0","0","0","28489","","null","","","null","40","NaN","","","","","","","","","","","","","","",""
"","S2","","html-keyboard-response","258","242795","0.0-1.0-364.0","0","0","28489","","null","","","null","40","","NaN","","","","","","","","","","","","","",""
"","response","","html-keyboard-response","259","243459","0.0-1.0-365.0-0.0","0","0","28489","","662","","","68","40","","","1","40","training","adjacent","BC","2","3","N.jpg","L.jpg","0","1","0","",""
"","feedback","","html-keyboard-response","260","244468","0.0-1.0-366.0-0.0","0","0","28489","","null","","","null","40","","","","","","","","","","","","","","","",""
"","time_out","","html-keyboard-response","261","246476","0.0-1.0-368.0-0.0","0","0","28489","","null","","","null","40","","","","","","","","","","","","","","","",""
"","ITI","","html-keyboard-response","262","247487","0.0-1.0-369.0","0","0","28489","","null","","","null","40","","","","","","","","","","","","","","","NaN",""
"","S1","","html-keyboard-response","263","247748","0.0-1.0-371.0","0","0","28489","","null","","","null","41","","","","","","","","","","","","","","","",""
"","ISI","","html-keyboard-response","264","248758","0.0-1.0-372.0","0","0","28489","","null","","","null","41","NaN","","","","","","","","","","","","","","",""
"","S2","","html-keyboard-response","265","249019","0.0-1.0-373.0","0","0","28489","","null","","","null","41","","NaN","","","","","","","","","","","","","",""
"","response","","html-keyboard-response","266","249962","0.0-1.0-374.0-0.0","0","0","28489","","940","","","75","41","","","1","41","training","adjacent","FE","6","5","M.jpg","O.jpg","1","0","0","",""
"","feedback","","html-keyboard-response","267","250975","0.0-1.0-375.0-0.0","0","0","28489","","null","","","null","41","","","","","","","","","","","","","","","",""
"","time_out","","html-keyboard-response","268","252979","0.0-1.0-377.0-0.0","0","0","28489","","null","","","null","41","","","","","","","","","","","","","","","",""
"","ITI","","html-keyboard-response","269","253988","0.0-1.0-378.0","0","0","28489","","null","","","null","41","","","","","","","","","","","","","","","NaN",""
"","S1","","html-keyboard-response","270","254243","0.0-1.0-380.0","0","0","28489","","null","","","null","42","","","","","","","","","","","","","","","",""
"","ISI","","html-keyboard-response","271","255254","0.0-1.0-381.0","0","0","28489","","null","","","null","42","NaN","","","","","","","","","","","","","","",""
"","S2","","html-keyboard-response","272","255515","0.0-1.0-382.0","0","0","28489","","null","","","null","42","","NaN","","","","","","","","","","","","","",""
"","response","","html-keyboard-response","273","256364","0.0-1.0-383.0-0.0","0","0","28489","","848","","","68","42","","","1","42","training","adjacent","FE","6","5","M.jpg","O.jpg","0","0","1","",""
"","feedback","","html-keyboard-response","274","257373","0.0-1.0-384.0-0.0","0","0","28489","","null","","","null","42","","","","","","","","","","","","","","","",""
"","ITI","","html-keyboard-response","275","258383","0.0-1.0-387.0","0","0","28489","","null","","","null","42","","","","","","","","","","","","","","","NaN",""
"","S1","","html-keyboard-response","276","258643","0.0-1.0-389.0","0","0","28489","","null","","","null","43","","","","","","","","","","","","","","","",""
"","ISI","","html-keyboard-response","277","259654","0.0-1.0-390.0","0","0","28489","","null","","","null","43","NaN","","","","","","","","","","","","","","",""
"","S2","","html-keyboard-response","278","259915","0.0-1.0-391.0","0","0","28489","","null","","","null","43","","NaN","","","","","","","","","","","","","",""
"","response","","html-keyboard-response","279","260515","0.0-1.0-392.0-0.0","0","0","28489","","598","","","75","43","","","1","43","training","adjacent","FG","6","7","M.jpg","Q.jpg","1","1","1","",""
"","feedback","","html-keyboard-response","280","261523","0.0-1.0-393.0-0.0","0","0","28489","","null","","","null","43","","","","","","","","","","","","","","","",""
"","ITI","","html-keyboard-response","281","262533","0.0-1.0-396.0","0","0","28489","","null","","","null","43","","","","","","","","","","","","","","","NaN",""
"","S1","","html-keyboard-response","282","262789","0.0-1.0-398.0","0","0","28489","","null","","","null","44","","","","","","","","","","","","","","","",""
"","ISI","","html-keyboard-response","283","263799","0.0-1.0-399.0","0","0","28489","","null","","","null","44","NaN","","","","","","","","","","","","","","",""
"","S2","","html-keyboard-response","284","264059","0.0-1.0-400.0","0","0","28489","","null","","","null","44","","NaN","","","","","","","","","","","","","",""
"","response","","html-keyboard-response","285","264796","0.0-1.0-401.0-0.0","0","0","28489","","735","","","68","44","","","1","44","training","adjacent","GF","7","6","Q.jpg","M.jpg","0","0","1","",""
"","feedback","","html-keyboard-response","286","265808","0.0-1.0-402.0-0.0","0","0","28489","","null","","","null","44","","","","","","","","","","","","","","","",""
"","ITI","","html-keyboard-response","287","266812","0.0-1.0-405.0","0","0","28489","","null","","","null","44","","","","","","","","","","","","","","","NaN",""
"","S1","","html-keyboard-response","288","267067","0.0-1.0-407.0","0","0","28489","","null","","","null","45","","","","","","","","","","","","","","","",""
"","ISI","","html-keyboard-response","289","268077","0.0-1.0-408.0","0","0","28489","","null","","","null","45","NaN","","","","","","","","","","","","","","",""
"","S2","","html-keyboard-response","290","268333","0.0-1.0-409.0","0","0","28489","","null","","","null","45","","NaN","","","","","","","","","","","","","",""
"","response","","html-keyboard-response","291","269112","0.0-1.0-410.0-0.0","0","0","28489","","778","","","68","45","","","1","45","training","adjacent","FG","6","7","M.jpg","Q.jpg","0","1","0","",""
"","feedback","","html-keyboard-response","292","270126","0.0-1.0-411.0-0.0","0","0","28489","","null","","","null","45","","","","","","","","","","","","","","","",""
"","time_out","","html-keyboard-response","293","272134","0.0-1.0-413.0-0.0","0","0","28489","","null","","","null","45","","","","","","","","","","","","","","","",""
"","ITI","","html-keyboard-response","294","273139","0.0-1.0-414.0","0","0","28489","","null","","","null","45","","","","","","","","","","","","","","","NaN",""
"","S1","","html-keyboard-response","295","273395","0.0-1.0-416.0","0","0","28489","","null","","","null","46","","","","","","","","","","","","","","","",""
"","ISI","","html-keyboard-response","296","274408","0.0-1.0-417.0","0","0","28489","","null","","","null","46","NaN","","","","","","","","","","","","","","",""
"","S2","","html-keyboard-response","297","274672","0.0-1.0-418.0","0","0","28489","","null","","","null","46","","NaN","","","","","","","","","","","","","",""
"","response","","html-keyboard-response","298","275223","0.0-1.0-419.0-0.0","0","0","28489","","549","","","68","46","","","1","46","training","adjacent","CD","3","4","L.jpg","P.jpg","0","1","0","",""
"","feedback","","html-keyboard-response","299","276232","0.0-1.0-420.0-0.0","0","0","28489","","null","","","null","46","","","","","","","","","","","","","","","",""
"","time_out","","html-keyboard-response","300","278236","0.0-1.0-422.0-0.0","0","0","28489","","null","","","null","46","","","","","","","","","","","","","","","",""
"","ITI","","html-keyboard-response","301","279247","0.0-1.0-423.0","0","0","28489","","null","","","null","46","","","","","","","","","","","","","","","NaN",""
"","S1","","html-keyboard-response","302","279508","0.0-1.0-425.0","0","0","28489","","null","","","null","47","","","","","","","","","","","","","","","",""
"","ISI","","html-keyboard-response","303","280518","0.0-1.0-426.0","0","0","28489","","null","","","null","47","NaN","","","","","","","","","","","","","","",""
"","S2","","html-keyboard-response","304","280772","0.0-1.0-427.0","0","0","28489","","null","","","null","47","","NaN","","","","","","","","","","","","","",""
"","response","","html-keyboard-response","305","281667","0.0-1.0-428.0-0.0","0","0","28489","","893","","","68","47","","","1","47","training","adjacent","CD","3","4","L.jpg","P.jpg","0","1","0","",""
"","feedback","","html-keyboard-response","306","282676","0.0-1.0-429.0-0.0","0","0","28489","","null","","","null","47","","","","","","","","","","","","","","","",""
"","time_out","","html-keyboard-response","307","284685","0.0-1.0-431.0-0.0","0","0","28489","","null","","","null","47","","","","","","","","","","","","","","","",""
"","ITI","","html-keyboard-response","308","285696","0.0-1.0-432.0","0","0","28489","","null","","","null","47","","","","","","","","","","","","","","","NaN",""
"","block_over","","html-keyboard-response","309","331601","0.0-1.0-433.0-0.0","0","0","28489","","45896","","","32","47","","","","","","","","","","","","","","","",""
"","S1","","html-keyboard-response","310","331863","0.0-1.0-434.0","0","0","28489","","null","","","null","48","","","","","","","","","","","","","","","",""
"","ISI","","html-keyboard-response","311","332869","0.0-1.0-435.0","0","0","28489","","null","","","null","48","NaN","","","","","","","","","","","","","","",""
"","S2","","html-keyboard-response","312","333129","0.0-1.0-436.0","0","0","28489","","null","","","null","48","","NaN","","","","","","","","","","","","","",""
"","response","","html-keyboard-response","313","333999","0.0-1.0-437.0-0.0","0","0","28489","","867","","","75","48","","","2","48","training","adjacent","FG","6","7","M.jpg","Q.jpg","1","1","1","",""
"","feedback","","html-keyboard-response","314","335004","0.0-1.0-438.0-0.0","0","0","28489","","null","","","null","48","","","","","","","","","","","","","","","",""
"","ITI","","html-keyboard-response","315","336014","0.0-1.0-441.0","0","0","28489","","null","","","null","48","","","","","","","","","","","","","","","NaN",""
"","S1","","html-keyboard-response","316","336270","0.0-1.0-443.0","0","0","28489","","null","","","null","49","","","","","","","","","","","","","","","",""
"","ISI","","html-keyboard-response","317","337280","0.0-1.0-444.0","0","0","28489","","null","","","null","49","NaN","","","","","","","","","","","","","","",""
"","S2","","html-keyboard-response","318","337541","0.0-1.0-445.0","0","0","28489","","null","","","null","49","","NaN","","","","","","","","","","","","","",""
"","response","","html-keyboard-response","319","338213","0.0-1.0-446.0-0.0","0","0","28489","","670","","","75","49","","","2","49","training","adjacent","DC","4","3","P.jpg","L.jpg","1","0","0","",""
"","feedback","","html-keyboard-response","320","339224","0.0-1.0-447.0-0.0","0","0","28489","","null","","","null","49","","","","","","","","","","","","","","","",""
"","time_out","","html-keyboard-response","321","341233","0.0-1.0-449.0-0.0","0","0","28489","","null","","","null","49","","","","","","","","","","","","","","","",""
"","ITI","","html-keyboard-response","322","342238","0.0-1.0-450.0","0","0","28489","","null","","","null","49","","","","","","","","","","","","","","","NaN",""
"","S1","","html-keyboard-response","323","342493","0.0-1.0-452.0","0","0","28489","","null","","","null","50","","","","","","","","","","","","","","","",""
"","ISI","","html-keyboard-response","324","343503","0.0-1.0-453.0","0","0","28489","","null","","","null","50","NaN","","","","","","","","","","","","","","",""
"","S2","","html-keyboard-response","325","343757","0.0-1.0-454.0","0","0","28489","","null","","","null","50","","NaN","","","","","","","","","","","","","",""
"","response","","html-keyboard-response","326","344654","0.0-1.0-455.0-0.0","0","0","28489","","894","","","75","50","","","2","50","training","adjacent","CD","3","4","L.jpg","P.jpg","1","1","1","",""
"","feedback","","html-keyboard-response","327","345663","0.0-1.0-456.0-0.0","0","0","28489","","null","","","null","50","","","","","","","","","","","","","","","",""
"","ITI","","html-keyboard-response","328","346672","0.0-1.0-459.0","0","0","28489","","null","","","null","50","","","","","","","","","","","","","","","NaN",""
"","S1","","html-keyboard-response","329","346934","0.0-1.0-461.0","0","0","28489","","null","","","null","51","","","","","","","","","","","","","","","",""
"","ISI","","html-keyboard-response","330","347943","0.0-1.0-462.0","0","0","28489","","null","","","null","51","NaN","","","","","","","","","","","","","","",""
"","S2","","html-keyboard-response","331","348205","0.0-1.0-463.0","0","0","28489","","null","","","null","51","","NaN","","","","","","","","","","","","","",""
"","response","","html-keyboard-response","332","348911","0.0-1.0-464.0-0.0","0","0","28489","","704","","","68","51","","","2","51","training","adjacent","BA","2","1","N.jpg","R.jpg","0","0","1","",""
"","feedback","","html-keyboard-response","333","349917","0.0-1.0-465.0-0.0","0","0","28489","","null","","","null","51","","","","","","","","","","","","","","","",""
"","ITI","","html-keyboard-response","334","350928","0.0-1.0-468.0","0","0","28489","","null","","","null","51","","","","","","","","","","","","","","","NaN",""
"","S1","","html-keyboard-response","335","351189","0.0-1.0-470.0","0","0","28489","","null","","","null","52","","","","","","","","","","","","","","","",""
"","ISI","","html-keyboard-response","336","352199","0.0-1.0-471.0","0","0","28489","","null","","","null","52","NaN","","","","","","","","","","","","","","",""
"","S2","","html-keyboard-response","337","352454","0.0-1.0-472.0","0","0","28489","","null","","","null","52","","NaN","","","","","","","","","","","","","",""
"","response","","html-keyboard-response","338","353360","0.0-1.0-473.0-0.0","0","0","28489","","903","","","75","52","","","2","52","training","adjacent","DC","4","3","P.jpg","L.jpg","1","0","0","",""
"","feedback","","html-keyboard-response","339","354364","0.0-1.0-474.0-0.0","0","0","28489","","null","","","null","52","","","","","","","","","","","","","","","",""
"","time_out","","html-keyboard-response","340","356373","0.0-1.0-476.0-0.0","0","0","28489","","null","","","null","52","","","","","","","","","","","","","","","",""
"","ITI","","html-keyboard-response","341","357382","0.0-1.0-477.0","0","0","28489","","null","","","null","52","","","","","","","","","","","","","","","NaN",""
"","S1","","html-keyboard-response","342","357639","0.0-1.0-479.0","0","0","28489","","null","","","null","53","","","","","","","","","","","","","","","",""
"","ISI","","html-keyboard-response","343","358649","0.0-1.0-480.0","0","0","28489","","null","","","null","53","NaN","","","","","","","","","","","","","","",""
"","S2","","html-keyboard-response","344","358908","0.0-1.0-481.0","0","0","28489","","null","","","null","53","","NaN","","","","","","","","","","","","","",""
"","response","","html-keyboard-response","345","359511","0.0-1.0-482.0-0.0","0","0","28489","","600","","","75","53","","","2","53","training","adjacent","FE","6","5","M.jpg","O.jpg","1","0","0","",""
"","feedback","","html-keyboard-response","346","360517","0.0-1.0-483.0-0.0","0","0","28489","","null","","","null","53","","","","","","","","","","","","","","","",""
"","time_out","","html-keyboard-response","347","362526","0.0-1.0-485.0-0.0","0","0","28489","","null","","","null","53","","","","","","","","","","","","","","","",""
"","ITI","","html-keyboard-response","348","363536","0.0-1.0-486.0","0","0","28489","","null","","","null","53","","","","","","","","","","","","","","","NaN",""
"","S1","","html-keyboard-response","349","363797","0.0-1.0-488.0","0","0","28489","","null","","","null","54","","","","","","","","","","","","","","","",""
"","ISI","","html-keyboard-response","350","364808","0.0-1.0-489.0","0","0","28489","","null","","","null","54","NaN","","","","","","","","","","","","","","",""
"","S2","","html-keyboard-response","351","365063","0.0-1.0-490.0","0","0","28489","","null","","","null","54","","NaN","","","","","","","","","","","","","",""
"","response","","html-keyboard-response","352","365575","0.0-1.0-491.0-0.0","0","0","28489","","509","","","75","54","","","2","54","training","adjacent","CB","3","2","L.jpg","N.jpg","1","0","0","",""
"","feedback","","html-keyboard-response","353","366583","0.0-1.0-492.0-0.0","0","0","28489","","null","","","null","54","","","","","","","","","","","","","","","",""
"","time_out","","html-keyboard-response","354","368589","0.0-1.0-494.0-0.0","0","0","28489","","null","","","null","54","","","","","","","","","","","","","","","",""
"","ITI","","html-keyboard-response","355","369601","0.0-1.0-495.0","0","0","28489","","null","","","null","54","","","","","","","","","","","","","","","NaN",""
"","S1","","html-keyboard-response","356","369862","0.0-1.0-497.0","0","0","28489","","null","","","null","55","","","","","","","","","","","","","","","",""
"","ISI","","html-keyboard-response","357","370874","0.0-1.0-498.0","0","0","28489","","null","","","null","55","NaN","","","","","","","","","","","","","","",""
"","S2","","html-keyboard-response","358","371135","0.0-1.0-499.0","0","0","28489","","null","","","null","55","","NaN","","","","","","","","","","","","","",""
"","response","","html-keyboard-response","359","371826","0.0-1.0-500.0-0.0","0","0","28489","","688","","","68","55","","","2","55","training","adjacent","BC","2","3","N.jpg","L.jpg","0","1","0","",""
"","feedback","","html-keyboard-response","360","372841","0.0-1.0-501.0-0.0","0","0","28489","","null","","","null","55","","","","","","","","","","","","","","","",""
"","time_out","","html-keyboard-response","361","374845","0.0-1.0-503.0-0.0","0","0","28489","","null","","","null","55","","","","","","","","","","","","","","","",""
"","ITI","","html-keyboard-response","362","375855","0.0-1.0-504.0","0","0","28489","","null","","","null","55","","","","","","","","","","","","","","","NaN",""
"","S1","","html-keyboard-response","363","376110","0.0-1.0-506.0","0","0","28489","","null","","","null","56","","","","","","","","","","","","","","","",""
"","ISI","","html-keyboard-response","364","377120","0.0-1.0-507.0","0","0","28489","","null","","","null","56","NaN","","","","","","","","","","","","","","",""
"","S2","","html-keyboard-response","365","377374","0.0-1.0-508.0","0","0","28489","","null","","","null","56","","NaN","","","","","","","","","","","","","",""
"","response","","html-keyboard-response","366","378659","0.0-1.0-509.0-0.0","0","0","28489","","1283","","","75","56","","","2","56","training","adjacent","DE","4","5","P.jpg","O.jpg","1","1","1","",""
"","feedback","","html-keyboard-response","367","379669","0.0-1.0-510.0-0.0","0","0","28489","","null","","","null","56","","","","","","","","","","","","","","","",""
"","ITI","","html-keyboard-response","368","380679","0.0-1.0-513.0","0","0","28489","","null","","","null","56","","","","","","","","","","","","","","","NaN",""
"","S1","","html-keyboard-response","369","380934","0.0-1.0-515.0","0","0","28489","","null","","","null","57","","","","","","","","","","","","","","","",""
"","ISI","","html-keyboard-response","370","381945","0.0-1.0-516.0","0","0","28489","","null","","","null","57","NaN","","","","","","","","","","","","","","",""
"","S2","","html-keyboard-response","371","382205","0.0-1.0-517.0","0","0","28489","","null","","","null","57","","NaN","","","","","","","","","","","","","",""
"","response","","html-keyboard-response","372","382871","0.0-1.0-518.0-0.0","0","0","28489","","664","","","68","57","","","2","57","training","adjacent","ED","5","4","O.jpg","P.jpg","0","0","1","",""
"","feedback","","html-keyboard-response","373","383877","0.0-1.0-519.0-0.0","0","0","28489","","null","","","null","57","","","","","","","","","","","","","","","",""
"","ITI","","html-keyboard-response","374","384887","0.0-1.0-522.0","0","0","28489","","null","","","null","57","","","","","","","","","","","","","","","NaN",""
"","S1","","html-keyboard-response","375","385143","0.0-1.0-524.0","0","0","28489","","null","","","null","58","","","","","","","","","","","","","","","",""
"","ISI","","html-keyboard-response","376","386153","0.0-1.0-525.0","0","0","28489","","null","","","null","58","NaN","","","","","","","","","","","","","","",""
"","S2","","html-keyboard-response","377","386414","0.0-1.0-526.0","0","0","28489","","null","","","null","58","","NaN","","","","","","","","","","","","","",""
"","response","","html-keyboard-response","378","386944","0.0-1.0-527.0-0.0","0","0","28489","","528","","","68","58","","","2","58","training","adjacent","GF","7","6","Q.jpg","M.jpg","0","0","1","",""
"","feedback","","html-keyboard-response","379","387952","0.0-1.0-528.0-0.0","0","0","28489","","null","","","null","58","","","","","","","","","","","","","","","",""
"","ITI","","html-keyboard-response","380","388957","0.0-1.0-531.0","0","0","28489","","null","","","null","58","","","","","","","","","","","","","","","NaN",""
"","S1","","html-keyboard-response","381","389218","0.0-1.0-533.0","0","0","28489","","null","","","null","59","","","","","","","","","","","","","","","",""
"","ISI","","html-keyboard-response","382","390223","0.0-1.0-534.0","0","0","28489","","null","","","null","59","NaN","","","","","","","","","","","","","","",""
"","S2","","html-keyboard-response","383","390478","0.0-1.0-535.0","0","0","28489","","null","","","null","59","","NaN","","","","","","","","","","","","","",""
"","response","","html-keyboard-response","384","390890","0.0-1.0-536.0-0.0","0","0","28489","","409","","","68","59","","","2","59","training","adjacent","GF","7","6","Q.jpg","M.jpg","0","0","1","",""
"","feedback","","html-keyboard-response","385","391893","0.0-1.0-537.0-0.0","0","0","28489","","null","","","null","59","","","","","","","","","","","","","","","",""
"","ITI","","html-keyboard-response","386","392904","0.0-1.0-540.0","0","0","28489","","null","","","null","59","","","","","","","","","","","","","","","NaN",""
"","S1","","html-keyboard-response","387","393166","0.0-1.0-542.0","0","0","28489","","null","","","null","60","","","","","","","","","","","","","","","",""
"","ISI","","html-keyboard-response","388","394176","0.0-1.0-543.0","0","0","28489","","null","","","null","60","NaN","","","","","","","","","","","","","","",""
"","S2","","html-keyboard-response","389","394431","0.0-1.0-544.0","0","0","28489","","null","","","null","60","","NaN","","","","","","","","","","","","","",""
"","response","","html-keyboard-response","390","394982","0.0-1.0-545.0-0.0","0","0","28489","","549","","","75","60","","","2","60","training","adjacent","AB","1","2","R.jpg","N.jpg","1","1","1","",""
"","feedback","","html-keyboard-response","391","395991","0.0-1.0-546.0-0.0","0","0","28489","","null","","","null","60","","","","","","","","","","","","","","","",""
"","ITI","","html-keyboard-response","392","396997","0.0-1.0-549.0","0","0","28489","","null","","","null","60","","","","","","","","","","","","","","","NaN",""
"","S1","","html-keyboard-response","393","397257","0.0-1.0-551.0","0","0","28489","","null","","","null","61","","","","","","","","","","","","","","","",""
"","ISI","","html-keyboard-response","394","398262","0.0-1.0-552.0","0","0","28489","","null","","","null","61","NaN","","","","","","","","","","","","","","",""
"","S2","","html-keyboard-response","395","398518","0.0-1.0-553.0","0","0","28489","","null","","","null","61","","NaN","","","","","","","","","","","","","",""
"","response","","html-keyboard-response","396","398990","0.0-1.0-554.0-0.0","0","0","28489","","470","","","75","61","","","2","61","training","adjacent","DC","4","3","P.jpg","L.jpg","1","0","0","",""
"","feedback","","html-keyboard-response","397","399998","0.0-1.0-555.0-0.0","0","0","28489","","null","","","null","61","","","","","","","","","","","","","","","",""
"","time_out","","html-keyboard-response","398","402007","0.0-1.0-557.0-0.0","0","0","28489","","null","","","null","61","","","","","","","","","","","","","","","",""
"","ITI","","html-keyboard-response","399","403016","0.0-1.0-558.0","0","0","28489","","null","","","null","61","","","","","","","","","","","","","","","NaN",""
"","S1","","html-keyboard-response","400","403272","0.0-1.0-560.0","0","0","28489","","null","","","null","62","","","","","","","","","","","","","","","",""
"","ISI","","html-keyboard-response","401","404281","0.0-1.0-561.0","0","0","28489","","null","","","null","62","NaN","","","","","","","","","","","","","","",""
"","S2","","html-keyboard-response","402","404543","0.0-1.0-562.0","0","0","28489","","null","","","null","62","","NaN","","","","","","","","","","","","","",""
"","response","","html-keyboard-response","403","404979","0.0-1.0-563.0-0.0","0","0","28489","","434","","","75","62","","","2","62","training","adjacent","FE","6","5","M.jpg","O.jpg","1","0","0","",""
"","feedback","","html-keyboard-response","404","405989","0.0-1.0-564.0-0.0","0","0","28489","","null","","","null","62","","","","","","","","","","","","","","","",""
"","time_out","","html-keyboard-response","405","407998","0.0-1.0-566.0-0.0","0","0","28489","","null","","","null","62","","","","","","","","","","","","","","","",""
"","ITI","","html-keyboard-response","406","409006","0.0-1.0-567.0","0","0","28489","","null","","","null","62","","","","","","","","","","","","","","","NaN",""
"","S1","","html-keyboard-response","407","409263","0.0-1.0-569.0","0","0","28489","","null","","","null","63","","","","","","","","","","","","","","","",""
"","ISI","","html-keyboard-response","408","410273","0.0-1.0-570.0","0","0","28489","","null","","","null","63","NaN","","","","","","","","","","","","","","",""
"","S2","","html-keyboard-response","409","410534","0.0-1.0-571.0","0","0","28489","","null","","","null","63","","NaN","","","","","","","","","","","","","",""
"","response","","html-keyboard-response","410","411375","0.0-1.0-572.0-0.0","0","0","28489","","838","","","75","63","","","2","63","training","adjacent","DE","4","5","P.jpg","O.jpg","1","1","1","",""
"","feedback","","html-keyboard-response","411","412387","0.0-1.0-573.0-0.0","0","0","28489","","null","","","null","63","","","","","","","","","","","","","","","",""
"","ITI","","html-keyboard-response","412","413390","0.0-1.0-576.0","0","0","28489","","null","","","null","63","","","","","","","","","","","","","","","NaN",""
"","S1","","html-keyboard-response","413","413646","0.0-1.0-578.0","0","0","28489","","null","","","null","64","","","","","","","","","","","","","","","",""
"","ISI","","html-keyboard-response","414","414656","0.0-1.0-579.0","0","0","28489","","null","","","null","64","NaN","","","","","","","","","","","","","","",""
"","S2","","html-keyboard-response","415","414912","0.0-1.0-580.0","0","0","28489","","null","","","null","64","","NaN","","","","","","","","","","","","","",""
"","response","","html-keyboard-response","416","415839","0.0-1.0-581.0-0.0","0","0","28489","","925","","","68","64","","","2","64","training","adjacent","GF","7","6","Q.jpg","M.jpg","0","0","1","",""
"","feedback","","html-keyboard-response","417","416851","0.0-1.0-582.0-0.0","0","0","28489","","null","","","null","64","","","","","","","","","","","","","","","",""
"","ITI","","html-keyboard-response","418","417857","0.0-1.0-585.0","0","0","28489","","null","","","null","64","","","","","","","","","","","","","","","NaN",""
"","S1","","html-keyboard-response","419","418121","0.0-1.0-587.0","0","0","28489","","null","","","null","65","","","","","","","","","","","","","","","",""
"","ISI","","html-keyboard-response","420","419126","0.0-1.0-588.0","0","0","28489","","null","","","null","65","NaN","","","","","","","","","","","","","","",""
"","S2","","html-keyboard-response","421","419383","0.0-1.0-589.0","0","0","28489","","null","","","null","65","","NaN","","","","","","","","","","","","","",""
"","response","","html-keyboard-response","422","420058","0.0-1.0-590.0-0.0","0","0","28489","","673","","","75","65","","","2","65","training","adjacent","AB","1","2","R.jpg","N.jpg","1","1","1","",""
"","feedback","","html-keyboard-response","423","421065","0.0-1.0-591.0-0.0","0","0","28489","","null","","","null","65","","","","","","","","","","","","","","","",""
"","ITI","","html-keyboard-response","424","422074","0.0-1.0-594.0","0","0","28489","","null","","","null","65","","","","","","","","","","","","","","","NaN",""
"","S1","","html-keyboard-response","425","422336","0.0-1.0-596.0","0","0","28489","","null","","","null","66","","","","","","","","","","","","","","","",""
"","ISI","","html-keyboard-response","426","423346","0.0-1.0-597.0","0","0","28489","","null","","","null","66","NaN","","","","","","","","","","","","","","",""
"","S2","","html-keyboard-response","427","423607","0.0-1.0-598.0","0","0","28489","","null","","","null","66","","NaN","","","","","","","","","","","","","",""
"","response","","html-keyboard-response","428","424048","0.0-1.0-599.0-0.0","0","0","28489","","439","","","75","66","","","2","66","training","adjacent","AB","1","2","R.jpg","N.jpg","1","1","1","",""
"","feedback","","html-keyboard-response","429","425059","0.0-1.0-600.0-0.0","0","0","28489","","null","","","null","66","","","","","","","","","","","","","","","",""
"","ITI","","html-keyboard-response","430","426063","0.0-1.0-603.0","0","0","28489","","null","","","null","66","","","","","","","","","","","","","","","NaN",""
"","S1","","html-keyboard-response","431","426318","0.0-1.0-605.0","0","0","28489","","null","","","null","67","","","","","","","","","","","","","","","",""
"","ISI","","html-keyboard-response","432","427329","0.0-1.0-606.0","0","0","28489","","null","","","null","67","NaN","","","","","","","","","","","","","","",""
"","S2","","html-keyboard-response","433","427584","0.0-1.0-607.0","0","0","28489","","null","","","null","67","","NaN","","","","","","","","","","","","","",""
"","response","","html-keyboard-response","434","427794","0.0-1.0-608.0-0.0","0","0","28489","","208","","","68","67","","","2","67","training","adjacent","GF","7","6","Q.jpg","M.jpg","0","0","1","",""
"","feedback","","html-keyboard-response","435","428799","0.0-1.0-609.0-0.0","0","0","28489","","null","","","null","67","","","","","","","","","","","","","","","",""
"","ITI","","html-keyboard-response","436","429806","0.0-1.0-612.0","0","0","28489","","null","","","null","67","","","","","","","","","","","","","","","NaN",""
"","S1","","html-keyboard-response","437","430065","0.0-1.0-614.0","0","0","28489","","null","","","null","68","","","","","","","","","","","","","","","",""
"","ISI","","html-keyboard-response","438","431073","0.0-1.0-615.0","0","0","28489","","null","","","null","68","NaN","","","","","","","","","","","","","","",""
"","S2","","html-keyboard-response","439","431328","0.0-1.0-616.0","0","0","28489","","null","","","null","68","","NaN","","","","","","","","","","","","","",""
"","response","","html-keyboard-response","440","431958","0.0-1.0-617.0-0.0","0","0","28489","","628","","","75","68","","","2","68","training","adjacent","CB","3","2","L.jpg","N.jpg","1","0","0","",""
"","feedback","","html-keyboard-response","441","432971","0.0-1.0-618.0-0.0","0","0","28489","","null","","","null","68","","","","","","","","","","","","","","","",""
"","time_out","","html-keyboard-response","442","434984","0.0-1.0-620.0-0.0","0","0","28489","","null","","","null","68","","","","","","","","","","","","","","","",""
"","ITI","","html-keyboard-response","443","435993","0.0-1.0-621.0","0","0","28489","","null","","","null","68","","","","","","","","","","","","","","","NaN",""
"","S1","","html-keyboard-response","444","436256","0.0-1.0-623.0","0","0","28489","","null","","","null","69","","","","","","","","","","","","","","","",""
"","ISI","","html-keyboard-response","445","437267","0.0-1.0-624.0","0","0","28489","","null","","","null","69","NaN","","","","","","","","","","","","","","",""
"","S2","","html-keyboard-response","446","437528","0.0-1.0-625.0","0","0","28489","","null","","","null","69","","NaN","","","","","","","","","","","","","",""
"","response","","html-keyboard-response","447","437852","0.0-1.0-626.0-0.0","0","0","28489","","322","","","68","69","","","2","69","training","adjacent","BA","2","1","N.jpg","R.jpg","0","0","1","",""
"","feedback","","html-keyboard-response","448","438864","0.0-1.0-627.0-0.0","0","0","28489","","null","","","null","69","","","","","","","","","","","","","","","",""
"","ITI","","html-keyboard-response","449","439873","0.0-1.0-630.0","0","0","28489","","null","","","null","69","","","","","","","","","","","","","","","NaN",""
"","S1","","html-keyboard-response","450","440129","0.0-1.0-632.0","0","0","28489","","null","","","null","70","","","","","","","","","","","","","","","",""
"","ISI","","html-keyboard-response","451","441138","0.0-1.0-633.0","0","0","28489","","null","","","null","70","NaN","","","","","","","","","","","","","","",""
"","S2","","html-keyboard-response","452","441401","0.0-1.0-634.0","0","0","28489","","null","","","null","70","","NaN","","","","","","","","","","","","","",""
"","response","","html-keyboard-response","453","441797","0.0-1.0-635.0-0.0","0","0","28489","","393","","","68","70","","","2","70","training","adjacent","EF","5","6","O.jpg","M.jpg","0","1","0","",""
"","feedback","","html-keyboard-response","454","442810","0.0-1.0-636.0-0.0","0","0","28489","","null","","","null","70","","","","","","","","","","","","","","","",""
"","time_out","","html-keyboard-response","455","444819","0.0-1.0-638.0-0.0","0","0","28489","","null","","","null","70","","","","","","","","","","","","","","","",""
"","ITI","","html-keyboard-response","456","445823","0.0-1.0-639.0","0","0","28489","","null","","","null","70","","","","","","","","","","","","","","","NaN",""
"","S1","","html-keyboard-response","457","446079","0.0-1.0-641.0","0","0","28489","","null","","","null","71","","","","","","","","","","","","","","","",""
"","ISI","","html-keyboard-response","458","447090","0.0-1.0-642.0","0","0","28489","","null","","","null","71","NaN","","","","","","","","","","","","","","",""
"","S2","","html-keyboard-response","459","447350","0.0-1.0-643.0","0","0","28489","","null","","","null","71","","NaN","","","","","","","","","","","","","",""
"","response","","html-keyboard-response","460","448300","0.0-1.0-644.0-0.0","0","0","28489","","948","","","75","71","","","2","71","training","adjacent","FE","6","5","M.jpg","O.jpg","1","0","0","",""
"","feedback","","html-keyboard-response","461","449313","0.0-1.0-645.0-0.0","0","0","28489","","null","","","null","71","","","","","","","","","","","","","","","",""
"","time_out","","html-keyboard-response","462","451321","0.0-1.0-647.0-0.0","0","0","28489","","null","","","null","71","","","","","","","","","","","","","","","",""
"","ITI","","html-keyboard-response","463","452331","0.0-1.0-648.0","0","0","28489","","null","","","null","71","","","","","","","","","","","","","","","NaN",""
"","S1","","html-keyboard-response","464","452593","0.0-1.0-650.0","0","0","28489","","null","","","null","72","","","","","","","","","","","","","","","",""
"","ISI","","html-keyboard-response","465","453603","0.0-1.0-651.0","0","0","28489","","null","","","null","72","NaN","","","","","","","","","","","","","","",""
"","S2","","html-keyboard-response","466","453864","0.0-1.0-652.0","0","0","28489","","null","","","null","72","","NaN","","","","","","","","","","","","","",""
"","response","","html-keyboard-response","467","454368","0.0-1.0-653.0-0.0","0","0","28489","","501","","","75","72","","","2","72","training","adjacent","DE","4","5","P.jpg","O.jpg","1","1","1","",""
"","feedback","","html-keyboard-response","468","455378","0.0-1.0-654.0-0.0","0","0","28489","","null","","","null","72","","","","","","","","","","","","","","","",""
"","ITI","","html-keyboard-response","469","456382","0.0-1.0-657.0","0","0","28489","","null","","","null","72","","","","","","","","","","","","","","","NaN",""
"","S1","","html-keyboard-response","470","456638","0.0-1.0-659.0","0","0","28489","","null","","","null","73","","","","","","","","","","","","","","","",""
"","ISI","","html-keyboard-response","471","457647","0.0-1.0-660.0","0","0","28489","","null","","","null","73","NaN","","","","","","","","","","","","","","",""
"","S2","","html-keyboard-response","472","457904","0.0-1.0-661.0","0","0","28489","","null","","","null","73","","NaN","","","","","","","","","","","","","",""
"","response","","html-keyboard-response","473","458512","0.0-1.0-662.0-0.0","0","0","28489","","607","","","75","73","","","2","73","training","adjacent","CB","3","2","L.jpg","N.jpg","1","0","0","",""
"","feedback","","html-keyboard-response","474","459523","0.0-1.0-663.0-0.0","0","0","28489","","null","","","null","73","","","","","","","","","","","","","","","",""
"","time_out","","html-keyboard-response","475","461530","0.0-1.0-665.0-0.0","0","0","28489","","null","","","null","73","","","","","","","","","","","","","","","",""
"","ITI","","html-keyboard-response","476","462536","0.0-1.0-666.0","0","0","28489","","null","","","null","73","","","","","","","","","","","","","","","NaN",""
"","S1","","html-keyboard-response","477","462792","0.0-1.0-668.0","0","0","28489","","null","","","null","74","","","","","","","","","","","","","","","",""
"","ISI","","html-keyboard-response","478","463802","0.0-1.0-669.0","0","0","28489","","null","","","null","74","NaN","","","","","","","","","","","","","","",""
"","S2","","html-keyboard-response","479","464056","0.0-1.0-670.0","0","0","28489","","null","","","null","74","","NaN","","","","","","","","","","","","","",""
"","response","","html-keyboard-response","480","464768","0.0-1.0-671.0-0.0","0","0","28489","","710","","","75","74","","","2","74","training","adjacent","CD","3","4","L.jpg","P.jpg","1","1","1","",""
"","feedback","","html-keyboard-response","481","465776","0.0-1.0-672.0-0.0","0","0","28489","","null","","","null","74","","","","","","","","","","","","","","","",""
"","ITI","","html-keyboard-response","482","466786","0.0-1.0-675.0","0","0","28489","","null","","","null","74","","","","","","","","","","","","","","","NaN",""
"","S1","","html-keyboard-response","483","467047","0.0-1.0-677.0","0","0","28489","","null","","","null","75","","","","","","","","","","","","","","","",""
"","ISI","","html-keyboard-response","484","468056","0.0-1.0-678.0","0","0","28489","","null","","","null","75","NaN","","","","","","","","","","","","","","",""
"","S2","","html-keyboard-response","485","468312","0.0-1.0-679.0","0","0","28489","","null","","","null","75","","NaN","","","","","","","","","","","","","",""
"","response","","html-keyboard-response","486","468861","0.0-1.0-680.0-0.0","0","0","28489","","546","","","68","75","","","2","75","training","adjacent","BC","2","3","N.jpg","L.jpg","0","1","0","",""
"","feedback","","html-keyboard-response","487","469874","0.0-1.0-681.0-0.0","0","0","28489","","null","","","null","75","","","","","","","","","","","","","","","",""
"","time_out","","html-keyboard-response","488","471883","0.0-1.0-683.0-0.0","0","0","28489","","null","","","null","75","","","","","","","","","","","","","","","",""
"","ITI","","html-keyboard-response","489","472887","0.0-1.0-684.0","0","0","28489","","null","","","null","75","","","","","","","","","","","","","","","NaN",""
"","S1","","html-keyboard-response","490","473148","0.0-1.0-686.0","0","0","28489","","null","","","null","76","","","","","","","","","","","","","","","",""
"","ISI","","html-keyboard-response","491","474152","0.0-1.0-687.0","0","0","28489","","null","","","null","76","NaN","","","","","","","","","","","","","","",""
"","S2","","html-keyboard-response","492","474408","0.0-1.0-688.0","0","0","28489","","null","","","null","76","","NaN","","","","","","","","","","","","","",""
"","response","","html-keyboard-response","493","475069","0.0-1.0-689.0-0.0","0","0","28489","","659","","","75","76","","","2","76","training","adjacent","CB","3","2","L.jpg","N.jpg","1","0","0","",""
"","feedback","","html-keyboard-response","494","476080","0.0-1.0-690.0-0.0","0","0","28489","","null","","","null","76","","","","","","","","","","","","","","","",""
"","time_out","","html-keyboard-response","495","478087","0.0-1.0-692.0-0.0","0","0","28489","","null","","","null","76","","","","","","","","","","","","","","","",""
"","ITI","","html-keyboard-response","496","479099","0.0-1.0-693.0","0","0","28489","","null","","","null","76","","","","","","","","","","","","","","","NaN",""
"","S1","","html-keyboard-response","497","479360","0.0-1.0-695.0","0","0","28489","","null","","","null","77","","","","","","","","","","","","","","","",""
"","ISI","","html-keyboard-response","498","480370","0.0-1.0-696.0","0","0","28489","","null","","","null","77","NaN","","","","","","","","","","","","","","",""
"","S2","","html-keyboard-response","499","480625","0.0-1.0-697.0","0","0","28489","","null","","","null","77","","NaN","","","","","","","","","","","","","",""
"","response","","html-keyboard-response","500","481571","0.0-1.0-698.0-0.0","0","0","28489","","944","","","68","77","","","2","77","training","adjacent","DC","4","3","P.jpg","L.jpg","0","0","1","",""
"","feedback","","html-keyboard-response","501","482576","0.0-1.0-699.0-0.0","0","0","28489","","null","","","null","77","","","","","","","","","","","","","","","",""
"","ITI","","html-keyboard-response","502","483586","0.0-1.0-702.0","0","0","28489","","null","","","null","77","","","","","","","","","","","","","","","NaN",""
"","S1","","html-keyboard-response","503","483841","0.0-1.0-704.0","0","0","28489","","null","","","null","78","","","","","","","","","","","","","","","",""
"","ISI","","html-keyboard-response","504","484851","0.0-1.0-705.0","0","0","28489","","null","","","null","78","NaN","","","","","","","","","","","","","","",""
"","S2","","html-keyboard-response","505","485113","0.0-1.0-706.0","0","0","28489","","null","","","null","78","","NaN","","","","","","","","","","","","","",""
"","response","","html-keyboard-response","506","486074","0.0-1.0-707.0-0.0","0","0","28489","","958","","","68","78","","","2","78","training","adjacent","EF","5","6","O.jpg","M.jpg","0","1","0","",""
"","feedback","","html-keyboard-response","507","487080","0.0-1.0-708.0-0.0","0","0","28489","","null","","","null","78","","","","","","","","","","","","","","","",""
"","time_out","","html-keyboard-response","508","489088","0.0-1.0-710.0-0.0","0","0","28489","","null","","","null","78","","","","","","","","","","","","","","","",""
"","ITI","","html-keyboard-response","509","490099","0.0-1.0-711.0","0","0","28489","","null","","","null","78","","","","","","","","","","","","","","","NaN",""
"","S1","","html-keyboard-response","510","490360","0.0-1.0-713.0","0","0","28489","","null","","","null","79","","","","","","","","","","","","","","","",""
"","ISI","","html-keyboard-response","511","491371","0.0-1.0-714.0","0","0","28489","","null","","","null","79","NaN","","","","","","","","","","","","","","",""
"","S2","","html-keyboard-response","512","491631","0.0-1.0-715.0","0","0","28489","","null","","","null","79","","NaN","","","","","","","","","","","","","",""
"","response","","html-keyboard-response","513","492466","0.0-1.0-716.0-0.0","0","0","28489","","833","","","68","79","","","2","79","training","adjacent","CD","3","4","L.jpg","P.jpg","0","1","0","",""
"","feedback","","html-keyboard-response","514","493475","0.0-1.0-717.0-0.0","0","0","28489","","null","","","null","79","","","","","","","","","","","","","","","",""
"","time_out","","html-keyboard-response","515","495479","0.0-1.0-719.0-0.0","0","0","28489","","null","","","null","79","","","","","","","","","","","","","","","",""
"","ITI","","html-keyboard-response","516","496490","0.0-1.0-720.0","0","0","28489","","null","","","null","79","","","","","","","","","","","","","","","NaN",""
"","S1","","html-keyboard-response","517","496751","0.0-1.0-722.0","0","0","28489","","null","","","null","80","","","","","","","","","","","","","","","",""
"","ISI","","html-keyboard-response","518","497762","0.0-1.0-723.0","0","0","28489","","null","","","null","80","NaN","","","","","","","","","","","","","","",""
"","S2","","html-keyboard-response","519","498016","0.0-1.0-724.0","0","0","28489","","null","","","null","80","","NaN","","","","","","","","","","","","","",""
"","response","","html-keyboard-response","520","498582","0.0-1.0-725.0-0.0","0","0","28489","","564","","","75","80","","","2","80","training","adjacent","DE","4","5","P.jpg","O.jpg","1","1","1","",""
"","feedback","","html-keyboard-response","521","499596","0.0-1.0-726.0-0.0","0","0","28489","","null","","","null","80","","","","","","","","","","","","","","","",""
"","ITI","","html-keyboard-response","522","500613","0.0-1.0-729.0","0","0","28489","","null","","","null","80","","","","","","","","","","","","","","","NaN",""
"","S1","","html-keyboard-response","523","500874","0.0-1.0-731.0","0","0","28489","","null","","","null","81","","","","","","","","","","","","","","","",""
"","ISI","","html-keyboard-response","524","501884","0.0-1.0-732.0","0","0","28489","","null","","","null","81","NaN","","","","","","","","","","","","","","",""
"","S2","","html-keyboard-response","525","502145","0.0-1.0-733.0","0","0","28489","","null","","","null","81","","NaN","","","","","","","","","","","","","",""
"","response","","html-keyboard-response","526","503316","0.0-1.0-734.0-0.0","0","0","28489","","1169","","","68","81","","","2","81","training","adjacent","EF","5","6","O.jpg","M.jpg","0","1","0","",""
"","feedback","","html-keyboard-response","527","504322","0.0-1.0-735.0-0.0","0","0","28489","","null","","","null","81","","","","","","","","","","","","","","","",""
"","time_out","","html-keyboard-response","528","506329","0.0-1.0-737.0-0.0","0","0","28489","","null","","","null","81","","","","","","","","","","","","","","","",""
"","ITI","","html-keyboard-response","529","507340","0.0-1.0-738.0","0","0","28489","","null","","","null","81","","","","","","","","","","","","","","","NaN",""
"","S1","","html-keyboard-response","530","507601","0.0-1.0-740.0","0","0","28489","","null","","","null","82","","","","","","","","","","","","","","","",""
"","ISI","","html-keyboard-response","531","508612","0.0-1.0-741.0","0","0","28489","","null","","","null","82","NaN","","","","","","","","","","","","","","",""
"","S2","","html-keyboard-response","532","508872","0.0-1.0-742.0","0","0","28489","","null","","","null","82","","NaN","","","","","","","","","","","","","",""
"","response","","html-keyboard-response","533","509802","0.0-1.0-743.0-0.0","0","0","28489","","927","","","68","82","","","2","82","training","adjacent","BC","2","3","N.jpg","L.jpg","0","1","0","",""
"","feedback","","html-keyboard-response","534","510812","0.0-1.0-744.0-0.0","0","0","28489","","null","","","null","82","","","","","","","","","","","","","","","",""
"","time_out","","html-keyboard-response","535","512821","0.0-1.0-746.0-0.0","0","0","28489","","null","","","null","82","","","","","","","","","","","","","","","",""
"","ITI","","html-keyboard-response","536","513825","0.0-1.0-747.0","0","0","28489","","null","","","null","82","","","","","","","","","","","","","","","NaN",""
"","S1","","html-keyboard-response","537","514082","0.0-1.0-749.0","0","0","28489","","null","","","null","83","","","","","","","","","","","","","","","",""
"","ISI","","html-keyboard-response","538","515089","0.0-1.0-750.0","0","0","28489","","null","","","null","83","NaN","","","","","","","","","","","","","","",""
"","S2","","html-keyboard-response","539","515345","0.0-1.0-751.0","0","0","28489","","null","","","null","83","","NaN","","","","","","","","","","","","","",""
"","response","","html-keyboard-response","540","516151","0.0-1.0-752.0-0.0","0","0","28489","","803","","","68","83","","","2","83","training","adjacent","EF","5","6","O.jpg","M.jpg","0","1","0","",""
"","feedback","","html-keyboard-response","541","517163","0.0-1.0-753.0-0.0","0","0","28489","","null","","","null","83","","","","","","","","","","","","","","","",""
"","time_out","","html-keyboard-response","542","519171","0.0-1.0-755.0-0.0","0","0","28489","","null","","","null","83","","","","","","","","","","","","","","","",""
"","ITI","","html-keyboard-response","543","520177","0.0-1.0-756.0","0","0","28489","","null","","","null","83","","","","","","","","","","","","","","","NaN",""
"","S1","","html-keyboard-response","544","520437","0.0-1.0-758.0","0","0","28489","","null","","","null","84","","","","","","","","","","","","","","","",""
"","ISI","","html-keyboard-response","545","521440","0.0-1.0-759.0","0","0","28489","","null","","","null","84","NaN","","","","","","","","","","","","","","",""
"","S2","","html-keyboard-response","546","521696","0.0-1.0-760.0","0","0","28489","","null","","","null","84","","NaN","","","","","","","","","","","","","",""
"","response","","html-keyboard-response","547","522494","0.0-1.0-761.0-0.0","0","0","28489","","796","","","75","84","","","2","84","training","adjacent","FG","6","7","M.jpg","Q.jpg","1","1","1","",""
"","feedback","","html-keyboard-response","548","523508","0.0-1.0-762.0-0.0","0","0","28489","","null","","","null","84","","","","","","","","","","","","","","","",""
"","ITI","","html-keyboard-response","549","524512","0.0-1.0-765.0","0","0","28489","","null","","","null","84","","","","","","","","","","","","","","","NaN",""
"","S1","","html-keyboard-response","550","524771","0.0-1.0-767.0","0","0","28489","","null","","","null","85","","","","","","","","","","","","","","","",""
"","ISI","","html-keyboard-response","551","525777","0.0-1.0-768.0","0","0","28489","","null","","","null","85","NaN","","","","","","","","","","","","","","",""
"","S2","","html-keyboard-response","552","526033","0.0-1.0-769.0","0","0","28489","","null","","","null","85","","NaN","","","","","","","","","","","","","",""
"","response","","html-keyboard-response","553","526475","0.0-1.0-770.0-0.0","0","0","28489","","441","","","68","85","","","2","85","training","adjacent","BA","2","1","N.jpg","R.jpg","0","0","1","",""
"","feedback","","html-keyboard-response","554","527484","0.0-1.0-771.0-0.0","0","0","28489","","null","","","null","85","","","","","","","","","","","","","","","",""
"","ITI","","html-keyboard-response","555","528491","0.0-1.0-774.0","0","0","28489","","null","","","null","85","","","","","","","","","","","","","","","NaN",""
"","S1","","html-keyboard-response","556","528744","0.0-1.0-776.0","0","0","28489","","null","","","null","86","","","","","","","","","","","","","","","",""
"","ISI","","html-keyboard-response","557","529753","0.0-1.0-777.0","0","0","28489","","null","","","null","86","NaN","","","","","","","","","","","","","","",""
"","S2","","html-keyboard-response","558","530009","0.0-1.0-778.0","0","0","28489","","null","","","null","86","","NaN","","","","","","","","","","","","","",""
"","response","","html-keyboard-response","559","530536","0.0-1.0-779.0-0.0","0","0","28489","","524","","","68","86","","","2","86","training","adjacent","ED","5","4","O.jpg","P.jpg","0","0","1","",""
"","feedback","","html-keyboard-response","560","531546","0.0-1.0-780.0-0.0","0","0","28489","","null","","","null","86","","","","","","","","","","","","","","","",""
"","ITI","","html-keyboard-response","561","532554","0.0-1.0-783.0","0","0","28489","","null","","","null","86","","","","","","","","","","","","","","","NaN",""
"","S1","","html-keyboard-response","562","532813","0.0-1.0-785.0","0","0","28489","","null","","","null","87","","","","","","","","","","","","","","","",""
"","ISI","","html-keyboard-response","563","533817","0.0-1.0-786.0","0","0","28489","","null","","","null","87","NaN","","","","","","","","","","","","","","",""
"","S2","","html-keyboard-response","564","534072","0.0-1.0-787.0","0","0","28489","","null","","","null","87","","NaN","","","","","","","","","","","","","",""
"","response","","html-keyboard-response","565","534509","0.0-1.0-788.0-0.0","0","0","28489","","435","","","68","87","","","2","87","training","adjacent","ED","5","4","O.jpg","P.jpg","0","0","1","",""
"","feedback","","html-keyboard-response","566","535512","0.0-1.0-789.0-0.0","0","0","28489","","null","","","null","87","","","","","","","","","","","","","","","",""
"","ITI","","html-keyboard-response","567","536521","0.0-1.0-792.0","0","0","28489","","null","","","null","87","","","","","","","","","","","","","","","NaN",""
"","S1","","html-keyboard-response","568","536778","0.0-1.0-794.0","0","0","28489","","null","","","null","88","","","","","","","","","","","","","","","",""
"","ISI","","html-keyboard-response","569","537787","0.0-1.0-795.0","0","0","28489","","null","","","null","88","NaN","","","","","","","","","","","","","","",""
"","S2","","html-keyboard-response","570","538043","0.0-1.0-796.0","0","0","28489","","null","","","null","88","","NaN","","","","","","","","","","","","","",""
"","response","","html-keyboard-response","571","538501","0.0-1.0-797.0-0.0","0","0","28489","","457","","","75","88","","","2","88","training","adjacent","CD","3","4","L.jpg","P.jpg","1","1","1","",""
"","feedback","","html-keyboard-response","572","539516","0.0-1.0-798.0-0.0","0","0","28489","","null","","","null","88","","","","","","","","","","","","","","","",""
"","ITI","","html-keyboard-response","573","540521","0.0-1.0-801.0","0","0","28489","","null","","","null","88","","","","","","","","","","","","","","","NaN",""
"","S1","","html-keyboard-response","574","540778","0.0-1.0-803.0","0","0","28489","","null","","","null","89","","","","","","","","","","","","","","","",""
"","ISI","","html-keyboard-response","575","541787","0.0-1.0-804.0","0","0","28489","","null","","","null","89","NaN","","","","","","","","","","","","","","",""
"","S2","","html-keyboard-response","576","542043","0.0-1.0-805.0","0","0","28489","","null","","","null","89","","NaN","","","","","","","","","","","","","",""
"","response","","html-keyboard-response","577","542541","0.0-1.0-806.0-0.0","0","0","28489","","496","","","68","89","","","2","89","training","adjacent","BA","2","1","N.jpg","R.jpg","0","0","1","",""
"","feedback","","html-keyboard-response","578","543553","0.0-1.0-807.0-0.0","0","0","28489","","null","","","null","89","","","","","","","","","","","","","","","",""
"","ITI","","html-keyboard-response","579","544563","0.0-1.0-810.0","0","0","28489","","null","","","null","89","","","","","","","","","","","","","","","NaN",""
"","S1","","html-keyboard-response","580","544818","0.0-1.0-812.0","0","0","28489","","null","","","null","90","","","","","","","","","","","","","","","",""
"","ISI","","html-keyboard-response","581","545827","0.0-1.0-813.0","0","0","28489","","null","","","null","90","NaN","","","","","","","","","","","","","","",""
"","S2","","html-keyboard-response","582","546084","0.0-1.0-814.0","0","0","28489","","null","","","null","90","","NaN","","","","","","","","","","","","","",""
