"success","ttype","start_time","trial_type","trial_index","time_elapsed","internal_node_id","warning","missed_checkup","PID","view_history","rt","responses","repeat_instructions","key_press","index","keypress_isi","keypress_S2","block","trial_num","phase","group_type","pair_type","S1_stim","S2_stim","S1_img","S2_img","S1_chosen","S1_higher","accuracy","keypress_iti","total_bonus_tally"
"true","full_screen","d03082023hr1448","fullscreen","0","16528","0.0-0.0","0","0","73869","","","","","","","","","","","","","","","","","","","","","",""
"","instructions","","instructions","1","53746","0.0-1.0-0.0-0.0","0","0","73869","[{""page_index"":0,""viewing_time"":4642},{""page_index"":1,""viewing_time"":22261},{""page_index"":2,""viewing_time"":8312},{""page_index"":3,""viewing_time"":1987}]","37203","","","","","","","","","","","","","","","","","","","",""
"","comprehension_check","","survey-multi-choice","2","80025","0.0-1.0-0.0-1.0","0","0","73869","","26260","{""Q0"":""True"",""Q1"":""K"",""Q2"":""Once the second image appears and while the screen 'MAKE A CHOICE' is shown"",""Q3"":""Green mark"",""Q4"":""either D or K""}","0","","","","","","","","","","","","","","","","","",""
"","start_exp","","html-keyboard-response","3","83358","0.0-1.0-1.0","0","0","73869","","3324","","","32","","","","","","","","","","","","","","","","",""
"","S1","","html-keyboard-response","4","83613","0.0-1.0-2.0","0","0","73869","","null","","","null","0","","","","","","","","","","","","","","","",""
"","ISI","","html-keyboard-response","5","83767","0.0-1.0-3.0","0","0","73869","","null","","","null","0","NaN","","","","","","","","","","","","","","",""
"","S2","","html-keyboard-response","6","84021","0.0-1.0-4.0","0","0","73869","","null","","","null","0","","NaN","","","","","","","","","","","","","",""
"","response","","html-keyboard-response","7","85784","0.0-1.0-5.0-0.0","0","0","73869","","null","","","null","0","","","1","0","training","adjacent","CB","3","2","L.jpg","P.jpg","NaN","0","0","",""
"","too_slow_prompt","","html-keyboard-response","8","86789","0.0-1.0-7.0-0.0","1","0","73869","","null","","","null","","","","","","","","","","","","","","","","",""
"","time_out","","html-keyboard-response","9","88830","0.0-1.0-8.0-0.0","0","0","73869","","null","","","null","0","","","","","","","","","","","","","","","",""
"","ITI","","html-keyboard-response","10","89837","0.0-1.0-9.0","0","0","73869","","317","","","68","0","","","","","","","","","","","","","","","d",""
"","S1","","html-keyboard-response","11","90102","0.0-1.0-11.0","0","0","73869","","null","","","null","1","","","","","","","","","","","","","","","",""
"","ISI","","html-keyboard-response","12","90262","0.0-1.0-12.0","0","0","73869","","null","","","null","1","NaN","","","","","","","","","","","","","","",""
"","S2","","html-keyboard-response","13","90497","0.0-1.0-13.0","0","0","73869","","228","","","75","1","","k","1","1","training","adjacent","GF","7","6","Q.jpg","N.jpg","1","0","0","",""
"","feedback","","html-keyboard-response","14","91535","0.0-1.0-15.0-0.0","0","0","73869","","null","","","null","1","","","","","","","","","","","","","","","",""
"","time_out","","html-keyboard-response","15","93539","0.0-1.0-17.0-0.0","0","0","73869","","null","","","null","1","","","","","","","","","","","","","","","",""
"","ITI","","html-keyboard-response","16","94545","0.0-1.0-18.0","0","0","73869","","130","","","75","1","","","","","","","","","","","","","","","k",""
"","S1","","html-keyboard-response","17","94799","0.0-1.0-20.0","0","0","73869","","null","","","null","2","","","","","","","","","","","","","","","",""
"","ISI","","html-keyboard-response","18","94955","0.0-1.0-21.0","0","0","73869","","null","","","null","2","NaN","","","","","","","","","","","","","","",""
"","S2","","html-keyboard-response","19","95178","0.0-1.0-22.0","0","0","73869","","216","","","75","2","","k","1","2","training","adjacent","FG","6","7","N.jpg","Q.jpg","1","1","1","",""
"","feedback","","html-keyboard-response","20","96471","0.0-1.0-24.0-0.0","0","0","73869","","null","","","null","2","","","","","","","","","","","","","","","",""
"","ITI","","html-keyboard-response","21","97476","0.0-1.0-27.0","0","0","73869","","5","","","68","2","","","","","","","","","","","","","","","d",""
"","S1","","html-keyboard-response","22","97733","0.0-1.0-29.0","0","0","73869","","null","","","null","3","","","","","","","","","","","","","","","",""
"","ISI","","html-keyboard-response","23","97888","0.0-1.0-30.0","0","0","73869","","null","","","null","3","NaN","","","","","","","","","","","","","","",""
"","S2","","html-keyboard-response","24","97996","0.0-1.0-31.0","0","0","73869","","101","","","68","3","","d","1","3","training","adjacent","CB","3","2","L.jpg","P.jpg","0","0","1","",""
"","feedback","","html-keyboard-response","25","99003","0.0-1.0-33.0-0.0","0","0","73869","","null","","","null","3","","","","","","","","","","","","","","","",""
"","ITI","","html-keyboard-response","26","100006","0.0-1.0-36.0","0","0","73869","","127","","","75","3","","","","","","","","","","","","","","","k",""
"","S1","","html-keyboard-response","27","100261","0.0-1.0-38.0","0","0","73869","","null","","","null","4","","","","","","","","","","","","","","","",""
"","ISI","","html-keyboard-response","28","100416","0.0-1.0-39.0","0","0","73869","","10","","","68","4","d","","","","","","","","","","","","","","",""
"","S2","","html-keyboard-response","29","100440","0.0-1.0-40.0","0","0","73869","","18","","","75","4","","k","1","4","training","adjacent","ED","5","4","M.jpg","R.jpg","1","0","0","",""
"","feedback","","html-keyboard-response","30","101448","0.0-1.0-42.0-0.0","0","0","73869","","null","","","null","4","","","","","","","","","","","","","","","",""
"","time_out","","html-keyboard-response","31","103452","0.0-1.0-44.0-0.0","0","0","73869","","null","","","null","4","","","","","","","","","","","","","","","",""
"","ITI","","html-keyboard-response","32","104456","0.0-1.0-45.0","0","0","73869","","80","","","68","4","","","","","","","","","","","","","","","d",""
"","S1","","html-keyboard-response","33","104711","0.0-1.0-47.0","0","0","73869","","null","","","null","5","","","","","","","","","","","","","","","",""
"","ISI","","html-keyboard-response","34","104865","0.0-1.0-48.0","0","0","73869","","139","","","75","5","k","","","","","","","","","","","","","","",""
"","S2","","html-keyboard-response","35","105036","0.0-1.0-49.0","0","0","73869","","166","","","68","5","","d","1","5","training","adjacent","CD","3","4","L.jpg","R.jpg","0","1","0","",""
"","feedback","","html-keyboard-response","36","106042","0.0-1.0-51.0-0.0","0","0","73869","","null","","","null","5","","","","","","","","","","","","","","","",""
"","time_out","","html-keyboard-response","37","108050","0.0-1.0-53.0-0.0","0","0","73869","","null","","","null","5","","","","","","","","","","","","","","","",""
"","ITI","","html-keyboard-response","38","109056","0.0-1.0-54.0","0","0","73869","","6","","","68","5","","","","","","","","","","","","","","","d",""
"","S1","","html-keyboard-response","39","109313","0.0-1.0-56.0","0","0","73869","","null","","","null","6","","","","","","","","","","","","","","","",""
"","ISI","","html-keyboard-response","40","109468","0.0-1.0-57.0","0","0","73869","","78","","","68","6","d","","","","","","","","","","","","","","",""
"","S2","","html-keyboard-response","41","109604","0.0-1.0-58.0","0","0","73869","","131","","","75","6","","k","1","6","training","adjacent","BA","2","1","P.jpg","O.jpg","1","0","0","",""
"","feedback","","html-keyboard-response","42","110610","0.0-1.0-60.0-0.0","0","0","73869","","null","","","null","6","","","","","","","","","","","","","","","",""
"","time_out","","html-keyboard-response","43","112617","0.0-1.0-62.0-0.0","0","0","73869","","null","","","null","6","","","","","","","","","","","","","","","",""
"","ITI","","html-keyboard-response","44","113623","0.0-1.0-63.0","0","0","73869","","537","","","75","6","","","","","","","","","","","","","","","k",""
"","S1","","html-keyboard-response","45","113879","0.0-1.0-65.0","0","0","73869","","null","","","null","7","","","","","","","","","","","","","","","",""
"","ISI","","html-keyboard-response","46","114035","0.0-1.0-66.0","0","0","73869","","null","","","null","7","NaN","","","","","","","","","","","","","","",""
"","S2","","html-keyboard-response","47","114146","0.0-1.0-67.0","0","0","73869","","102","","","75","7","","k","1","7","training","adjacent","EF","5","6","M.jpg","N.jpg","1","1","1","",""
"","feedback","","html-keyboard-response","48","115152","0.0-1.0-69.0-0.0","0","0","73869","","null","","","null","7","","","","","","","","","","","","","","","",""
"","ITI","","html-keyboard-response","49","116159","0.0-1.0-72.0","0","0","73869","","2","","","75","7","","","","","","","","","","","","","","","k",""
"","S1","","html-keyboard-response","50","116415","0.0-1.0-74.0","0","0","73869","","null","","","null","8","","","","","","","","","","","","","","","",""
"","ISI","","html-keyboard-response","51","116568","0.0-1.0-75.0","0","0","73869","","null","","","null","8","NaN","","","","","","","","","","","","","","",""
"","S2","","html-keyboard-response","52","116833","0.0-1.0-76.0","0","0","73869","","null","","","null","8","","NaN","","","","","","","","","","","","","",""
"","response","","html-keyboard-response","53","116931","0.0-1.0-77.0-0.0","0","0","73869","","93","","","75","8","","","1","8","training","adjacent","ED","5","4","M.jpg","R.jpg","1","0","0","",""
"","feedback","","html-keyboard-response","54","117937","0.0-1.0-78.0-0.0","0","0","73869","","null","","","null","8","","","","","","","","","","","","","","","",""
"","time_out","","html-keyboard-response","55","119941","0.0-1.0-80.0-0.0","0","0","73869","","null","","","null","8","","","","","","","","","","","","","","","",""
"","ITI","","html-keyboard-response","56","120945","0.0-1.0-81.0","0","0","73869","","149","","","68","8","","","","","","","","","","","","","","","d",""
"","S1","","html-keyboard-response","57","121201","0.0-1.0-83.0","0","0","73869","","null","","","null","9","","","","","","","","","","","","","","","",""
"","ISI","","html-keyboard-response","58","121356","0.0-1.0-84.0","0","0","73869","","99","","","68","9","d","","","","","","","","","","","","","","",""
"","S2","","html-keyboard-response","59","121556","0.0-1.0-85.0","0","0","73869","","195","","","75","9","","k","1","9","training","adjacent","AB","1","2","O.jpg","P.jpg","1","1","1","",""
"","feedback","","html-keyboard-response","60","122563","0.0-1.0-87.0-0.0","0","0","73869","","null","","","null","9","","","","","","","","","","","","","","","",""
"","ITI","","html-keyboard-response","61","123569","0.0-1.0-90.0","0","0","73869","","188","","","75","9","","","","","","","","","","","","","","","k",""
"","S1","","html-keyboard-response","62","123824","0.0-1.0-92.0","0","0","73869","","null","","","null","10","","","","","","","","","","","","","","","",""
"","ISI","","html-keyboard-response","63","123978","0.0-1.0-93.0","0","0","73869","","66","","","75","10","k","","","","","","","","","","","","","","",""
"","S2","","html-keyboard-response","64","124235","0.0-1.0-94.0","0","0","73869","","null","","","null","10","","NaN","","","","","","","","","","","","","",""
"","response","","html-keyboard-response","65","124255","0.0-1.0-95.0-0.0","0","0","73869","","16","","","75","10","","","1","10","training","adjacent","DC","4","3","R.jpg","L.jpg","1","0","0","",""
"","feedback","","html-keyboard-response","66","125260","0.0-1.0-96.0-0.0","0","0","73869","","null","","","null","10","","","","","","","","","","","","","","","",""
"","time_out","","html-keyboard-response","67","127265","0.0-1.0-98.0-0.0","0","0","73869","","null","","","null","10","","","","","","","","","","","","","","","",""
"","ITI","","html-keyboard-response","68","128275","0.0-1.0-99.0","0","0","73869","","65","","","68","10","","","","","","","","","","","","","","","d",""
"","S1","","html-keyboard-response","69","128531","0.0-1.0-101.0","0","0","73869","","null","","","null","11","","","","","","","","","","","","","","","",""
"","ISI","","html-keyboard-response","70","128697","0.0-1.0-102.0","0","0","73869","","124","","","68","11","d","","","","","","","","","","","","","","",""
"","S2","","html-keyboard-response","71","128854","0.0-1.0-103.0","0","0","73869","","153","","","75","11","","k","1","11","training","adjacent","CB","3","2","L.jpg","P.jpg","1","0","0","",""
"","feedback","","html-keyboard-response","72","129859","0.0-1.0-105.0-0.0","0","0","73869","","null","","","null","11","","","","","","","","","","","","","","","",""
"","time_out","","html-keyboard-response","73","131866","0.0-1.0-107.0-0.0","0","0","73869","","null","","","null","11","","","","","","","","","","","","","","","",""
"","ITI","","html-keyboard-response","74","132872","0.0-1.0-108.0","0","0","73869","","186","","","75","11","","","","","","","","","","","","","","","k",""
"","S1","","html-keyboard-response","75","133129","0.0-1.0-110.0","0","0","73869","","null","","","null","12","","","","","","","","","","","","","","","",""
"","ISI","","html-keyboard-response","76","133282","0.0-1.0-111.0","0","0","73869","","null","","","null","12","NaN","","","","","","","","","","","","","","",""
"","S2","","html-keyboard-response","77","133336","0.0-1.0-112.0","0","0","73869","","52","","","75","12","","k","1","12","training","adjacent","DE","4","5","R.jpg","M.jpg","1","1","1","",""
"","feedback","","html-keyboard-response","78","134340","0.0-1.0-114.0-0.0","0","0","73869","","null","","","null","12","","","","","","","","","","","","","","","",""
"","ITI","","html-keyboard-response","79","135345","0.0-1.0-117.0","0","0","73869","","49","","","75","12","","","","","","","","","","","","","","","k",""
"","S1","","html-keyboard-response","80","135599","0.0-1.0-119.0","0","0","73869","","null","","","null","13","","","","","","","","","","","","","","","",""
"","ISI","","html-keyboard-response","81","135754","0.0-1.0-120.0","0","0","73869","","130","","","75","13","k","","","","","","","","","","","","","","",""
"","S2","","html-keyboard-response","82","136010","0.0-1.0-121.0","0","0","73869","","null","","","null","13","","NaN","","","","","","","","","","","","","",""
"","response","","html-keyboard-response","83","136053","0.0-1.0-122.0-0.0","0","0","73869","","40","","","68","13","","","1","13","training","adjacent","CB","3","2","L.jpg","P.jpg","0","0","1","",""
"","feedback","","html-keyboard-response","84","137059","0.0-1.0-123.0-0.0","0","0","73869","","null","","","null","13","","","","","","","","","","","","","","","",""
"","ITI","","html-keyboard-response","85","138065","0.0-1.0-126.0","0","0","73869","","88","","","75","13","","","","","","","","","","","","","","","k",""
"","S1","","html-keyboard-response","86","138323","0.0-1.0-128.0","0","0","73869","","null","","","null","14","","","","","","","","","","","","","","","",""
"","ISI","","html-keyboard-response","87","138475","0.0-1.0-129.0","0","0","73869","","null","","","null","14","NaN","","","","","","","","","","","","","","",""
"","S2","","html-keyboard-response","88","138554","0.0-1.0-130.0","0","0","73869","","75","","","75","14","","k","1","14","training","adjacent","BC","2","3","P.jpg","L.jpg","1","1","1","",""
"","feedback","","html-keyboard-response","89","139564","0.0-1.0-132.0-0.0","0","0","73869","","null","","","null","14","","","","","","","","","","","","","","","",""
"","ITI","","html-keyboard-response","90","140568","0.0-1.0-135.0","0","0","73869","","87","","","75","14","","","","","","","","","","","","","","","k",""
"","S1","","html-keyboard-response","91","140823","0.0-1.0-137.0","0","0","73869","","null","","","null","15","","","","","","","","","","","","","","","",""
"","ISI","","html-keyboard-response","92","140975","0.0-1.0-138.0","0","0","73869","","2","","","68","15","d","","","","","","","","","","","","","","",""
"","S2","","html-keyboard-response","93","141053","0.0-1.0-139.0","0","0","73869","","74","","","75","15","","k","1","15","training","adjacent","DC","4","3","R.jpg","L.jpg","1","0","0","",""
"","feedback","","html-keyboard-response","94","142059","0.0-1.0-141.0-0.0","0","0","73869","","null","","","null","15","","","","","","","","","","","","","","","",""
"","time_out","","html-keyboard-response","95","144069","0.0-1.0-143.0-0.0","0","0","73869","","null","","","null","15","","","","","","","","","","","","","","","",""
"","ITI","","html-keyboard-response","96","145074","0.0-1.0-144.0","0","0","73869","","90","","","75","15","","","","","","","","","","","","","","","k",""
"","S1","","html-keyboard-response","97","145328","0.0-1.0-146.0","0","0","73869","","null","","","null","16","","","","","","","","","","","","","","","",""
"","ISI","","html-keyboard-response","98","145484","0.0-1.0-147.0","0","0","73869","","17","","","68","16","d","","","","","","","","","","","","","","",""
"","S2","","html-keyboard-response","99","145637","0.0-1.0-148.0","0","0","73869","","149","","","68","16","","d","1","16","training","adjacent","CD","3","4","L.jpg","R.jpg","0","1","0","",""
"","feedback","","html-keyboard-response","100","146641","0.0-1.0-150.0-0.0","0","0","73869","","null","","","null","16","","","","","","","","","","","","","","","",""
"","time_out","","html-keyboard-response","101","148646","0.0-1.0-152.0-0.0","0","0","73869","","null","","","null","16","","","","","","","","","","","","","","","",""
"","ITI","","html-keyboard-response","102","149649","0.0-1.0-153.0","0","0","73869","","446","","","68","16","","","","","","","","","","","","","","","d",""
"","S1","","html-keyboard-response","103","149905","0.0-1.0-155.0","0","0","73869","","null","","","null","17","","","","","","","","","","","","","","","",""
"","ISI","","html-keyboard-response","104","150058","0.0-1.0-156.0","0","0","73869","","116","","","75","17","k","","","","","","","","","","","","","","",""
"","S2","","html-keyboard-response","105","150078","0.0-1.0-157.0","0","0","73869","","15","","","75","17","","k","1","17","training","adjacent","AB","1","2","O.jpg","P.jpg","1","1","1","",""
"","feedback","","html-keyboard-response","106","151091","0.0-1.0-159.0-0.0","0","0","73869","","null","","","null","17","","","","","","","","","","","","","","","",""
"","ITI","","html-keyboard-response","107","152098","0.0-1.0-162.0","0","0","73869","","39","","","68","17","","","","","","","","","","","","","","","d",""
"","S1","","html-keyboard-response","108","152353","0.0-1.0-164.0","0","0","73869","","null","","","null","18","","","","","","","","","","","","","","","",""
"","ISI","","html-keyboard-response","109","152517","0.0-1.0-165.0","0","0","73869","","null","","","null","18","NaN","","","","","","","","","","","","","","",""
"","S2","","html-keyboard-response","110","152773","0.0-1.0-166.0","0","0","73869","","null","","","null","18","","NaN","","","","","","","","","","","","","",""
"","response","","html-keyboard-response","111","152861","0.0-1.0-167.0-0.0","0","0","73869","","84","","","68","18","","","1","18","training","adjacent","FE","6","5","N.jpg","M.jpg","0","0","1","",""
"","feedback","","html-keyboard-response","112","154002","0.0-1.0-168.0-0.0","0","0","73869","","null","","","null","18","","","","","","","","","","","","","","","",""
"","ITI","","html-keyboard-response","113","155008","0.0-1.0-171.0","0","0","73869","","179","","","75","18","","","","","","","","","","","","","","","k",""
"","S1","","html-keyboard-response","114","155264","0.0-1.0-173.0","0","0","73869","","null","","","null","19","","","","","","","","","","","","","","","",""
"","ISI","","html-keyboard-response","115","155416","0.0-1.0-174.0","0","0","73869","","106","","","75","19","k","","","","","","","","","","","","","","",""
"","S2","","html-keyboard-response","116","155496","0.0-1.0-175.0","0","0","73869","","75","","","68","19","","d","1","19","training","adjacent","BC","2","3","P.jpg","L.jpg","0","1","0","",""
"","feedback","","html-keyboard-response","117","156503","0.0-1.0-177.0-0.0","0","0","73869","","null","","","null","19","","","","","","","","","","","","","","","",""
"","time_out","","html-keyboard-response","118","158510","0.0-1.0-179.0-0.0","0","0","73869","","null","","","null","19","","","","","","","","","","","","","","","",""
"","ITI","","html-keyboard-response","119","159517","0.0-1.0-180.0","0","0","73869","","24","","","75","19","","","","","","","","","","","","","","","k",""
"","S1","","html-keyboard-response","120","159774","0.0-1.0-182.0","0","0","73869","","null","","","null","20","","","","","","","","","","","","","","","",""
"","ISI","","html-keyboard-response","121","159927","0.0-1.0-183.0","0","0","73869","","136","","","75","20","k","","","","","","","","","","","","","","",""
"","S2","","html-keyboard-response","122","160183","0.0-1.0-184.0","0","0","73869","","null","","","null","20","","NaN","","","","","","","","","","","","","",""
"","response","","html-keyboard-response","123","160233","0.0-1.0-185.0-0.0","0","0","73869","","47","","","75","20","","","1","20","training","adjacent","BC","2","3","P.jpg","L.jpg","1","1","1","",""
"","feedback","","html-keyboard-response","124","161314","0.0-1.0-186.0-0.0","0","0","73869","","null","","","null","20","","","","","","","","","","","","","","","",""
"","ITI","","html-keyboard-response","125","162330","0.0-1.0-189.0","0","0","73869","","7","","","68","20","","","","","","","","","","","","","","","d",""
"","S1","","html-keyboard-response","126","162586","0.0-1.0-191.0","0","0","73869","","null","","","null","21","","","","","","","","","","","","","","","",""
"","ISI","","html-keyboard-response","127","162740","0.0-1.0-192.0","0","0","73869","","64","","","75","21","k","","","","","","","","","","","","","","",""
"","S2","","html-keyboard-response","128","162915","0.0-1.0-193.0","0","0","73869","","171","","","75","21","","k","1","21","training","adjacent","FG","6","7","N.jpg","Q.jpg","1","1","1","",""
"","feedback","","html-keyboard-response","129","163920","0.0-1.0-195.0-0.0","0","0","73869","","null","","","null","21","","","","","","","","","","","","","","","",""
"","ITI","","html-keyboard-response","130","164928","0.0-1.0-198.0","0","0","73869","","90","","","68","21","","","","","","","","","","","","","","","d",""
"","S1","","html-keyboard-response","131","165182","0.0-1.0-200.0","0","0","73869","","null","","","null","22","","","","","","","","","","","","","","","",""
"","ISI","","html-keyboard-response","132","165340","0.0-1.0-201.0","0","0","73869","","38","","","75","22","k","","","","","","","","","","","","","","",""
"","S2","","html-keyboard-response","133","165434","0.0-1.0-202.0","0","0","73869","","90","","","68","22","","d","1","22","training","adjacent","GF","7","6","Q.jpg","N.jpg","0","0","1","",""
"","feedback","","html-keyboard-response","134","166438","0.0-1.0-204.0-0.0","0","0","73869","","null","","","null","22","","","","","","","","","","","","","","","",""
"","ITI","","html-keyboard-response","135","167455","0.0-1.0-207.0","0","0","73869","","92","","","75","22","","","","","","","","","","","","","","","k",""
"","S1","","html-keyboard-response","136","167710","0.0-1.0-209.0","0","0","73869","","null","","","null","23","","","","","","","","","","","","","","","",""
"","ISI","","html-keyboard-response","137","167862","0.0-1.0-210.0","0","0","73869","","null","","","null","23","NaN","","","","","","","","","","","","","","",""
"","S2","","html-keyboard-response","138","168017","0.0-1.0-211.0","0","0","73869","","152","","","75","23","","k","1","23","training","adjacent","GF","7","6","Q.jpg","N.jpg","1","0","0","",""
"","feedback","","html-keyboard-response","139","169032","0.0-1.0-213.0-0.0","0","0","73869","","null","","","null","23","","","","","","","","","","","","","","","",""
"","time_out","","html-keyboard-response","140","171040","0.0-1.0-215.0-0.0","0","0","73869","","null","","","null","23","","","","","","","","","","","","","","","",""
"","ITI","","html-keyboard-response","141","172045","0.0-1.0-216.0","0","0","73869","","0","","","75","23","","","","","","","","","","","","","","","k",""
"","S1","","html-keyboard-response","142","172301","0.0-1.0-218.0","0","0","73869","","null","","","null","24","","","","","","","","","","","","","","","",""
"","ISI","","html-keyboard-response","143","172455","0.0-1.0-219.0","0","0","73869","","110","","","75","24","k","","","","","","","","","","","","","","",""
"","S2","","html-keyboard-response","144","172596","0.0-1.0-220.0","0","0","73869","","135","","","75","24","","k","1","24","training","adjacent","FE","6","5","N.jpg","M.jpg","1","0","0","",""
"","feedback","","html-keyboard-response","145","173601","0.0-1.0-222.0-0.0","0","0","73869","","null","","","null","24","","","","","","","","","","","","","","","",""
"","time_out","","html-keyboard-response","146","175609","0.0-1.0-224.0-0.0","0","0","73869","","null","","","null","24","","","","","","","","","","","","","","","",""
"","ITI","","html-keyboard-response","147","176614","0.0-1.0-225.0","0","0","73869","","42","","","75","24","","","","","","","","","","","","","","","k",""
"","S1","","html-keyboard-response","148","176870","0.0-1.0-227.0","0","0","73869","","null","","","null","25","","","","","","","","","","","","","","","",""
"","ISI","","html-keyboard-response","149","177025","0.0-1.0-228.0","0","0","73869","","null","","","null","25","NaN","","","","","","","","","","","","","","",""
"","S2","","html-keyboard-response","150","177074","0.0-1.0-229.0","0","0","73869","","45","","","68","25","","d","1","25","training","adjacent","BC","2","3","P.jpg","L.jpg","0","1","0","",""
"","feedback","","html-keyboard-response","151","178173","0.0-1.0-231.0-0.0","0","0","73869","","null","","","null","25","","","","","","","","","","","","","","","",""
"","time_out","","html-keyboard-response","152","180186","0.0-1.0-233.0-0.0","0","0","73869","","null","","","null","25","","","","","","","","","","","","","","","",""
"","ITI","","html-keyboard-response","153","181195","0.0-1.0-234.0","0","0","73869","","78","","","75","25","","","","","","","","","","","","","","","k",""
"","S1","","html-keyboard-response","154","181454","0.0-1.0-236.0","0","0","73869","","null","","","null","26","","","","","","","","","","","","","","","",""
"","ISI","","html-keyboard-response","155","181614","0.0-1.0-237.0","0","0","73869","","null","","","null","26","NaN","","","","","","","","","","","","","","",""
"","S2","","html-keyboard-response","156","181674","0.0-1.0-238.0","0","0","73869","","54","","","68","26","","d","1","26","training","adjacent","BA","2","1","P.jpg","O.jpg","0","0","1","",""
"","feedback","","html-keyboard-response","157","182709","0.0-1.0-240.0-0.0","0","0","73869","","null","","","null","26","","","","","","","","","","","","","","","",""
"","ITI","","html-keyboard-response","158","183713","0.0-1.0-243.0","0","0","73869","","99","","","75","26","","","","","","","","","","","","","","","k",""
"","S1","","html-keyboard-response","159","183967","0.0-1.0-245.0","0","0","73869","","null","","","null","27","","","","","","","","","","","","","","","",""
"","ISI","","html-keyboard-response","160","184120","0.0-1.0-246.0","0","0","73869","","124","","","68","27","d","","","","","","","","","","","","","","",""
"","S2","","html-keyboard-response","161","184374","0.0-1.0-247.0","0","0","73869","","null","","","null","27","","NaN","","","","","","","","","","","","","",""
"","response","","html-keyboard-response","162","184546","0.0-1.0-248.0-0.0","0","0","73869","","166","","","75","27","","","1","27","training","adjacent","CD","3","4","L.jpg","R.jpg","1","1","1","",""
"","feedback","","html-keyboard-response","163","185550","0.0-1.0-249.0-0.0","0","0","73869","","null","","","null","27","","","","","","","","","","","","","","","",""
"","ITI","","html-keyboard-response","164","186555","0.0-1.0-252.0","0","0","73869","","10","","","75","27","","","","","","","","","","","","","","","k",""
"","S1","","html-keyboard-response","165","186809","0.0-1.0-254.0","0","0","73869","","null","","","null","28","","","","","","","","","","","","","","","",""
"","ISI","","html-keyboard-response","166","186963","0.0-1.0-255.0","0","0","73869","","null","","","null","28","NaN","","","","","","","","","","","","","","",""
"","S2","","html-keyboard-response","167","186966","0.0-1.0-256.0","0","0","73869","","0","","","75","28","","k","1","28","training","adjacent","FE","6","5","N.jpg","M.jpg","1","0","0","",""
"","feedback","","html-keyboard-response","168","187971","0.0-1.0-258.0-0.0","0","0","73869","","null","","","null","28","","","","","","","","","","","","","","","",""
"","time_out","","html-keyboard-response","169","189988","0.0-1.0-260.0-0.0","0","0","73869","","null","","","null","28","","","","","","","","","","","","","","","",""
"","ITI","","html-keyboard-response","170","190995","0.0-1.0-261.0","0","0","73869","","161","","","75","28","","","","","","","","","","","","","","","k",""
"","S1","","html-keyboard-response","171","191251","0.0-1.0-263.0","0","0","73869","","null","","","null","29","","","","","","","","","","","","","","","",""
"","ISI","","html-keyboard-response","172","191405","0.0-1.0-264.0","0","0","73869","","25","","","75","29","k","","","","","","","","","","","","","","",""
"","S2","","html-keyboard-response","173","191453","0.0-1.0-265.0","0","0","73869","","45","","","68","29","","d","1","29","training","adjacent","AB","1","2","O.jpg","P.jpg","0","1","0","",""
"","feedback","","html-keyboard-response","174","192460","0.0-1.0-267.0-0.0","0","0","73869","","null","","","null","29","","","","","","","","","","","","","","","",""
"","time_out","","html-keyboard-response","175","194468","0.0-1.0-269.0-0.0","0","0","73869","","null","","","null","29","","","","","","","","","","","","","","","",""
"","ITI","","html-keyboard-response","176","195485","0.0-1.0-270.0","0","0","73869","","17","","","68","29","","","","","","","","","","","","","","","d",""
"","S1","","html-keyboard-response","177","195739","0.0-1.0-272.0","0","0","73869","","null","","","null","30","","","","","","","","","","","","","","","",""
"","ISI","","html-keyboard-response","178","195899","0.0-1.0-273.0","0","0","73869","","0","","","68","30","d","","","","","","","","","","","","","","",""
"","S2","","html-keyboard-response","179","195941","0.0-1.0-274.0","0","0","73869","","38","","","75","30","","k","1","30","training","adjacent","DE","4","5","R.jpg","M.jpg","1","1","1","",""
"","feedback","","html-keyboard-response","180","196946","0.0-1.0-276.0-0.0","0","0","73869","","null","","","null","30","","","","","","","","","","","","","","","",""
"","ITI","","html-keyboard-response","181","197953","0.0-1.0-279.0","0","0","73869","","303","","","75","30","","","","","","","","","","","","","","","k",""
"","S1","","html-keyboard-response","182","198208","0.0-1.0-281.0","0","0","73869","","null","","","null","31","","","","","","","","","","","","","","","",""
"","ISI","","html-keyboard-response","183","198359","0.0-1.0-282.0","0","0","73869","","43","","","68","31","d","","","","","","","","","","","","","","",""
"","S2","","html-keyboard-response","184","198396","0.0-1.0-283.0","0","0","73869","","31","","","75","31","","k","1","31","training","adjacent","GF","7","6","Q.jpg","N.jpg","1","0","0","",""
"","feedback","","html-keyboard-response","185","199401","0.0-1.0-285.0-0.0","0","0","73869","","null","","","null","31","","","","","","","","","","","","","","","",""
"","time_out","","html-keyboard-response","186","201418","0.0-1.0-287.0-0.0","0","0","73869","","null","","","null","31","","","","","","","","","","","","","","","",""
"","ITI","","html-keyboard-response","187","202426","0.0-1.0-288.0","0","0","73869","","655","","","75","31","","","","","","","","","","","","","","","k",""
"","S1","","html-keyboard-response","188","202781","0.0-1.0-290.0","0","0","73869","","null","","","null","32","","","","","","","","","","","","","","","",""
"","ISI","","html-keyboard-response","189","202936","0.0-1.0-291.0","0","0","73869","","null","","","null","32","NaN","","","","","","","","","","","","","","",""
"","S2","","html-keyboard-response","190","203066","0.0-1.0-292.0","0","0","73869","","125","","","68","32","","d","1","32","training","adjacent","ED","5","4","M.jpg","R.jpg","0","0","1","",""
"","feedback","","html-keyboard-response","191","204072","0.0-1.0-294.0-0.0","0","0","73869","","null","","","null","32","","","","","","","","","","","","","","","",""
"","ITI","","html-keyboard-response","192","205075","0.0-1.0-297.0","0","0","73869","","39","","","75","32","","","","","","","","","","","","","","","k",""
"","S1","","html-keyboard-response","193","205601","0.0-1.0-299.0","0","0","73869","","null","","","null","33","","","","","","","","","","","","","","","",""
"","ISI","","html-keyboard-response","194","205758","0.0-1.0-300.0","0","0","73869","","11","","","68","33","d","","","","","","","","","","","","","","",""
"","S2","","html-keyboard-response","195","205874","0.0-1.0-301.0","0","0","73869","","112","","","75","33","","k","1","33","training","adjacent","CD","3","4","L.jpg","R.jpg","1","1","1","",""
"","feedback","","html-keyboard-response","196","206882","0.0-1.0-303.0-0.0","0","0","73869","","null","","","null","33","","","","","","","","","","","","","","","",""
"","ITI","","html-keyboard-response","197","207898","0.0-1.0-306.0","0","0","73869","","51","","","68","33","","","","","","","","","","","","","","","d",""
"","S1","","html-keyboard-response","198","208151","0.0-1.0-308.0","0","0","73869","","null","","","null","34","","","","","","","","","","","","","","","",""
"","ISI","","html-keyboard-response","199","208306","0.0-1.0-309.0","0","0","73869","","40","","","68","34","d","","","","","","","","","","","","","","",""
"","S2","","html-keyboard-response","200","208313","0.0-1.0-310.0","0","0","73869","","3","","","75","34","","k","1","34","training","adjacent","DE","4","5","R.jpg","M.jpg","1","1","1","",""
"","feedback","","html-keyboard-response","201","209322","0.0-1.0-312.0-0.0","0","0","73869","","null","","","null","34","","","","","","","","","","","","","","","",""
"","ITI","","html-keyboard-response","202","210331","0.0-1.0-315.0","0","0","73869","","106","","","75","34","","","","","","","","","","","","","","","k",""
"","S1","","html-keyboard-response","203","210586","0.0-1.0-317.0","0","0","73869","","null","","","null","35","","","","","","","","","","","","","","","",""
"","ISI","","html-keyboard-response","204","210739","0.0-1.0-318.0","0","0","73869","","25","","","68","35","d","","","","","","","","","","","","","","",""
"","S2","","html-keyboard-response","205","210777","0.0-1.0-319.0","0","0","73869","","33","","","75","35","","k","1","35","training","adjacent","ED","5","4","M.jpg","R.jpg","1","0","0","",""
"","feedback","","html-keyboard-response","206","211810","0.0-1.0-321.0-0.0","0","0","73869","","null","","","null","35","","","","","","","","","","","","","","","",""
"","time_out","","html-keyboard-response","207","213826","0.0-1.0-323.0-0.0","0","0","73869","","null","","","null","35","","","","","","","","","","","","","","","",""
"","ITI","","html-keyboard-response","208","214856","0.0-1.0-324.0","0","0","73869","","13","","","68","35","","","","","","","","","","","","","","","d",""
"","S1","","html-keyboard-response","209","215112","0.0-1.0-326.0","0","0","73869","","null","","","null","36","","","","","","","","","","","","","","","",""
"","ISI","","html-keyboard-response","210","215265","0.0-1.0-327.0","0","0","73869","","null","","","null","36","NaN","","","","","","","","","","","","","","",""
"","S2","","html-keyboard-response","211","215454","0.0-1.0-328.0","0","0","73869","","184","","","75","36","","k","1","36","training","adjacent","EF","5","6","M.jpg","N.jpg","1","1","1","",""
"","feedback","","html-keyboard-response","212","216461","0.0-1.0-330.0-0.0","0","0","73869","","null","","","null","36","","","","","","","","","","","","","","","",""
"","ITI","","html-keyboard-response","213","217470","0.0-1.0-333.0","0","0","73869","","290","","","75","36","","","","","","","","","","","","","","","k",""
"","S1","","html-keyboard-response","214","217724","0.0-1.0-335.0","0","0","73869","","null","","","null","37","","","","","","","","","","","","","","","",""
"","ISI","","html-keyboard-response","215","217885","0.0-1.0-336.0","0","0","73869","","null","","","null","37","NaN","","","","","","","","","","","","","","",""
"","S2","","html-keyboard-response","216","218003","0.0-1.0-337.0","0","0","73869","","115","","","75","37","","k","1","37","training","adjacent","DE","4","5","R.jpg","M.jpg","1","1","1","",""
"","feedback","","html-keyboard-response","217","219007","0.0-1.0-339.0-0.0","0","0","73869","","null","","","null","37","","","","","","","","","","","","","","","",""
"","ITI","","html-keyboard-response","218","220011","0.0-1.0-342.0","0","0","73869","","85","","","75","37","","","","","","","","","","","","","","","k",""
"","S1","","html-keyboard-response","219","220267","0.0-1.0-344.0","0","0","73869","","null","","","null","38","","","","","","","","","","","","","","","",""
"","ISI","","html-keyboard-response","220","220434","0.0-1.0-345.0","0","0","73869","","null","","","null","38","NaN","","","","","","","","","","","","","","",""
"","S2","","html-keyboard-response","221","220448","0.0-1.0-346.0","0","0","73869","","6","","","75","38","","k","1","38","training","adjacent","FE","6","5","N.jpg","M.jpg","1","0","0","",""
"","feedback","","html-keyboard-response","222","221454","0.0-1.0-348.0-0.0","0","0","73869","","null","","","null","38","","","","","","","","","","","","","","","",""
"","time_out","","html-keyboard-response","223","223460","0.0-1.0-350.0-0.0","0","0","73869","","null","","","null","38","","","","","","","","","","","","","","","",""
"","ITI","","html-keyboard-response","224","224465","0.0-1.0-351.0","0","0","73869","","399","","","68","38","","","","","","","","","","","","","","","d",""
"","S1","","html-keyboard-response","225","224720","0.0-1.0-353.0","0","0","73869","","null","","","null","39","","","","","","","","","","","","","","","",""
"","ISI","","html-keyboard-response","226","224874","0.0-1.0-354.0","0","0","73869","","72","","","75","39","k","","","","","","","","","","","","","","",""
"","S2","","html-keyboard-response","227","224996","0.0-1.0-355.0","0","0","73869","","72","","","75","39","","k","1","39","training","adjacent","EF","5","6","M.jpg","N.jpg","1","1","1","",""
"","feedback","","html-keyboard-response","228","226024","0.0-1.0-357.0-0.0","0","0","73869","","null","","","null","39","","","","","","","","","","","","","","","",""
"","ITI","","html-keyboard-response","229","227034","0.0-1.0-360.0","0","0","73869","","147","","","68","39","","","","","","","","","","","","","","","d",""
"","S1","","html-keyboard-response","230","227288","0.0-1.0-362.0","0","0","73869","","null","","","null","40","","","","","","","","","","","","","","","",""
"","ISI","","html-keyboard-response","231","227462","0.0-1.0-363.0","0","0","73869","","92","","","75","40","k","","","","","","","","","","","","","","",""
"","S2","","html-keyboard-response","232","227656","0.0-1.0-364.0","0","0","73869","","187","","","75","40","","k","1","40","training","adjacent","AB","1","2","O.jpg","P.jpg","1","1","1","",""
"","feedback","","html-keyboard-response","233","228664","0.0-1.0-366.0-0.0","0","0","73869","","null","","","null","40","","","","","","","","","","","","","","","",""
"","ITI","","html-keyboard-response","234","229669","0.0-1.0-369.0","0","0","73869","","36","","","68","40","","","","","","","","","","","","","","","d",""
"","S1","","html-keyboard-response","235","229926","0.0-1.0-371.0","0","0","73869","","null","","","null","41","","","","","","","","","","","","","","","",""
"","ISI","","html-keyboard-response","236","230080","0.0-1.0-372.0","0","0","73869","","60","","","75","41","k","","","","","","","","","","","","","","",""
"","S2","","html-keyboard-response","237","230154","0.0-1.0-373.0","0","0","73869","","69","","","68","41","","d","1","41","training","adjacent","FG","6","7","N.jpg","Q.jpg","0","1","0","",""
"","feedback","","html-keyboard-response","238","231161","0.0-1.0-375.0-0.0","0","0","73869","","null","","","null","41","","","","","","","","","","","","","","","",""
"","time_out","","html-keyboard-response","239","233166","0.0-1.0-377.0-0.0","0","0","73869","","null","","","null","41","","","","","","","","","","","","","","","",""
"","ITI","","html-keyboard-response","240","234172","0.0-1.0-378.0","0","0","73869","","226","","","75","41","","","","","","","","","","","","","","","k",""
"","S1","","html-keyboard-response","241","234429","0.0-1.0-380.0","0","0","73869","","null","","","null","42","","","","","","","","","","","","","","","",""
"","ISI","","html-keyboard-response","242","234584","0.0-1.0-381.0","0","0","73869","","null","","","null","42","NaN","","","","","","","","","","","","","","",""
"","S2","","html-keyboard-response","243","234596","0.0-1.0-382.0","0","0","73869","","5","","","75","42","","k","1","42","training","adjacent","DC","4","3","R.jpg","L.jpg","1","0","0","",""
"","feedback","","html-keyboard-response","244","235600","0.0-1.0-384.0-0.0","0","0","73869","","null","","","null","42","","","","","","","","","","","","","","","",""
"","time_out","","html-keyboard-response","245","237605","0.0-1.0-386.0-0.0","0","0","73869","","null","","","null","42","","","","","","","","","","","","","","","",""
"","ITI","","html-keyboard-response","246","238611","0.0-1.0-387.0","0","0","73869","","511","","","75","42","","","","","","","","","","","","","","","k",""
"","S1","","html-keyboard-response","247","238867","0.0-1.0-389.0","0","0","73869","","null","","","null","43","","","","","","","","","","","","","","","",""
"","ISI","","html-keyboard-response","248","239021","0.0-1.0-390.0","0","0","73869","","133","","","75","43","k","","","","","","","","","","","","","","",""
"","S2","","html-keyboard-response","249","239276","0.0-1.0-391.0","0","0","73869","","null","","","null","43","","NaN","","","","","","","","","","","","","",""
"","response","","html-keyboard-response","250","240136","0.0-1.0-392.0-0.0","0","0","73869","","856","","","75","43","","","1","43","training","adjacent","FG","6","7","N.jpg","Q.jpg","1","1","1","",""
"","feedback","","html-keyboard-response","251","241143","0.0-1.0-393.0-0.0","0","0","73869","","null","","","null","43","","","","","","","","","","","","","","","",""
"","ITI","","html-keyboard-response","252","242172","0.0-1.0-396.0","0","0","73869","","207","","","68","43","","","","","","","","","","","","","","","d",""
"","S1","","html-keyboard-response","253","242446","0.0-1.0-398.0","0","0","73869","","null","","","null","44","","","","","","","","","","","","","","","",""
"","ISI","","html-keyboard-response","254","242601","0.0-1.0-399.0","0","0","73869","","null","","","null","44","NaN","","","","","","","","","","","","","","",""
"","S2","","html-keyboard-response","255","242774","0.0-1.0-400.0","0","0","73869","","170","","","68","44","","d","1","44","training","adjacent","EF","5","6","M.jpg","N.jpg","0","1","0","",""
"","feedback","","html-keyboard-response","256","243778","0.0-1.0-402.0-0.0","0","0","73869","","null","","","null","44","","","","","","","","","","","","","","","",""
"","time_out","","html-keyboard-response","257","245784","0.0-1.0-404.0-0.0","0","0","73869","","null","","","null","44","","","","","","","","","","","","","","","",""
"","ITI","","html-keyboard-response","258","246790","0.0-1.0-405.0","0","0","73869","","142","","","68","44","","","","","","","","","","","","","","","d",""
"","S1","","html-keyboard-response","259","247044","0.0-1.0-407.0","0","0","73869","","null","","","null","45","","","","","","","","","","","","","","","",""
"","ISI","","html-keyboard-response","260","247197","0.0-1.0-408.0","0","0","73869","","56","","","68","45","d","","","","","","","","","","","","","","",""
"","S2","","html-keyboard-response","261","247396","0.0-1.0-409.0","0","0","73869","","196","","","68","45","","d","1","45","training","adjacent","BA","2","1","P.jpg","O.jpg","0","0","1","",""
"","feedback","","html-keyboard-response","262","248400","0.0-1.0-411.0-0.0","0","0","73869","","null","","","null","45","","","","","","","","","","","","","","","",""
"","ITI","","html-keyboard-response","263","249404","0.0-1.0-414.0","0","0","73869","","195","","","68","45","","","","","","","","","","","","","","","d",""
"","S1","","html-keyboard-response","264","249659","0.0-1.0-416.0","0","0","73869","","null","","","null","46","","","","","","","","","","","","","","","",""
"","ISI","","html-keyboard-response","265","249811","0.0-1.0-417.0","0","0","73869","","26","","","75","46","k","","","","","","","","","","","","","","",""
"","S2","","html-keyboard-response","266","249855","0.0-1.0-418.0","0","0","73869","","39","","","68","46","","d","1","46","training","adjacent","DC","4","3","R.jpg","L.jpg","0","0","1","",""
"","feedback","","html-keyboard-response","267","250859","0.0-1.0-420.0-0.0","0","0","73869","","null","","","null","46","","","","","","","","","","","","","","","",""
"","ITI","","html-keyboard-response","268","251863","0.0-1.0-423.0","0","0","73869","","52","","","75","46","","","","","","","","","","","","","","","k",""
"","S1","","html-keyboard-response","269","252117","0.0-1.0-425.0","0","0","73869","","null","","","null","47","","","","","","","","","","","","","","","",""
"","ISI","","html-keyboard-response","270","252271","0.0-1.0-426.0","0","0","73869","","null","","","null","47","NaN","","","","","","","","","","","","","","",""
"","S2","","html-keyboard-response","271","252403","0.0-1.0-427.0","0","0","73869","","128","","","75","47","","k","1","47","training","adjacent","BA","2","1","P.jpg","O.jpg","1","0","0","",""
"","feedback","","html-keyboard-response","272","253416","0.0-1.0-429.0-0.0","0","0","73869","","null","","","null","47","","","","","","","","","","","","","","","",""
"","time_out","","html-keyboard-response","273","255433","0.0-1.0-431.0-0.0","0","0","73869","","null","","","null","47","","","","","","","","","","","","","","","",""
"","ITI","","html-keyboard-response","274","256439","0.0-1.0-432.0","0","0","73869","","50","","","68","47","","","","","","","","","","","","","","","d",""
"","block_over","","html-keyboard-response","275","262233","0.0-1.0-433.0-0.0","0","0","73869","","5786","","","32","47","","","","","","","","","","","","","","","",""
"","S1","","html-keyboard-response","276","262489","0.0-1.0-434.0","0","0","73869","","null","","","null","48","","","","","","","","","","","","","","","",""
"","ISI","","html-keyboard-response","277","262642","0.0-1.0-435.0","0","0","73869","","null","","","null","48","NaN","","","","","","","","","","","","","","",""
"","S2","","html-keyboard-response","278","262896","0.0-1.0-436.0","0","0","73869","","null","","","null","48","","NaN","","","","","","","","","","","","","",""
"","response","","html-keyboard-response","279","263710","0.0-1.0-437.0-0.0","0","0","73869","","803","","","68","48","","","2","48","training","adjacent","FG","6","7","N.jpg","Q.jpg","0","1","0","",""
"","feedback","","html-keyboard-response","280","264715","0.0-1.0-438.0-0.0","0","0","73869","","null","","","null","48","","","","","","","","","","","","","","","",""
"","time_out","","html-keyboard-response","281","266721","0.0-1.0-440.0-0.0","0","0","73869","","null","","","null","48","","","","","","","","","","","","","","","",""
"","ITI","","html-keyboard-response","282","267727","0.0-1.0-441.0","0","0","73869","","157","","","75","48","","","","","","","","","","","","","","","k",""
"","S1","","html-keyboard-response","283","267984","0.0-1.0-443.0","0","0","73869","","null","","","null","49","","","","","","","","","","","","","","","",""
"","ISI","","html-keyboard-response","284","268162","0.0-1.0-444.0","0","0","73869","","null","","","null","49","NaN","","","","","","","","","","","","","","",""
"","S2","","html-keyboard-response","285","268420","0.0-1.0-445.0","0","0","73869","","null","","","null","49","","NaN","","","","","","","","","","","","","",""
"","response","","html-keyboard-response","286","268614","0.0-1.0-446.0-0.0","0","0","73869","","190","","","68","49","","","2","49","training","adjacent","DE","4","5","R.jpg","M.jpg","0","1","0","",""
"","feedback","","html-keyboard-response","287","269633","0.0-1.0-447.0-0.0","0","0","73869","","null","","","null","49","","","","","","","","","","","","","","","",""
"","time_out","","html-keyboard-response","288","271638","0.0-1.0-449.0-0.0","0","0","73869","","null","","","null","49","","","","","","","","","","","","","","","",""
"","ITI","","html-keyboard-response","289","272643","0.0-1.0-450.0","0","0","73869","","232","","","68","49","","","","","","","","","","","","","","","d",""
"","S1","","html-keyboard-response","290","272899","0.0-1.0-452.0","0","0","73869","","null","","","null","50","","","","","","","","","","","","","","","",""
"","ISI","","html-keyboard-response","291","273076","0.0-1.0-453.0","0","0","73869","","null","","","null","50","NaN","","","","","","","","","","","","","","",""
"","S2","","html-keyboard-response","292","273179","0.0-1.0-454.0","0","0","73869","","94","","","75","50","","k","2","50","training","adjacent","CD","3","4","L.jpg","R.jpg","1","1","1","",""
"","feedback","","html-keyboard-response","293","274186","0.0-1.0-456.0-0.0","0","0","73869","","null","","","null","50","","","","","","","","","","","","","","","",""
"","ITI","","html-keyboard-response","294","275188","0.0-1.0-459.0","0","0","73869","","446","","","75","50","","","","","","","","","","","","","","","k",""
"","S1","","html-keyboard-response","295","275443","0.0-1.0-461.0","0","0","73869","","null","","","null","51","","","","","","","","","","","","","","","",""
"","ISI","","html-keyboard-response","296","275598","0.0-1.0-462.0","0","0","73869","","null","","","null","51","NaN","","","","","","","","","","","","","","",""
"","S2","","html-keyboard-response","297","275655","0.0-1.0-463.0","0","0","73869","","53","","","75","51","","k","2","51","training","adjacent","BC","2","3","P.jpg","L.jpg","1","1","1","",""
"","feedback","","html-keyboard-response","298","276662","0.0-1.0-465.0-0.0","0","0","73869","","null","","","null","51","","","","","","","","","","","","","","","",""
"","ITI","","html-keyboard-response","299","277751","0.0-1.0-468.0","0","0","73869","","829","","","75","51","","","","","","","","","","","","","","","k",""
"","S1","","html-keyboard-response","300","278006","0.0-1.0-470.0","0","0","73869","","null","","","null","52","","","","","","","","","","","","","","","",""
"","ISI","","html-keyboard-response","301","278159","0.0-1.0-471.0","0","0","73869","","null","","","null","52","NaN","","","","","","","","","","","","","","",""
"","S2","","html-keyboard-response","302","278314","0.0-1.0-472.0","0","0","73869","","152","","","68","52","","d","2","52","training","adjacent","DC","4","3","R.jpg","L.jpg","0","0","1","",""
"","feedback","","html-keyboard-response","303","279321","0.0-1.0-474.0-0.0","0","0","73869","","null","","","null","52","","","","","","","","","","","","","","","",""
"","ITI","","html-keyboard-response","304","280344","0.0-1.0-477.0","0","0","73869","","108","","","75","52","","","","","","","","","","","","","","","k",""
"","S1","","html-keyboard-response","305","280605","0.0-1.0-479.0","0","0","73869","","null","","","null","53","","","","","","","","","","","","","","","",""
"","ISI","","html-keyboard-response","306","280758","0.0-1.0-480.0","0","0","73869","","null","","","null","53","NaN","","","","","","","","","","","","","","",""
"","S2","","html-keyboard-response","307","281012","0.0-1.0-481.0","0","0","73869","","null","","","null","53","","NaN","","","","","","","","","","","","","",""
"","response","","html-keyboard-response","308","281015","0.0-1.0-482.0-0.0","0","0","73869","","0","","","68","53","","","2","53","training","adjacent","CB","3","2","L.jpg","P.jpg","0","0","1","",""
"","feedback","","html-keyboard-response","309","282019","0.0-1.0-483.0-0.0","0","0","73869","","null","","","null","53","","","","","","","","","","","","","","","",""
"","ITI","","html-keyboard-response","310","283028","0.0-1.0-486.0","0","0","73869","","42","","","75","53","","","","","","","","","","","","","","","k",""
"","S1","","html-keyboard-response","311","283287","0.0-1.0-488.0","0","0","73869","","null","","","null","54","","","","","","","","","","","","","","","",""
"","ISI","","html-keyboard-response","312","283442","0.0-1.0-489.0","0","0","73869","","39","","","75","54","k","","","","","","","","","","","","","","",""
"","S2","","html-keyboard-response","313","283696","0.0-1.0-490.0","0","0","73869","","null","","","null","54","","NaN","","","","","","","","","","","","","",""
"","response","","html-keyboard-response","314","283813","0.0-1.0-491.0-0.0","0","0","73869","","113","","","68","54","","","2","54","training","adjacent","EF","5","6","M.jpg","N.jpg","0","1","0","",""
"","feedback","","html-keyboard-response","315","284819","0.0-1.0-492.0-0.0","0","0","73869","","null","","","null","54","","","","","","","","","","","","","","","",""
"","time_out","","html-keyboard-response","316","286823","0.0-1.0-494.0-0.0","0","0","73869","","null","","","null","54","","","","","","","","","","","","","","","",""
"","ITI","","html-keyboard-response","317","287830","0.0-1.0-495.0","0","0","73869","","66","","","75","54","","","","","","","","","","","","","","","k",""
"","S1","","html-keyboard-response","318","288085","0.0-1.0-497.0","0","0","73869","","null","","","null","55","","","","","","","","","","","","","","","",""
"","ISI","","html-keyboard-response","319","288239","0.0-1.0-498.0","0","0","73869","","null","","","null","55","NaN","","","","","","","","","","","","","","",""
"","S2","","html-keyboard-response","320","288434","0.0-1.0-499.0","0","0","73869","","190","","","75","55","","k","2","55","training","adjacent","DC","4","3","R.jpg","L.jpg","1","0","0","",""
"","feedback","","html-keyboard-response","321","289439","0.0-1.0-501.0-0.0","0","0","73869","","null","","","null","55","","","","","","","","","","","","","","","",""
"","time_out","","html-keyboard-response","322","291444","0.0-1.0-503.0-0.0","0","0","73869","","null","","","null","55","","","","","","","","","","","","","","","",""
"","ITI","","html-keyboard-response","323","292462","0.0-1.0-504.0","0","0","73869","","467","","","68","55","","","","","","","","","","","","","","","d",""
"","S1","","html-keyboard-response","324","292719","0.0-1.0-506.0","0","0","73869","","null","","","null","56","","","","","","","","","","","","","","","",""
"","ISI","","html-keyboard-response","325","292876","0.0-1.0-507.0","0","0","73869","","132","","","68","56","d","","","","","","","","","","","","","","",""
"","S2","","html-keyboard-response","326","293132","0.0-1.0-508.0","0","0","73869","","null","","","null","56","","NaN","","","","","","","","","","","","","",""
"","response","","html-keyboard-response","327","293815","0.0-1.0-509.0-0.0","0","0","73869","","678","","","68","56","","","2","56","training","adjacent","CB","3","2","L.jpg","P.jpg","0","0","1","",""
"","feedback","","html-keyboard-response","328","294834","0.0-1.0-510.0-0.0","0","0","73869","","null","","","null","56","","","","","","","","","","","","","","","",""
"","ITI","","html-keyboard-response","329","295859","0.0-1.0-513.0","0","0","73869","","555","","","75","56","","","","","","","","","","","","","","","k",""
"","S1","","html-keyboard-response","330","296114","0.0-1.0-515.0","0","0","73869","","null","","","null","57","","","","","","","","","","","","","","","",""
"","ISI","","html-keyboard-response","331","296270","0.0-1.0-516.0","0","0","73869","","null","","","null","57","NaN","","","","","","","","","","","","","","",""
"","S2","","html-keyboard-response","332","296455","0.0-1.0-517.0","0","0","73869","","181","","","75","57","","k","2","57","training","adjacent","CD","3","4","L.jpg","R.jpg","1","1","1","",""
"","feedback","","html-keyboard-response","333","297462","0.0-1.0-519.0-0.0","0","0","73869","","null","","","null","57","","","","","","","","","","","","","","","",""
"","ITI","","html-keyboard-response","334","298467","0.0-1.0-522.0","0","0","73869","","117","","","68","57","","","","","","","","","","","","","","","d",""
"","S1","","html-keyboard-response","335","298721","0.0-1.0-524.0","0","0","73869","","null","","","null","58","","","","","","","","","","","","","","","",""
"","ISI","","html-keyboard-response","336","298875","0.0-1.0-525.0","0","0","73869","","130","","","75","58","k","","","","","","","","","","","","","","",""
"","S2","","html-keyboard-response","337","299093","0.0-1.0-526.0","0","0","73869","","214","","","68","58","","d","2","58","training","adjacent","CB","3","2","L.jpg","P.jpg","0","0","1","",""
"","feedback","","html-keyboard-response","338","300135","0.0-1.0-528.0-0.0","0","0","73869","","null","","","null","58","","","","","","","","","","","","","","","",""
"","ITI","","html-keyboard-response","339","301139","0.0-1.0-531.0","0","0","73869","","53","","","75","58","","","","","","","","","","","","","","","k",""
"","S1","","html-keyboard-response","340","301398","0.0-1.0-533.0","0","0","73869","","null","","","null","59","","","","","","","","","","","","","","","",""
"","ISI","","html-keyboard-response","341","301551","0.0-1.0-534.0","0","0","73869","","36","","","75","59","k","","","","","","","","","","","","","","",""
"","S2","","html-keyboard-response","342","301803","0.0-1.0-535.0","0","0","73869","","null","","","null","59","","NaN","","","","","","","","","","","","","",""
"","response","","html-keyboard-response","343","301875","0.0-1.0-536.0-0.0","0","0","73869","","68","","","75","59","","","2","59","training","adjacent","ED","5","4","M.jpg","R.jpg","1","0","0","",""
"","feedback","","html-keyboard-response","344","302882","0.0-1.0-537.0-0.0","0","0","73869","","null","","","null","59","","","","","","","","","","","","","","","",""
"","time_out","","html-keyboard-response","345","305001","0.0-1.0-539.0-0.0","0","0","73869","","null","","","null","59","","","","","","","","","","","","","","","",""
"","ITI","","html-keyboard-response","346","306099","0.0-1.0-540.0","0","0","73869","","65","","","75","59","","","","","","","","","","","","","","","k",""
"","S1","","html-keyboard-response","347","306356","0.0-1.0-542.0","0","0","73869","","null","","","null","60","","","","","","","","","","","","","","","",""
"","ISI","","html-keyboard-response","348","306513","0.0-1.0-543.0","0","0","73869","","null","","","null","60","NaN","","","","","","","","","","","","","","",""
"","S2","","html-keyboard-response","349","306562","0.0-1.0-544.0","0","0","73869","","42","","","75","60","","k","2","60","training","adjacent","AB","1","2","O.jpg","P.jpg","1","1","1","",""
"","feedback","","html-keyboard-response","350","307580","0.0-1.0-546.0-0.0","0","0","73869","","null","","","null","60","","","","","","","","","","","","","","","",""
"","ITI","","html-keyboard-response","351","308746","0.0-1.0-549.0","0","0","73869","","134","","","68","60","","","","","","","","","","","","","","","d",""
"","S1","","html-keyboard-response","352","309013","0.0-1.0-551.0","0","0","73869","","null","","","null","61","","","","","","","","","","","","","","","",""
"","ISI","","html-keyboard-response","353","309211","0.0-1.0-552.0","0","0","73869","","0","","","75","61","k","","","","","","","","","","","","","","",""
"","S2","","html-keyboard-response","354","309465","0.0-1.0-553.0","0","0","73869","","null","","","null","61","","NaN","","","","","","","","","","","","","",""
"","response","","html-keyboard-response","355","309666","0.0-1.0-554.0-0.0","0","0","73869","","198","","","68","61","","","2","61","training","adjacent","DC","4","3","R.jpg","L.jpg","0","0","1","",""
"","feedback","","html-keyboard-response","356","310670","0.0-1.0-555.0-0.0","0","0","73869","","null","","","null","61","","","","","","","","","","","","","","","",""
"","ITI","","html-keyboard-response","357","311677","0.0-1.0-558.0","0","0","73869","","279","","","68","61","","","","","","","","","","","","","","","d",""
"","S1","","html-keyboard-response","358","311932","0.0-1.0-560.0","0","0","73869","","null","","","null","62","","","","","","","","","","","","","","","",""
"","ISI","","html-keyboard-response","359","312086","0.0-1.0-561.0","0","0","73869","","null","","","null","62","NaN","","","","","","","","","","","","","","",""
"","S2","","html-keyboard-response","360","312341","0.0-1.0-562.0","0","0","73869","","null","","","null","62","","NaN","","","","","","","","","","","","","",""
"","response","","html-keyboard-response","361","312484","0.0-1.0-563.0-0.0","0","0","73869","","139","","","75","62","","","2","62","training","adjacent","CD","3","4","L.jpg","R.jpg","1","1","1","",""
"","feedback","","html-keyboard-response","362","313489","0.0-1.0-564.0-0.0","0","0","73869","","null","","","null","62","","","","","","","","","","","","","","","",""
"","ITI","","html-keyboard-response","363","314492","0.0-1.0-567.0","0","0","73869","","267","","","68","62","","","","","","","","","","","","","","","d",""
"","S1","","html-keyboard-response","364","314750","0.0-1.0-569.0","0","0","73869","","null","","","null","63","","","","","","","","","","","","","","","",""
"","ISI","","html-keyboard-response","365","314905","0.0-1.0-570.0","0","0","73869","","null","","","null","63","NaN","","","","","","","","","","","","","","",""
"","S2","","html-keyboard-response","366","314926","0.0-1.0-571.0","0","0","73869","","16","","","68","63","","d","2","63","training","adjacent","AB","1","2","O.jpg","P.jpg","0","1","0","",""
"","feedback","","html-keyboard-response","367","315931","0.0-1.0-573.0-0.0","0","0","73869","","null","","","null","63","","","","","","","","","","","","","","","",""
"","time_out","","html-keyboard-response","368","317945","0.0-1.0-575.0-0.0","0","0","73869","","null","","","null","63","","","","","","","","","","","","","","","",""
"","ITI","","html-keyboard-response","369","318956","0.0-1.0-576.0","0","0","73869","","204","","","75","63","","","","","","","","","","","","","","","k",""
"","S1","","html-keyboard-response","370","319211","0.0-1.0-578.0","0","0","73869","","null","","","null","64","","","","","","","","","","","","","","","",""
"","ISI","","html-keyboard-response","371","319385","0.0-1.0-579.0","0","0","73869","","39","","","75","64","k","","","","","","","","","","","","","","",""
"","S2","","html-keyboard-response","372","319499","0.0-1.0-580.0","0","0","73869","","106","","","68","64","","d","2","64","training","adjacent","FG","6","7","N.jpg","Q.jpg","0","1","0","",""
"","feedback","","html-keyboard-response","373","320506","0.0-1.0-582.0-0.0","0","0","73869","","null","","","null","64","","","","","","","","","","","","","","","",""
"","time_out","","html-keyboard-response","374","322511","0.0-1.0-584.0-0.0","0","0","73869","","null","","","null","64","","","","","","","","","","","","","","","",""
"","ITI","","html-keyboard-response","375","323516","0.0-1.0-585.0","0","0","73869","","219","","","68","64","","","","","","","","","","","","","","","d",""
"","S1","","html-keyboard-response","376","323771","0.0-1.0-587.0","0","0","73869","","null","","","null","65","","","","","","","","","","","","","","","",""
"","ISI","","html-keyboard-response","377","323926","0.0-1.0-588.0","0","0","73869","","146","","","68","65","d","","","","","","","","","","","","","","",""
"","S2","","html-keyboard-response","378","324000","0.0-1.0-589.0","0","0","73869","","66","","","75","65","","k","2","65","training","adjacent","EF","5","6","M.jpg","N.jpg","1","1","1","",""
"","feedback","","html-keyboard-response","379","325004","0.0-1.0-591.0-0.0","0","0","73869","","null","","","null","65","","","","","","","","","","","","","","","",""
"","ITI","","html-keyboard-response","380","326008","0.0-1.0-594.0","0","0","73869","","166","","","68","65","","","","","","","","","","","","","","","d",""
"","S1","","html-keyboard-response","381","326263","0.0-1.0-596.0","0","0","73869","","null","","","null","66","","","","","","","","","","","","","","","",""
"","ISI","","html-keyboard-response","382","326416","0.0-1.0-597.0","0","0","73869","","null","","","null","66","NaN","","","","","","","","","","","","","","",""
"","S2","","html-keyboard-response","383","326614","0.0-1.0-598.0","0","0","73869","","194","","","75","66","","k","2","66","training","adjacent","FG","6","7","N.jpg","Q.jpg","1","1","1","",""
"","feedback","","html-keyboard-response","384","327623","0.0-1.0-600.0-0.0","0","0","73869","","null","","","null","66","","","","","","","","","","","","","","","",""
"","ITI","","html-keyboard-response","385","328629","0.0-1.0-603.0","0","0","73869","","11","","","68","66","","","","","","","","","","","","","","","d",""
"","S1","","html-keyboard-response","386","328884","0.0-1.0-605.0","0","0","73869","","null","","","null","67","","","","","","","","","","","","","","","",""
"","ISI","","html-keyboard-response","387","329037","0.0-1.0-606.0","0","0","73869","","27","","","75","67","k","","","","","","","","","","","","","","",""
"","S2","","html-keyboard-response","388","329290","0.0-1.0-607.0","0","0","73869","","null","","","null","67","","NaN","","","","","","","","","","","","","",""
"","response","","html-keyboard-response","389","329504","0.0-1.0-608.0-0.0","0","0","73869","","205","","","68","67","","","2","67","training","adjacent","DC","4","3","R.jpg","L.jpg","0","0","1","",""
"","feedback","","html-keyboard-response","390","330507","0.0-1.0-609.0-0.0","0","0","73869","","null","","","null","67","","","","","","","","","","","","","","","",""
"","ITI","","html-keyboard-response","391","331513","0.0-1.0-612.0","0","0","73869","","243","","","68","67","","","","","","","","","","","","","","","d",""
"","S1","","html-keyboard-response","392","331769","0.0-1.0-614.0","0","0","73869","","null","","","null","68","","","","","","","","","","","","","","","",""
"","ISI","","html-keyboard-response","393","331925","0.0-1.0-615.0","0","0","73869","","null","","","null","68","NaN","","","","","","","","","","","","","","",""
"","S2","","html-keyboard-response","394","332196","0.0-1.0-616.0","0","0","73869","","null","","","null","68","","NaN","","","","","","","","","","","","","",""
"","response","","html-keyboard-response","395","332240","0.0-1.0-617.0-0.0","0","0","73869","","37","","","75","68","","","2","68","training","adjacent","BC","2","3","P.jpg","L.jpg","1","1","1","",""
"","feedback","","html-keyboard-response","396","333247","0.0-1.0-618.0-0.0","0","0","73869","","null","","","null","68","","","","","","","","","","","","","","","",""
"","ITI","","html-keyboard-response","397","334254","0.0-1.0-621.0","0","0","73869","","33","","","68","68","","","","","","","","","","","","","","","d",""
"","S1","","html-keyboard-response","398","334529","0.0-1.0-623.0","0","0","73869","","null","","","null","69","","","","","","","","","","","","","","","",""
"","ISI","","html-keyboard-response","399","334684","0.0-1.0-624.0","0","0","73869","","null","","","null","69","NaN","","","","","","","","","","","","","","",""
"","S2","","html-keyboard-response","400","334778","0.0-1.0-625.0","0","0","73869","","88","","","68","69","","d","2","69","training","adjacent","GF","7","6","Q.jpg","N.jpg","0","0","1","",""
"","feedback","","html-keyboard-response","401","335783","0.0-1.0-627.0-0.0","0","0","73869","","null","","","null","69","","","","","","","","","","","","","","","",""
"","ITI","","html-keyboard-response","402","336831","0.0-1.0-630.0","0","0","73869","","126","","","68","69","","","","","","","","","","","","","","","d",""
"","S1","","html-keyboard-response","403","337084","0.0-1.0-632.0","0","0","73869","","null","","","null","70","","","","","","","","","","","","","","","",""
"","ISI","","html-keyboard-response","404","337239","0.0-1.0-633.0","0","0","73869","","6","","","75","70","k","","","","","","","","","","","","","","",""
"","S2","","html-keyboard-response","405","337354","0.0-1.0-634.0","0","0","73869","","111","","","68","70","","d","2","70","training","adjacent","GF","7","6","Q.jpg","N.jpg","0","0","1","",""
"","feedback","","html-keyboard-response","406","338360","0.0-1.0-636.0-0.0","0","0","73869","","null","","","null","70","","","","","","","","","","","","","","","",""
"","ITI","","html-keyboard-response","407","339388","0.0-1.0-639.0","0","0","73869","","33","","","75","70","","","","","","","","","","","","","","","k",""
"","S1","","html-keyboard-response","408","339652","0.0-1.0-641.0","0","0","73869","","null","","","null","71","","","","","","","","","","","","","","","",""
"","ISI","","html-keyboard-response","409","339817","0.0-1.0-642.0","0","0","73869","","null","","","null","71","NaN","","","","","","","","","","","","","","",""
"","S2","","html-keyboard-response","410","339950","0.0-1.0-643.0","0","0","73869","","130","","","75","71","","k","2","71","training","adjacent","DE","4","5","R.jpg","M.jpg","1","1","1","",""
"","feedback","","html-keyboard-response","411","340958","0.0-1.0-645.0-0.0","0","0","73869","","null","","","null","71","","","","","","","","","","","","","","","",""
"","ITI","","html-keyboard-response","412","341990","0.0-1.0-648.0","0","0","73869","","272","","","75","71","","","","","","","","","","","","","","","k",""
"","S1","","html-keyboard-response","413","342253","0.0-1.0-650.0","0","0","73869","","null","","","null","72","","","","","","","","","","","","","","","",""
"","ISI","","html-keyboard-response","414","342409","0.0-1.0-651.0","0","0","73869","","76","","","75","72","k","","","","","","","","","","","","","","",""
"","S2","","html-keyboard-response","415","342670","0.0-1.0-652.0","0","0","73869","","null","","","null","72","","NaN","","","","","","","","","","","","","",""
"","response","","html-keyboard-response","416","342794","0.0-1.0-653.0-0.0","0","0","73869","","119","","","75","72","","","2","72","training","adjacent","EF","5","6","M.jpg","N.jpg","1","1","1","",""
"","feedback","","html-keyboard-response","417","343799","0.0-1.0-654.0-0.0","0","0","73869","","null","","","null","72","","","","","","","","","","","","","","","",""
"","ITI","","html-keyboard-response","418","344805","0.0-1.0-657.0","0","0","73869","","252","","","68","72","","","","","","","","","","","","","","","d",""
"","S1","","html-keyboard-response","419","345061","0.0-1.0-659.0","0","0","73869","","null","","","null","73","","","","","","","","","","","","","","","",""
"","ISI","","html-keyboard-response","420","345214","0.0-1.0-660.0","0","0","73869","","null","","","null","73","NaN","","","","","","","","","","","","","","",""
"","S2","","html-keyboard-response","421","345511","0.0-1.0-661.0","0","0","73869","","null","","","null","73","","NaN","","","","","","","","","","","","","",""
"","response","","html-keyboard-response","422","345612","0.0-1.0-662.0-0.0","0","0","73869","","95","","","75","73","","","2","73","training","adjacent","BA","2","1","P.jpg","O.jpg","1","0","0","",""
"","feedback","","html-keyboard-response","423","346617","0.0-1.0-663.0-0.0","0","0","73869","","null","","","null","73","","","","","","","","","","","","","","","",""
"","time_out","","html-keyboard-response","424","348626","0.0-1.0-665.0-0.0","0","0","73869","","null","","","null","73","","","","","","","","","","","","","","","",""
"","ITI","","html-keyboard-response","425","349636","0.0-1.0-666.0","0","0","73869","","262","","","68","73","","","","","","","","","","","","","","","d",""
"","S1","","html-keyboard-response","426","349894","0.0-1.0-668.0","0","0","73869","","null","","","null","74","","","","","","","","","","","","","","","",""
"","ISI","","html-keyboard-response","427","350048","0.0-1.0-669.0","0","0","73869","","null","","","null","74","NaN","","","","","","","","","","","","","","",""
"","S2","","html-keyboard-response","428","350214","0.0-1.0-670.0","0","0","73869","","161","","","68","74","","d","2","74","training","adjacent","BA","2","1","P.jpg","O.jpg","0","0","1","",""
"","feedback","","html-keyboard-response","429","351220","0.0-1.0-672.0-0.0","0","0","73869","","null","","","null","74","","","","","","","","","","","","","","","",""
"","ITI","","html-keyboard-response","430","352229","0.0-1.0-675.0","0","0","73869","","619","","","68","74","","","","","","","","","","","","","","","d",""
"","S1","","html-keyboard-response","431","352512","0.0-1.0-677.0","0","0","73869","","null","","","null","75","","","","","","","","","","","","","","","",""
"","ISI","","html-keyboard-response","432","352671","0.0-1.0-678.0","0","0","73869","","23","","","68","75","d","","","","","","","","","","","","","","",""
"","S2","","html-keyboard-response","433","352773","0.0-1.0-679.0","0","0","73869","","96","","","75","75","","k","2","75","training","adjacent","AB","1","2","O.jpg","P.jpg","1","1","1","",""
"","feedback","","html-keyboard-response","434","353778","0.0-1.0-681.0-0.0","0","0","73869","","null","","","null","75","","","","","","","","","","","","","","","",""
"","ITI","","html-keyboard-response","435","354783","0.0-1.0-684.0","0","0","73869","","357","","","68","75","","","","","","","","","","","","","","","d",""
"","S1","","html-keyboard-response","436","355037","0.0-1.0-686.0","0","0","73869","","null","","","null","76","","","","","","","","","","","","","","","",""
"","ISI","","html-keyboard-response","437","355189","0.0-1.0-687.0","0","0","73869","","141","","","68","76","d","","","","","","","","","","","","","","",""
"","S2","","html-keyboard-response","438","355316","0.0-1.0-688.0","0","0","73869","","123","","","75","76","","k","2","76","training","adjacent","BC","2","3","P.jpg","L.jpg","1","1","1","",""
"","feedback","","html-keyboard-response","439","356321","0.0-1.0-690.0-0.0","0","0","73869","","null","","","null","76","","","","","","","","","","","","","","","",""
"","ITI","","html-keyboard-response","440","357328","0.0-1.0-693.0","0","0","73869","","207","","","75","76","","","","","","","","","","","","","","","k",""
"","S1","","html-keyboard-response","441","357583","0.0-1.0-695.0","0","0","73869","","null","","","null","77","","","","","","","","","","","","","","","",""
"","ISI","","html-keyboard-response","442","357739","0.0-1.0-696.0","0","0","73869","","null","","","null","77","NaN","","","","","","","","","","","","","","",""
"","S2","","html-keyboard-response","443","357933","0.0-1.0-697.0","0","0","73869","","190","","","68","77","","d","2","77","training","adjacent","FE","6","5","N.jpg","M.jpg","0","0","1","",""
"","feedback","","html-keyboard-response","444","358941","0.0-1.0-699.0-0.0","0","0","73869","","null","","","null","77","","","","","","","","","","","","","","","",""
"","ITI","","html-keyboard-response","445","359949","0.0-1.0-702.0","0","0","73869","","48","","","75","77","","","","","","","","","","","","","","","k",""
"","S1","","html-keyboard-response","446","360205","0.0-1.0-704.0","0","0","73869","","null","","","null","78","","","","","","","","","","","","","","","",""
"","ISI","","html-keyboard-response","447","360360","0.0-1.0-705.0","0","0","73869","","null","","","null","78","NaN","","","","","","","","","","","","","","",""
"","S2","","html-keyboard-response","448","360452","0.0-1.0-706.0","0","0","73869","","88","","","68","78","","d","2","78","training","adjacent","FE","6","5","N.jpg","M.jpg","0","0","1","",""
"","feedback","","html-keyboard-response","449","361457","0.0-1.0-708.0-0.0","0","0","73869","","null","","","null","78","","","","","","","","","","","","","","","",""
"","ITI","","html-keyboard-response","450","362466","0.0-1.0-711.0","0","0","73869","","172","","","68","78","","","","","","","","","","","","","","","d",""
"","S1","","html-keyboard-response","451","362718","0.0-1.0-713.0","0","0","73869","","null","","","null","79","","","","","","","","","","","","","","","",""
"","ISI","","html-keyboard-response","452","362874","0.0-1.0-714.0","0","0","73869","","null","","","null","79","NaN","","","","","","","","","","","","","","",""
"","S2","","html-keyboard-response","453","362954","0.0-1.0-715.0","0","0","73869","","80","","","68","79","","d","2","79","training","adjacent","BA","2","1","P.jpg","O.jpg","0","0","1","",""
"","feedback","","html-keyboard-response","454","363973","0.0-1.0-717.0-0.0","0","0","73869","","null","","","null","79","","","","","","","","","","","","","","","",""
"","ITI","","html-keyboard-response","455","364977","0.0-1.0-720.0","0","0","73869","","76","","","75","79","","","","","","","","","","","","","","","k",""
"","S1","","html-keyboard-response","456","365234","0.0-1.0-722.0","0","0","73869","","null","","","null","80","","","","","","","","","","","","","","","",""
"","ISI","","html-keyboard-response","457","365389","0.0-1.0-723.0","0","0","73869","","null","","","null","80","NaN","","","","","","","","","","","","","","",""
"","S2","","html-keyboard-response","458","365452","0.0-1.0-724.0","0","0","73869","","61","","","68","80","","d","2","80","training","adjacent","DE","4","5","R.jpg","M.jpg","0","1","0","",""
"","feedback","","html-keyboard-response","459","366458","0.0-1.0-726.0-0.0","0","0","73869","","null","","","null","80","","","","","","","","","","","","","","","",""
"","time_out","","html-keyboard-response","460","368463","0.0-1.0-728.0-0.0","0","0","73869","","null","","","null","80","","","","","","","","","","","","","","","",""
"","ITI","","html-keyboard-response","461","369470","0.0-1.0-729.0","0","0","73869","","28","","","75","80","","","","","","","","","","","","","","","k",""
"","S1","","html-keyboard-response","462","369727","0.0-1.0-731.0","0","0","73869","","null","","","null","81","","","","","","","","","","","","","","","",""
"","ISI","","html-keyboard-response","463","369908","0.0-1.0-732.0","0","0","73869","","null","","","null","81","NaN","","","","","","","","","","","","","","",""
"","S2","","html-keyboard-response","464","369927","0.0-1.0-733.0","0","0","73869","","11","","","75","81","","k","2","81","training","adjacent","CD","3","4","L.jpg","R.jpg","1","1","1","",""
"","feedback","","html-keyboard-response","465","370938","0.0-1.0-735.0-0.0","0","0","73869","","null","","","null","81","","","","","","","","","","","","","","","",""
"","ITI","","html-keyboard-response","466","371943","0.0-1.0-738.0","0","0","73869","","null","","","null","81","","","","","","","","","","","","","","","NaN",""
"","S1","","html-keyboard-response","467","372198","0.0-1.0-740.0","0","0","73869","","null","","","null","82","","","","","","","","","","","","","","","",""
"","ISI","","html-keyboard-response","468","372365","0.0-1.0-741.0","0","0","73869","","null","","","null","82","NaN","","","","","","","","","","","","","","",""
"","S2","","html-keyboard-response","469","372620","0.0-1.0-742.0","0","0","73869","","null","","","null","82","","NaN","","","","","","","","","","","","","",""
"","response","","html-keyboard-response","470","373074","0.0-1.0-743.0-0.0","0","0","73869","","450","","","75","82","","","2","82","training","adjacent","ED","5","4","M.jpg","R.jpg","1","0","0","",""
"","feedback","","html-keyboard-response","471","374084","0.0-1.0-744.0-0.0","0","0","73869","","null","","","null","82","","","","","","","","","","","","","","","",""
"","time_out","","html-keyboard-response","472","376089","0.0-1.0-746.0-0.0","0","0","73869","","null","","","null","82","","","","","","","","","","","","","","","",""
"","ITI","","html-keyboard-response","473","377095","0.0-1.0-747.0","0","0","73869","","null","","","null","82","","","","","","","","","","","","","","","NaN",""
"","S1","","html-keyboard-response","474","377350","0.0-1.0-749.0","0","0","73869","","null","","","null","83","","","","","","","","","","","","","","","",""
"","ISI","","html-keyboard-response","475","377503","0.0-1.0-750.0","0","0","73869","","62","","","75","83","k","","","","","","","","","","","","","","",""
"","S2","","html-keyboard-response","476","377594","0.0-1.0-751.0","0","0","73869","","87","","","75","83","","k","2","83","training","adjacent","FE","6","5","N.jpg","M.jpg","1","0","0","",""
"","feedback","","html-keyboard-response","477","378601","0.0-1.0-753.0-0.0","0","0","73869","","null","","","null","83","","","","","","","","","","","","","","","",""
"","time_out","","html-keyboard-response","478","380606","0.0-1.0-755.0-0.0","0","0","73869","","null","","","null","83","","","","","","","","","","","","","","","",""
"","ITI","","html-keyboard-response","479","381612","0.0-1.0-756.0","0","0","73869","","336","","","75","83","","","","","","","","","","","","","","","k",""
"","S1","","html-keyboard-response","480","381872","0.0-1.0-758.0","0","0","73869","","null","","","null","84","","","","","","","","","","","","","","","",""
"","ISI","","html-keyboard-response","481","382027","0.0-1.0-759.0","0","0","73869","","18","","","75","84","k","","","","","","","","","","","","","","",""
"","S2","","html-keyboard-response","482","382215","0.0-1.0-760.0","0","0","73869","","183","","","75","84","","k","2","84","training","adjacent","BA","2","1","P.jpg","O.jpg","1","0","0","",""
"","feedback","","html-keyboard-response","483","383221","0.0-1.0-762.0-0.0","0","0","73869","","null","","","null","84","","","","","","","","","","","","","","","",""
"","time_out","","html-keyboard-response","484","385227","0.0-1.0-764.0-0.0","0","0","73869","","null","","","null","84","","","","","","","","","","","","","","","",""
"","ITI","","html-keyboard-response","485","386233","0.0-1.0-765.0","0","0","73869","","242","","","75","84","","","","","","","","","","","","","","","k",""
"","S1","","html-keyboard-response","486","386489","0.0-1.0-767.0","0","0","73869","","null","","","null","85","","","","","","","","","","","","","","","",""
"","ISI","","html-keyboard-response","487","386651","0.0-1.0-768.0","0","0","73869","","96","","","75","85","k","","","","","","","","","","","","","","",""
"","S2","","html-keyboard-response","488","386893","0.0-1.0-769.0","0","0","73869","","239","","","75","85","","k","2","85","training","adjacent","ED","5","4","M.jpg","R.jpg","1","0","0","",""
"","feedback","","html-keyboard-response","489","387908","0.0-1.0-771.0-0.0","0","0","73869","","null","","","null","85","","","","","","","","","","","","","","","",""
"","time_out","","html-keyboard-response","490","389915","0.0-1.0-773.0-0.0","0","0","73869","","null","","","null","85","","","","","","","","","","","","","","","",""
"","ITI","","html-keyboard-response","491","390918","0.0-1.0-774.0","0","0","73869","","221","","","75","85","","","","","","","","","","","","","","","k",""
"","S1","","html-keyboard-response","492","391217","0.0-1.0-776.0","0","0","73869","","null","","","null","86","","","","","","","","","","","","","","","",""
"","ISI","","html-keyboard-response","493","391386","0.0-1.0-777.0","0","0","73869","","null","","","null","86","NaN","","","","","","","","","","","","","","",""
"","S2","","html-keyboard-response","494","391452","0.0-1.0-778.0","0","0","73869","","63","","","75","86","","k","2","86","training","adjacent","DE","4","5","R.jpg","M.jpg","1","1","1","",""
"","feedback","","html-keyboard-response","495","392458","0.0-1.0-780.0-0.0","0","0","73869","","null","","","null","86","","","","","","","","","","","","","","","",""
"","ITI","","html-keyboard-response","496","393462","0.0-1.0-783.0","0","0","73869","","152","","","75","86","","","","","","","","","","","","","","","k",""
"","S1","","html-keyboard-response","497","393716","0.0-1.0-785.0","0","0","73869","","null","","","null","87","","","","","","","","","","","","","","","",""
"","ISI","","html-keyboard-response","498","393870","0.0-1.0-786.0","0","0","73869","","null","","","null","87","NaN","","","","","","","","","","","","","","",""
"","S2","","html-keyboard-response","499","394126","0.0-1.0-787.0","0","0","73869","","null","","","null","87","","NaN","","","","","","","","","","","","","",""
"","response","","html-keyboard-response","500","394132","0.0-1.0-788.0-0.0","0","0","73869","","3","","","75","87","","","2","87","training","adjacent","GF","7","6","Q.jpg","N.jpg","1","0","0","",""
"","feedback","","html-keyboard-response","501","395141","0.0-1.0-789.0-0.0","0","0","73869","","null","","","null","87","","","","","","","","","","","","","","","",""
"","time_out","","html-keyboard-response","502","397147","0.0-1.0-791.0-0.0","0","0","73869","","null","","","null","87","","","","","","","","","","","","","","","",""
"","ITI","","html-keyboard-response","503","398151","0.0-1.0-792.0","0","0","73869","","263","","","68","87","","","","","","","","","","","","","","","d",""
"","S1","","html-keyboard-response","504","398446","0.0-1.0-794.0","0","0","73869","","null","","","null","88","","","","","","","","","","","","","","","",""
"","ISI","","html-keyboard-response","505","398615","0.0-1.0-795.0","0","0","73869","","11","","","75","88","k","","","","","","","","","","","","","","",""
"","S2","","html-keyboard-response","506","398621","0.0-1.0-796.0","0","0","73869","","3","","","68","88","","d","2","88","training","adjacent","AB","1","2","O.jpg","P.jpg","0","1","0","",""
"","feedback","","html-keyboard-response","507","399634","0.0-1.0-798.0-0.0","0","0","73869","","null","","","null","88","","","","","","","","","","","","","","","",""
"","time_out","","html-keyboard-response","508","401639","0.0-1.0-800.0-0.0","0","0","73869","","null","","","null","88","","","","","","","","","","","","","","","",""
"","ITI","","html-keyboard-response","509","402649","0.0-1.0-801.0","0","0","73869","","51","","","75","88","","","","","","","","","","","","","","","k",""
"","S1","","html-keyboard-response","510","402904","0.0-1.0-803.0","0","0","73869","","null","","","null","89","","","","","","","","","","","","","","","",""
"","ISI","","html-keyboard-response","511","403058","0.0-1.0-804.0","0","0","73869","","107","","","75","89","k","","","","","","","","","","","","","","",""
"","S2","","html-keyboard-response","512","403153","0.0-1.0-805.0","0","0","73869","","91","","","68","89","","d","2","89","training","adjacent","GF","7","6","Q.jpg","N.jpg","0","0","1","",""
"","feedback","","html-keyboard-response","513","404158","0.0-1.0-807.0-0.0","0","0","73869","","null","","","null","89","","","","","","","","","","","","","","","",""
"","ITI","","html-keyboard-response","514","405170","0.0-1.0-810.0","0","0","73869","","131","","","68","89","","","","","","","","","","","","","","","d",""
"","S1","","html-keyboard-response","515","405428","0.0-1.0-812.0","0","0","73869","","null","","","null","90","","","","","","","","","","","","","","","",""
"","ISI","","html-keyboard-response","516","405586","0.0-1.0-813.0","0","0","73869","","27","","","75","90","k","","","","","","","","","","","","","","",""
"","S2","","html-keyboard-response","517","405623","0.0-1.0-814.0","0","0","73869","","33","","","68","90","","d","2","90","training","adjacent","BC","2","3","P.jpg","L.jpg","0","1","0","",""
"","feedback","","html-keyboard-response","518","406633","0.0-1.0-816.0-0.0","0","0","73869","","null","","","null","90","","","","","","","","","","","","","","","",""
"","time_out","","html-keyboard-response","519","408638","0.0-1.0-818.0-0.0","0","0","73869","","null","","","null","90","","","","","","","","","","","","","","","",""
"","ITI","","html-keyboard-response","520","409644","0.0-1.0-819.0","0","0","73869","","112","","","75","90","","","","","","","","","","","","","","","k",""
"","S1","","html-keyboard-response","521","409900","0.0-1.0-821.0","0","0","73869","","null","","","null","91","","","","","","","","","","","","","","","",""
"","ISI","","html-keyboard-response","522","410063","0.0-1.0-822.0","0","0","73869","","54","","","68","91","d","","","","","","","","","","","","","","",""
"","S2","","html-keyboard-response","523","410208","0.0-1.0-823.0","0","0","73869","","122","","","75","91","","k","2","91","training","adjacent","FE","6","5","N.jpg","M.jpg","1","0","0","",""
"","feedback","","html-keyboard-response","524","411216","0.0-1.0-825.0-0.0","0","0","73869","","null","","","null","91","","","","","","","","","","","","","","","",""
"","time_out","","html-keyboard-response","525","413220","0.0-1.0-827.0-0.0","0","0","73869","","null","","","null","91","","","","","","","","","","","","","","","",""
"","ITI","","html-keyboard-response","526","414224","0.0-1.0-828.0","0","0","73869","","130","","","75","91","","","","","","","","","","","","","","","k",""
"","S1","","html-keyboard-response","527","414478","0.0-1.0-830.0","0","0","73869","","null","","","null","92","","","","","","","","","","","","","","","",""
"","ISI","","html-keyboard-response","528","414631","0.0-1.0-831.0","0","0","73869","","33","","","75","92","k","","","","","","","","","","","","","","",""
"","S2","","html-keyboard-response","529","414883","0.0-1.0-832.0","0","0","73869","","247","","","75","92","","k","2","92","training","adjacent","FG","6","7","N.jpg","Q.jpg","1","1","1","",""
"","feedback","","html-keyboard-response","530","415886","0.0-1.0-834.0-0.0","0","0","73869","","null","","","null","92","","","","","","","","","","","","","","","",""
"","ITI","","html-keyboard-response","531","416926","0.0-1.0-837.0","0","0","73869","","496","","","68","92","","","","","","","","","","","","","","","d",""
"","S1","","html-keyboard-response","532","417194","0.0-1.0-839.0","0","0","73869","","null","","","null","93","","","","","","","","","","","","","","","",""
"","ISI","","html-keyboard-response","533","417352","0.0-1.0-840.0","0","0","73869","","118","","","68","93","d","","","","","","","","","","","","","","",""
"","S2","","html-keyboard-response","534","417360","0.0-1.0-841.0","0","0","73869","","1","","","68","93","","d","2","93","training","adjacent","ED","5","4","M.jpg","R.jpg","0","0","1","",""
"","feedback","","html-keyboard-response","535","418371","0.0-1.0-843.0-0.0","0","0","73869","","null","","","null","93","","","","","","","","","","","","","","","",""
"","ITI","","html-keyboard-response","536","419382","0.0-1.0-846.0","0","0","73869","","127","","","68","93","","","","","","","","","","","","","","","d",""
"","S1","","html-keyboard-response","537","419641","0.0-1.0-848.0","0","0","73869","","null","","","null","94","","","","","","","","","","","","","","","",""
"","ISI","","html-keyboard-response","538","419797","0.0-1.0-849.0","0","0","73869","","null","","","null","94","NaN","","","","","","","","","","","","","","",""
"","S2","","html-keyboard-response","539","420054","0.0-1.0-850.0","0","0","73869","","null","","","null","94","","NaN","","","","","","","","","","","","","",""
"","response","","html-keyboard-response","540","421245","0.0-1.0-851.0-0.0","0","0","73869","","1185","","","68","94","","","2","94","training","adjacent","CB","3","2","L.jpg","P.jpg","0","0","1","",""
"","feedback","","html-keyboard-response","541","422251","0.0-1.0-852.0-0.0","0","0","73869","","null","","","null","94","","","","","","","","","","","","","","","",""
"","ITI","","html-keyboard-response","542","423265","0.0-1.0-855.0","0","0","73869","","176","","","75","94","","","","","","","","","","","","","","","k",""
"","S1","","html-keyboard-response","543","423520","0.0-1.0-857.0","0","0","73869","","null","","","null","95","","","","","","","","","","","","","","","",""
"","ISI","","html-keyboard-response","544","423672","0.0-1.0-858.0","0","0","73869","","30","","","68","95","d","","","","","","","","","","","","","","",""
"","S2","","html-keyboard-response","545","423772","0.0-1.0-859.0","0","0","73869","","96","","","75","95","","k","2","95","training","adjacent","EF","5","6","M.jpg","N.jpg","1","1","1","",""
"","feedback","","html-keyboard-response","546","424778","0.0-1.0-861.0-0.0","0","0","73869","","null","","","null","95","","","","","","","","","","","","","","","",""
"","ITI","","html-keyboard-response","547","425782","0.0-1.0-864.0","0","0","73869","","91","","","68","95","","","","","","","","","","","","","","","d",""
"","block_over","","html-keyboard-response","548","433731","0.0-1.0-865.0-0.0","0","0","73869","","7933","","","32","95","","","","","","","","","","","","","","","",""
"","S1","","html-keyboard-response","549","433989","0.0-1.0-866.0","0","0","73869","","null","","","null","96","","","","","","","","","","","","","","","",""
"","ISI","","html-keyboard-response","550","434143","0.0-1.0-867.0","0","0","73869","","null","","","null","96","NaN","","","","","","","","","","","","","","",""
"","S2","","html-keyboard-response","551","434396","0.0-1.0-868.0","0","0","73869","","null","","","null","96","","NaN","","","","","","","","","","","","","",""
"","response","","html-keyboard-response","552","434954","0.0-1.0-869.0-0.0","0","0","73869","","554","","","75","96","","","3","96","training","adjacent","DC","4","3","R.jpg","L.jpg","1","0","0","",""
"","feedback","","html-keyboard-response","553","435965","0.0-1.0-870.0-0.0","0","0","73869","","null","","","null","96","","","","","","","","","","","","","","","",""
"","time_out","","html-keyboard-response","554","437972","0.0-1.0-872.0-0.0","0","0","73869","","null","","","null","96","","","","","","","","","","","","","","","",""
"","ITI","","html-keyboard-response","555","438980","0.0-1.0-873.0","0","0","73869","","2","","","68","96","","","","","","","","","","","","","","","d",""
"","S1","","html-keyboard-response","556","439235","0.0-1.0-875.0","0","0","73869","","null","","","null","97","","","","","","","","","","","","","","","",""
"","ISI","","html-keyboard-response","557","439390","0.0-1.0-876.0","0","0","73869","","null","","","null","97","NaN","","","","","","","","","","","","","","",""
"","S2","","html-keyboard-response","558","439645","0.0-1.0-877.0","0","0","73869","","null","","","null","97","","NaN","","","","","","","","","","","","","",""
"","response","","html-keyboard-response","559","439648","0.0-1.0-878.0-0.0","0","0","73869","","0","","","75","97","","","3","97","training","adjacent","DE","4","5","R.jpg","M.jpg","1","1","1","",""
"","feedback","","html-keyboard-response","560","440657","0.0-1.0-879.0-0.0","0","0","73869","","null","","","null","97","","","","","","","","","","","","","","","",""
"","ITI","","html-keyboard-response","561","441662","0.0-1.0-882.0","0","0","73869","","274","","","68","97","","","","","","","","","","","","","","","d",""
"","S1","","html-keyboard-response","562","441916","0.0-1.0-884.0","0","0","73869","","null","","","null","98","","","","","","","","","","","","","","","",""
"","ISI","","html-keyboard-response","563","442084","0.0-1.0-885.0","0","0","73869","","13","","","75","98","k","","","","","","","","","","","","","","",""
"","S2","","html-keyboard-response","564","442272","0.0-1.0-886.0","0","0","73869","","183","","","68","98","","d","3","98","training","adjacent","AB","1","2","O.jpg","P.jpg","0","1","0","",""
"","feedback","","html-keyboard-response","565","443280","0.0-1.0-888.0-0.0","0","0","73869","","null","","","null","98","","","","","","","","","","","","","","","",""
"","time_out","","html-keyboard-response","566","445285","0.0-1.0-890.0-0.0","0","0","73869","","null","","","null","98","","","","","","","","","","","","","","","",""
"","ITI","","html-keyboard-response","567","446290","0.0-1.0-891.0","0","0","73869","","210","","","68","98","","","","","","","","","","","","","","","d",""
"","S1","","html-keyboard-response","568","446545","0.0-1.0-893.0","0","0","73869","","null","","","null","99","","","","","","","","","","","","","","","",""
"","ISI","","html-keyboard-response","569","446697","0.0-1.0-894.0","0","0","73869","","106","","","75","99","k","","","","","","","","","","","","","","",""
"","S2","","html-keyboard-response","570","446954","0.0-1.0-895.0","0","0","73869","","null","","","null","99","","NaN","","","","","","","","","","","","","",""
"","response","","html-keyboard-response","571","447178","0.0-1.0-896.0-0.0","0","0","73869","","219","","","75","99","","","3","99","training","adjacent","GF","7","6","Q.jpg","N.jpg","1","0","0","",""
"","feedback","","html-keyboard-response","572","448191","0.0-1.0-897.0-0.0","0","0","73869","","null","","","null","99","","","","","","","","","","","","","","","",""
"","time_out","","html-keyboard-response","573","450212","0.0-1.0-899.0-0.0","0","0","73869","","null","","","null","99","","","","","","","","","","","","","","","",""
"","ITI","","html-keyboard-response","574","451217","0.0-1.0-900.0","0","0","73869","","300","","","75","99","","","","","","","","","","","","","","","k",""
"","S1","","html-keyboard-response","575","451473","0.0-1.0-902.0","0","0","73869","","null","","","null","100","","","","","","","","","","","","","","","",""
"","ISI","","html-keyboard-response","576","451630","0.0-1.0-903.0","0","0","73869","","null","","","null","100","NaN","","","","","","","","","","","","","","",""
"","S2","","html-keyboard-response","577","451638","0.0-1.0-904.0","0","0","73869","","4","","","75","100","","k","3","100","training","adjacent","BA","2","1","P.jpg","O.jpg","1","0","0","",""
"","feedback","","html-keyboard-response","578","452728","0.0-1.0-906.0-0.0","0","0","73869","","null","","","null","100","","","","","","","","","","","","","","","",""
"","time_out","","html-keyboard-response","579","454734","0.0-1.0-908.0-0.0","0","0","73869","","null","","","null","100","","","","","","","","","","","","","","","",""
"","ITI","","html-keyboard-response","580","455740","0.0-1.0-909.0","0","0","73869","","384","","","75","100","","","","","","","","","","","","","","","k",""
"","S1","","html-keyboard-response","581","455996","0.0-1.0-911.0","0","0","73869","","null","","","null","101","","","","","","","","","","","","","","","",""
"","ISI","","html-keyboard-response","582","456151","0.0-1.0-912.0","0","0","73869","","null","","","null","101","NaN","","","","","","","","","","","","","","",""
"","S2","","html-keyboard-response","583","456156","0.0-1.0-913.0","0","0","73869","","2","","","75","101","","k","3","101","training","adjacent","BA","2","1","P.jpg","O.jpg","1","0","0","",""
"","feedback","","html-keyboard-response","584","457161","0.0-1.0-915.0-0.0","0","0","73869","","null","","","null","101","","","","","","","","","","","","","","","",""
"","time_out","","html-keyboard-response","585","459165","0.0-1.0-917.0-0.0","0","0","73869","","null","","","null","101","","","","","","","","","","","","","","","",""
"","ITI","","html-keyboard-response","586","460178","0.0-1.0-918.0","0","0","73869","","59","","","75","101","","","","","","","","","","","","","","","k",""
"","S1","","html-keyboard-response","587","460434","0.0-1.0-920.0","0","0","73869","","null","","","null","102","","","","","","","","","","","","","","","",""
"","ISI","","html-keyboard-response","588","460589","0.0-1.0-921.0","0","0","73869","","null","","","null","102","NaN","","","","","","","","","","","","","","",""
