"success","ttype","start_time","trial_type","trial_index","time_elapsed","internal_node_id","warning","missed_checkup","PID","view_history","rt","responses","repeat_instructions","key_press","index","keypress_isi","keypress_S2","block","trial_num","phase","group_type","pair_type","S1_stim","S2_stim","S1_img","S2_img","S1_chosen","S1_higher","accuracy","keypress_iti","total_bonus_tally"
"true","full_screen","d04132023hr1838","fullscreen","0","13193","0.0-0.0","0","0","76643","","","","","","","","","","","","","","","","","","","","","",""
"","instructions","","instructions","1","70040","0.0-1.0-0.0-0.0","0","0","76643","[{""page_index"":0,""viewing_time"":6376},{""page_index"":1,""viewing_time"":33322},{""page_index"":2,""viewing_time"":14974},{""page_index"":3,""viewing_time"":2169}]","56841","","","","","","","","","","","","","","","","","","","",""
"","comprehension_check","","survey-multi-choice","2","94721","0.0-1.0-0.0-1.0","0","0","76643","","24675","{""Q0"":""True"",""Q1"":""K"",""Q2"":""Once the second image appears and while the screen 'MAKE A CHOICE' is shown"",""Q3"":""Green mark"",""Q4"":""either D or K""}","0","","","","","","","","","","","","","","","","","",""
"","start_exp","","html-keyboard-response","3","98894","0.0-1.0-1.0","0","0","76643","","4168","","","32","","","","","","","","","","","","","","","","",""
"","S1","","html-keyboard-response","4","99157","0.0-1.0-2.0","0","0","76643","","null","","","null","0","","","","","","","","","","","","","","","",""
"","ISI","","html-keyboard-response","5","100173","0.0-1.0-3.0","0","0","76643","","null","","","null","0","NaN","","","","","","","","","","","","","","",""
"","S2","","html-keyboard-response","6","100438","0.0-1.0-4.0","0","0","76643","","null","","","null","0","","NaN","","","","","","","","","","","","","",""
"","response","","html-keyboard-response","7","101136","0.0-1.0-5.0-0.0","0","0","76643","","694","","","68","0","","","1","0","training","adjacent","DE","4","5","P.jpg","M.jpg","0","1","0","",""
"","feedback","","html-keyboard-response","8","102144","0.0-1.0-6.0-0.0","0","0","76643","","null","","","null","0","","","","","","","","","","","","","","","",""
"","time_out","","html-keyboard-response","9","104158","0.0-1.0-8.0-0.0","0","0","76643","","null","","","null","0","","","","","","","","","","","","","","","",""
"","ITI","","html-keyboard-response","10","105167","0.0-1.0-9.0","0","0","76643","","null","","","null","0","","","","","","","","","","","","","","","NaN",""
"","S1","","html-keyboard-response","11","105437","0.0-1.0-11.0","0","0","76643","","null","","","null","1","","","","","","","","","","","","","","","",""
"","ISI","","html-keyboard-response","12","106450","0.0-1.0-12.0","0","0","76643","","null","","","null","1","NaN","","","","","","","","","","","","","","",""
"","S2","","html-keyboard-response","13","106708","0.0-1.0-13.0","0","0","76643","","null","","","null","1","","NaN","","","","","","","","","","","","","",""
"","response","","html-keyboard-response","14","107658","0.0-1.0-14.0-0.0","0","0","76643","","946","","","68","1","","","1","1","training","adjacent","ED","5","4","M.jpg","P.jpg","0","0","1","",""
"","feedback","","html-keyboard-response","15","108670","0.0-1.0-15.0-0.0","0","0","76643","","null","","","null","1","","","","","","","","","","","","","","","",""
"","ITI","","html-keyboard-response","16","109680","0.0-1.0-18.0","0","0","76643","","null","","","null","1","","","","","","","","","","","","","","","NaN",""
"","S1","","html-keyboard-response","17","109939","0.0-1.0-20.0","0","0","76643","","null","","","null","2","","","","","","","","","","","","","","","",""
"","ISI","","html-keyboard-response","18","110951","0.0-1.0-21.0","0","0","76643","","null","","","null","2","NaN","","","","","","","","","","","","","","",""
"","S2","","html-keyboard-response","19","111211","0.0-1.0-22.0","0","0","76643","","null","","","null","2","","NaN","","","","","","","","","","","","","",""
"","response","","html-keyboard-response","20","111620","0.0-1.0-23.0-0.0","0","0","76643","","406","","","75","2","","","1","2","training","adjacent","AB","1","2","R.jpg","O.jpg","1","1","1","",""
"","feedback","","html-keyboard-response","21","112626","0.0-1.0-24.0-0.0","0","0","76643","","null","","","null","2","","","","","","","","","","","","","","","",""
"","ITI","","html-keyboard-response","22","113635","0.0-1.0-27.0","0","0","76643","","null","","","null","2","","","","","","","","","","","","","","","NaN",""
"","S1","","html-keyboard-response","23","113897","0.0-1.0-29.0","0","0","76643","","null","","","null","3","","","","","","","","","","","","","","","",""
"","ISI","","html-keyboard-response","24","114907","0.0-1.0-30.0","0","0","76643","","null","","","null","3","NaN","","","","","","","","","","","","","","",""
"","S2","","html-keyboard-response","25","115169","0.0-1.0-31.0","0","0","76643","","null","","","null","3","","NaN","","","","","","","","","","","","","",""
"","response","","html-keyboard-response","26","115817","0.0-1.0-32.0-0.0","0","0","76643","","644","","","68","3","","","1","3","training","adjacent","CD","3","4","L.jpg","P.jpg","0","1","0","",""
"","feedback","","html-keyboard-response","27","116819","0.0-1.0-33.0-0.0","0","0","76643","","null","","","null","3","","","","","","","","","","","","","","","",""
"","time_out","","html-keyboard-response","28","118823","0.0-1.0-35.0-0.0","0","0","76643","","null","","","null","3","","","","","","","","","","","","","","","",""
"","ITI","","html-keyboard-response","29","119830","0.0-1.0-36.0","0","0","76643","","null","","","null","3","","","","","","","","","","","","","","","NaN",""
"","S1","","html-keyboard-response","30","120093","0.0-1.0-38.0","0","0","76643","","null","","","null","4","","","","","","","","","","","","","","","",""
"","ISI","","html-keyboard-response","31","121101","0.0-1.0-39.0","0","0","76643","","null","","","null","4","NaN","","","","","","","","","","","","","","",""
"","S2","","html-keyboard-response","32","121357","0.0-1.0-40.0","0","0","76643","","null","","","null","4","","NaN","","","","","","","","","","","","","",""
"","response","","html-keyboard-response","33","121799","0.0-1.0-41.0-0.0","0","0","76643","","437","","","75","4","","","1","4","training","adjacent","BC","2","3","O.jpg","L.jpg","1","1","1","",""
"","feedback","","html-keyboard-response","34","122808","0.0-1.0-42.0-0.0","0","0","76643","","null","","","null","4","","","","","","","","","","","","","","","",""
"","ITI","","html-keyboard-response","35","123818","0.0-1.0-45.0","0","0","76643","","null","","","null","4","","","","","","","","","","","","","","","NaN",""
"","S1","","html-keyboard-response","36","124079","0.0-1.0-47.0","0","0","76643","","null","","","null","5","","","","","","","","","","","","","","","",""
"","ISI","","html-keyboard-response","37","125087","0.0-1.0-48.0","0","0","76643","","null","","","null","5","NaN","","","","","","","","","","","","","","",""
"","S2","","html-keyboard-response","38","125350","0.0-1.0-49.0","0","0","76643","","null","","","null","5","","NaN","","","","","","","","","","","","","",""
"","response","","html-keyboard-response","39","125876","0.0-1.0-50.0-0.0","0","0","76643","","522","","","68","5","","","1","5","training","adjacent","GF","7","6","N.jpg","Q.jpg","0","0","1","",""
"","feedback","","html-keyboard-response","40","126890","0.0-1.0-51.0-0.0","0","0","76643","","null","","","null","5","","","","","","","","","","","","","","","",""
"","ITI","","html-keyboard-response","41","127901","0.0-1.0-54.0","0","0","76643","","null","","","null","5","","","","","","","","","","","","","","","NaN",""
"","S1","","html-keyboard-response","42","128166","0.0-1.0-56.0","0","0","76643","","null","","","null","6","","","","","","","","","","","","","","","",""
"","ISI","","html-keyboard-response","43","129176","0.0-1.0-57.0","0","0","76643","","null","","","null","6","NaN","","","","","","","","","","","","","","",""
"","S2","","html-keyboard-response","44","129438","0.0-1.0-58.0","0","0","76643","","null","","","null","6","","NaN","","","","","","","","","","","","","",""
"","response","","html-keyboard-response","45","129737","0.0-1.0-59.0-0.0","0","0","76643","","297","","","75","6","","","1","6","training","adjacent","FE","6","5","Q.jpg","M.jpg","1","0","0","",""
"","feedback","","html-keyboard-response","46","130746","0.0-1.0-60.0-0.0","0","0","76643","","null","","","null","6","","","","","","","","","","","","","","","",""
"","time_out","","html-keyboard-response","47","132758","0.0-1.0-62.0-0.0","0","0","76643","","null","","","null","6","","","","","","","","","","","","","","","",""
"","ITI","","html-keyboard-response","48","133765","0.0-1.0-63.0","0","0","76643","","null","","","null","6","","","","","","","","","","","","","","","NaN",""
"","S1","","html-keyboard-response","49","134028","0.0-1.0-65.0","0","0","76643","","null","","","null","7","","","","","","","","","","","","","","","",""
"","ISI","","html-keyboard-response","50","135038","0.0-1.0-66.0","0","0","76643","","null","","","null","7","NaN","","","","","","","","","","","","","","",""
"","S2","","html-keyboard-response","51","135301","0.0-1.0-67.0","0","0","76643","","null","","","null","7","","NaN","","","","","","","","","","","","","",""
"","response","","html-keyboard-response","52","135561","0.0-1.0-68.0-0.0","0","0","76643","","256","","","75","7","","","1","7","training","adjacent","CD","3","4","L.jpg","P.jpg","1","1","1","",""
"","feedback","","html-keyboard-response","53","136573","0.0-1.0-69.0-0.0","0","0","76643","","null","","","null","7","","","","","","","","","","","","","","","",""
"","ITI","","html-keyboard-response","54","137587","0.0-1.0-72.0","0","0","76643","","null","","","null","7","","","","","","","","","","","","","","","NaN",""
"","S1","","html-keyboard-response","55","137847","0.0-1.0-74.0","0","0","76643","","null","","","null","8","","","","","","","","","","","","","","","",""
"","ISI","","html-keyboard-response","56","138862","0.0-1.0-75.0","0","0","76643","","null","","","null","8","NaN","","","","","","","","","","","","","","",""
"","S2","","html-keyboard-response","57","139120","0.0-1.0-76.0","0","0","76643","","null","","","null","8","","NaN","","","","","","","","","","","","","",""
"","response","","html-keyboard-response","58","139162","0.0-1.0-77.0-0.0","0","0","76643","","38","","","75","8","","","1","8","training","adjacent","BA","2","1","O.jpg","R.jpg","1","0","0","",""
"","feedback","","html-keyboard-response","59","140165","0.0-1.0-78.0-0.0","0","0","76643","","null","","","null","8","","","","","","","","","","","","","","","",""
"","time_out","","html-keyboard-response","60","142173","0.0-1.0-80.0-0.0","0","0","76643","","null","","","null","8","","","","","","","","","","","","","","","",""
"","ITI","","html-keyboard-response","61","143183","0.0-1.0-81.0","0","0","76643","","null","","","null","8","","","","","","","","","","","","","","","NaN",""
"","S1","","html-keyboard-response","62","143440","0.0-1.0-83.0","0","0","76643","","null","","","null","9","","","","","","","","","","","","","","","",""
"","ISI","","html-keyboard-response","63","144450","0.0-1.0-84.0","0","0","76643","","null","","","null","9","NaN","","","","","","","","","","","","","","",""
"","S2","","html-keyboard-response","64","144708","0.0-1.0-85.0","0","0","76643","","null","","","null","9","","NaN","","","","","","","","","","","","","",""
"","response","","html-keyboard-response","65","145013","0.0-1.0-86.0-0.0","0","0","76643","","303","","","68","9","","","1","9","training","adjacent","EF","5","6","M.jpg","Q.jpg","0","1","0","",""
"","feedback","","html-keyboard-response","66","146021","0.0-1.0-87.0-0.0","0","0","76643","","null","","","null","9","","","","","","","","","","","","","","","",""
"","time_out","","html-keyboard-response","67","148027","0.0-1.0-89.0-0.0","0","0","76643","","null","","","null","9","","","","","","","","","","","","","","","",""
"","ITI","","html-keyboard-response","68","149044","0.0-1.0-90.0","0","0","76643","","null","","","null","9","","","","","","","","","","","","","","","NaN",""
"","S1","","html-keyboard-response","69","149306","0.0-1.0-92.0","0","0","76643","","null","","","null","10","","","","","","","","","","","","","","","",""
"","ISI","","html-keyboard-response","70","150314","0.0-1.0-93.0","0","0","76643","","null","","","null","10","NaN","","","","","","","","","","","","","","",""
"","S2","","html-keyboard-response","71","150579","0.0-1.0-94.0","0","0","76643","","null","","","null","10","","NaN","","","","","","","","","","","","","",""
"","response","","html-keyboard-response","72","150681","0.0-1.0-95.0-0.0","0","0","76643","","98","","","68","10","","","1","10","training","adjacent","ED","5","4","M.jpg","P.jpg","0","0","1","",""
"","feedback","","html-keyboard-response","73","151692","0.0-1.0-96.0-0.0","0","0","76643","","null","","","null","10","","","","","","","","","","","","","","","",""
"","ITI","","html-keyboard-response","74","152702","0.0-1.0-99.0","0","0","76643","","null","","","null","10","","","","","","","","","","","","","","","NaN",""
"","S1","","html-keyboard-response","75","152960","0.0-1.0-101.0","0","0","76643","","null","","","null","11","","","","","","","","","","","","","","","",""
"","ISI","","html-keyboard-response","76","153967","0.0-1.0-102.0","0","0","76643","","null","","","null","11","NaN","","","","","","","","","","","","","","",""
"","S2","","html-keyboard-response","77","154228","0.0-1.0-103.0","0","0","76643","","null","","","null","11","","NaN","","","","","","","","","","","","","",""
"","response","","html-keyboard-response","78","154248","0.0-1.0-104.0-0.0","0","0","76643","","18","","","75","11","","","1","11","training","adjacent","GF","7","6","N.jpg","Q.jpg","1","0","0","",""
"","feedback","","html-keyboard-response","79","155261","0.0-1.0-105.0-0.0","0","0","76643","","null","","","null","11","","","","","","","","","","","","","","","",""
"","time_out","","html-keyboard-response","80","157268","0.0-1.0-107.0-0.0","0","0","76643","","null","","","null","11","","","","","","","","","","","","","","","",""
"","ITI","","html-keyboard-response","81","158280","0.0-1.0-108.0","0","0","76643","","null","","","null","11","","","","","","","","","","","","","","","NaN",""
"","S1","","html-keyboard-response","82","158543","0.0-1.0-110.0","0","0","76643","","null","","","null","12","","","","","","","","","","","","","","","",""
"","ISI","","html-keyboard-response","83","159551","0.0-1.0-111.0","0","0","76643","","null","","","null","12","NaN","","","","","","","","","","","","","","",""
"","S2","","html-keyboard-response","84","159814","0.0-1.0-112.0","0","0","76643","","null","","","null","12","","NaN","","","","","","","","","","","","","",""
"","response","","html-keyboard-response","85","160127","0.0-1.0-113.0-0.0","0","0","76643","","311","","","75","12","","","1","12","training","adjacent","GF","7","6","N.jpg","Q.jpg","1","0","0","",""
"","feedback","","html-keyboard-response","86","161137","0.0-1.0-114.0-0.0","0","0","76643","","null","","","null","12","","","","","","","","","","","","","","","",""
"","time_out","","html-keyboard-response","87","163151","0.0-1.0-116.0-0.0","0","0","76643","","null","","","null","12","","","","","","","","","","","","","","","",""
"","ITI","","html-keyboard-response","88","164161","0.0-1.0-117.0","0","0","76643","","null","","","null","12","","","","","","","","","","","","","","","NaN",""
"","S1","","html-keyboard-response","89","164422","0.0-1.0-119.0","0","0","76643","","null","","","null","13","","","","","","","","","","","","","","","",""
"","ISI","","html-keyboard-response","90","165429","0.0-1.0-120.0","0","0","76643","","null","","","null","13","NaN","","","","","","","","","","","","","","",""
"","S2","","html-keyboard-response","91","165689","0.0-1.0-121.0","0","0","76643","","null","","","null","13","","NaN","","","","","","","","","","","","","",""
"","response","","html-keyboard-response","92","165693","0.0-1.0-122.0-0.0","0","0","76643","","1","","","75","13","","","1","13","training","adjacent","BC","2","3","O.jpg","L.jpg","1","1","1","",""
"","feedback","","html-keyboard-response","93","166709","0.0-1.0-123.0-0.0","0","0","76643","","null","","","null","13","","","","","","","","","","","","","","","",""
"","ITI","","html-keyboard-response","94","167716","0.0-1.0-126.0","0","0","76643","","null","","","null","13","","","","","","","","","","","","","","","NaN",""
"","S1","","html-keyboard-response","95","167976","0.0-1.0-128.0","0","0","76643","","null","","","null","14","","","","","","","","","","","","","","","",""
"","ISI","","html-keyboard-response","96","168983","0.0-1.0-129.0","0","0","76643","","null","","","null","14","NaN","","","","","","","","","","","","","","",""
"","S2","","html-keyboard-response","97","169238","0.0-1.0-130.0","0","0","76643","","252","","","75","14","","k","1","14","training","adjacent","FE","6","5","Q.jpg","M.jpg","1","0","0","",""
"","feedback","","html-keyboard-response","98","170245","0.0-1.0-132.0-0.0","0","0","76643","","null","","","null","14","","","","","","","","","","","","","","","",""
"","time_out","","html-keyboard-response","99","172254","0.0-1.0-134.0-0.0","0","0","76643","","null","","","null","14","","","","","","","","","","","","","","","",""
"","ITI","","html-keyboard-response","100","173262","0.0-1.0-135.0","0","0","76643","","null","","","null","14","","","","","","","","","","","","","","","NaN",""
"","S1","","html-keyboard-response","101","173526","0.0-1.0-137.0","0","0","76643","","null","","","null","15","","","","","","","","","","","","","","","",""
"","ISI","","html-keyboard-response","102","174535","0.0-1.0-138.0","0","0","76643","","null","","","null","15","NaN","","","","","","","","","","","","","","",""
"","S2","","html-keyboard-response","103","174798","0.0-1.0-139.0","0","0","76643","","null","","","null","15","","NaN","","","","","","","","","","","","","",""
"","response","","html-keyboard-response","104","175152","0.0-1.0-140.0-0.0","0","0","76643","","352","","","68","15","","","1","15","training","adjacent","AB","1","2","R.jpg","O.jpg","0","1","0","",""
"","feedback","","html-keyboard-response","105","176165","0.0-1.0-141.0-0.0","0","0","76643","","null","","","null","15","","","","","","","","","","","","","","","",""
"","time_out","","html-keyboard-response","106","178175","0.0-1.0-143.0-0.0","0","0","76643","","null","","","null","15","","","","","","","","","","","","","","","",""
"","ITI","","html-keyboard-response","107","179179","0.0-1.0-144.0","0","0","76643","","null","","","null","15","","","","","","","","","","","","","","","NaN",""
"","S1","","html-keyboard-response","108","179437","0.0-1.0-146.0","0","0","76643","","null","","","null","16","","","","","","","","","","","","","","","",""
"","ISI","","html-keyboard-response","109","180447","0.0-1.0-147.0","0","0","76643","","null","","","null","16","NaN","","","","","","","","","","","","","","",""
"","S2","","html-keyboard-response","110","180709","0.0-1.0-148.0","0","0","76643","","null","","","null","16","","NaN","","","","","","","","","","","","","",""
"","response","","html-keyboard-response","111","181044","0.0-1.0-149.0-0.0","0","0","76643","","334","","","75","16","","","1","16","training","adjacent","DC","4","3","P.jpg","L.jpg","1","0","0","",""
"","feedback","","html-keyboard-response","112","182053","0.0-1.0-150.0-0.0","0","0","76643","","null","","","null","16","","","","","","","","","","","","","","","",""
"","time_out","","html-keyboard-response","113","184064","0.0-1.0-152.0-0.0","0","0","76643","","null","","","null","16","","","","","","","","","","","","","","","",""
"","ITI","","html-keyboard-response","114","185079","0.0-1.0-153.0","0","0","76643","","null","","","null","16","","","","","","","","","","","","","","","NaN",""
"","S1","","html-keyboard-response","115","185345","0.0-1.0-155.0","0","0","76643","","null","","","null","17","","","","","","","","","","","","","","","",""
"","ISI","","html-keyboard-response","116","186359","0.0-1.0-156.0","0","0","76643","","null","","","null","17","NaN","","","","","","","","","","","","","","",""
"","S2","","html-keyboard-response","117","186620","0.0-1.0-157.0","0","0","76643","","null","","","null","17","","NaN","","","","","","","","","","","","","",""
"","response","","html-keyboard-response","118","186839","0.0-1.0-158.0-0.0","0","0","76643","","215","","","75","17","","","1","17","training","adjacent","FE","6","5","Q.jpg","M.jpg","1","0","0","",""
"","feedback","","html-keyboard-response","119","187852","0.0-1.0-159.0-0.0","0","0","76643","","null","","","null","17","","","","","","","","","","","","","","","",""
"","time_out","","html-keyboard-response","120","189859","0.0-1.0-161.0-0.0","0","0","76643","","null","","","null","17","","","","","","","","","","","","","","","",""
"","ITI","","html-keyboard-response","121","190871","0.0-1.0-162.0","0","0","76643","","null","","","null","17","","","","","","","","","","","","","","","NaN",""
"","S1","","html-keyboard-response","122","191134","0.0-1.0-164.0","0","0","76643","","null","","","null","18","","","","","","","","","","","","","","","",""
"","ISI","","html-keyboard-response","123","192143","0.0-1.0-165.0","0","0","76643","","null","","","null","18","NaN","","","","","","","","","","","","","","",""
"","S2","","html-keyboard-response","124","192404","0.0-1.0-166.0","0","0","76643","","null","","","null","18","","NaN","","","","","","","","","","","","","",""
"","response","","html-keyboard-response","125","192449","0.0-1.0-167.0-0.0","0","0","76643","","41","","","75","18","","","1","18","training","adjacent","BA","2","1","O.jpg","R.jpg","1","0","0","",""
"","feedback","","html-keyboard-response","126","193461","0.0-1.0-168.0-0.0","0","0","76643","","null","","","null","18","","","","","","","","","","","","","","","",""
"","time_out","","html-keyboard-response","127","195472","0.0-1.0-170.0-0.0","0","0","76643","","null","","","null","18","","","","","","","","","","","","","","","",""
"","ITI","","html-keyboard-response","128","196485","0.0-1.0-171.0","0","0","76643","","null","","","null","18","","","","","","","","","","","","","","","NaN",""
"","S1","","html-keyboard-response","129","196745","0.0-1.0-173.0","0","0","76643","","null","","","null","19","","","","","","","","","","","","","","","",""
"","ISI","","html-keyboard-response","130","197759","0.0-1.0-174.0","0","0","76643","","null","","","null","19","NaN","","","","","","","","","","","","","","",""
"","S2","","html-keyboard-response","131","198017","0.0-1.0-175.0","0","0","76643","","null","","","null","19","","NaN","","","","","","","","","","","","","",""
"","response","","html-keyboard-response","132","198262","0.0-1.0-176.0-0.0","0","0","76643","","241","","","75","19","","","1","19","training","adjacent","FG","6","7","Q.jpg","N.jpg","1","1","1","",""
"","feedback","","html-keyboard-response","133","199271","0.0-1.0-177.0-0.0","0","0","76643","","null","","","null","19","","","","","","","","","","","","","","","",""
"","ITI","","html-keyboard-response","134","200283","0.0-1.0-180.0","0","0","76643","","null","","","null","19","","","","","","","","","","","","","","","NaN",""
"","S1","","html-keyboard-response","135","200546","0.0-1.0-182.0","0","0","76643","","null","","","null","20","","","","","","","","","","","","","","","",""
"","ISI","","html-keyboard-response","136","201557","0.0-1.0-183.0","0","0","76643","","null","","","null","20","NaN","","","","","","","","","","","","","","",""
"","S2","","html-keyboard-response","137","201818","0.0-1.0-184.0","0","0","76643","","null","","","null","20","","NaN","","","","","","","","","","","","","",""
"","response","","html-keyboard-response","138","202008","0.0-1.0-185.0-0.0","0","0","76643","","187","","","75","20","","","1","20","training","adjacent","BC","2","3","O.jpg","L.jpg","1","1","1","",""
"","feedback","","html-keyboard-response","139","203020","0.0-1.0-186.0-0.0","0","0","76643","","null","","","null","20","","","","","","","","","","","","","","","",""
"","ITI","","html-keyboard-response","140","204028","0.0-1.0-189.0","0","0","76643","","null","","","null","20","","","","","","","","","","","","","","","NaN",""
"","S1","","html-keyboard-response","141","204287","0.0-1.0-191.0","0","0","76643","","null","","","null","21","","","","","","","","","","","","","","","",""
"","ISI","","html-keyboard-response","142","205297","0.0-1.0-192.0","0","0","76643","","null","","","null","21","NaN","","","","","","","","","","","","","","",""
"","S2","","html-keyboard-response","143","205556","0.0-1.0-193.0","0","0","76643","","null","","","null","21","","NaN","","","","","","","","","","","","","",""
"","response","","html-keyboard-response","144","205617","0.0-1.0-194.0-0.0","0","0","76643","","59","","","68","21","","","1","21","training","adjacent","BC","2","3","O.jpg","L.jpg","0","1","0","",""
"","feedback","","html-keyboard-response","145","206629","0.0-1.0-195.0-0.0","0","0","76643","","null","","","null","21","","","","","","","","","","","","","","","",""
"","time_out","","html-keyboard-response","146","208642","0.0-1.0-197.0-0.0","0","0","76643","","null","","","null","21","","","","","","","","","","","","","","","",""
"","ITI","","html-keyboard-response","147","209653","0.0-1.0-198.0","0","0","76643","","null","","","null","21","","","","","","","","","","","","","","","NaN",""
"","S1","","html-keyboard-response","148","209915","0.0-1.0-200.0","0","0","76643","","null","","","null","22","","","","","","","","","","","","","","","",""
"","ISI","","html-keyboard-response","149","210927","0.0-1.0-201.0","0","0","76643","","null","","","null","22","NaN","","","","","","","","","","","","","","",""
"","S2","","html-keyboard-response","150","211189","0.0-1.0-202.0","0","0","76643","","null","","","null","22","","NaN","","","","","","","","","","","","","",""
"","response","","html-keyboard-response","151","211328","0.0-1.0-203.0-0.0","0","0","76643","","135","","","68","22","","","1","22","training","adjacent","BA","2","1","O.jpg","R.jpg","0","0","1","",""
"","feedback","","html-keyboard-response","152","212340","0.0-1.0-204.0-0.0","0","0","76643","","null","","","null","22","","","","","","","","","","","","","","","",""
"","ITI","","html-keyboard-response","153","213353","0.0-1.0-207.0","0","0","76643","","null","","","null","22","","","","","","","","","","","","","","","NaN",""
"","S1","","html-keyboard-response","154","213611","0.0-1.0-209.0","0","0","76643","","null","","","null","23","","","","","","","","","","","","","","","",""
"","ISI","","html-keyboard-response","155","214621","0.0-1.0-210.0","0","0","76643","","null","","","null","23","NaN","","","","","","","","","","","","","","",""
"","S2","","html-keyboard-response","156","214882","0.0-1.0-211.0","0","0","76643","","null","","","null","23","","NaN","","","","","","","","","","","","","",""
"","response","","html-keyboard-response","157","215218","0.0-1.0-212.0-0.0","0","0","76643","","332","","","75","23","","","1","23","training","adjacent","DE","4","5","P.jpg","M.jpg","1","1","1","",""
"","feedback","","html-keyboard-response","158","216226","0.0-1.0-213.0-0.0","0","0","76643","","null","","","null","23","","","","","","","","","","","","","","","",""
"","ITI","","html-keyboard-response","159","217237","0.0-1.0-216.0","0","0","76643","","null","","","null","23","","","","","","","","","","","","","","","NaN",""
"","S1","","html-keyboard-response","160","217497","0.0-1.0-218.0","0","0","76643","","null","","","null","24","","","","","","","","","","","","","","","",""
"","ISI","","html-keyboard-response","161","218511","0.0-1.0-219.0","0","0","76643","","null","","","null","24","NaN","","","","","","","","","","","","","","",""
"","S2","","html-keyboard-response","162","218767","0.0-1.0-220.0","0","0","76643","","null","","","null","24","","NaN","","","","","","","","","","","","","",""
"","response","","html-keyboard-response","163","219219","0.0-1.0-221.0-0.0","0","0","76643","","448","","","68","24","","","1","24","training","adjacent","BA","2","1","O.jpg","R.jpg","0","0","1","",""
"","feedback","","html-keyboard-response","164","220229","0.0-1.0-222.0-0.0","0","0","76643","","null","","","null","24","","","","","","","","","","","","","","","",""
"","ITI","","html-keyboard-response","165","221241","0.0-1.0-225.0","0","0","76643","","null","","","null","24","","","","","","","","","","","","","","","NaN",""
"","S1","","html-keyboard-response","166","221500","0.0-1.0-227.0","0","0","76643","","null","","","null","25","","","","","","","","","","","","","","","",""
"","ISI","","html-keyboard-response","167","222513","0.0-1.0-228.0","0","0","76643","","null","","","null","25","NaN","","","","","","","","","","","","","","",""
"","S2","","html-keyboard-response","168","222772","0.0-1.0-229.0","0","0","76643","","null","","","null","25","","NaN","","","","","","","","","","","","","",""
"","response","","html-keyboard-response","169","222982","0.0-1.0-230.0-0.0","0","0","76643","","207","","","75","25","","","1","25","training","adjacent","EF","5","6","M.jpg","Q.jpg","1","1","1","",""
"","feedback","","html-keyboard-response","170","223989","0.0-1.0-231.0-0.0","0","0","76643","","null","","","null","25","","","","","","","","","","","","","","","",""
"","ITI","","html-keyboard-response","171","225002","0.0-1.0-234.0","0","0","76643","","null","","","null","25","","","","","","","","","","","","","","","NaN",""
"","S1","","html-keyboard-response","172","225257","0.0-1.0-236.0","0","0","76643","","null","","","null","26","","","","","","","","","","","","","","","",""
"","ISI","","html-keyboard-response","173","226269","0.0-1.0-237.0","0","0","76643","","null","","","null","26","NaN","","","","","","","","","","","","","","",""
"","S2","","html-keyboard-response","174","226530","0.0-1.0-238.0","0","0","76643","","null","","","null","26","","NaN","","","","","","","","","","","","","",""
"","response","","html-keyboard-response","175","227040","0.0-1.0-239.0-0.0","0","0","76643","","507","","","68","26","","","1","26","training","adjacent","CB","3","2","L.jpg","O.jpg","0","0","1","",""
"","feedback","","html-keyboard-response","176","228053","0.0-1.0-240.0-0.0","0","0","76643","","null","","","null","26","","","","","","","","","","","","","","","",""
"","ITI","","html-keyboard-response","177","229057","0.0-1.0-243.0","0","0","76643","","null","","","null","26","","","","","","","","","","","","","","","NaN",""
"","S1","","html-keyboard-response","178","229316","0.0-1.0-245.0","0","0","76643","","null","","","null","27","","","","","","","","","","","","","","","",""
"","ISI","","html-keyboard-response","179","230327","0.0-1.0-246.0","0","0","76643","","null","","","null","27","NaN","","","","","","","","","","","","","","",""
"","S2","","html-keyboard-response","180","230590","0.0-1.0-247.0","0","0","76643","","null","","","null","27","","NaN","","","","","","","","","","","","","",""
"","response","","html-keyboard-response","181","230784","0.0-1.0-248.0-0.0","0","0","76643","","191","","","75","27","","","1","27","training","adjacent","AB","1","2","R.jpg","O.jpg","1","1","1","",""
"","feedback","","html-keyboard-response","182","231791","0.0-1.0-249.0-0.0","0","0","76643","","null","","","null","27","","","","","","","","","","","","","","","",""
"","ITI","","html-keyboard-response","183","232804","0.0-1.0-252.0","0","0","76643","","null","","","null","27","","","","","","","","","","","","","","","NaN",""
"","S1","","html-keyboard-response","184","233066","0.0-1.0-254.0","0","0","76643","","null","","","null","28","","","","","","","","","","","","","","","",""
"","ISI","","html-keyboard-response","185","234074","0.0-1.0-255.0","0","0","76643","","null","","","null","28","NaN","","","","","","","","","","","","","","",""
"","S2","","html-keyboard-response","186","234339","0.0-1.0-256.0","0","0","76643","","null","","","null","28","","NaN","","","","","","","","","","","","","",""
"","response","","html-keyboard-response","187","234835","0.0-1.0-257.0-0.0","0","0","76643","","493","","","75","28","","","1","28","training","adjacent","DC","4","3","P.jpg","L.jpg","1","0","0","",""
"","feedback","","html-keyboard-response","188","235848","0.0-1.0-258.0-0.0","0","0","76643","","null","","","null","28","","","","","","","","","","","","","","","",""
"","time_out","","html-keyboard-response","189","237860","0.0-1.0-260.0-0.0","0","0","76643","","null","","","null","28","","","","","","","","","","","","","","","",""
"","ITI","","html-keyboard-response","190","238868","0.0-1.0-261.0","0","0","76643","","null","","","null","28","","","","","","","","","","","","","","","NaN",""
"","S1","","html-keyboard-response","191","239129","0.0-1.0-263.0","0","0","76643","","null","","","null","29","","","","","","","","","","","","","","","",""
"","ISI","","html-keyboard-response","192","240141","0.0-1.0-264.0","0","0","76643","","null","","","null","29","NaN","","","","","","","","","","","","","","",""
"","S2","","html-keyboard-response","193","240397","0.0-1.0-265.0","0","0","76643","","null","","","null","29","","NaN","","","","","","","","","","","","","",""
"","response","","html-keyboard-response","194","240534","0.0-1.0-266.0-0.0","0","0","76643","","135","","","68","29","","","1","29","training","adjacent","GF","7","6","N.jpg","Q.jpg","0","0","1","",""
"","feedback","","html-keyboard-response","195","241549","0.0-1.0-267.0-0.0","0","0","76643","","null","","","null","29","","","","","","","","","","","","","","","",""
"","ITI","","html-keyboard-response","196","242557","0.0-1.0-270.0","0","0","76643","","null","","","null","29","","","","","","","","","","","","","","","NaN",""
"","S1","","html-keyboard-response","197","242815","0.0-1.0-272.0","0","0","76643","","null","","","null","30","","","","","","","","","","","","","","","",""
"","ISI","","html-keyboard-response","198","243826","0.0-1.0-273.0","0","0","76643","","null","","","null","30","NaN","","","","","","","","","","","","","","",""
"","S2","","html-keyboard-response","199","244087","0.0-1.0-274.0","0","0","76643","","null","","","null","30","","NaN","","","","","","","","","","","","","",""
"","response","","html-keyboard-response","200","244270","0.0-1.0-275.0-0.0","0","0","76643","","180","","","75","30","","","1","30","training","adjacent","AB","1","2","R.jpg","O.jpg","1","1","1","",""
"","feedback","","html-keyboard-response","201","245278","0.0-1.0-276.0-0.0","0","0","76643","","null","","","null","30","","","","","","","","","","","","","","","",""
"","ITI","","html-keyboard-response","202","246288","0.0-1.0-279.0","0","0","76643","","null","","","null","30","","","","","","","","","","","","","","","NaN",""
"","S1","","html-keyboard-response","203","246544","0.0-1.0-281.0","0","0","76643","","null","","","null","31","","","","","","","","","","","","","","","",""
"","ISI","","html-keyboard-response","204","247547","0.0-1.0-282.0","0","0","76643","","null","","","null","31","NaN","","","","","","","","","","","","","","",""
"","S2","","html-keyboard-response","205","247807","0.0-1.0-283.0","0","0","76643","","null","","","null","31","","NaN","","","","","","","","","","","","","",""
"","response","","html-keyboard-response","206","248260","0.0-1.0-284.0-0.0","0","0","76643","","450","","","75","31","","","1","31","training","adjacent","CD","3","4","L.jpg","P.jpg","1","1","1","",""
"","feedback","","html-keyboard-response","207","249269","0.0-1.0-285.0-0.0","0","0","76643","","null","","","null","31","","","","","","","","","","","","","","","",""
"","ITI","","html-keyboard-response","208","250276","0.0-1.0-288.0","0","0","76643","","null","","","null","31","","","","","","","","","","","","","","","NaN",""
"","S1","","html-keyboard-response","209","250539","0.0-1.0-290.0","0","0","76643","","null","","","null","32","","","","","","","","","","","","","","","",""
"","ISI","","html-keyboard-response","210","251550","0.0-1.0-291.0","0","0","76643","","null","","","null","32","NaN","","","","","","","","","","","","","","",""
"","S2","","html-keyboard-response","211","251811","0.0-1.0-292.0","0","0","76643","","null","","","null","32","","NaN","","","","","","","","","","","","","",""
"","response","","html-keyboard-response","212","251856","0.0-1.0-293.0-0.0","0","0","76643","","43","","","75","32","","","1","32","training","adjacent","EF","5","6","M.jpg","Q.jpg","1","1","1","",""
"","feedback","","html-keyboard-response","213","252865","0.0-1.0-294.0-0.0","0","0","76643","","null","","","null","32","","","","","","","","","","","","","","","",""
"","ITI","","html-keyboard-response","214","253875","0.0-1.0-297.0","0","0","76643","","null","","","null","32","","","","","","","","","","","","","","","NaN",""
"","S1","","html-keyboard-response","215","254136","0.0-1.0-299.0","0","0","76643","","null","","","null","33","","","","","","","","","","","","","","","",""
"","ISI","","html-keyboard-response","216","255146","0.0-1.0-300.0","0","0","76643","","null","","","null","33","NaN","","","","","","","","","","","","","","",""
"","S2","","html-keyboard-response","217","255405","0.0-1.0-301.0","0","0","76643","","null","","","null","33","","NaN","","","","","","","","","","","","","",""
"","response","","html-keyboard-response","218","256029","0.0-1.0-302.0-0.0","0","0","76643","","620","","","68","33","","","1","33","training","adjacent","DE","4","5","P.jpg","M.jpg","0","1","0","",""
"","feedback","","html-keyboard-response","219","257039","0.0-1.0-303.0-0.0","0","0","76643","","null","","","null","33","","","","","","","","","","","","","","","",""
"","time_out","","html-keyboard-response","220","259047","0.0-1.0-305.0-0.0","0","0","76643","","null","","","null","33","","","","","","","","","","","","","","","",""
"","ITI","","html-keyboard-response","221","260056","0.0-1.0-306.0","0","0","76643","","null","","","null","33","","","","","","","","","","","","","","","NaN",""
"","S1","","html-keyboard-response","222","260317","0.0-1.0-308.0","0","0","76643","","null","","","null","34","","","","","","","","","","","","","","","",""
"","ISI","","html-keyboard-response","223","261331","0.0-1.0-309.0","0","0","76643","","null","","","null","34","NaN","","","","","","","","","","","","","","",""
"","S2","","html-keyboard-response","224","261591","0.0-1.0-310.0","0","0","76643","","null","","","null","34","","NaN","","","","","","","","","","","","","",""
"","response","","html-keyboard-response","225","262141","0.0-1.0-311.0-0.0","0","0","76643","","547","","","75","34","","","1","34","training","adjacent","DC","4","3","P.jpg","L.jpg","1","0","0","",""
"","feedback","","html-keyboard-response","226","263152","0.0-1.0-312.0-0.0","0","0","76643","","null","","","null","34","","","","","","","","","","","","","","","",""
"","time_out","","html-keyboard-response","227","265162","0.0-1.0-314.0-0.0","0","0","76643","","null","","","null","34","","","","","","","","","","","","","","","",""
"","ITI","","html-keyboard-response","228","266173","0.0-1.0-315.0","0","0","76643","","null","","","null","34","","","","","","","","","","","","","","","NaN",""
"","S1","","html-keyboard-response","229","266438","0.0-1.0-317.0","0","0","76643","","null","","","null","35","","","","","","","","","","","","","","","",""
"","ISI","","html-keyboard-response","230","267451","0.0-1.0-318.0","0","0","76643","","null","","","null","35","NaN","","","","","","","","","","","","","","",""
"","S2","","html-keyboard-response","231","267719","0.0-1.0-319.0","0","0","76643","","null","","","null","35","","NaN","","","","","","","","","","","","","",""
"","response","","html-keyboard-response","232","268162","0.0-1.0-320.0-0.0","0","0","76643","","439","","","68","35","","","1","35","training","adjacent","CB","3","2","L.jpg","O.jpg","0","0","1","",""
"","feedback","","html-keyboard-response","233","269173","0.0-1.0-321.0-0.0","0","0","76643","","null","","","null","35","","","","","","","","","","","","","","","",""
"","ITI","","html-keyboard-response","234","270181","0.0-1.0-324.0","0","0","76643","","null","","","null","35","","","","","","","","","","","","","","","NaN",""
"","S1","","html-keyboard-response","235","270442","0.0-1.0-326.0","0","0","76643","","null","","","null","36","","","","","","","","","","","","","","","",""
"","ISI","","html-keyboard-response","236","271451","0.0-1.0-327.0","0","0","76643","","null","","","null","36","NaN","","","","","","","","","","","","","","",""
"","S2","","html-keyboard-response","237","271709","0.0-1.0-328.0","0","0","76643","","null","","","null","36","","NaN","","","","","","","","","","","","","",""
"","response","","html-keyboard-response","238","272048","0.0-1.0-329.0-0.0","0","0","76643","","337","","","75","36","","","1","36","training","adjacent","CD","3","4","L.jpg","P.jpg","1","1","1","",""
"","feedback","","html-keyboard-response","239","273059","0.0-1.0-330.0-0.0","0","0","76643","","null","","","null","36","","","","","","","","","","","","","","","",""
"","ITI","","html-keyboard-response","240","274065","0.0-1.0-333.0","0","0","76643","","null","","","null","36","","","","","","","","","","","","","","","NaN",""
"","S1","","html-keyboard-response","241","274330","0.0-1.0-335.0","0","0","76643","","null","","","null","37","","","","","","","","","","","","","","","",""
"","ISI","","html-keyboard-response","242","275338","0.0-1.0-336.0","0","0","76643","","null","","","null","37","NaN","","","","","","","","","","","","","","",""
"","S2","","html-keyboard-response","243","275597","0.0-1.0-337.0","0","0","76643","","null","","","null","37","","NaN","","","","","","","","","","","","","",""
"","response","","html-keyboard-response","244","276216","0.0-1.0-338.0-0.0","0","0","76643","","615","","","75","37","","","1","37","training","adjacent","DE","4","5","P.jpg","M.jpg","1","1","1","",""
"","feedback","","html-keyboard-response","245","277226","0.0-1.0-339.0-0.0","0","0","76643","","null","","","null","37","","","","","","","","","","","","","","","",""
"","ITI","","html-keyboard-response","246","278231","0.0-1.0-342.0","0","0","76643","","null","","","null","37","","","","","","","","","","","","","","","NaN",""
"","S1","","html-keyboard-response","247","278492","0.0-1.0-344.0","0","0","76643","","null","","","null","38","","","","","","","","","","","","","","","",""
"","ISI","","html-keyboard-response","248","279499","0.0-1.0-345.0","0","0","76643","","null","","","null","38","NaN","","","","","","","","","","","","","","",""
"","S2","","html-keyboard-response","249","279765","0.0-1.0-346.0","0","0","76643","","null","","","null","38","","NaN","","","","","","","","","","","","","",""
"","response","","html-keyboard-response","250","280464","0.0-1.0-347.0-0.0","0","0","76643","","695","","","68","38","","","1","38","training","adjacent","DC","4","3","P.jpg","L.jpg","0","0","1","",""
"","feedback","","html-keyboard-response","251","281474","0.0-1.0-348.0-0.0","0","0","76643","","null","","","null","38","","","","","","","","","","","","","","","",""
"","ITI","","html-keyboard-response","252","282482","0.0-1.0-351.0","0","0","76643","","null","","","null","38","","","","","","","","","","","","","","","NaN",""
"","S1","","html-keyboard-response","253","282745","0.0-1.0-353.0","0","0","76643","","null","","","null","39","","","","","","","","","","","","","","","",""
"","ISI","","html-keyboard-response","254","283753","0.0-1.0-354.0","0","0","76643","","null","","","null","39","NaN","","","","","","","","","","","","","","",""
"","S2","","html-keyboard-response","255","284013","0.0-1.0-355.0","0","0","76643","","null","","","null","39","","NaN","","","","","","","","","","","","","",""
"","response","","html-keyboard-response","256","284577","0.0-1.0-356.0-0.0","0","0","76643","","560","","","68","39","","","1","39","training","adjacent","CB","3","2","L.jpg","O.jpg","0","0","1","",""
"","feedback","","html-keyboard-response","257","285589","0.0-1.0-357.0-0.0","0","0","76643","","null","","","null","39","","","","","","","","","","","","","","","",""
"","ITI","","html-keyboard-response","258","286595","0.0-1.0-360.0","0","0","76643","","null","","","null","39","","","","","","","","","","","","","","","NaN",""
"","S1","","html-keyboard-response","259","286854","0.0-1.0-362.0","0","0","76643","","null","","","null","40","","","","","","","","","","","","","","","",""
"","ISI","","html-keyboard-response","260","287862","0.0-1.0-363.0","0","0","76643","","null","","","null","40","NaN","","","","","","","","","","","","","","",""
"","S2","","html-keyboard-response","261","288116","0.0-1.0-364.0","0","0","76643","","null","","","null","40","","NaN","","","","","","","","","","","","","",""
"","response","","html-keyboard-response","262","288531","0.0-1.0-365.0-0.0","0","0","76643","","411","","","75","40","","","1","40","training","adjacent","FG","6","7","Q.jpg","N.jpg","1","1","1","",""
"","feedback","","html-keyboard-response","263","289538","0.0-1.0-366.0-0.0","0","0","76643","","null","","","null","40","","","","","","","","","","","","","","","",""
"","ITI","","html-keyboard-response","264","290551","0.0-1.0-369.0","0","0","76643","","null","","","null","40","","","","","","","","","","","","","","","NaN",""
"","S1","","html-keyboard-response","265","290811","0.0-1.0-371.0","0","0","76643","","null","","","null","41","","","","","","","","","","","","","","","",""
"","ISI","","html-keyboard-response","266","291824","0.0-1.0-372.0","0","0","76643","","null","","","null","41","NaN","","","","","","","","","","","","","","",""
"","S2","","html-keyboard-response","267","292084","0.0-1.0-373.0","0","0","76643","","null","","","null","41","","NaN","","","","","","","","","","","","","",""
"","response","","html-keyboard-response","268","292469","0.0-1.0-374.0-0.0","0","0","76643","","382","","","75","41","","","1","41","training","adjacent","FG","6","7","Q.jpg","N.jpg","1","1","1","",""
"","feedback","","html-keyboard-response","269","293476","0.0-1.0-375.0-0.0","0","0","76643","","null","","","null","41","","","","","","","","","","","","","","","",""
"","ITI","","html-keyboard-response","270","294484","0.0-1.0-378.0","0","0","76643","","null","","","null","41","","","","","","","","","","","","","","","NaN",""
"","S1","","html-keyboard-response","271","294744","0.0-1.0-380.0","0","0","76643","","null","","","null","42","","","","","","","","","","","","","","","",""
"","ISI","","html-keyboard-response","272","295753","0.0-1.0-381.0","0","0","76643","","null","","","null","42","NaN","","","","","","","","","","","","","","",""
"","S2","","html-keyboard-response","273","296016","0.0-1.0-382.0","0","0","76643","","null","","","null","42","","NaN","","","","","","","","","","","","","",""
"","response","","html-keyboard-response","274","296289","0.0-1.0-383.0-0.0","0","0","76643","","272","","","75","42","","","1","42","training","adjacent","FG","6","7","Q.jpg","N.jpg","1","1","1","",""
"","feedback","","html-keyboard-response","275","297299","0.0-1.0-384.0-0.0","0","0","76643","","null","","","null","42","","","","","","","","","","","","","","","",""
"","ITI","","html-keyboard-response","276","298308","0.0-1.0-387.0","0","0","76643","","null","","","null","42","","","","","","","","","","","","","","","NaN",""
"","S1","","html-keyboard-response","277","298566","0.0-1.0-389.0","0","0","76643","","null","","","null","43","","","","","","","","","","","","","","","",""
"","ISI","","html-keyboard-response","278","299578","0.0-1.0-390.0","0","0","76643","","null","","","null","43","NaN","","","","","","","","","","","","","","",""
"","S2","","html-keyboard-response","279","299837","0.0-1.0-391.0","0","0","76643","","null","","","null","43","","NaN","","","","","","","","","","","","","",""
"","response","","html-keyboard-response","280","300149","0.0-1.0-392.0-0.0","0","0","76643","","307","","","68","43","","","1","43","training","adjacent","FE","6","5","Q.jpg","M.jpg","0","0","1","",""
"","feedback","","html-keyboard-response","281","301162","0.0-1.0-393.0-0.0","0","0","76643","","null","","","null","43","","","","","","","","","","","","","","","",""
"","ITI","","html-keyboard-response","282","302171","0.0-1.0-396.0","0","0","76643","","null","","","null","43","","","","","","","","","","","","","","","NaN",""
"","S1","","html-keyboard-response","283","302429","0.0-1.0-398.0","0","0","76643","","null","","","null","44","","","","","","","","","","","","","","","",""
"","ISI","","html-keyboard-response","284","303439","0.0-1.0-399.0","0","0","76643","","null","","","null","44","NaN","","","","","","","","","","","","","","",""
"","S2","","html-keyboard-response","285","303695","0.0-1.0-400.0","0","0","76643","","null","","","null","44","","NaN","","","","","","","","","","","","","",""
"","response","","html-keyboard-response","286","304129","0.0-1.0-401.0-0.0","0","0","76643","","432","","","75","44","","","1","44","training","adjacent","CB","3","2","L.jpg","O.jpg","1","0","0","",""
"","feedback","","html-keyboard-response","287","305139","0.0-1.0-402.0-0.0","0","0","76643","","null","","","null","44","","","","","","","","","","","","","","","",""
"","time_out","","html-keyboard-response","288","307152","0.0-1.0-404.0-0.0","0","0","76643","","null","","","null","44","","","","","","","","","","","","","","","",""
"","ITI","","html-keyboard-response","289","308165","0.0-1.0-405.0","0","0","76643","","null","","","null","44","","","","","","","","","","","","","","","NaN",""
"","S1","","html-keyboard-response","290","308429","0.0-1.0-407.0","0","0","76643","","null","","","null","45","","","","","","","","","","","","","","","",""
"","ISI","","html-keyboard-response","291","309439","0.0-1.0-408.0","0","0","76643","","null","","","null","45","NaN","","","","","","","","","","","","","","",""
"","S2","","html-keyboard-response","292","309700","0.0-1.0-409.0","0","0","76643","","null","","","null","45","","NaN","","","","","","","","","","","","","",""
"","response","","html-keyboard-response","293","310284","0.0-1.0-410.0-0.0","0","0","76643","","580","","","68","45","","","1","45","training","adjacent","ED","5","4","M.jpg","P.jpg","0","0","1","",""
"","feedback","","html-keyboard-response","294","311291","0.0-1.0-411.0-0.0","0","0","76643","","null","","","null","45","","","","","","","","","","","","","","","",""
"","ITI","","html-keyboard-response","295","312304","0.0-1.0-414.0","0","0","76643","","null","","","null","45","","","","","","","","","","","","","","","NaN",""
"","S1","","html-keyboard-response","296","312559","0.0-1.0-416.0","0","0","76643","","null","","","null","46","","","","","","","","","","","","","","","",""
"","ISI","","html-keyboard-response","297","313566","0.0-1.0-417.0","0","0","76643","","null","","","null","46","NaN","","","","","","","","","","","","","","",""
"","S2","","html-keyboard-response","298","313825","0.0-1.0-418.0","0","0","76643","","null","","","null","46","","NaN","","","","","","","","","","","","","",""
"","response","","html-keyboard-response","299","314256","0.0-1.0-419.0-0.0","0","0","76643","","429","","","75","46","","","1","46","training","adjacent","EF","5","6","M.jpg","Q.jpg","1","1","1","",""
"","feedback","","html-keyboard-response","300","315265","0.0-1.0-420.0-0.0","0","0","76643","","null","","","null","46","","","","","","","","","","","","","","","",""
"","ITI","","html-keyboard-response","301","316276","0.0-1.0-423.0","0","0","76643","","null","","","null","46","","","","","","","","","","","","","","","NaN",""
"","S1","","html-keyboard-response","302","316533","0.0-1.0-425.0","0","0","76643","","null","","","null","47","","","","","","","","","","","","","","","",""
"","ISI","","html-keyboard-response","303","317537","0.0-1.0-426.0","0","0","76643","","null","","","null","47","NaN","","","","","","","","","","","","","","",""
"","S2","","html-keyboard-response","304","317793","0.0-1.0-427.0","0","0","76643","","null","","","null","47","","NaN","","","","","","","","","","","","","",""
"","response","","html-keyboard-response","305","318105","0.0-1.0-428.0-0.0","0","0","76643","","309","","","68","47","","","1","47","training","adjacent","ED","5","4","M.jpg","P.jpg","0","0","1","",""
"","feedback","","html-keyboard-response","306","319114","0.0-1.0-429.0-0.0","0","0","76643","","null","","","null","47","","","","","","","","","","","","","","","",""
"","ITI","","html-keyboard-response","307","320124","0.0-1.0-432.0","0","0","76643","","null","","","null","47","","","","","","","","","","","","","","","NaN",""
"","block_over","","html-keyboard-response","308","325304","0.0-1.0-433.0-0.0","0","0","76643","","5175","","","32","47","","","","","","","","","","","","","","","",""
"","S1","","html-keyboard-response","309","325567","0.0-1.0-434.0","0","0","76643","","null","","","null","48","","","","","","","","","","","","","","","",""
"","ISI","","html-keyboard-response","310","326581","0.0-1.0-435.0","0","0","76643","","null","","","null","48","NaN","","","","","","","","","","","","","","",""
"","S2","","html-keyboard-response","311","326842","0.0-1.0-436.0","0","0","76643","","null","","","null","48","","NaN","","","","","","","","","","","","","",""
"","response","","html-keyboard-response","312","327708","0.0-1.0-437.0-0.0","0","0","76643","","861","","","75","48","","","2","48","training","adjacent","FG","6","7","Q.jpg","N.jpg","1","1","1","",""
"","feedback","","html-keyboard-response","313","328721","0.0-1.0-438.0-0.0","0","0","76643","","null","","","null","48","","","","","","","","","","","","","","","",""
"","ITI","","html-keyboard-response","314","329728","0.0-1.0-441.0","0","0","76643","","null","","","null","48","","","","","","","","","","","","","","","NaN",""
"","S1","","html-keyboard-response","315","329990","0.0-1.0-443.0","0","0","76643","","null","","","null","49","","","","","","","","","","","","","","","",""
"","ISI","","html-keyboard-response","316","331000","0.0-1.0-444.0","0","0","76643","","null","","","null","49","NaN","","","","","","","","","","","","","","",""
"","S2","","html-keyboard-response","317","331258","0.0-1.0-445.0","0","0","76643","","null","","","null","49","","NaN","","","","","","","","","","","","","",""
"","response","","html-keyboard-response","318","331675","0.0-1.0-446.0-0.0","0","0","76643","","413","","","75","49","","","2","49","training","adjacent","FG","6","7","Q.jpg","N.jpg","1","1","1","",""
"","feedback","","html-keyboard-response","319","332684","0.0-1.0-447.0-0.0","0","0","76643","","null","","","null","49","","","","","","","","","","","","","","","",""
"","ITI","","html-keyboard-response","320","333691","0.0-1.0-450.0","0","0","76643","","null","","","null","49","","","","","","","","","","","","","","","NaN",""
"","S1","","html-keyboard-response","321","333950","0.0-1.0-452.0","0","0","76643","","null","","","null","50","","","","","","","","","","","","","","","",""
"","ISI","","html-keyboard-response","322","334958","0.0-1.0-453.0","0","0","76643","","null","","","null","50","NaN","","","","","","","","","","","","","","",""
"","S2","","html-keyboard-response","323","335219","0.0-1.0-454.0","0","0","76643","","null","","","null","50","","NaN","","","","","","","","","","","","","",""
"","response","","html-keyboard-response","324","335868","0.0-1.0-455.0-0.0","0","0","76643","","644","","","75","50","","","2","50","training","adjacent","EF","5","6","M.jpg","Q.jpg","1","1","1","",""
"","feedback","","html-keyboard-response","325","336882","0.0-1.0-456.0-0.0","0","0","76643","","null","","","null","50","","","","","","","","","","","","","","","",""
"","ITI","","html-keyboard-response","326","337891","0.0-1.0-459.0","0","0","76643","","null","","","null","50","","","","","","","","","","","","","","","NaN",""
"","S1","","html-keyboard-response","327","338151","0.0-1.0-461.0","0","0","76643","","null","","","null","51","","","","","","","","","","","","","","","",""
"","ISI","","html-keyboard-response","328","339160","0.0-1.0-462.0","0","0","76643","","null","","","null","51","NaN","","","","","","","","","","","","","","",""
"","S2","","html-keyboard-response","329","339421","0.0-1.0-463.0","0","0","76643","","null","","","null","51","","NaN","","","","","","","","","","","","","",""
"","response","","html-keyboard-response","330","339842","0.0-1.0-464.0-0.0","0","0","76643","","417","","","68","51","","","2","51","training","adjacent","ED","5","4","M.jpg","P.jpg","0","0","1","",""
"","feedback","","html-keyboard-response","331","340851","0.0-1.0-465.0-0.0","0","0","76643","","null","","","null","51","","","","","","","","","","","","","","","",""
"","ITI","","html-keyboard-response","332","341862","0.0-1.0-468.0","0","0","76643","","null","","","null","51","","","","","","","","","","","","","","","NaN",""
"","S1","","html-keyboard-response","333","342126","0.0-1.0-470.0","0","0","76643","","null","","","null","52","","","","","","","","","","","","","","","",""
"","ISI","","html-keyboard-response","334","343142","0.0-1.0-471.0","0","0","76643","","null","","","null","52","NaN","","","","","","","","","","","","","","",""
"","S2","","html-keyboard-response","335","343400","0.0-1.0-472.0","0","0","76643","","null","","","null","52","","NaN","","","","","","","","","","","","","",""
"","response","","html-keyboard-response","336","344283","0.0-1.0-473.0-0.0","0","0","76643","","880","","","75","52","","","2","52","training","adjacent","DE","4","5","P.jpg","M.jpg","1","1","1","",""
"","feedback","","html-keyboard-response","337","345296","0.0-1.0-474.0-0.0","0","0","76643","","null","","","null","52","","","","","","","","","","","","","","","",""
"","ITI","","html-keyboard-response","338","346310","0.0-1.0-477.0","0","0","76643","","null","","","null","52","","","","","","","","","","","","","","","NaN",""
"","S1","","html-keyboard-response","339","346568","0.0-1.0-479.0","0","0","76643","","null","","","null","53","","","","","","","","","","","","","","","",""
"","ISI","","html-keyboard-response","340","347580","0.0-1.0-480.0","0","0","76643","","null","","","null","53","NaN","","","","","","","","","","","","","","",""
"","S2","","html-keyboard-response","341","347841","0.0-1.0-481.0","0","0","76643","","null","","","null","53","","NaN","","","","","","","","","","","","","",""
"","response","","html-keyboard-response","342","348235","0.0-1.0-482.0-0.0","0","0","76643","","392","","","68","53","","","2","53","training","adjacent","BA","2","1","O.jpg","R.jpg","0","0","1","",""
"","feedback","","html-keyboard-response","343","349250","0.0-1.0-483.0-0.0","0","0","76643","","null","","","null","53","","","","","","","","","","","","","","","",""
"","ITI","","html-keyboard-response","344","350259","0.0-1.0-486.0","0","0","76643","","null","","","null","53","","","","","","","","","","","","","","","NaN",""
"","S1","","html-keyboard-response","345","350523","0.0-1.0-488.0","0","0","76643","","null","","","null","54","","","","","","","","","","","","","","","",""
"","ISI","","html-keyboard-response","346","351532","0.0-1.0-489.0","0","0","76643","","null","","","null","54","NaN","","","","","","","","","","","","","","",""
"","S2","","html-keyboard-response","347","351789","0.0-1.0-490.0","0","0","76643","","null","","","null","54","","NaN","","","","","","","","","","","","","",""
"","response","","html-keyboard-response","348","352331","0.0-1.0-491.0-0.0","0","0","76643","","539","","","68","54","","","2","54","training","adjacent","CD","3","4","L.jpg","P.jpg","0","1","0","",""
"","feedback","","html-keyboard-response","349","353338","0.0-1.0-492.0-0.0","0","0","76643","","null","","","null","54","","","","","","","","","","","","","","","",""
"","time_out","","html-keyboard-response","350","355349","0.0-1.0-494.0-0.0","0","0","76643","","null","","","null","54","","","","","","","","","","","","","","","",""
"","ITI","","html-keyboard-response","351","356358","0.0-1.0-495.0","0","0","76643","","null","","","null","54","","","","","","","","","","","","","","","NaN",""
"","S1","","html-keyboard-response","352","356615","0.0-1.0-497.0","0","0","76643","","null","","","null","55","","","","","","","","","","","","","","","",""
"","ISI","","html-keyboard-response","353","357626","0.0-1.0-498.0","0","0","76643","","null","","","null","55","NaN","","","","","","","","","","","","","","",""
"","S2","","html-keyboard-response","354","357890","0.0-1.0-499.0","0","0","76643","","null","","","null","55","","NaN","","","","","","","","","","","","","",""
"","response","","html-keyboard-response","355","358244","0.0-1.0-500.0-0.0","0","0","76643","","351","","","68","55","","","2","55","training","adjacent","GF","7","6","N.jpg","Q.jpg","0","0","1","",""
"","feedback","","html-keyboard-response","356","359255","0.0-1.0-501.0-0.0","0","0","76643","","null","","","null","55","","","","","","","","","","","","","","","",""
"","ITI","","html-keyboard-response","357","360271","0.0-1.0-504.0","0","0","76643","","null","","","null","55","","","","","","","","","","","","","","","NaN",""
"","S1","","html-keyboard-response","358","360532","0.0-1.0-506.0","0","0","76643","","null","","","null","56","","","","","","","","","","","","","","","",""
"","ISI","","html-keyboard-response","359","361541","0.0-1.0-507.0","0","0","76643","","null","","","null","56","NaN","","","","","","","","","","","","","","",""
"","S2","","html-keyboard-response","360","361804","0.0-1.0-508.0","0","0","76643","","null","","","null","56","","NaN","","","","","","","","","","","","","",""
"","response","","html-keyboard-response","361","362151","0.0-1.0-509.0-0.0","0","0","76643","","344","","","75","56","","","2","56","training","adjacent","BC","2","3","O.jpg","L.jpg","1","1","1","",""
"","feedback","","html-keyboard-response","362","363160","0.0-1.0-510.0-0.0","0","0","76643","","null","","","null","56","","","","","","","","","","","","","","","",""
"","ITI","","html-keyboard-response","363","364170","0.0-1.0-513.0","0","0","76643","","null","","","null","56","","","","","","","","","","","","","","","NaN",""
"","S1","","html-keyboard-response","364","364428","0.0-1.0-515.0","0","0","76643","","null","","","null","57","","","","","","","","","","","","","","","",""
"","ISI","","html-keyboard-response","365","365441","0.0-1.0-516.0","0","0","76643","","null","","","null","57","NaN","","","","","","","","","","","","","","",""
"","S2","","html-keyboard-response","366","365699","0.0-1.0-517.0","0","0","76643","","null","","","null","57","","NaN","","","","","","","","","","","","","",""
"","response","","html-keyboard-response","367","366226","0.0-1.0-518.0-0.0","0","0","76643","","523","","","75","57","","","2","57","training","adjacent","CB","3","2","L.jpg","O.jpg","1","0","0","",""
"","feedback","","html-keyboard-response","368","367240","0.0-1.0-519.0-0.0","0","0","76643","","null","","","null","57","","","","","","","","","","","","","","","",""
"","time_out","","html-keyboard-response","369","369249","0.0-1.0-521.0-0.0","0","0","76643","","null","","","null","57","","","","","","","","","","","","","","","",""
"","ITI","","html-keyboard-response","370","370258","0.0-1.0-522.0","0","0","76643","","null","","","null","57","","","","","","","","","","","","","","","NaN",""
"","S1","","html-keyboard-response","371","370516","0.0-1.0-524.0","0","0","76643","","null","","","null","58","","","","","","","","","","","","","","","",""
"","ISI","","html-keyboard-response","372","371526","0.0-1.0-525.0","0","0","76643","","null","","","null","58","NaN","","","","","","","","","","","","","","",""
"","S2","","html-keyboard-response","373","371786","0.0-1.0-526.0","0","0","76643","","null","","","null","58","","NaN","","","","","","","","","","","","","",""
"","response","","html-keyboard-response","374","371797","0.0-1.0-527.0-0.0","0","0","76643","","8","","","75","58","","","2","58","training","adjacent","AB","1","2","R.jpg","O.jpg","1","1","1","",""
"","feedback","","html-keyboard-response","375","372804","0.0-1.0-528.0-0.0","0","0","76643","","null","","","null","58","","","","","","","","","","","","","","","",""
"","ITI","","html-keyboard-response","376","373812","0.0-1.0-531.0","0","0","76643","","null","","","null","58","","","","","","","","","","","","","","","NaN",""
"","S1","","html-keyboard-response","377","374068","0.0-1.0-533.0","0","0","76643","","null","","","null","59","","","","","","","","","","","","","","","",""
"","ISI","","html-keyboard-response","378","375076","0.0-1.0-534.0","0","0","76643","","null","","","null","59","NaN","","","","","","","","","","","","","","",""
"","S2","","html-keyboard-response","379","375333","0.0-1.0-535.0","0","0","76643","","null","","","null","59","","NaN","","","","","","","","","","","","","",""
"","response","","html-keyboard-response","380","375429","0.0-1.0-536.0-0.0","0","0","76643","","93","","","68","59","","","2","59","training","adjacent","GF","7","6","N.jpg","Q.jpg","0","0","1","",""
"","feedback","","html-keyboard-response","381","376441","0.0-1.0-537.0-0.0","0","0","76643","","null","","","null","59","","","","","","","","","","","","","","","",""
"","ITI","","html-keyboard-response","382","377451","0.0-1.0-540.0","0","0","76643","","null","","","null","59","","","","","","","","","","","","","","","NaN",""
"","S1","","html-keyboard-response","383","377714","0.0-1.0-542.0","0","0","76643","","null","","","null","60","","","","","","","","","","","","","","","",""
"","ISI","","html-keyboard-response","384","378729","0.0-1.0-543.0","0","0","76643","","null","","","null","60","NaN","","","","","","","","","","","","","","",""
"","S2","","html-keyboard-response","385","378989","0.0-1.0-544.0","0","0","76643","","null","","","null","60","","NaN","","","","","","","","","","","","","",""
"","response","","html-keyboard-response","386","379500","0.0-1.0-545.0-0.0","0","0","76643","","509","","","68","60","","","2","60","training","adjacent","EF","5","6","M.jpg","Q.jpg","0","1","0","",""
"","feedback","","html-keyboard-response","387","380513","0.0-1.0-546.0-0.0","0","0","76643","","null","","","null","60","","","","","","","","","","","","","","","",""
"","time_out","","html-keyboard-response","388","382522","0.0-1.0-548.0-0.0","0","0","76643","","null","","","null","60","","","","","","","","","","","","","","","",""
"","ITI","","html-keyboard-response","389","383533","0.0-1.0-549.0","0","0","76643","","null","","","null","60","","","","","","","","","","","","","","","NaN",""
"","S1","","html-keyboard-response","390","383796","0.0-1.0-551.0","0","0","76643","","null","","","null","61","","","","","","","","","","","","","","","",""
"","ISI","","html-keyboard-response","391","384805","0.0-1.0-552.0","0","0","76643","","null","","","null","61","NaN","","","","","","","","","","","","","","",""
"","S2","","html-keyboard-response","392","385063","0.0-1.0-553.0","0","0","76643","","null","","","null","61","","NaN","","","","","","","","","","","","","",""
"","response","","html-keyboard-response","393","385256","0.0-1.0-554.0-0.0","0","0","76643","","189","","","68","61","","","2","61","training","adjacent","BA","2","1","O.jpg","R.jpg","0","0","1","",""
"","feedback","","html-keyboard-response","394","386269","0.0-1.0-555.0-0.0","0","0","76643","","null","","","null","61","","","","","","","","","","","","","","","",""
"","ITI","","html-keyboard-response","395","387280","0.0-1.0-558.0","0","0","76643","","null","","","null","61","","","","","","","","","","","","","","","NaN",""
"","S1","","html-keyboard-response","396","387545","0.0-1.0-560.0","0","0","76643","","null","","","null","62","","","","","","","","","","","","","","","",""
"","ISI","","html-keyboard-response","397","388555","0.0-1.0-561.0","0","0","76643","","null","","","null","62","NaN","","","","","","","","","","","","","","",""
"","S2","","html-keyboard-response","398","388820","0.0-1.0-562.0","0","0","76643","","null","","","null","62","","NaN","","","","","","","","","","","","","",""
"","response","","html-keyboard-response","399","389139","0.0-1.0-563.0-0.0","0","0","76643","","314","","","75","62","","","2","62","training","adjacent","CB","3","2","L.jpg","O.jpg","1","0","0","",""
"","feedback","","html-keyboard-response","400","390148","0.0-1.0-564.0-0.0","0","0","76643","","null","","","null","62","","","","","","","","","","","","","","","",""
"","time_out","","html-keyboard-response","401","392155","0.0-1.0-566.0-0.0","0","0","76643","","null","","","null","62","","","","","","","","","","","","","","","",""
"","ITI","","html-keyboard-response","402","393167","0.0-1.0-567.0","0","0","76643","","null","","","null","62","","","","","","","","","","","","","","","NaN",""
"","S1","","html-keyboard-response","403","393427","0.0-1.0-569.0","0","0","76643","","null","","","null","63","","","","","","","","","","","","","","","",""
"","ISI","","html-keyboard-response","404","394437","0.0-1.0-570.0","0","0","76643","","null","","","null","63","NaN","","","","","","","","","","","","","","",""
"","S2","","html-keyboard-response","405","394692","0.0-1.0-571.0","0","0","76643","","null","","","null","63","","NaN","","","","","","","","","","","","","",""
"","response","","html-keyboard-response","406","395222","0.0-1.0-572.0-0.0","0","0","76643","","526","","","68","63","","","2","63","training","adjacent","DC","4","3","P.jpg","L.jpg","0","0","1","",""
"","feedback","","html-keyboard-response","407","396230","0.0-1.0-573.0-0.0","0","0","76643","","null","","","null","63","","","","","","","","","","","","","","","",""
"","ITI","","html-keyboard-response","408","397242","0.0-1.0-576.0","0","0","76643","","null","","","null","63","","","","","","","","","","","","","","","NaN",""
"","S1","","html-keyboard-response","409","397512","0.0-1.0-578.0","0","0","76643","","null","","","null","64","","","","","","","","","","","","","","","",""
"","ISI","","html-keyboard-response","410","398520","0.0-1.0-579.0","0","0","76643","","null","","","null","64","NaN","","","","","","","","","","","","","","",""
"","S2","","html-keyboard-response","411","398780","0.0-1.0-580.0","0","0","76643","","null","","","null","64","","NaN","","","","","","","","","","","","","",""
"","response","","html-keyboard-response","412","399024","0.0-1.0-581.0-0.0","0","0","76643","","240","","","75","64","","","2","64","training","adjacent","AB","1","2","R.jpg","O.jpg","1","1","1","",""
"","feedback","","html-keyboard-response","413","400031","0.0-1.0-582.0-0.0","0","0","76643","","null","","","null","64","","","","","","","","","","","","","","","",""
"","ITI","","html-keyboard-response","414","401043","0.0-1.0-585.0","0","0","76643","","null","","","null","64","","","","","","","","","","","","","","","NaN",""
"","S1","","html-keyboard-response","415","401303","0.0-1.0-587.0","0","0","76643","","null","","","null","65","","","","","","","","","","","","","","","",""
"","ISI","","html-keyboard-response","416","402317","0.0-1.0-588.0","0","0","76643","","null","","","null","65","NaN","","","","","","","","","","","","","","",""
"","S2","","html-keyboard-response","417","402580","0.0-1.0-589.0","0","0","76643","","null","","","null","65","","NaN","","","","","","","","","","","","","",""
"","response","","html-keyboard-response","418","402776","0.0-1.0-590.0-0.0","0","0","76643","","192","","","68","65","","","2","65","training","adjacent","FE","6","5","Q.jpg","M.jpg","0","0","1","",""
"","feedback","","html-keyboard-response","419","403787","0.0-1.0-591.0-0.0","0","0","76643","","null","","","null","65","","","","","","","","","","","","","","","",""
"","ITI","","html-keyboard-response","420","404800","0.0-1.0-594.0","0","0","76643","","null","","","null","65","","","","","","","","","","","","","","","NaN",""
"","S1","","html-keyboard-response","421","405062","0.0-1.0-596.0","0","0","76643","","null","","","null","66","","","","","","","","","","","","","","","",""
"","ISI","","html-keyboard-response","422","406077","0.0-1.0-597.0","0","0","76643","","null","","","null","66","NaN","","","","","","","","","","","","","","",""
"","S2","","html-keyboard-response","423","406334","0.0-1.0-598.0","0","0","76643","","null","","","null","66","","NaN","","","","","","","","","","","","","",""
"","response","","html-keyboard-response","424","407051","0.0-1.0-599.0-0.0","0","0","76643","","713","","","75","66","","","2","66","training","adjacent","GF","7","6","N.jpg","Q.jpg","1","0","0","",""
"","feedback","","html-keyboard-response","425","408058","0.0-1.0-600.0-0.0","0","0","76643","","null","","","null","66","","","","","","","","","","","","","","","",""
"","time_out","","html-keyboard-response","426","410070","0.0-1.0-602.0-0.0","0","0","76643","","null","","","null","66","","","","","","","","","","","","","","","",""
"","ITI","","html-keyboard-response","427","411078","0.0-1.0-603.0","0","0","76643","","null","","","null","66","","","","","","","","","","","","","","","NaN",""
"","S1","","html-keyboard-response","428","411340","0.0-1.0-605.0","0","0","76643","","null","","","null","67","","","","","","","","","","","","","","","",""
"","ISI","","html-keyboard-response","429","412348","0.0-1.0-606.0","0","0","76643","","null","","","null","67","NaN","","","","","","","","","","","","","","",""
"","S2","","html-keyboard-response","430","412610","0.0-1.0-607.0","0","0","76643","","null","","","null","67","","NaN","","","","","","","","","","","","","",""
"","response","","html-keyboard-response","431","413595","0.0-1.0-608.0-0.0","0","0","76643","","981","","","75","67","","","2","67","training","adjacent","CB","3","2","L.jpg","O.jpg","1","0","0","",""
"","feedback","","html-keyboard-response","432","414605","0.0-1.0-609.0-0.0","0","0","76643","","null","","","null","67","","","","","","","","","","","","","","","",""
"","time_out","","html-keyboard-response","433","416616","0.0-1.0-611.0-0.0","0","0","76643","","null","","","null","67","","","","","","","","","","","","","","","",""
"","ITI","","html-keyboard-response","434","417626","0.0-1.0-612.0","0","0","76643","","null","","","null","67","","","","","","","","","","","","","","","NaN",""
"","S1","","html-keyboard-response","435","417885","0.0-1.0-614.0","0","0","76643","","null","","","null","68","","","","","","","","","","","","","","","",""
"","ISI","","html-keyboard-response","436","418898","0.0-1.0-615.0","0","0","76643","","null","","","null","68","NaN","","","","","","","","","","","","","","",""
"","S2","","html-keyboard-response","437","419163","0.0-1.0-616.0","0","0","76643","","null","","","null","68","","NaN","","","","","","","","","","","","","",""
"","response","","html-keyboard-response","438","419651","0.0-1.0-617.0-0.0","0","0","76643","","485","","","68","68","","","2","68","training","adjacent","FE","6","5","Q.jpg","M.jpg","0","0","1","",""
"","feedback","","html-keyboard-response","439","420661","0.0-1.0-618.0-0.0","0","0","76643","","null","","","null","68","","","","","","","","","","","","","","","",""
"","ITI","","html-keyboard-response","440","421674","0.0-1.0-621.0","0","0","76643","","null","","","null","68","","","","","","","","","","","","","","","NaN",""
"","S1","","html-keyboard-response","441","421939","0.0-1.0-623.0","0","0","76643","","null","","","null","69","","","","","","","","","","","","","","","",""
"","ISI","","html-keyboard-response","442","422954","0.0-1.0-624.0","0","0","76643","","506","","","75","69","k","","","","","","","","","","","","","","",""
"","S2","","html-keyboard-response","443","422957","0.0-1.0-625.0","0","0","76643","","1","","","75","69","","k","2","69","training","adjacent","AB","1","2","R.jpg","O.jpg","1","1","1","",""
"","feedback","","html-keyboard-response","444","423970","0.0-1.0-627.0-0.0","0","0","76643","","null","","","null","69","","","","","","","","","","","","","","","",""
"","ITI","","html-keyboard-response","445","424973","0.0-1.0-630.0","0","0","76643","","null","","","null","69","","","","","","","","","","","","","","","NaN",""
"","S1","","html-keyboard-response","446","425234","0.0-1.0-632.0","0","0","76643","","null","","","null","70","","","","","","","","","","","","","","","",""
"","ISI","","html-keyboard-response","447","426245","0.0-1.0-633.0","0","0","76643","","null","","","null","70","NaN","","","","","","","","","","","","","","",""
"","S2","","html-keyboard-response","448","426503","0.0-1.0-634.0","0","0","76643","","null","","","null","70","","NaN","","","","","","","","","","","","","",""
"","response","","html-keyboard-response","449","426842","0.0-1.0-635.0-0.0","0","0","76643","","337","","","68","70","","","2","70","training","adjacent","DE","4","5","P.jpg","M.jpg","0","1","0","",""
"","feedback","","html-keyboard-response","450","427854","0.0-1.0-636.0-0.0","0","0","76643","","null","","","null","70","","","","","","","","","","","","","","","",""
"","time_out","","html-keyboard-response","451","429858","0.0-1.0-638.0-0.0","0","0","76643","","null","","","null","70","","","","","","","","","","","","","","","",""
"","ITI","","html-keyboard-response","452","430865","0.0-1.0-639.0","0","0","76643","","null","","","null","70","","","","","","","","","","","","","","","NaN",""
"","S1","","html-keyboard-response","453","431130","0.0-1.0-641.0","0","0","76643","","null","","","null","71","","","","","","","","","","","","","","","",""
"","ISI","","html-keyboard-response","454","432144","0.0-1.0-642.0","0","0","76643","","null","","","null","71","NaN","","","","","","","","","","","","","","",""
"","S2","","html-keyboard-response","455","432403","0.0-1.0-643.0","0","0","76643","","null","","","null","71","","NaN","","","","","","","","","","","","","",""
"","response","","html-keyboard-response","456","432807","0.0-1.0-644.0-0.0","0","0","76643","","400","","","68","71","","","2","71","training","adjacent","CD","3","4","L.jpg","P.jpg","0","1","0","",""
"","feedback","","html-keyboard-response","457","433819","0.0-1.0-645.0-0.0","0","0","76643","","null","","","null","71","","","","","","","","","","","","","","","",""
"","time_out","","html-keyboard-response","458","435834","0.0-1.0-647.0-0.0","0","0","76643","","null","","","null","71","","","","","","","","","","","","","","","",""
"","ITI","","html-keyboard-response","459","436845","0.0-1.0-648.0","0","0","76643","","null","","","null","71","","","","","","","","","","","","","","","NaN",""
"","S1","","html-keyboard-response","460","437106","0.0-1.0-650.0","0","0","76643","","null","","","null","72","","","","","","","","","","","","","","","",""
"","ISI","","html-keyboard-response","461","438115","0.0-1.0-651.0","0","0","76643","","null","","","null","72","NaN","","","","","","","","","","","","","","",""
"","S2","","html-keyboard-response","462","438376","0.0-1.0-652.0","0","0","76643","","null","","","null","72","","NaN","","","","","","","","","","","","","",""
"","response","","html-keyboard-response","463","438925","0.0-1.0-653.0-0.0","0","0","76643","","546","","","75","72","","","2","72","training","adjacent","DC","4","3","P.jpg","L.jpg","1","0","0","",""
"","feedback","","html-keyboard-response","464","439934","0.0-1.0-654.0-0.0","0","0","76643","","null","","","null","72","","","","","","","","","","","","","","","",""
"","time_out","","html-keyboard-response","465","441946","0.0-1.0-656.0-0.0","0","0","76643","","null","","","null","72","","","","","","","","","","","","","","","",""
"","ITI","","html-keyboard-response","466","442956","0.0-1.0-657.0","0","0","76643","","null","","","null","72","","","","","","","","","","","","","","","NaN",""
"","S1","","html-keyboard-response","467","443213","0.0-1.0-659.0","0","0","76643","","null","","","null","73","","","","","","","","","","","","","","","",""
"","ISI","","html-keyboard-response","468","444218","0.0-1.0-660.0","0","0","76643","","null","","","null","73","NaN","","","","","","","","","","","","","","",""
"","S2","","html-keyboard-response","469","444478","0.0-1.0-661.0","0","0","76643","","null","","","null","73","","NaN","","","","","","","","","","","","","",""
"","response","","html-keyboard-response","470","444768","0.0-1.0-662.0-0.0","0","0","76643","","287","","","75","73","","","2","73","training","adjacent","BC","2","3","O.jpg","L.jpg","1","1","1","",""
"","feedback","","html-keyboard-response","471","445780","0.0-1.0-663.0-0.0","0","0","76643","","null","","","null","73","","","","","","","","","","","","","","","",""
"","ITI","","html-keyboard-response","472","446790","0.0-1.0-666.0","0","0","76643","","null","","","null","73","","","","","","","","","","","","","","","NaN",""
"","S1","","html-keyboard-response","473","447054","0.0-1.0-668.0","0","0","76643","","null","","","null","74","","","","","","","","","","","","","","","",""
"","ISI","","html-keyboard-response","474","448067","0.0-1.0-669.0","0","0","76643","","null","","","null","74","NaN","","","","","","","","","","","","","","",""
"","S2","","html-keyboard-response","475","448327","0.0-1.0-670.0","0","0","76643","","null","","","null","74","","NaN","","","","","","","","","","","","","",""
"","response","","html-keyboard-response","476","448630","0.0-1.0-671.0-0.0","0","0","76643","","300","","","75","74","","","2","74","training","adjacent","BC","2","3","O.jpg","L.jpg","1","1","1","",""
"","feedback","","html-keyboard-response","477","449638","0.0-1.0-672.0-0.0","0","0","76643","","null","","","null","74","","","","","","","","","","","","","","","",""
"","ITI","","html-keyboard-response","478","450650","0.0-1.0-675.0","0","0","76643","","null","","","null","74","","","","","","","","","","","","","","","NaN",""
"","S1","","html-keyboard-response","479","450912","0.0-1.0-677.0","0","0","76643","","null","","","null","75","","","","","","","","","","","","","","","",""
"","ISI","","html-keyboard-response","480","451921","0.0-1.0-678.0","0","0","76643","","null","","","null","75","NaN","","","","","","","","","","","","","","",""
"","S2","","html-keyboard-response","481","452135","0.0-1.0-679.0","0","0","76643","","211","","","68","75","","d","2","75","training","adjacent","GF","7","6","N.jpg","Q.jpg","0","0","1","",""
"","feedback","","html-keyboard-response","482","453147","0.0-1.0-681.0-0.0","0","0","76643","","null","","","null","75","","","","","","","","","","","","","","","",""
"","ITI","","html-keyboard-response","483","454159","0.0-1.0-684.0","0","0","76643","","null","","","null","75","","","","","","","","","","","","","","","NaN",""
"","S1","","html-keyboard-response","484","454422","0.0-1.0-686.0","0","0","76643","","null","","","null","76","","","","","","","","","","","","","","","",""
"","ISI","","html-keyboard-response","485","455434","0.0-1.0-687.0","0","0","76643","","null","","","null","76","NaN","","","","","","","","","","","","","","",""
"","S2","","html-keyboard-response","486","455698","0.0-1.0-688.0","0","0","76643","","null","","","null","76","","NaN","","","","","","","","","","","","","",""
"","response","","html-keyboard-response","487","456430","0.0-1.0-689.0-0.0","0","0","76643","","728","","","75","76","","","2","76","training","adjacent","DC","4","3","P.jpg","L.jpg","1","0","0","",""
"","feedback","","html-keyboard-response","488","457439","0.0-1.0-690.0-0.0","0","0","76643","","null","","","null","76","","","","","","","","","","","","","","","",""
"","time_out","","html-keyboard-response","489","459447","0.0-1.0-692.0-0.0","0","0","76643","","null","","","null","76","","","","","","","","","","","","","","","",""
"","ITI","","html-keyboard-response","490","460455","0.0-1.0-693.0","0","0","76643","","null","","","null","76","","","","","","","","","","","","","","","NaN",""
"","S1","","html-keyboard-response","491","460717","0.0-1.0-695.0","0","0","76643","","null","","","null","77","","","","","","","","","","","","","","","",""
"","ISI","","html-keyboard-response","492","461723","0.0-1.0-696.0","0","0","76643","","null","","","null","77","NaN","","","","","","","","","","","","","","",""
"","S2","","html-keyboard-response","493","461981","0.0-1.0-697.0","0","0","76643","","null","","","null","77","","NaN","","","","","","","","","","","","","",""
"","response","","html-keyboard-response","494","462323","0.0-1.0-698.0-0.0","0","0","76643","","338","","","75","77","","","2","77","training","adjacent","DC","4","3","P.jpg","L.jpg","1","0","0","",""
"","feedback","","html-keyboard-response","495","463336","0.0-1.0-699.0-0.0","0","0","76643","","null","","","null","77","","","","","","","","","","","","","","","",""
"","time_out","","html-keyboard-response","496","465346","0.0-1.0-701.0-0.0","0","0","76643","","null","","","null","77","","","","","","","","","","","","","","","",""
"","ITI","","html-keyboard-response","497","466358","0.0-1.0-702.0","0","0","76643","","null","","","null","77","","","","","","","","","","","","","","","NaN",""
"","S1","","html-keyboard-response","498","466620","0.0-1.0-704.0","0","0","76643","","null","","","null","78","","","","","","","","","","","","","","","",""
"","ISI","","html-keyboard-response","499","467632","0.0-1.0-705.0","0","0","76643","","null","","","null","78","NaN","","","","","","","","","","","","","","",""
"","S2","","html-keyboard-response","500","467895","0.0-1.0-706.0","0","0","76643","","null","","","null","78","","NaN","","","","","","","","","","","","","",""
"","response","","html-keyboard-response","501","468551","0.0-1.0-707.0-0.0","0","0","76643","","653","","","68","78","","","2","78","training","adjacent","FG","6","7","Q.jpg","N.jpg","0","1","0","",""
"","feedback","","html-keyboard-response","502","469559","0.0-1.0-708.0-0.0","0","0","76643","","null","","","null","78","","","","","","","","","","","","","","","",""
"","time_out","","html-keyboard-response","503","471571","0.0-1.0-710.0-0.0","0","0","76643","","null","","","null","78","","","","","","","","","","","","","","","",""
"","ITI","","html-keyboard-response","504","472580","0.0-1.0-711.0","0","0","76643","","null","","","null","78","","","","","","","","","","","","","","","NaN",""
"","S1","","html-keyboard-response","505","472840","0.0-1.0-713.0","0","0","76643","","null","","","null","79","","","","","","","","","","","","","","","",""
"","ISI","","html-keyboard-response","506","473855","0.0-1.0-714.0","0","0","76643","","null","","","null","79","NaN","","","","","","","","","","","","","","",""
"","S2","","html-keyboard-response","507","474114","0.0-1.0-715.0","0","0","76643","","null","","","null","79","","NaN","","","","","","","","","","","","","",""
"","response","","html-keyboard-response","508","474541","0.0-1.0-716.0-0.0","0","0","76643","","423","","","75","79","","","2","79","training","adjacent","BC","2","3","O.jpg","L.jpg","1","1","1","",""
"","feedback","","html-keyboard-response","509","475553","0.0-1.0-717.0-0.0","0","0","76643","","null","","","null","79","","","","","","","","","","","","","","","",""
"","ITI","","html-keyboard-response","510","476561","0.0-1.0-720.0","0","0","76643","","null","","","null","79","","","","","","","","","","","","","","","NaN",""
"","S1","","html-keyboard-response","511","476826","0.0-1.0-722.0","0","0","76643","","null","","","null","80","","","","","","","","","","","","","","","",""
"","ISI","","html-keyboard-response","512","477834","0.0-1.0-723.0","0","0","76643","","null","","","null","80","NaN","","","","","","","","","","","","","","",""
"","S2","","html-keyboard-response","513","478093","0.0-1.0-724.0","0","0","76643","","null","","","null","80","","NaN","","","","","","","","","","","","","",""
"","response","","html-keyboard-response","514","478579","0.0-1.0-725.0-0.0","0","0","76643","","482","","","75","80","","","2","80","training","adjacent","EF","5","6","M.jpg","Q.jpg","1","1","1","",""
"","feedback","","html-keyboard-response","515","479590","0.0-1.0-726.0-0.0","0","0","76643","","null","","","null","80","","","","","","","","","","","","","","","",""
"","ITI","","html-keyboard-response","516","480599","0.0-1.0-729.0","0","0","76643","","null","","","null","80","","","","","","","","","","","","","","","NaN",""
"","S1","","html-keyboard-response","517","480864","0.0-1.0-731.0","0","0","76643","","null","","","null","81","","","","","","","","","","","","","","","",""
"","ISI","","html-keyboard-response","518","481874","0.0-1.0-732.0","0","0","76643","","null","","","null","81","NaN","","","","","","","","","","","","","","",""
"","S2","","html-keyboard-response","519","482133","0.0-1.0-733.0","0","0","76643","","null","","","null","81","","NaN","","","","","","","","","","","","","",""
"","response","","html-keyboard-response","520","483117","0.0-1.0-734.0-0.0","0","0","76643","","980","","","75","81","","","2","81","training","adjacent","DE","4","5","P.jpg","M.jpg","1","1","1","",""
"","feedback","","html-keyboard-response","521","484131","0.0-1.0-735.0-0.0","0","0","76643","","null","","","null","81","","","","","","","","","","","","","","","",""
"","ITI","","html-keyboard-response","522","485139","0.0-1.0-738.0","0","0","76643","","null","","","null","81","","","","","","","","","","","","","","","NaN",""
"","S1","","html-keyboard-response","523","485400","0.0-1.0-740.0","0","0","76643","","null","","","null","82","","","","","","","","","","","","","","","",""
"","ISI","","html-keyboard-response","524","486411","0.0-1.0-741.0","0","0","76643","","716","","","75","82","k","","","","","","","","","","","","","","",""
"","S2","","html-keyboard-response","525","486630","0.0-1.0-742.0","0","0","76643","","215","","","75","82","","k","2","82","training","adjacent","AB","1","2","R.jpg","O.jpg","1","1","1","",""
"","feedback","","html-keyboard-response","526","487642","0.0-1.0-744.0-0.0","0","0","76643","","null","","","null","82","","","","","","","","","","","","","","","",""
"","ITI","","html-keyboard-response","527","488651","0.0-1.0-747.0","0","0","76643","","null","","","null","82","","","","","","","","","","","","","","","NaN",""
"","S1","","html-keyboard-response","528","488916","0.0-1.0-749.0","0","0","76643","","null","","","null","83","","","","","","","","","","","","","","","",""
"","ISI","","html-keyboard-response","529","489925","0.0-1.0-750.0","0","0","76643","","null","","","null","83","NaN","","","","","","","","","","","","","","",""
"","S2","","html-keyboard-response","530","490189","0.0-1.0-751.0","0","0","76643","","null","","","null","83","","NaN","","","","","","","","","","","","","",""
"","response","","html-keyboard-response","531","490736","0.0-1.0-752.0-0.0","0","0","76643","","544","","","68","83","","","2","83","training","adjacent","DE","4","5","P.jpg","M.jpg","0","1","0","",""
"","feedback","","html-keyboard-response","532","491749","0.0-1.0-753.0-0.0","0","0","76643","","null","","","null","83","","","","","","","","","","","","","","","",""
"","time_out","","html-keyboard-response","533","493758","0.0-1.0-755.0-0.0","0","0","76643","","null","","","null","83","","","","","","","","","","","","","","","",""
"","ITI","","html-keyboard-response","534","494765","0.0-1.0-756.0","0","0","76643","","null","","","null","83","","","","","","","","","","","","","","","NaN",""
"","S1","","html-keyboard-response","535","495029","0.0-1.0-758.0","0","0","76643","","null","","","null","84","","","","","","","","","","","","","","","",""
"","ISI","","html-keyboard-response","536","496038","0.0-1.0-759.0","0","0","76643","","null","","","null","84","NaN","","","","","","","","","","","","","","",""
"","S2","","html-keyboard-response","537","496302","0.0-1.0-760.0","0","0","76643","","null","","","null","84","","NaN","","","","","","","","","","","","","",""
"","response","","html-keyboard-response","538","496815","0.0-1.0-761.0-0.0","0","0","76643","","510","","","75","84","","","2","84","training","adjacent","EF","5","6","M.jpg","Q.jpg","1","1","1","",""
"","feedback","","html-keyboard-response","539","497824","0.0-1.0-762.0-0.0","0","0","76643","","null","","","null","84","","","","","","","","","","","","","","","",""
"","ITI","","html-keyboard-response","540","498830","0.0-1.0-765.0","0","0","76643","","null","","","null","84","","","","","","","","","","","","","","","NaN",""
"","S1","","html-keyboard-response","541","499087","0.0-1.0-767.0","0","0","76643","","null","","","null","85","","","","","","","","","","","","","","","",""
"","ISI","","html-keyboard-response","542","500095","0.0-1.0-768.0","0","0","76643","","null","","","null","85","NaN","","","","","","","","","","","","","","",""
"","S2","","html-keyboard-response","543","500359","0.0-1.0-769.0","0","0","76643","","null","","","null","85","","NaN","","","","","","","","","","","","","",""
"","response","","html-keyboard-response","544","501223","0.0-1.0-770.0-0.0","0","0","76643","","860","","","68","85","","","2","85","training","adjacent","FE","6","5","Q.jpg","M.jpg","0","0","1","",""
"","feedback","","html-keyboard-response","545","502230","0.0-1.0-771.0-0.0","0","0","76643","","null","","","null","85","","","","","","","","","","","","","","","",""
"","ITI","","html-keyboard-response","546","503237","0.0-1.0-774.0","0","0","76643","","null","","","null","85","","","","","","","","","","","","","","","NaN",""
"","S1","","html-keyboard-response","547","503499","0.0-1.0-776.0","0","0","76643","","null","","","null","86","","","","","","","","","","","","","","","",""
"","ISI","","html-keyboard-response","548","504509","0.0-1.0-777.0","0","0","76643","","null","","","null","86","NaN","","","","","","","","","","","","","","",""
"","S2","","html-keyboard-response","549","504773","0.0-1.0-778.0","0","0","76643","","null","","","null","86","","NaN","","","","","","","","","","","","","",""
"","response","","html-keyboard-response","550","505222","0.0-1.0-779.0-0.0","0","0","76643","","446","","","68","86","","","2","86","training","adjacent","BA","2","1","O.jpg","R.jpg","0","0","1","",""
"","feedback","","html-keyboard-response","551","506232","0.0-1.0-780.0-0.0","0","0","76643","","null","","","null","86","","","","","","","","","","","","","","","",""
"","ITI","","html-keyboard-response","552","507247","0.0-1.0-783.0","0","0","76643","","null","","","null","86","","","","","","","","","","","","","","","NaN",""
"","S1","","html-keyboard-response","553","507505","0.0-1.0-785.0","0","0","76643","","null","","","null","87","","","","","","","","","","","","","","","",""
"","ISI","","html-keyboard-response","554","508514","0.0-1.0-786.0","0","0","76643","","null","","","null","87","NaN","","","","","","","","","","","","","","",""
"","S2","","html-keyboard-response","555","508747","0.0-1.0-787.0","0","0","76643","","230","","","75","87","","k","2","87","training","adjacent","BA","2","1","O.jpg","R.jpg","1","0","0","",""
"","feedback","","html-keyboard-response","556","509758","0.0-1.0-789.0-0.0","0","0","76643","","null","","","null","87","","","","","","","","","","","","","","","",""
"","time_out","","html-keyboard-response","557","511769","0.0-1.0-791.0-0.0","0","0","76643","","null","","","null","87","","","","","","","","","","","","","","","",""
"","ITI","","html-keyboard-response","558","512783","0.0-1.0-792.0","0","0","76643","","null","","","null","87","","","","","","","","","","","","","","","NaN",""
"","S1","","html-keyboard-response","559","513046","0.0-1.0-794.0","0","0","76643","","null","","","null","88","","","","","","","","","","","","","","","",""
"","ISI","","html-keyboard-response","560","514055","0.0-1.0-795.0","0","0","76643","","null","","","null","88","NaN","","","","","","","","","","","","","","",""
"","S2","","html-keyboard-response","561","514318","0.0-1.0-796.0","0","0","76643","","null","","","null","88","","NaN","","","","","","","","","","","","","",""
"","response","","html-keyboard-response","562","515464","0.0-1.0-797.0-0.0","0","0","76643","","1144","","","68","88","","","2","88","training","adjacent","ED","5","4","M.jpg","P.jpg","0","0","1","",""
"","feedback","","html-keyboard-response","563","516475","0.0-1.0-798.0-0.0","0","0","76643","","null","","","null","88","","","","","","","","","","","","","","","",""
"","ITI","","html-keyboard-response","564","517489","0.0-1.0-801.0","0","0","76643","","null","","","null","88","","","","","","","","","","","","","","","NaN",""
"","S1","","html-keyboard-response","565","517750","0.0-1.0-803.0","0","0","76643","","null","","","null","89","","","","","","","","","","","","","","","",""
"","ISI","","html-keyboard-response","566","518761","0.0-1.0-804.0","0","0","76643","","null","","","null","89","NaN","","","","","","","","","","","","","","",""
"","S2","","html-keyboard-response","567","519020","0.0-1.0-805.0","0","0","76643","","null","","","null","89","","NaN","","","","","","","","","","","","","",""
"","response","","html-keyboard-response","568","519445","0.0-1.0-806.0-0.0","0","0","76643","","423","","","68","89","","","2","89","training","adjacent","CD","3","4","L.jpg","P.jpg","0","1","0","",""
"","feedback","","html-keyboard-response","569","520455","0.0-1.0-807.0-0.0","0","0","76643","","null","","","null","89","","","","","","","","","","","","","","","",""
"","time_out","","html-keyboard-response","570","522465","0.0-1.0-809.0-0.0","0","0","76643","","null","","","null","89","","","","","","","","","","","","","","","",""
"","ITI","","html-keyboard-response","571","523477","0.0-1.0-810.0","0","0","76643","","null","","","null","89","","","","","","","","","","","","","","","NaN",""
"","S1","","html-keyboard-response","572","523736","0.0-1.0-812.0","0","0","76643","","null","","","null","90","","","","","","","","","","","","","","","",""
"","ISI","","html-keyboard-response","573","524746","0.0-1.0-813.0","0","0","76643","","null","","","null","90","NaN","","","","","","","","","","","","","","",""
"","S2","","html-keyboard-response","574","525005","0.0-1.0-814.0","0","0","76643","","null","","","null","90","","NaN","","","","","","","","","","","","","",""
"","response","","html-keyboard-response","575","525785","0.0-1.0-815.0-0.0","0","0","76643","","776","","","75","90","","","2","90","training","adjacent","ED","5","4","M.jpg","P.jpg","1","0","0","",""
"","feedback","","html-keyboard-response","576","526793","0.0-1.0-816.0-0.0","0","0","76643","","null","","","null","90","","","","","","","","","","","","","","","",""
"","time_out","","html-keyboard-response","577","528802","0.0-1.0-818.0-0.0","0","0","76643","","null","","","null","90","","","","","","","","","","","","","","","",""
"","ITI","","html-keyboard-response","578","529810","0.0-1.0-819.0","0","0","76643","","null","","","null","90","","","","","","","","","","","","","","","NaN",""
"","S1","","html-keyboard-response","579","530075","0.0-1.0-821.0","0","0","76643","","null","","","null","91","","","","","","","","","","","","","","","",""
"","ISI","","html-keyboard-response","580","531083","0.0-1.0-822.0","0","0","76643","","null","","","null","91","NaN","","","","","","","","","","","","","","",""
"","S2","","html-keyboard-response","581","531340","0.0-1.0-823.0","0","0","76643","","null","","","null","91","","NaN","","","","","","","","","","","","","",""
"","response","","html-keyboard-response","582","532504","0.0-1.0-824.0-0.0","0","0","76643","","1160","","","68","91","","","2","91","training","adjacent","CB","3","2","L.jpg","O.jpg","0","0","1","",""
