"success","ttype","start_time","trial_type","trial_index","time_elapsed","internal_node_id","warning","missed_checkup","PID","view_history","rt","responses","repeat_instructions","key_press","index","keypress_isi","keypress_S2","block","trial_num","phase","group_type","pair_type","S1_stim","S2_stim","S1_img","S2_img","S1_chosen","S1_higher","accuracy","keypress_iti","total_bonus_tally"
"true","full_screen","d03042023hr1427","fullscreen","0","10404","0.0-0.0","0","0","73503","","","","","","","","","","","","","","","","","","","","","",""
"","instructions","","instructions","1","44059","0.0-1.0-0.0-0.0","0","0","73503","[{""page_index"":0,""viewing_time"":4029},{""page_index"":1,""viewing_time"":21441},{""page_index"":2,""viewing_time"":4257},{""page_index"":3,""viewing_time"":3901}]","33631","","","","","","","","","","","","","","","","","","","",""
"","comprehension_check","","survey-multi-choice","2","59626","0.0-1.0-0.0-1.0","0","0","73503","","15549","{""Q0"":""True"",""Q1"":""D"",""Q2"":""Once the second image appears and while the screen 'MAKE A CHOICE' is shown"",""Q3"":""Green mark"",""Q4"":""either D or K""}","1","","","","","","","","","","","","","","","","","",""
"","missed_instruction_checkup","","html-keyboard-response","3","63309","0.0-1.0-0.0-2.0-0.0","0","1","73503","","3674","","","32","","","","","","","","","","","","","","","","",""
"","instructions","","instructions","4","72702","0.0-1.0-0.1-0.1","0","0","73503","[{""page_index"":0,""viewing_time"":2757},{""page_index"":1,""viewing_time"":1755},{""page_index"":2,""viewing_time"":2260},{""page_index"":3,""viewing_time"":2610}]","9384","","","","","","","","","","","","","","","","","","","",""
"","comprehension_check","","survey-multi-choice","5","83499","0.0-1.0-0.1-1.1","0","0","73503","","10777","{""Q0"":""True"",""Q1"":""K"",""Q2"":""Once the second image appears and while the screen 'MAKE A CHOICE' is shown"",""Q3"":""Green mark"",""Q4"":""either D or K""}","0","","","","","","","","","","","","","","","","","",""
"","start_exp","","html-keyboard-response","6","86503","0.0-1.0-1.0","0","0","73503","","2997","","","32","","","","","","","","","","","","","","","","",""
"","S1","","html-keyboard-response","7","86761","0.0-1.0-2.0","0","0","73503","","null","","","null","0","","","","","","","","","","","","","","","",""
"","ISI","","html-keyboard-response","8","87266","0.0-1.0-3.0","0","0","73503","","null","","","null","0","NaN","","","","","","","","","","","","","","",""
"","S2","","html-keyboard-response","9","87528","0.0-1.0-4.0","0","0","73503","","null","","","null","0","","NaN","","","","","","","","","","","","","",""
"","response","","html-keyboard-response","10","89284","0.0-1.0-5.0-0.0","0","0","73503","","null","","","null","0","","","1","0","training","adjacent","CB","3","2","L.jpg","O.jpg","NaN","0","0","",""
"","too_slow_prompt","","html-keyboard-response","11","90292","0.0-1.0-7.0-0.0","1","0","73503","","null","","","null","","","","","","","","","","","","","","","","",""
"","time_out","","html-keyboard-response","12","92296","0.0-1.0-8.0-0.0","0","0","73503","","null","","","null","0","","","","","","","","","","","","","","","",""
"","ITI","","html-keyboard-response","13","93303","0.0-1.0-9.0","0","0","73503","","null","","","null","0","","","","","","","","","","","","","","","NaN",""
"","S1","","html-keyboard-response","14","93559","0.0-1.0-11.0","0","0","73503","","null","","","null","1","","","","","","","","","","","","","","","",""
"","ISI","","html-keyboard-response","15","94066","0.0-1.0-12.0","0","0","73503","","null","","","null","1","NaN","","","","","","","","","","","","","","",""
"","S2","","html-keyboard-response","16","94323","0.0-1.0-13.0","0","0","73503","","null","","","null","1","","NaN","","","","","","","","","","","","","",""
"","response","","html-keyboard-response","17","94553","0.0-1.0-14.0-0.0","0","0","73503","","223","","","75","1","","","1","1","training","adjacent","CB","3","2","L.jpg","O.jpg","1","0","0","",""
"","feedback","","html-keyboard-response","18","95561","0.0-1.0-15.0-0.0","0","0","73503","","null","","","null","1","","","","","","","","","","","","","","","",""
"","time_out","","html-keyboard-response","19","97569","0.0-1.0-17.0-0.0","0","0","73503","","null","","","null","1","","","","","","","","","","","","","","","",""
"","ITI","","html-keyboard-response","20","98581","0.0-1.0-18.0","0","0","73503","","null","","","null","1","","","","","","","","","","","","","","","NaN",""
"","S1","","html-keyboard-response","21","98836","0.0-1.0-20.0","0","0","73503","","null","","","null","2","","","","","","","","","","","","","","","",""
"","ISI","","html-keyboard-response","22","99341","0.0-1.0-21.0","0","0","73503","","398","","","75","2","k","","","","","","","","","","","","","","",""
"","S2","","html-keyboard-response","23","99361","0.0-1.0-22.0","0","0","73503","","13","","","68","2","","d","1","2","training","adjacent","ED","5","4","M.jpg","N.jpg","0","0","1","",""
"","feedback","","html-keyboard-response","24","100366","0.0-1.0-24.0-0.0","0","0","73503","","null","","","null","2","","","","","","","","","","","","","","","",""
"","ITI","","html-keyboard-response","25","101374","0.0-1.0-27.0","0","0","73503","","null","","","null","2","","","","","","","","","","","","","","","NaN",""
"","S1","","html-keyboard-response","26","101627","0.0-1.0-29.0","0","0","73503","","null","","","null","3","","","","","","","","","","","","","","","",""
"","ISI","","html-keyboard-response","27","102130","0.0-1.0-30.0","0","0","73503","","233","","","68","3","d","","","","","","","","","","","","","","",""
"","S2","","html-keyboard-response","28","102388","0.0-1.0-31.0","0","0","73503","","null","","","null","3","","NaN","","","","","","","","","","","","","",""
"","response","","html-keyboard-response","29","102977","0.0-1.0-32.0-0.0","0","0","73503","","583","","","75","3","","","1","3","training","adjacent","EF","5","6","M.jpg","R.jpg","1","1","1","",""
"","feedback","","html-keyboard-response","30","103982","0.0-1.0-33.0-0.0","0","0","73503","","null","","","null","3","","","","","","","","","","","","","","","",""
"","ITI","","html-keyboard-response","31","105032","0.0-1.0-36.0","0","0","73503","","null","","","null","3","","","","","","","","","","","","","","","NaN",""
"","S1","","html-keyboard-response","32","105289","0.0-1.0-38.0","0","0","73503","","null","","","null","4","","","","","","","","","","","","","","","",""
"","ISI","","html-keyboard-response","33","105795","0.0-1.0-39.0","0","0","73503","","362","","","68","4","d","","","","","","","","","","","","","","",""
"","S2","","html-keyboard-response","34","105872","0.0-1.0-40.0","0","0","73503","","70","","","68","4","","d","1","4","training","adjacent","CB","3","2","L.jpg","O.jpg","0","0","1","",""
"","feedback","","html-keyboard-response","35","106875","0.0-1.0-42.0-0.0","0","0","73503","","null","","","null","4","","","","","","","","","","","","","","","",""
"","ITI","","html-keyboard-response","36","107881","0.0-1.0-45.0","0","0","73503","","null","","","null","4","","","","","","","","","","","","","","","NaN",""
"","S1","","html-keyboard-response","37","108141","0.0-1.0-47.0","0","0","73503","","null","","","null","5","","","","","","","","","","","","","","","",""
"","ISI","","html-keyboard-response","38","108643","0.0-1.0-48.0","0","0","73503","","null","","","null","5","NaN","","","","","","","","","","","","","","",""
"","S2","","html-keyboard-response","39","108704","0.0-1.0-49.0","0","0","73503","","57","","","68","5","","d","1","5","training","adjacent","CD","3","4","L.jpg","N.jpg","0","1","0","",""
"","feedback","","html-keyboard-response","40","109784","0.0-1.0-51.0-0.0","0","0","73503","","null","","","null","5","","","","","","","","","","","","","","","",""
"","time_out","","html-keyboard-response","41","111792","0.0-1.0-53.0-0.0","0","0","73503","","null","","","null","5","","","","","","","","","","","","","","","",""
"","ITI","","html-keyboard-response","42","112802","0.0-1.0-54.0","0","0","73503","","null","","","null","5","","","","","","","","","","","","","","","NaN",""
"","S1","","html-keyboard-response","43","113056","0.0-1.0-56.0","0","0","73503","","null","","","null","6","","","","","","","","","","","","","","","",""
"","ISI","","html-keyboard-response","44","113561","0.0-1.0-57.0","0","0","73503","","null","","","null","6","NaN","","","","","","","","","","","","","","",""
"","S2","","html-keyboard-response","45","113823","0.0-1.0-58.0","0","0","73503","","null","","","null","6","","NaN","","","","","","","","","","","","","",""
"","response","","html-keyboard-response","46","114170","0.0-1.0-59.0-0.0","0","0","73503","","342","","","68","6","","","1","6","training","adjacent","BC","2","3","O.jpg","L.jpg","0","1","0","",""
"","feedback","","html-keyboard-response","47","115176","0.0-1.0-60.0-0.0","0","0","73503","","null","","","null","6","","","","","","","","","","","","","","","",""
"","time_out","","html-keyboard-response","48","117184","0.0-1.0-62.0-0.0","0","0","73503","","null","","","null","6","","","","","","","","","","","","","","","",""
"","ITI","","html-keyboard-response","49","118191","0.0-1.0-63.0","0","0","73503","","null","","","null","6","","","","","","","","","","","","","","","NaN",""
"","S1","","html-keyboard-response","50","118452","0.0-1.0-65.0","0","0","73503","","null","","","null","7","","","","","","","","","","","","","","","",""
"","ISI","","html-keyboard-response","51","118956","0.0-1.0-66.0","0","0","73503","","379","","","68","7","d","","","","","","","","","","","","","","",""
"","S2","","html-keyboard-response","52","118961","0.0-1.0-67.0","0","0","73503","","0","","","68","7","","d","1","7","training","adjacent","FE","6","5","R.jpg","M.jpg","0","0","1","",""
"","feedback","","html-keyboard-response","53","119965","0.0-1.0-69.0-0.0","0","0","73503","","null","","","null","7","","","","","","","","","","","","","","","",""
"","ITI","","html-keyboard-response","54","120969","0.0-1.0-72.0","0","0","73503","","null","","","null","7","","","","","","","","","","","","","","","NaN",""
"","S1","","html-keyboard-response","55","121224","0.0-1.0-74.0","0","0","73503","","null","","","null","8","","","","","","","","","","","","","","","",""
"","ISI","","html-keyboard-response","56","121729","0.0-1.0-75.0","0","0","73503","","null","","","null","8","NaN","","","","","","","","","","","","","","",""
"","S2","","html-keyboard-response","57","121984","0.0-1.0-76.0","0","0","73503","","null","","","null","8","","NaN","","","","","","","","","","","","","",""
"","response","","html-keyboard-response","58","122408","0.0-1.0-77.0-0.0","0","0","73503","","419","","","75","8","","","1","8","training","adjacent","DC","4","3","N.jpg","L.jpg","1","0","0","",""
"","feedback","","html-keyboard-response","59","123429","0.0-1.0-78.0-0.0","0","0","73503","","null","","","null","8","","","","","","","","","","","","","","","",""
"","time_out","","html-keyboard-response","60","125440","0.0-1.0-80.0-0.0","0","0","73503","","null","","","null","8","","","","","","","","","","","","","","","",""
"","ITI","","html-keyboard-response","61","126449","0.0-1.0-81.0","0","0","73503","","null","","","null","8","","","","","","","","","","","","","","","NaN",""
"","S1","","html-keyboard-response","62","126708","0.0-1.0-83.0","0","0","73503","","null","","","null","9","","","","","","","","","","","","","","","",""
"","ISI","","html-keyboard-response","63","127213","0.0-1.0-84.0","0","0","73503","","null","","","null","9","NaN","","","","","","","","","","","","","","",""
"","S2","","html-keyboard-response","64","127397","0.0-1.0-85.0","0","0","73503","","176","","","68","9","","d","1","9","training","adjacent","GF","7","6","P.jpg","R.jpg","0","0","1","",""
"","feedback","","html-keyboard-response","65","128402","0.0-1.0-87.0-0.0","0","0","73503","","null","","","null","9","","","","","","","","","","","","","","","",""
"","ITI","","html-keyboard-response","66","129417","0.0-1.0-90.0","0","0","73503","","null","","","null","9","","","","","","","","","","","","","","","NaN",""
"","S1","","html-keyboard-response","67","129695","0.0-1.0-92.0","0","0","73503","","null","","","null","10","","","","","","","","","","","","","","","",""
"","ISI","","html-keyboard-response","68","130199","0.0-1.0-93.0","0","0","73503","","null","","","null","10","NaN","","","","","","","","","","","","","","",""
"","S2","","html-keyboard-response","69","130459","0.0-1.0-94.0","0","0","73503","","null","","","null","10","","NaN","","","","","","","","","","","","","",""
"","response","","html-keyboard-response","70","130726","0.0-1.0-95.0-0.0","0","0","73503","","263","","","75","10","","","1","10","training","adjacent","FG","6","7","R.jpg","P.jpg","1","1","1","",""
"","feedback","","html-keyboard-response","71","131732","0.0-1.0-96.0-0.0","0","0","73503","","null","","","null","10","","","","","","","","","","","","","","","",""
"","ITI","","html-keyboard-response","72","132833","0.0-1.0-99.0","0","0","73503","","null","","","null","10","","","","","","","","","","","","","","","NaN",""
"","S1","","html-keyboard-response","73","133089","0.0-1.0-101.0","0","0","73503","","null","","","null","11","","","","","","","","","","","","","","","",""
"","ISI","","html-keyboard-response","74","133598","0.0-1.0-102.0","0","0","73503","","null","","","null","11","NaN","","","","","","","","","","","","","","",""
"","S2","","html-keyboard-response","75","133859","0.0-1.0-103.0","0","0","73503","","null","","","null","11","","NaN","","","","","","","","","","","","","",""
"","response","","html-keyboard-response","76","134433","0.0-1.0-104.0-0.0","0","0","73503","","562","","","68","11","","","1","11","training","adjacent","ED","5","4","M.jpg","N.jpg","0","0","1","",""
"","feedback","","html-keyboard-response","77","135446","0.0-1.0-105.0-0.0","0","0","73503","","null","","","null","11","","","","","","","","","","","","","","","",""
"","ITI","","html-keyboard-response","78","136459","0.0-1.0-108.0","0","0","73503","","null","","","null","11","","","","","","","","","","","","","","","NaN",""
"","S1","","html-keyboard-response","79","136846","0.0-1.0-110.0","0","0","73503","","null","","","null","12","","","","","","","","","","","","","","","",""
"","ISI","","html-keyboard-response","80","137351","0.0-1.0-111.0","0","0","73503","","null","","","null","12","NaN","","","","","","","","","","","","","","",""
"","S2","","html-keyboard-response","81","137613","0.0-1.0-112.0","0","0","73503","","null","","","null","12","","NaN","","","","","","","","","","","","","",""
"","response","","html-keyboard-response","82","137955","0.0-1.0-113.0-0.0","0","0","73503","","337","","","68","12","","","1","12","training","adjacent","FE","6","5","R.jpg","M.jpg","0","0","1","",""
"","feedback","","html-keyboard-response","83","138970","0.0-1.0-114.0-0.0","0","0","73503","","null","","","null","12","","","","","","","","","","","","","","","",""
"","ITI","","html-keyboard-response","84","139974","0.0-1.0-117.0","0","0","73503","","null","","","null","12","","","","","","","","","","","","","","","NaN",""
"","S1","","html-keyboard-response","85","140227","0.0-1.0-119.0","0","0","73503","","null","","","null","13","","","","","","","","","","","","","","","",""
"","ISI","","html-keyboard-response","86","140734","0.0-1.0-120.0","0","0","73503","","null","","","null","13","NaN","","","","","","","","","","","","","","",""
"","S2","","html-keyboard-response","87","141019","0.0-1.0-121.0","0","0","73503","","null","","","null","13","","NaN","","","","","","","","","","","","","",""
"","response","","html-keyboard-response","88","141145","0.0-1.0-122.0-0.0","0","0","73503","","115","","","75","13","","","1","13","training","adjacent","BA","2","1","O.jpg","Q.jpg","1","0","0","",""
"","feedback","","html-keyboard-response","89","142151","0.0-1.0-123.0-0.0","0","0","73503","","null","","","null","13","","","","","","","","","","","","","","","",""
"","time_out","","html-keyboard-response","90","144179","0.0-1.0-125.0-0.0","0","0","73503","","null","","","null","13","","","","","","","","","","","","","","","",""
"","ITI","","html-keyboard-response","91","145185","0.0-1.0-126.0","0","0","73503","","null","","","null","13","","","","","","","","","","","","","","","NaN",""
"","S1","","html-keyboard-response","92","145441","0.0-1.0-128.0","0","0","73503","","null","","","null","14","","","","","","","","","","","","","","","",""
"","ISI","","html-keyboard-response","93","145947","0.0-1.0-129.0","0","0","73503","","null","","","null","14","NaN","","","","","","","","","","","","","","",""
"","S2","","html-keyboard-response","94","145956","0.0-1.0-130.0","0","0","73503","","1","","","68","14","","d","1","14","training","adjacent","DE","4","5","N.jpg","M.jpg","0","1","0","",""
"","feedback","","html-keyboard-response","95","146960","0.0-1.0-132.0-0.0","0","0","73503","","null","","","null","14","","","","","","","","","","","","","","","",""
"","time_out","","html-keyboard-response","96","148967","0.0-1.0-134.0-0.0","0","0","73503","","null","","","null","14","","","","","","","","","","","","","","","",""
"","ITI","","html-keyboard-response","97","149977","0.0-1.0-135.0","0","0","73503","","null","","","null","14","","","","","","","","","","","","","","","NaN",""
"","S1","","html-keyboard-response","98","150241","0.0-1.0-137.0","0","0","73503","","null","","","null","15","","","","","","","","","","","","","","","",""
"","ISI","","html-keyboard-response","99","150746","0.0-1.0-138.0","0","0","73503","","469","","","75","15","k","","","","","","","","","","","","","","",""
"","S2","","html-keyboard-response","100","150864","0.0-1.0-139.0","0","0","73503","","111","","","75","15","","k","1","15","training","adjacent","DC","4","3","N.jpg","L.jpg","1","0","0","",""
"","feedback","","html-keyboard-response","101","151869","0.0-1.0-141.0-0.0","0","0","73503","","null","","","null","15","","","","","","","","","","","","","","","",""
"","time_out","","html-keyboard-response","102","153895","0.0-1.0-143.0-0.0","0","0","73503","","null","","","null","15","","","","","","","","","","","","","","","",""
"","ITI","","html-keyboard-response","103","154930","0.0-1.0-144.0","0","0","73503","","null","","","null","15","","","","","","","","","","","","","","","NaN",""
"","S1","","html-keyboard-response","104","155185","0.0-1.0-146.0","0","0","73503","","null","","","null","16","","","","","","","","","","","","","","","",""
"","ISI","","html-keyboard-response","105","155699","0.0-1.0-147.0","0","0","73503","","365","","","75","16","k","","","","","","","","","","","","","","",""
"","S2","","html-keyboard-response","106","155715","0.0-1.0-148.0","0","0","73503","","1","","","75","16","","k","1","16","training","adjacent","BC","2","3","O.jpg","L.jpg","1","1","1","",""
"","feedback","","html-keyboard-response","107","156721","0.0-1.0-150.0-0.0","0","0","73503","","null","","","null","16","","","","","","","","","","","","","","","",""
"","ITI","","html-keyboard-response","108","157834","0.0-1.0-153.0","0","0","73503","","null","","","null","16","","","","","","","","","","","","","","","NaN",""
"","S1","","html-keyboard-response","109","158088","0.0-1.0-155.0","0","0","73503","","null","","","null","17","","","","","","","","","","","","","","","",""
"","ISI","","html-keyboard-response","110","158595","0.0-1.0-156.0","0","0","73503","","415","","","68","17","d","","","","","","","","","","","","","","",""
"","S2","","html-keyboard-response","111","158857","0.0-1.0-157.0","0","0","73503","","null","","","null","17","","NaN","","","","","","","","","","","","","",""
"","response","","html-keyboard-response","112","159547","0.0-1.0-158.0-0.0","0","0","73503","","685","","","68","17","","","1","17","training","adjacent","AB","1","2","Q.jpg","O.jpg","0","1","0","",""
"","feedback","","html-keyboard-response","113","160551","0.0-1.0-159.0-0.0","0","0","73503","","null","","","null","17","","","","","","","","","","","","","","","",""
"","time_out","","html-keyboard-response","114","162558","0.0-1.0-161.0-0.0","0","0","73503","","null","","","null","17","","","","","","","","","","","","","","","",""
"","ITI","","html-keyboard-response","115","163566","0.0-1.0-162.0","0","0","73503","","null","","","null","17","","","","","","","","","","","","","","","NaN",""
"","S1","","html-keyboard-response","116","163826","0.0-1.0-164.0","0","0","73503","","null","","","null","18","","","","","","","","","","","","","","","",""
"","ISI","","html-keyboard-response","117","164330","0.0-1.0-165.0","0","0","73503","","348","","","75","18","k","","","","","","","","","","","","","","",""
"","S2","","html-keyboard-response","118","164586","0.0-1.0-166.0","0","0","73503","","null","","","null","18","","NaN","","","","","","","","","","","","","",""
"","response","","html-keyboard-response","119","165530","0.0-1.0-167.0-0.0","0","0","73503","","938","","","75","18","","","1","18","training","adjacent","GF","7","6","P.jpg","R.jpg","1","0","0","",""
"","feedback","","html-keyboard-response","120","166537","0.0-1.0-168.0-0.0","0","0","73503","","null","","","null","18","","","","","","","","","","","","","","","",""
"","time_out","","html-keyboard-response","121","168545","0.0-1.0-170.0-0.0","0","0","73503","","null","","","null","18","","","","","","","","","","","","","","","",""
"","ITI","","html-keyboard-response","122","169550","0.0-1.0-171.0","0","0","73503","","null","","","null","18","","","","","","","","","","","","","","","NaN",""
"","S1","","html-keyboard-response","123","169809","0.0-1.0-173.0","0","0","73503","","null","","","null","19","","","","","","","","","","","","","","","",""
"","ISI","","html-keyboard-response","124","170313","0.0-1.0-174.0","0","0","73503","","null","","","null","19","NaN","","","","","","","","","","","","","","",""
"","S2","","html-keyboard-response","125","170577","0.0-1.0-175.0","0","0","73503","","null","","","null","19","","NaN","","","","","","","","","","","","","",""
"","response","","html-keyboard-response","126","170933","0.0-1.0-176.0-0.0","0","0","73503","","341","","","68","19","","","1","19","training","adjacent","DC","4","3","N.jpg","L.jpg","0","0","1","",""
"","feedback","","html-keyboard-response","127","171945","0.0-1.0-177.0-0.0","0","0","73503","","null","","","null","19","","","","","","","","","","","","","","","",""
"","ITI","","html-keyboard-response","128","172960","0.0-1.0-180.0","0","0","73503","","null","","","null","19","","","","","","","","","","","","","","","NaN",""
"","S1","","html-keyboard-response","129","173213","0.0-1.0-182.0","0","0","73503","","null","","","null","20","","","","","","","","","","","","","","","",""
"","ISI","","html-keyboard-response","130","173876","0.0-1.0-183.0","0","0","73503","","null","","","null","20","NaN","","","","","","","","","","","","","","",""
"","S2","","html-keyboard-response","131","174208","0.0-1.0-184.0","0","0","73503","","null","","","null","20","","NaN","","","","","","","","","","","","","",""
"","response","","html-keyboard-response","132","174592","0.0-1.0-185.0-0.0","0","0","73503","","380","","","75","20","","","1","20","training","adjacent","FE","6","5","R.jpg","M.jpg","1","0","0","",""
"","feedback","","html-keyboard-response","133","175602","0.0-1.0-186.0-0.0","0","0","73503","","null","","","null","20","","","","","","","","","","","","","","","",""
"","time_out","","html-keyboard-response","134","177615","0.0-1.0-188.0-0.0","0","0","73503","","null","","","null","20","","","","","","","","","","","","","","","",""
"","ITI","","html-keyboard-response","135","178622","0.0-1.0-189.0","0","0","73503","","null","","","null","20","","","","","","","","","","","","","","","NaN",""
"","S1","","html-keyboard-response","136","178880","0.0-1.0-191.0","0","0","73503","","null","","","null","21","","","","","","","","","","","","","","","",""
"","ISI","","html-keyboard-response","137","179386","0.0-1.0-192.0","0","0","73503","","445","","","68","21","d","","","","","","","","","","","","","","",""
"","S2","","html-keyboard-response","138","179646","0.0-1.0-193.0","0","0","73503","","null","","","null","21","","NaN","","","","","","","","","","","","","",""
"","response","","html-keyboard-response","139","180602","0.0-1.0-194.0-0.0","0","0","73503","","952","","","68","21","","","1","21","training","adjacent","BA","2","1","O.jpg","Q.jpg","0","0","1","",""
"","feedback","","html-keyboard-response","140","181608","0.0-1.0-195.0-0.0","0","0","73503","","null","","","null","21","","","","","","","","","","","","","","","",""
"","ITI","","html-keyboard-response","141","182616","0.0-1.0-198.0","0","0","73503","","null","","","null","21","","","","","","","","","","","","","","","NaN",""
"","S1","","html-keyboard-response","142","182903","0.0-1.0-200.0","0","0","73503","","null","","","null","22","","","","","","","","","","","","","","","",""
"","ISI","","html-keyboard-response","143","183411","0.0-1.0-201.0","0","0","73503","","null","","","null","22","NaN","","","","","","","","","","","","","","",""
"","S2","","html-keyboard-response","144","183688","0.0-1.0-202.0","0","0","73503","","null","","","null","22","","NaN","","","","","","","","","","","","","",""
"","response","","html-keyboard-response","145","184098","0.0-1.0-203.0-0.0","0","0","73503","","403","","","68","22","","","1","22","training","adjacent","DE","4","5","N.jpg","M.jpg","0","1","0","",""
"","feedback","","html-keyboard-response","146","185145","0.0-1.0-204.0-0.0","0","0","73503","","null","","","null","22","","","","","","","","","","","","","","","",""
"","time_out","","html-keyboard-response","147","187154","0.0-1.0-206.0-0.0","0","0","73503","","null","","","null","22","","","","","","","","","","","","","","","",""
"","ITI","","html-keyboard-response","148","188160","0.0-1.0-207.0","0","0","73503","","null","","","null","22","","","","","","","","","","","","","","","NaN",""
"","S1","","html-keyboard-response","149","188414","0.0-1.0-209.0","0","0","73503","","null","","","null","23","","","","","","","","","","","","","","","",""
"","ISI","","html-keyboard-response","150","188919","0.0-1.0-210.0","0","0","73503","","null","","","null","23","NaN","","","","","","","","","","","","","","",""
"","S2","","html-keyboard-response","151","189177","0.0-1.0-211.0","0","0","73503","","null","","","null","23","","NaN","","","","","","","","","","","","","",""
"","response","","html-keyboard-response","152","189446","0.0-1.0-212.0-0.0","0","0","73503","","255","","","75","23","","","1","23","training","adjacent","CD","3","4","L.jpg","N.jpg","1","1","1","",""
"","feedback","","html-keyboard-response","153","190451","0.0-1.0-213.0-0.0","0","0","73503","","null","","","null","23","","","","","","","","","","","","","","","",""
"","ITI","","html-keyboard-response","154","191458","0.0-1.0-216.0","0","0","73503","","null","","","null","23","","","","","","","","","","","","","","","NaN",""
"","S1","","html-keyboard-response","155","191727","0.0-1.0-218.0","0","0","73503","","null","","","null","24","","","","","","","","","","","","","","","",""
"","ISI","","html-keyboard-response","156","192231","0.0-1.0-219.0","0","0","73503","","null","","","null","24","NaN","","","","","","","","","","","","","","",""
"","S2","","html-keyboard-response","157","192486","0.0-1.0-220.0","0","0","73503","","null","","","null","24","","NaN","","","","","","","","","","","","","",""
"","response","","html-keyboard-response","158","193786","0.0-1.0-221.0-0.0","0","0","73503","","1293","","","68","24","","","1","24","training","adjacent","DE","4","5","N.jpg","M.jpg","0","1","0","",""
"","feedback","","html-keyboard-response","159","194796","0.0-1.0-222.0-0.0","0","0","73503","","null","","","null","24","","","","","","","","","","","","","","","",""
"","time_out","","html-keyboard-response","160","196812","0.0-1.0-224.0-0.0","0","0","73503","","null","","","null","24","","","","","","","","","","","","","","","",""
"","ITI","","html-keyboard-response","161","197822","0.0-1.0-225.0","0","0","73503","","null","","","null","24","","","","","","","","","","","","","","","NaN",""
"","S1","","html-keyboard-response","162","198077","0.0-1.0-227.0","0","0","73503","","null","","","null","25","","","","","","","","","","","","","","","",""
"","ISI","","html-keyboard-response","163","198635","0.0-1.0-228.0","0","0","73503","","null","","","null","25","NaN","","","","","","","","","","","","","","",""
"","S2","","html-keyboard-response","164","198892","0.0-1.0-229.0","0","0","73503","","null","","","null","25","","NaN","","","","","","","","","","","","","",""
"","response","","html-keyboard-response","165","199383","0.0-1.0-230.0-0.0","0","0","73503","","485","","","68","25","","","1","25","training","adjacent","DE","4","5","N.jpg","M.jpg","0","1","0","",""
"","feedback","","html-keyboard-response","166","200386","0.0-1.0-231.0-0.0","0","0","73503","","null","","","null","25","","","","","","","","","","","","","","","",""
"","time_out","","html-keyboard-response","167","202390","0.0-1.0-233.0-0.0","0","0","73503","","null","","","null","25","","","","","","","","","","","","","","","",""
"","ITI","","html-keyboard-response","168","203395","0.0-1.0-234.0","0","0","73503","","null","","","null","25","","","","","","","","","","","","","","","NaN",""
"","S1","","html-keyboard-response","169","203650","0.0-1.0-236.0","0","0","73503","","null","","","null","26","","","","","","","","","","","","","","","",""
"","ISI","","html-keyboard-response","170","204168","0.0-1.0-237.0","0","0","73503","","null","","","null","26","NaN","","","","","","","","","","","","","","",""
"","S2","","html-keyboard-response","171","204424","0.0-1.0-238.0","0","0","73503","","null","","","null","26","","NaN","","","","","","","","","","","","","",""
"","response","","html-keyboard-response","172","205431","0.0-1.0-239.0-0.0","0","0","73503","","1000","","","68","26","","","1","26","training","adjacent","AB","1","2","Q.jpg","O.jpg","0","1","0","",""
"","feedback","","html-keyboard-response","173","206440","0.0-1.0-240.0-0.0","0","0","73503","","null","","","null","26","","","","","","","","","","","","","","","",""
"","time_out","","html-keyboard-response","174","208450","0.0-1.0-242.0-0.0","0","0","73503","","null","","","null","26","","","","","","","","","","","","","","","",""
"","ITI","","html-keyboard-response","175","209458","0.0-1.0-243.0","0","0","73503","","null","","","null","26","","","","","","","","","","","","","","","NaN",""
"","S1","","html-keyboard-response","176","209729","0.0-1.0-245.0","0","0","73503","","null","","","null","27","","","","","","","","","","","","","","","",""
"","ISI","","html-keyboard-response","177","210234","0.0-1.0-246.0","0","0","73503","","null","","","null","27","NaN","","","","","","","","","","","","","","",""
"","S2","","html-keyboard-response","178","210491","0.0-1.0-247.0","0","0","73503","","null","","","null","27","","NaN","","","","","","","","","","","","","",""
"","response","","html-keyboard-response","179","210730","0.0-1.0-248.0-0.0","0","0","73503","","230","","","75","27","","","1","27","training","adjacent","CB","3","2","L.jpg","O.jpg","1","0","0","",""
"","feedback","","html-keyboard-response","180","211738","0.0-1.0-249.0-0.0","0","0","73503","","null","","","null","27","","","","","","","","","","","","","","","",""
"","time_out","","html-keyboard-response","181","213748","0.0-1.0-251.0-0.0","0","0","73503","","null","","","null","27","","","","","","","","","","","","","","","",""
"","ITI","","html-keyboard-response","182","214752","0.0-1.0-252.0","0","0","73503","","null","","","null","27","","","","","","","","","","","","","","","NaN",""
"","S1","","html-keyboard-response","183","215007","0.0-1.0-254.0","0","0","73503","","null","","","null","28","","","","","","","","","","","","","","","",""
"","ISI","","html-keyboard-response","184","215510","0.0-1.0-255.0","0","0","73503","","null","","","null","28","NaN","","","","","","","","","","","","","","",""
"","S2","","html-keyboard-response","185","215766","0.0-1.0-256.0","0","0","73503","","null","","","null","28","","NaN","","","","","","","","","","","","","",""
"","response","","html-keyboard-response","186","216065","0.0-1.0-257.0-0.0","0","0","73503","","297","","","68","28","","","1","28","training","adjacent","CD","3","4","L.jpg","N.jpg","0","1","0","",""
"","feedback","","html-keyboard-response","187","217070","0.0-1.0-258.0-0.0","0","0","73503","","null","","","null","28","","","","","","","","","","","","","","","",""
"","time_out","","html-keyboard-response","188","219141","0.0-1.0-260.0-0.0","0","0","73503","","null","","","null","28","","","","","","","","","","","","","","","",""
"","ITI","","html-keyboard-response","189","220150","0.0-1.0-261.0","0","0","73503","","null","","","null","28","","","","","","","","","","","","","","","NaN",""
"","S1","","html-keyboard-response","190","220406","0.0-1.0-263.0","0","0","73503","","null","","","null","29","","","","","","","","","","","","","","","",""
"","ISI","","html-keyboard-response","191","220912","0.0-1.0-264.0","0","0","73503","","null","","","null","29","NaN","","","","","","","","","","","","","","",""
"","S2","","html-keyboard-response","192","221169","0.0-1.0-265.0","0","0","73503","","null","","","null","29","","NaN","","","","","","","","","","","","","",""
"","response","","html-keyboard-response","193","222264","0.0-1.0-266.0-0.0","0","0","73503","","1087","","","68","29","","","1","29","training","adjacent","GF","7","6","P.jpg","R.jpg","0","0","1","",""
"","feedback","","html-keyboard-response","194","223271","0.0-1.0-267.0-0.0","0","0","73503","","null","","","null","29","","","","","","","","","","","","","","","",""
"","ITI","","html-keyboard-response","195","224277","0.0-1.0-270.0","0","0","73503","","null","","","null","29","","","","","","","","","","","","","","","NaN",""
"","S1","","html-keyboard-response","196","224532","0.0-1.0-272.0","0","0","73503","","null","","","null","30","","","","","","","","","","","","","","","",""
"","ISI","","html-keyboard-response","197","225105","0.0-1.0-273.0","0","0","73503","","null","","","null","30","NaN","","","","","","","","","","","","","","",""
"","S2","","html-keyboard-response","198","225364","0.0-1.0-274.0","0","0","73503","","null","","","null","30","","NaN","","","","","","","","","","","","","",""
"","response","","html-keyboard-response","199","225697","0.0-1.0-275.0-0.0","0","0","73503","","329","","","75","30","","","1","30","training","adjacent","DC","4","3","N.jpg","L.jpg","1","0","0","",""
"","feedback","","html-keyboard-response","200","226703","0.0-1.0-276.0-0.0","0","0","73503","","null","","","null","30","","","","","","","","","","","","","","","",""
"","time_out","","html-keyboard-response","201","228789","0.0-1.0-278.0-0.0","0","0","73503","","null","","","null","30","","","","","","","","","","","","","","","",""
"","ITI","","html-keyboard-response","202","229797","0.0-1.0-279.0","0","0","73503","","null","","","null","30","","","","","","","","","","","","","","","NaN",""
"","S1","","html-keyboard-response","203","230053","0.0-1.0-281.0","0","0","73503","","null","","","null","31","","","","","","","","","","","","","","","",""
"","ISI","","html-keyboard-response","204","230557","0.0-1.0-282.0","0","0","73503","","null","","","null","31","NaN","","","","","","","","","","","","","","",""
"","S2","","html-keyboard-response","205","230814","0.0-1.0-283.0","0","0","73503","","null","","","null","31","","NaN","","","","","","","","","","","","","",""
"","response","","html-keyboard-response","206","232440","0.0-1.0-284.0-0.0","0","0","73503","","1620","","","68","31","","","1","31","training","adjacent","AB","1","2","Q.jpg","O.jpg","0","1","0","",""
"","feedback","","html-keyboard-response","207","233452","0.0-1.0-285.0-0.0","0","0","73503","","null","","","null","31","","","","","","","","","","","","","","","",""
"","time_out","","html-keyboard-response","208","235458","0.0-1.0-287.0-0.0","0","0","73503","","null","","","null","31","","","","","","","","","","","","","","","",""
"","ITI","","html-keyboard-response","209","236463","0.0-1.0-288.0","0","0","73503","","null","","","null","31","","","","","","","","","","","","","","","NaN",""
"","S1","","html-keyboard-response","210","236717","0.0-1.0-290.0","0","0","73503","","null","","","null","32","","","","","","","","","","","","","","","",""
"","ISI","","html-keyboard-response","211","237221","0.0-1.0-291.0","0","0","73503","","null","","","null","32","NaN","","","","","","","","","","","","","","",""
"","S2","","html-keyboard-response","212","237479","0.0-1.0-292.0","0","0","73503","","null","","","null","32","","NaN","","","","","","","","","","","","","",""
"","response","","html-keyboard-response","213","238709","0.0-1.0-293.0-0.0","0","0","73503","","1222","","","68","32","","","1","32","training","adjacent","FG","6","7","R.jpg","P.jpg","0","1","0","",""
"","feedback","","html-keyboard-response","214","239716","0.0-1.0-294.0-0.0","0","0","73503","","null","","","null","32","","","","","","","","","","","","","","","",""
"","time_out","","html-keyboard-response","215","241817","0.0-1.0-296.0-0.0","0","0","73503","","null","","","null","32","","","","","","","","","","","","","","","",""
"","ITI","","html-keyboard-response","216","242823","0.0-1.0-297.0","0","0","73503","","null","","","null","32","","","","","","","","","","","","","","","NaN",""
"","S1","","html-keyboard-response","217","243078","0.0-1.0-299.0","0","0","73503","","null","","","null","33","","","","","","","","","","","","","","","",""
"","ISI","","html-keyboard-response","218","243583","0.0-1.0-300.0","0","0","73503","","null","","","null","33","NaN","","","","","","","","","","","","","","",""
"","S2","","html-keyboard-response","219","243839","0.0-1.0-301.0","0","0","73503","","null","","","null","33","","NaN","","","","","","","","","","","","","",""
"","response","","html-keyboard-response","220","244667","0.0-1.0-302.0-0.0","0","0","73503","","824","","","75","33","","","1","33","training","adjacent","FG","6","7","R.jpg","P.jpg","1","1","1","",""
"","feedback","","html-keyboard-response","221","245676","0.0-1.0-303.0-0.0","0","0","73503","","null","","","null","33","","","","","","","","","","","","","","","",""
"","ITI","","html-keyboard-response","222","246683","0.0-1.0-306.0","0","0","73503","","null","","","null","33","","","","","","","","","","","","","","","NaN",""
"","S1","","html-keyboard-response","223","246940","0.0-1.0-308.0","0","0","73503","","null","","","null","34","","","","","","","","","","","","","","","",""
"","ISI","","html-keyboard-response","224","247442","0.0-1.0-309.0","0","0","73503","","null","","","null","34","NaN","","","","","","","","","","","","","","",""
"","S2","","html-keyboard-response","225","247698","0.0-1.0-310.0","0","0","73503","","null","","","null","34","","NaN","","","","","","","","","","","","","",""
"","response","","html-keyboard-response","226","248554","0.0-1.0-311.0-0.0","0","0","73503","","848","","","75","34","","","1","34","training","adjacent","EF","5","6","M.jpg","R.jpg","1","1","1","",""
"","feedback","","html-keyboard-response","227","249563","0.0-1.0-312.0-0.0","0","0","73503","","null","","","null","34","","","","","","","","","","","","","","","",""
"","ITI","","html-keyboard-response","228","250572","0.0-1.0-315.0","0","0","73503","","null","","","null","34","","","","","","","","","","","","","","","NaN",""
"","S1","","html-keyboard-response","229","250828","0.0-1.0-317.0","0","0","73503","","null","","","null","35","","","","","","","","","","","","","","","",""
"","ISI","","html-keyboard-response","230","251331","0.0-1.0-318.0","0","0","73503","","null","","","null","35","NaN","","","","","","","","","","","","","","",""
"","S2","","html-keyboard-response","231","251588","0.0-1.0-319.0","0","0","73503","","null","","","null","35","","NaN","","","","","","","","","","","","","",""
"","response","","html-keyboard-response","232","253314","0.0-1.0-320.0-0.0","0","0","73503","","1718","","","68","35","","","1","35","training","adjacent","BA","2","1","O.jpg","Q.jpg","0","0","1","",""
"","feedback","","html-keyboard-response","233","254325","0.0-1.0-321.0-0.0","0","0","73503","","null","","","null","35","","","","","","","","","","","","","","","",""
"","ITI","","html-keyboard-response","234","255368","0.0-1.0-324.0","0","0","73503","","null","","","null","35","","","","","","","","","","","","","","","NaN",""
"","S1","","html-keyboard-response","235","255641","0.0-1.0-326.0","0","0","73503","","null","","","null","36","","","","","","","","","","","","","","","",""
"","ISI","","html-keyboard-response","236","256149","0.0-1.0-327.0","0","0","73503","","null","","","null","36","NaN","","","","","","","","","","","","","","",""
"","S2","","html-keyboard-response","237","256406","0.0-1.0-328.0","0","0","73503","","null","","","null","36","","NaN","","","","","","","","","","","","","",""
"","response","","html-keyboard-response","238","257574","0.0-1.0-329.0-0.0","0","0","73503","","1164","","","75","36","","","1","36","training","adjacent","ED","5","4","M.jpg","N.jpg","1","0","0","",""
"","feedback","","html-keyboard-response","239","258585","0.0-1.0-330.0-0.0","0","0","73503","","null","","","null","36","","","","","","","","","","","","","","","",""
"","time_out","","html-keyboard-response","240","260599","0.0-1.0-332.0-0.0","0","0","73503","","null","","","null","36","","","","","","","","","","","","","","","",""
"","ITI","","html-keyboard-response","241","261608","0.0-1.0-333.0","0","0","73503","","null","","","null","36","","","","","","","","","","","","","","","NaN",""
"","S1","","html-keyboard-response","242","261862","0.0-1.0-335.0","0","0","73503","","null","","","null","37","","","","","","","","","","","","","","","",""
"","ISI","","html-keyboard-response","243","262376","0.0-1.0-336.0","0","0","73503","","null","","","null","37","NaN","","","","","","","","","","","","","","",""
"","S2","","html-keyboard-response","244","262633","0.0-1.0-337.0","0","0","73503","","null","","","null","37","","NaN","","","","","","","","","","","","","",""
"","response","","html-keyboard-response","245","263253","0.0-1.0-338.0-0.0","0","0","73503","","613","","","68","37","","","1","37","training","adjacent","EF","5","6","M.jpg","R.jpg","0","1","0","",""
"","feedback","","html-keyboard-response","246","264263","0.0-1.0-339.0-0.0","0","0","73503","","null","","","null","37","","","","","","","","","","","","","","","",""
"","time_out","","html-keyboard-response","247","266269","0.0-1.0-341.0-0.0","0","0","73503","","null","","","null","37","","","","","","","","","","","","","","","",""
"","ITI","","html-keyboard-response","248","267275","0.0-1.0-342.0","0","0","73503","","null","","","null","37","","","","","","","","","","","","","","","NaN",""
"","S1","","html-keyboard-response","249","267531","0.0-1.0-344.0","0","0","73503","","null","","","null","38","","","","","","","","","","","","","","","",""
"","ISI","","html-keyboard-response","250","268033","0.0-1.0-345.0","0","0","73503","","null","","","null","38","NaN","","","","","","","","","","","","","","",""
"","S2","","html-keyboard-response","251","268289","0.0-1.0-346.0","0","0","73503","","null","","","null","38","","NaN","","","","","","","","","","","","","",""
"","response","","html-keyboard-response","252","268627","0.0-1.0-347.0-0.0","0","0","73503","","333","","","75","38","","","1","38","training","adjacent","EF","5","6","M.jpg","R.jpg","1","1","1","",""
"","feedback","","html-keyboard-response","253","269633","0.0-1.0-348.0-0.0","0","0","73503","","null","","","null","38","","","","","","","","","","","","","","","",""
"","ITI","","html-keyboard-response","254","270643","0.0-1.0-351.0","0","0","73503","","null","","","null","38","","","","","","","","","","","","","","","NaN",""
"","S1","","html-keyboard-response","255","270898","0.0-1.0-353.0","0","0","73503","","null","","","null","39","","","","","","","","","","","","","","","",""
"","ISI","","html-keyboard-response","256","271403","0.0-1.0-354.0","0","0","73503","","null","","","null","39","NaN","","","","","","","","","","","","","","",""
"","S2","","html-keyboard-response","257","271658","0.0-1.0-355.0","0","0","73503","","null","","","null","39","","NaN","","","","","","","","","","","","","",""
"","response","","html-keyboard-response","258","272438","0.0-1.0-356.0-0.0","0","0","73503","","774","","","68","39","","","1","39","training","adjacent","AB","1","2","Q.jpg","O.jpg","0","1","0","",""
"","feedback","","html-keyboard-response","259","273459","0.0-1.0-357.0-0.0","0","0","73503","","null","","","null","39","","","","","","","","","","","","","","","",""
"","time_out","","html-keyboard-response","260","275470","0.0-1.0-359.0-0.0","0","0","73503","","null","","","null","39","","","","","","","","","","","","","","","",""
"","ITI","","html-keyboard-response","261","276478","0.0-1.0-360.0","0","0","73503","","null","","","null","39","","","","","","","","","","","","","","","NaN",""
"","S1","","html-keyboard-response","262","276789","0.0-1.0-362.0","0","0","73503","","null","","","null","40","","","","","","","","","","","","","","","",""
"","ISI","","html-keyboard-response","263","277295","0.0-1.0-363.0","0","0","73503","","null","","","null","40","NaN","","","","","","","","","","","","","","",""
"","S2","","html-keyboard-response","264","277555","0.0-1.0-364.0","0","0","73503","","null","","","null","40","","NaN","","","","","","","","","","","","","",""
"","response","","html-keyboard-response","265","278675","0.0-1.0-365.0-0.0","0","0","73503","","1115","","","68","40","","","1","40","training","adjacent","ED","5","4","M.jpg","N.jpg","0","0","1","",""
"","feedback","","html-keyboard-response","266","279681","0.0-1.0-366.0-0.0","0","0","73503","","null","","","null","40","","","","","","","","","","","","","","","",""
"","ITI","","html-keyboard-response","267","280767","0.0-1.0-369.0","0","0","73503","","null","","","null","40","","","","","","","","","","","","","","","NaN",""
"","S1","","html-keyboard-response","268","281021","0.0-1.0-371.0","0","0","73503","","null","","","null","41","","","","","","","","","","","","","","","",""
"","ISI","","html-keyboard-response","269","281526","0.0-1.0-372.0","0","0","73503","","null","","","null","41","NaN","","","","","","","","","","","","","","",""
"","S2","","html-keyboard-response","270","281781","0.0-1.0-373.0","0","0","73503","","null","","","null","41","","NaN","","","","","","","","","","","","","",""
"","response","","html-keyboard-response","271","281998","0.0-1.0-374.0-0.0","0","0","73503","","211","","","75","41","","","1","41","training","adjacent","GF","7","6","P.jpg","R.jpg","1","0","0","",""
"","feedback","","html-keyboard-response","272","283007","0.0-1.0-375.0-0.0","0","0","73503","","null","","","null","41","","","","","","","","","","","","","","","",""
"","time_out","","html-keyboard-response","273","285013","0.0-1.0-377.0-0.0","0","0","73503","","null","","","null","41","","","","","","","","","","","","","","","",""
"","ITI","","html-keyboard-response","274","286020","0.0-1.0-378.0","0","0","73503","","null","","","null","41","","","","","","","","","","","","","","","NaN",""
"","S1","","html-keyboard-response","275","286277","0.0-1.0-380.0","0","0","73503","","null","","","null","42","","","","","","","","","","","","","","","",""
"","ISI","","html-keyboard-response","276","286780","0.0-1.0-381.0","0","0","73503","","null","","","null","42","NaN","","","","","","","","","","","","","","",""
"","S2","","html-keyboard-response","277","287068","0.0-1.0-382.0","0","0","73503","","null","","","null","42","","NaN","","","","","","","","","","","","","",""
"","response","","html-keyboard-response","278","287734","0.0-1.0-383.0-0.0","0","0","73503","","660","","","75","42","","","1","42","training","adjacent","FG","6","7","R.jpg","P.jpg","1","1","1","",""
"","feedback","","html-keyboard-response","279","288741","0.0-1.0-384.0-0.0","0","0","73503","","null","","","null","42","","","","","","","","","","","","","","","",""
"","ITI","","html-keyboard-response","280","289748","0.0-1.0-387.0","0","0","73503","","null","","","null","42","","","","","","","","","","","","","","","NaN",""
"","S1","","html-keyboard-response","281","290005","0.0-1.0-389.0","0","0","73503","","null","","","null","43","","","","","","","","","","","","","","","",""
"","ISI","","html-keyboard-response","282","290613","0.0-1.0-390.0","0","0","73503","","null","","","null","43","NaN","","","","","","","","","","","","","","",""
"","S2","","html-keyboard-response","283","290917","0.0-1.0-391.0","0","0","73503","","null","","","null","43","","NaN","","","","","","","","","","","","","",""
"","response","","html-keyboard-response","284","291321","0.0-1.0-392.0-0.0","0","0","73503","","398","","","68","43","","","1","43","training","adjacent","BA","2","1","O.jpg","Q.jpg","0","0","1","",""
"","feedback","","html-keyboard-response","285","292328","0.0-1.0-393.0-0.0","0","0","73503","","null","","","null","43","","","","","","","","","","","","","","","",""
"","ITI","","html-keyboard-response","286","293334","0.0-1.0-396.0","0","0","73503","","null","","","null","43","","","","","","","","","","","","","","","NaN",""
"","S1","","html-keyboard-response","287","293664","0.0-1.0-398.0","0","0","73503","","null","","","null","44","","","","","","","","","","","","","","","",""
"","ISI","","html-keyboard-response","288","294186","0.0-1.0-399.0","0","0","73503","","null","","","null","44","NaN","","","","","","","","","","","","","","",""
"","S2","","html-keyboard-response","289","294445","0.0-1.0-400.0","0","0","73503","","null","","","null","44","","NaN","","","","","","","","","","","","","",""
"","response","","html-keyboard-response","290","294798","0.0-1.0-401.0-0.0","0","0","73503","","347","","","75","44","","","1","44","training","adjacent","CD","3","4","L.jpg","N.jpg","1","1","1","",""
"","feedback","","html-keyboard-response","291","295806","0.0-1.0-402.0-0.0","0","0","73503","","null","","","null","44","","","","","","","","","","","","","","","",""
"","ITI","","html-keyboard-response","292","296812","0.0-1.0-405.0","0","0","73503","","null","","","null","44","","","","","","","","","","","","","","","NaN",""
"","S1","","html-keyboard-response","293","297068","0.0-1.0-407.0","0","0","73503","","null","","","null","45","","","","","","","","","","","","","","","",""
"","ISI","","html-keyboard-response","294","297573","0.0-1.0-408.0","0","0","73503","","null","","","null","45","NaN","","","","","","","","","","","","","","",""
"","S2","","html-keyboard-response","295","297830","0.0-1.0-409.0","0","0","73503","","null","","","null","45","","NaN","","","","","","","","","","","","","",""
"","response","","html-keyboard-response","296","298660","0.0-1.0-410.0-0.0","0","0","73503","","823","","","75","45","","","1","45","training","adjacent","BC","2","3","O.jpg","L.jpg","1","1","1","",""
"","feedback","","html-keyboard-response","297","299681","0.0-1.0-411.0-0.0","0","0","73503","","null","","","null","45","","","","","","","","","","","","","","","",""
"","ITI","","html-keyboard-response","298","300691","0.0-1.0-414.0","0","0","73503","","null","","","null","45","","","","","","","","","","","","","","","NaN",""
"","S1","","html-keyboard-response","299","300947","0.0-1.0-416.0","0","0","73503","","null","","","null","46","","","","","","","","","","","","","","","",""
"","ISI","","html-keyboard-response","300","301452","0.0-1.0-417.0","0","0","73503","","null","","","null","46","NaN","","","","","","","","","","","","","","",""
"","S2","","html-keyboard-response","301","301707","0.0-1.0-418.0","0","0","73503","","null","","","null","46","","NaN","","","","","","","","","","","","","",""
"","response","","html-keyboard-response","302","301832","0.0-1.0-419.0-0.0","0","0","73503","","118","","","68","46","","","1","46","training","adjacent","FE","6","5","R.jpg","M.jpg","0","0","1","",""
"","feedback","","html-keyboard-response","303","302839","0.0-1.0-420.0-0.0","0","0","73503","","null","","","null","46","","","","","","","","","","","","","","","",""
"","ITI","","html-keyboard-response","304","303845","0.0-1.0-423.0","0","0","73503","","null","","","null","46","","","","","","","","","","","","","","","NaN",""
"","S1","","html-keyboard-response","305","304100","0.0-1.0-425.0","0","0","73503","","null","","","null","47","","","","","","","","","","","","","","","",""
"","ISI","","html-keyboard-response","306","304627","0.0-1.0-426.0","0","0","73503","","null","","","null","47","NaN","","","","","","","","","","","","","","",""
"","S2","","html-keyboard-response","307","304889","0.0-1.0-427.0","0","0","73503","","null","","","null","47","","NaN","","","","","","","","","","","","","",""
"","response","","html-keyboard-response","308","305611","0.0-1.0-428.0-0.0","0","0","73503","","715","","","75","47","","","1","47","training","adjacent","BC","2","3","O.jpg","L.jpg","1","1","1","",""
"","feedback","","html-keyboard-response","309","306615","0.0-1.0-429.0-0.0","0","0","73503","","null","","","null","47","","","","","","","","","","","","","","","",""
"","ITI","","html-keyboard-response","310","307620","0.0-1.0-432.0","0","0","73503","","null","","","null","47","","","","","","","","","","","","","","","NaN",""
"","block_over","","html-keyboard-response","311","318792","0.0-1.0-433.0-0.0","0","0","73503","","11157","","","32","47","","","","","","","","","","","","","","","",""
"","S1","","html-keyboard-response","312","319050","0.0-1.0-434.0","0","0","73503","","null","","","null","48","","","","","","","","","","","","","","","",""
"","ISI","","html-keyboard-response","313","319581","0.0-1.0-435.0","0","0","73503","","null","","","null","48","NaN","","","","","","","","","","","","","","",""
"","S2","","html-keyboard-response","314","319836","0.0-1.0-436.0","0","0","73503","","null","","","null","48","","NaN","","","","","","","","","","","","","",""
"","response","","html-keyboard-response","315","320958","0.0-1.0-437.0-0.0","0","0","73503","","1116","","","75","48","","","2","48","training","adjacent","DC","4","3","N.jpg","L.jpg","1","0","0","",""
"","feedback","","html-keyboard-response","316","321970","0.0-1.0-438.0-0.0","0","0","73503","","null","","","null","48","","","","","","","","","","","","","","","",""
"","time_out","","html-keyboard-response","317","323976","0.0-1.0-440.0-0.0","0","0","73503","","null","","","null","48","","","","","","","","","","","","","","","",""
"","ITI","","html-keyboard-response","318","324984","0.0-1.0-441.0","0","0","73503","","null","","","null","48","","","","","","","","","","","","","","","NaN",""
"","S1","","html-keyboard-response","319","325237","0.0-1.0-443.0","0","0","73503","","null","","","null","49","","","","","","","","","","","","","","","",""
"","ISI","","html-keyboard-response","320","325742","0.0-1.0-444.0","0","0","73503","","null","","","null","49","NaN","","","","","","","","","","","","","","",""
"","S2","","html-keyboard-response","321","326012","0.0-1.0-445.0","0","0","73503","","null","","","null","49","","NaN","","","","","","","","","","","","","",""
"","response","","html-keyboard-response","322","326815","0.0-1.0-446.0-0.0","0","0","73503","","790","","","68","49","","","2","49","training","adjacent","ED","5","4","M.jpg","N.jpg","0","0","1","",""
"","feedback","","html-keyboard-response","323","327821","0.0-1.0-447.0-0.0","0","0","73503","","null","","","null","49","","","","","","","","","","","","","","","",""
"","ITI","","html-keyboard-response","324","328842","0.0-1.0-450.0","0","0","73503","","null","","","null","49","","","","","","","","","","","","","","","NaN",""
"","S1","","html-keyboard-response","325","329096","0.0-1.0-452.0","0","0","73503","","null","","","null","50","","","","","","","","","","","","","","","",""
"","ISI","","html-keyboard-response","326","329736","0.0-1.0-453.0","0","0","73503","","null","","","null","50","NaN","","","","","","","","","","","","","","",""
"","S2","","html-keyboard-response","327","329991","0.0-1.0-454.0","0","0","73503","","null","","","null","50","","NaN","","","","","","","","","","","","","",""
"","response","","html-keyboard-response","328","331837","0.0-1.0-455.0-0.0","0","0","73503","","null","","","null","50","","","2","50","training","adjacent","CD","3","4","L.jpg","N.jpg","NaN","1","0","",""
"","too_slow_prompt","","html-keyboard-response","329","332850","0.0-1.0-457.0-0.0","1","0","73503","","null","","","null","","","","","","","","","","","","","","","","",""
"","time_out","","html-keyboard-response","330","334860","0.0-1.0-458.0-0.0","0","0","73503","","null","","","null","50","","","","","","","","","","","","","","","",""
"","ITI","","html-keyboard-response","331","335864","0.0-1.0-459.0","0","0","73503","","null","","","null","50","","","","","","","","","","","","","","","NaN",""
"","S1","","html-keyboard-response","332","336119","0.0-1.0-461.0","0","0","73503","","null","","","null","51","","","","","","","","","","","","","","","",""
"","ISI","","html-keyboard-response","333","336625","0.0-1.0-462.0","0","0","73503","","null","","","null","51","NaN","","","","","","","","","","","","","","",""
"","S2","","html-keyboard-response","334","336881","0.0-1.0-463.0","0","0","73503","","null","","","null","51","","NaN","","","","","","","","","","","","","",""
"","response","","html-keyboard-response","335","337052","0.0-1.0-464.0-0.0","0","0","73503","","165","","","75","51","","","2","51","training","adjacent","FG","6","7","R.jpg","P.jpg","1","1","1","",""
"","feedback","","html-keyboard-response","336","338057","0.0-1.0-465.0-0.0","0","0","73503","","null","","","null","51","","","","","","","","","","","","","","","",""
"","ITI","","html-keyboard-response","337","339063","0.0-1.0-468.0","0","0","73503","","null","","","null","51","","","","","","","","","","","","","","","NaN",""
"","S1","","html-keyboard-response","338","339318","0.0-1.0-470.0","0","0","73503","","null","","","null","52","","","","","","","","","","","","","","","",""
"","ISI","","html-keyboard-response","339","339835","0.0-1.0-471.0","0","0","73503","","null","","","null","52","NaN","","","","","","","","","","","","","","",""
"","S2","","html-keyboard-response","340","340162","0.0-1.0-472.0","0","0","73503","","null","","","null","52","","NaN","","","","","","","","","","","","","",""
"","response","","html-keyboard-response","341","340450","0.0-1.0-473.0-0.0","0","0","73503","","282","","","75","52","","","2","52","training","adjacent","BC","2","3","O.jpg","L.jpg","1","1","1","",""
"","feedback","","html-keyboard-response","342","341454","0.0-1.0-474.0-0.0","0","0","73503","","null","","","null","52","","","","","","","","","","","","","","","",""
"","ITI","","html-keyboard-response","343","342459","0.0-1.0-477.0","0","0","73503","","null","","","null","52","","","","","","","","","","","","","","","NaN",""
"","S1","","html-keyboard-response","344","342717","0.0-1.0-479.0","0","0","73503","","null","","","null","53","","","","","","","","","","","","","","","",""
"","ISI","","html-keyboard-response","345","343221","0.0-1.0-480.0","0","0","73503","","null","","","null","53","NaN","","","","","","","","","","","","","","",""
"","S2","","html-keyboard-response","346","343476","0.0-1.0-481.0","0","0","73503","","null","","","null","53","","NaN","","","","","","","","","","","","","",""
"","response","","html-keyboard-response","347","343968","0.0-1.0-482.0-0.0","0","0","73503","","486","","","75","53","","","2","53","training","adjacent","FE","6","5","R.jpg","M.jpg","1","0","0","",""
"","feedback","","html-keyboard-response","348","344972","0.0-1.0-483.0-0.0","0","0","73503","","null","","","null","53","","","","","","","","","","","","","","","",""
"","time_out","","html-keyboard-response","349","346978","0.0-1.0-485.0-0.0","0","0","73503","","null","","","null","53","","","","","","","","","","","","","","","",""
"","ITI","","html-keyboard-response","350","347983","0.0-1.0-486.0","0","0","73503","","null","","","null","53","","","","","","","","","","","","","","","NaN",""
"","S1","","html-keyboard-response","351","348239","0.0-1.0-488.0","0","0","73503","","null","","","null","54","","","","","","","","","","","","","","","",""
"","ISI","","html-keyboard-response","352","348747","0.0-1.0-489.0","0","0","73503","","null","","","null","54","NaN","","","","","","","","","","","","","","",""
"","S2","","html-keyboard-response","353","348813","0.0-1.0-490.0","0","0","73503","","59","","","68","54","","d","2","54","training","adjacent","ED","5","4","M.jpg","N.jpg","0","0","1","",""
"","feedback","","html-keyboard-response","354","349911","0.0-1.0-492.0-0.0","0","0","73503","","null","","","null","54","","","","","","","","","","","","","","","",""
"","ITI","","html-keyboard-response","355","350917","0.0-1.0-495.0","0","0","73503","","null","","","null","54","","","","","","","","","","","","","","","NaN",""
"","S1","","html-keyboard-response","356","351173","0.0-1.0-497.0","0","0","73503","","null","","","null","55","","","","","","","","","","","","","","","",""
"","ISI","","html-keyboard-response","357","351678","0.0-1.0-498.0","0","0","73503","","null","","","null","55","NaN","","","","","","","","","","","","","","",""
"","S2","","html-keyboard-response","358","351935","0.0-1.0-499.0","0","0","73503","","null","","","null","55","","NaN","","","","","","","","","","","","","",""
"","response","","html-keyboard-response","359","352303","0.0-1.0-500.0-0.0","0","0","73503","","362","","","75","55","","","2","55","training","adjacent","BC","2","3","O.jpg","L.jpg","1","1","1","",""
"","feedback","","html-keyboard-response","360","353315","0.0-1.0-501.0-0.0","0","0","73503","","null","","","null","55","","","","","","","","","","","","","","","",""
"","ITI","","html-keyboard-response","361","354320","0.0-1.0-504.0","0","0","73503","","null","","","null","55","","","","","","","","","","","","","","","NaN",""
"","S1","","html-keyboard-response","362","354575","0.0-1.0-506.0","0","0","73503","","null","","","null","56","","","","","","","","","","","","","","","",""
"","ISI","","html-keyboard-response","363","355079","0.0-1.0-507.0","0","0","73503","","null","","","null","56","NaN","","","","","","","","","","","","","","",""
"","S2","","html-keyboard-response","364","355186","0.0-1.0-508.0","0","0","73503","","100","","","75","56","","k","2","56","training","adjacent","CB","3","2","L.jpg","O.jpg","1","0","0","",""
"","feedback","","html-keyboard-response","365","356194","0.0-1.0-510.0-0.0","0","0","73503","","null","","","null","56","","","","","","","","","","","","","","","",""
"","time_out","","html-keyboard-response","366","358204","0.0-1.0-512.0-0.0","0","0","73503","","null","","","null","56","","","","","","","","","","","","","","","",""
"","ITI","","html-keyboard-response","367","359210","0.0-1.0-513.0","0","0","73503","","null","","","null","56","","","","","","","","","","","","","","","NaN",""
"","S1","","html-keyboard-response","368","359466","0.0-1.0-515.0","0","0","73503","","null","","","null","57","","","","","","","","","","","","","","","",""
"","ISI","","html-keyboard-response","369","359971","0.0-1.0-516.0","0","0","73503","","null","","","null","57","NaN","","","","","","","","","","","","","","",""
"","S2","","html-keyboard-response","370","360227","0.0-1.0-517.0","0","0","73503","","null","","","null","57","","NaN","","","","","","","","","","","","","",""
"","response","","html-keyboard-response","371","360796","0.0-1.0-518.0-0.0","0","0","73503","","563","","","68","57","","","2","57","training","adjacent","GF","7","6","P.jpg","R.jpg","0","0","1","",""
"","feedback","","html-keyboard-response","372","361803","0.0-1.0-519.0-0.0","0","0","73503","","null","","","null","57","","","","","","","","","","","","","","","",""
"","ITI","","html-keyboard-response","373","362808","0.0-1.0-522.0","0","0","73503","","null","","","null","57","","","","","","","","","","","","","","","NaN",""
"","S1","","html-keyboard-response","374","363064","0.0-1.0-524.0","0","0","73503","","null","","","null","58","","","","","","","","","","","","","","","",""
"","ISI","","html-keyboard-response","375","363569","0.0-1.0-525.0","0","0","73503","","null","","","null","58","NaN","","","","","","","","","","","","","","",""
"","S2","","html-keyboard-response","376","363835","0.0-1.0-526.0","0","0","73503","","null","","","null","58","","NaN","","","","","","","","","","","","","",""
"","response","","html-keyboard-response","377","364702","0.0-1.0-527.0-0.0","0","0","73503","","859","","","75","58","","","2","58","training","adjacent","FE","6","5","R.jpg","M.jpg","1","0","0","",""
"","feedback","","html-keyboard-response","378","365708","0.0-1.0-528.0-0.0","0","0","73503","","null","","","null","58","","","","","","","","","","","","","","","",""
"","time_out","","html-keyboard-response","379","367733","0.0-1.0-530.0-0.0","0","0","73503","","null","","","null","58","","","","","","","","","","","","","","","",""
"","ITI","","html-keyboard-response","380","368742","0.0-1.0-531.0","0","0","73503","","null","","","null","58","","","","","","","","","","","","","","","NaN",""
"","S1","","html-keyboard-response","381","368999","0.0-1.0-533.0","0","0","73503","","null","","","null","59","","","","","","","","","","","","","","","",""
"","ISI","","html-keyboard-response","382","369509","0.0-1.0-534.0","0","0","73503","","null","","","null","59","NaN","","","","","","","","","","","","","","",""
"","S2","","html-keyboard-response","383","369905","0.0-1.0-535.0","0","0","73503","","null","","","null","59","","NaN","","","","","","","","","","","","","",""
"","response","","html-keyboard-response","384","370308","0.0-1.0-536.0-0.0","0","0","73503","","375","","","75","59","","","2","59","training","adjacent","DC","4","3","N.jpg","L.jpg","1","0","0","",""
"","feedback","","html-keyboard-response","385","371314","0.0-1.0-537.0-0.0","0","0","73503","","null","","","null","59","","","","","","","","","","","","","","","",""
"","time_out","","html-keyboard-response","386","373320","0.0-1.0-539.0-0.0","0","0","73503","","null","","","null","59","","","","","","","","","","","","","","","",""
"","ITI","","html-keyboard-response","387","374326","0.0-1.0-540.0","0","0","73503","","null","","","null","59","","","","","","","","","","","","","","","NaN",""
"","S1","","html-keyboard-response","388","374582","0.0-1.0-542.0","0","0","73503","","null","","","null","60","","","","","","","","","","","","","","","",""
"","ISI","","html-keyboard-response","389","375089","0.0-1.0-543.0","0","0","73503","","null","","","null","60","NaN","","","","","","","","","","","","","","",""
"","S2","","html-keyboard-response","390","375347","0.0-1.0-544.0","0","0","73503","","null","","","null","60","","NaN","","","","","","","","","","","","","",""
"","response","","html-keyboard-response","391","376265","0.0-1.0-545.0-0.0","0","0","73503","","910","","","75","60","","","2","60","training","adjacent","AB","1","2","Q.jpg","O.jpg","1","1","1","",""
"","feedback","","html-keyboard-response","392","377273","0.0-1.0-546.0-0.0","0","0","73503","","null","","","null","60","","","","","","","","","","","","","","","",""
"","ITI","","html-keyboard-response","393","378282","0.0-1.0-549.0","0","0","73503","","null","","","null","60","","","","","","","","","","","","","","","NaN",""
"","S1","","html-keyboard-response","394","378538","0.0-1.0-551.0","0","0","73503","","null","","","null","61","","","","","","","","","","","","","","","",""
"","ISI","","html-keyboard-response","395","379043","0.0-1.0-552.0","0","0","73503","","null","","","null","61","NaN","","","","","","","","","","","","","","",""
"","S2","","html-keyboard-response","396","379306","0.0-1.0-553.0","0","0","73503","","null","","","null","61","","NaN","","","","","","","","","","","","","",""
"","response","","html-keyboard-response","397","379656","0.0-1.0-554.0-0.0","0","0","73503","","344","","","75","61","","","2","61","training","adjacent","DE","4","5","N.jpg","M.jpg","1","1","1","",""
"","feedback","","html-keyboard-response","398","380663","0.0-1.0-555.0-0.0","0","0","73503","","null","","","null","61","","","","","","","","","","","","","","","",""
"","ITI","","html-keyboard-response","399","381669","0.0-1.0-558.0","0","0","73503","","null","","","null","61","","","","","","","","","","","","","","","NaN",""
"","S1","","html-keyboard-response","400","381923","0.0-1.0-560.0","0","0","73503","","null","","","null","62","","","","","","","","","","","","","","","",""
"","ISI","","html-keyboard-response","401","382497","0.0-1.0-561.0","0","0","73503","","null","","","null","62","NaN","","","","","","","","","","","","","","",""
"","S2","","html-keyboard-response","402","382743","0.0-1.0-562.0","0","0","73503","","222","","","68","62","","d","2","62","training","adjacent","EF","5","6","M.jpg","R.jpg","0","1","0","",""
"","feedback","","html-keyboard-response","403","383751","0.0-1.0-564.0-0.0","0","0","73503","","null","","","null","62","","","","","","","","","","","","","","","",""
"","time_out","","html-keyboard-response","404","385758","0.0-1.0-566.0-0.0","0","0","73503","","null","","","null","62","","","","","","","","","","","","","","","",""
"","ITI","","html-keyboard-response","405","386764","0.0-1.0-567.0","0","0","73503","","null","","","null","62","","","","","","","","","","","","","","","NaN",""
"","S1","","html-keyboard-response","406","387020","0.0-1.0-569.0","0","0","73503","","null","","","null","63","","","","","","","","","","","","","","","",""
"","ISI","","html-keyboard-response","407","387524","0.0-1.0-570.0","0","0","73503","","451","","","75","63","k","","","","","","","","","","","","","","",""
"","S2","","html-keyboard-response","408","387781","0.0-1.0-571.0","0","0","73503","","null","","","null","63","","NaN","","","","","","","","","","","","","",""
"","response","","html-keyboard-response","409","388805","0.0-1.0-572.0-0.0","0","0","73503","","1020","","","75","63","","","2","63","training","adjacent","CD","3","4","L.jpg","N.jpg","1","1","1","",""
"","feedback","","html-keyboard-response","410","389811","0.0-1.0-573.0-0.0","0","0","73503","","null","","","null","63","","","","","","","","","","","","","","","",""
"","ITI","","html-keyboard-response","411","390817","0.0-1.0-576.0","0","0","73503","","null","","","null","63","","","","","","","","","","","","","","","NaN",""
"","S1","","html-keyboard-response","412","391073","0.0-1.0-578.0","0","0","73503","","null","","","null","64","","","","","","","","","","","","","","","",""
"","ISI","","html-keyboard-response","413","391578","0.0-1.0-579.0","0","0","73503","","null","","","null","64","NaN","","","","","","","","","","","","","","",""
"","S2","","html-keyboard-response","414","391834","0.0-1.0-580.0","0","0","73503","","null","","","null","64","","NaN","","","","","","","","","","","","","",""
"","response","","html-keyboard-response","415","392280","0.0-1.0-581.0-0.0","0","0","73503","","438","","","75","64","","","2","64","training","adjacent","CD","3","4","L.jpg","N.jpg","1","1","1","",""
"","feedback","","html-keyboard-response","416","393287","0.0-1.0-582.0-0.0","0","0","73503","","null","","","null","64","","","","","","","","","","","","","","","",""
"","ITI","","html-keyboard-response","417","394294","0.0-1.0-585.0","0","0","73503","","null","","","null","64","","","","","","","","","","","","","","","NaN",""
"","S1","","html-keyboard-response","418","394570","0.0-1.0-587.0","0","0","73503","","null","","","null","65","","","","","","","","","","","","","","","",""
"","ISI","","html-keyboard-response","419","395076","0.0-1.0-588.0","0","0","73503","","null","","","null","65","NaN","","","","","","","","","","","","","","",""
"","S2","","html-keyboard-response","420","395332","0.0-1.0-589.0","0","0","73503","","null","","","null","65","","NaN","","","","","","","","","","","","","",""
"","response","","html-keyboard-response","421","395657","0.0-1.0-590.0-0.0","0","0","73503","","318","","","68","65","","","2","65","training","adjacent","BC","2","3","O.jpg","L.jpg","0","1","0","",""
"","feedback","","html-keyboard-response","422","396753","0.0-1.0-591.0-0.0","0","0","73503","","null","","","null","65","","","","","","","","","","","","","","","",""
"","time_out","","html-keyboard-response","423","398763","0.0-1.0-593.0-0.0","0","0","73503","","null","","","null","65","","","","","","","","","","","","","","","",""
"","ITI","","html-keyboard-response","424","399770","0.0-1.0-594.0","0","0","73503","","null","","","null","65","","","","","","","","","","","","","","","NaN",""
"","S1","","html-keyboard-response","425","400024","0.0-1.0-596.0","0","0","73503","","null","","","null","66","","","","","","","","","","","","","","","",""
"","ISI","","html-keyboard-response","426","400531","0.0-1.0-597.0","0","0","73503","","null","","","null","66","NaN","","","","","","","","","","","","","","",""
"","S2","","html-keyboard-response","427","400785","0.0-1.0-598.0","0","0","73503","","null","","","null","66","","NaN","","","","","","","","","","","","","",""
"","response","","html-keyboard-response","428","400894","0.0-1.0-599.0-0.0","0","0","73503","","105","","","75","66","","","2","66","training","adjacent","DE","4","5","N.jpg","M.jpg","1","1","1","",""
"","feedback","","html-keyboard-response","429","401904","0.0-1.0-600.0-0.0","0","0","73503","","null","","","null","66","","","","","","","","","","","","","","","",""
"","ITI","","html-keyboard-response","430","402921","0.0-1.0-603.0","0","0","73503","","null","","","null","66","","","","","","","","","","","","","","","NaN",""
"","S1","","html-keyboard-response","431","403176","0.0-1.0-605.0","0","0","73503","","null","","","null","67","","","","","","","","","","","","","","","",""
"","ISI","","html-keyboard-response","432","403680","0.0-1.0-606.0","0","0","73503","","null","","","null","67","NaN","","","","","","","","","","","","","","",""
"","S2","","html-keyboard-response","433","403937","0.0-1.0-607.0","0","0","73503","","null","","","null","67","","NaN","","","","","","","","","","","","","",""
"","response","","html-keyboard-response","434","404672","0.0-1.0-608.0-0.0","0","0","73503","","727","","","68","67","","","2","67","training","adjacent","BA","2","1","O.jpg","Q.jpg","0","0","1","",""
"","feedback","","html-keyboard-response","435","405683","0.0-1.0-609.0-0.0","0","0","73503","","null","","","null","67","","","","","","","","","","","","","","","",""
"","ITI","","html-keyboard-response","436","406695","0.0-1.0-612.0","0","0","73503","","null","","","null","67","","","","","","","","","","","","","","","NaN",""
"","S1","","html-keyboard-response","437","406952","0.0-1.0-614.0","0","0","73503","","null","","","null","68","","","","","","","","","","","","","","","",""
"","ISI","","html-keyboard-response","438","407458","0.0-1.0-615.0","0","0","73503","","null","","","null","68","NaN","","","","","","","","","","","","","","",""
"","S2","","html-keyboard-response","439","407771","0.0-1.0-616.0","0","0","73503","","null","","","null","68","","NaN","","","","","","","","","","","","","",""
"","response","","html-keyboard-response","440","408176","0.0-1.0-617.0-0.0","0","0","73503","","396","","","75","68","","","2","68","training","adjacent","DC","4","3","N.jpg","L.jpg","1","0","0","",""
"","feedback","","html-keyboard-response","441","409185","0.0-1.0-618.0-0.0","0","0","73503","","null","","","null","68","","","","","","","","","","","","","","","",""
"","time_out","","html-keyboard-response","442","411191","0.0-1.0-620.0-0.0","0","0","73503","","null","","","null","68","","","","","","","","","","","","","","","",""
"","ITI","","html-keyboard-response","443","412196","0.0-1.0-621.0","0","0","73503","","null","","","null","68","","","","","","","","","","","","","","","NaN",""
"","S1","","html-keyboard-response","444","412452","0.0-1.0-623.0","0","0","73503","","null","","","null","69","","","","","","","","","","","","","","","",""
"","ISI","","html-keyboard-response","445","412956","0.0-1.0-624.0","0","0","73503","","null","","","null","69","NaN","","","","","","","","","","","","","","",""
"","S2","","html-keyboard-response","446","413210","0.0-1.0-625.0","0","0","73503","","null","","","null","69","","NaN","","","","","","","","","","","","","",""
"","response","","html-keyboard-response","447","413525","0.0-1.0-626.0-0.0","0","0","73503","","298","","","68","69","","","2","69","training","adjacent","CB","3","2","L.jpg","O.jpg","0","0","1","",""
"","feedback","","html-keyboard-response","448","414529","0.0-1.0-627.0-0.0","0","0","73503","","null","","","null","69","","","","","","","","","","","","","","","",""
"","ITI","","html-keyboard-response","449","415537","0.0-1.0-630.0","0","0","73503","","null","","","null","69","","","","","","","","","","","","","","","NaN",""
"","S1","","html-keyboard-response","450","415792","0.0-1.0-632.0","0","0","73503","","null","","","null","70","","","","","","","","","","","","","","","",""
"","ISI","","html-keyboard-response","451","416296","0.0-1.0-633.0","0","0","73503","","null","","","null","70","NaN","","","","","","","","","","","","","","",""
"","S2","","html-keyboard-response","452","416554","0.0-1.0-634.0","0","0","73503","","null","","","null","70","","NaN","","","","","","","","","","","","","",""
"","response","","html-keyboard-response","453","416760","0.0-1.0-635.0-0.0","0","0","73503","","200","","","75","70","","","2","70","training","adjacent","CD","3","4","L.jpg","N.jpg","1","1","1","",""
"","feedback","","html-keyboard-response","454","417769","0.0-1.0-636.0-0.0","0","0","73503","","null","","","null","70","","","","","","","","","","","","","","","",""
"","ITI","","html-keyboard-response","455","418778","0.0-1.0-639.0","0","0","73503","","null","","","null","70","","","","","","","","","","","","","","","NaN",""
"","S1","","html-keyboard-response","456","419033","0.0-1.0-641.0","0","0","73503","","null","","","null","71","","","","","","","","","","","","","","","",""
"","ISI","","html-keyboard-response","457","419536","0.0-1.0-642.0","0","0","73503","","null","","","null","71","NaN","","","","","","","","","","","","","","",""
"","S2","","html-keyboard-response","458","419793","0.0-1.0-643.0","0","0","73503","","null","","","null","71","","NaN","","","","","","","","","","","","","",""
"","response","","html-keyboard-response","459","421225","0.0-1.0-644.0-0.0","0","0","73503","","1426","","","75","71","","","2","71","training","adjacent","EF","5","6","M.jpg","R.jpg","1","1","1","",""
"","feedback","","html-keyboard-response","460","422234","0.0-1.0-645.0-0.0","0","0","73503","","null","","","null","71","","","","","","","","","","","","","","","",""
"","ITI","","html-keyboard-response","461","423242","0.0-1.0-648.0","0","0","73503","","null","","","null","71","","","","","","","","","","","","","","","NaN",""
"","S1","","html-keyboard-response","462","423504","0.0-1.0-650.0","0","0","73503","","null","","","null","72","","","","","","","","","","","","","","","",""
"","ISI","","html-keyboard-response","463","424009","0.0-1.0-651.0","0","0","73503","","441","","","68","72","d","","","","","","","","","","","","","","",""
"","S2","","html-keyboard-response","464","424269","0.0-1.0-652.0","0","0","73503","","null","","","null","72","","NaN","","","","","","","","","","","","","",""
"","response","","html-keyboard-response","465","425008","0.0-1.0-653.0-0.0","0","0","73503","","732","","","68","72","","","2","72","training","adjacent","GF","7","6","P.jpg","R.jpg","0","0","1","",""
"","feedback","","html-keyboard-response","466","426016","0.0-1.0-654.0-0.0","0","0","73503","","null","","","null","72","","","","","","","","","","","","","","","",""
"","ITI","","html-keyboard-response","467","427024","0.0-1.0-657.0","0","0","73503","","null","","","null","72","","","","","","","","","","","","","","","NaN",""
"","S1","","html-keyboard-response","468","427281","0.0-1.0-659.0","0","0","73503","","null","","","null","73","","","","","","","","","","","","","","","",""
"","ISI","","html-keyboard-response","469","427858","0.0-1.0-660.0","0","0","73503","","null","","","null","73","NaN","","","","","","","","","","","","","","",""
"","S2","","html-keyboard-response","470","428114","0.0-1.0-661.0","0","0","73503","","null","","","null","73","","NaN","","","","","","","","","","","","","",""
"","response","","html-keyboard-response","471","428223","0.0-1.0-662.0-0.0","0","0","73503","","103","","","75","73","","","2","73","training","adjacent","ED","5","4","M.jpg","N.jpg","1","0","0","",""
"","feedback","","html-keyboard-response","472","429233","0.0-1.0-663.0-0.0","0","0","73503","","null","","","null","73","","","","","","","","","","","","","","","",""
"","time_out","","html-keyboard-response","473","431242","0.0-1.0-665.0-0.0","0","0","73503","","null","","","null","73","","","","","","","","","","","","","","","",""
"","ITI","","html-keyboard-response","474","432300","0.0-1.0-666.0","0","0","73503","","null","","","null","73","","","","","","","","","","","","","","","NaN",""
"","S1","","html-keyboard-response","475","432556","0.0-1.0-668.0","0","0","73503","","null","","","null","74","","","","","","","","","","","","","","","",""
"","ISI","","html-keyboard-response","476","433061","0.0-1.0-669.0","0","0","73503","","null","","","null","74","NaN","","","","","","","","","","","","","","",""
"","S2","","html-keyboard-response","477","433318","0.0-1.0-670.0","0","0","73503","","null","","","null","74","","NaN","","","","","","","","","","","","","",""
"","response","","html-keyboard-response","478","433674","0.0-1.0-671.0-0.0","0","0","73503","","349","","","75","74","","","2","74","training","adjacent","AB","1","2","Q.jpg","O.jpg","1","1","1","",""
"","feedback","","html-keyboard-response","479","434685","0.0-1.0-672.0-0.0","0","0","73503","","null","","","null","74","","","","","","","","","","","","","","","",""
"","ITI","","html-keyboard-response","480","435691","0.0-1.0-675.0","0","0","73503","","null","","","null","74","","","","","","","","","","","","","","","NaN",""
"","S1","","html-keyboard-response","481","435945","0.0-1.0-677.0","0","0","73503","","null","","","null","75","","","","","","","","","","","","","","","",""
"","ISI","","html-keyboard-response","482","436452","0.0-1.0-678.0","0","0","73503","","null","","","null","75","NaN","","","","","","","","","","","","","","",""
"","S2","","html-keyboard-response","483","436762","0.0-1.0-679.0","0","0","73503","","null","","","null","75","","NaN","","","","","","","","","","","","","",""
"","response","","html-keyboard-response","484","437199","0.0-1.0-680.0-0.0","0","0","73503","","432","","","75","75","","","2","75","training","adjacent","ED","5","4","M.jpg","N.jpg","1","0","0","",""
"","feedback","","html-keyboard-response","485","438206","0.0-1.0-681.0-0.0","0","0","73503","","null","","","null","75","","","","","","","","","","","","","","","",""
"","time_out","","html-keyboard-response","486","440211","0.0-1.0-683.0-0.0","0","0","73503","","null","","","null","75","","","","","","","","","","","","","","","",""
"","ITI","","html-keyboard-response","487","441215","0.0-1.0-684.0","0","0","73503","","null","","","null","75","","","","","","","","","","","","","","","NaN",""
"","S1","","html-keyboard-response","488","441472","0.0-1.0-686.0","0","0","73503","","null","","","null","76","","","","","","","","","","","","","","","",""
"","ISI","","html-keyboard-response","489","441976","0.0-1.0-687.0","0","0","73503","","155","","","68","76","d","","","","","","","","","","","","","","",""
"","S2","","html-keyboard-response","490","442233","0.0-1.0-688.0","0","0","73503","","null","","","null","76","","NaN","","","","","","","","","","","","","",""
"","response","","html-keyboard-response","491","442577","0.0-1.0-689.0-0.0","0","0","73503","","339","","","68","76","","","2","76","training","adjacent","FG","6","7","R.jpg","P.jpg","0","1","0","",""
"","feedback","","html-keyboard-response","492","443582","0.0-1.0-690.0-0.0","0","0","73503","","null","","","null","76","","","","","","","","","","","","","","","",""
"","time_out","","html-keyboard-response","493","445595","0.0-1.0-692.0-0.0","0","0","73503","","null","","","null","76","","","","","","","","","","","","","","","",""
"","ITI","","html-keyboard-response","494","446606","0.0-1.0-693.0","0","0","73503","","null","","","null","76","","","","","","","","","","","","","","","NaN",""
"","S1","","html-keyboard-response","495","446863","0.0-1.0-695.0","0","0","73503","","null","","","null","77","","","","","","","","","","","","","","","",""
"","ISI","","html-keyboard-response","496","447370","0.0-1.0-696.0","0","0","73503","","null","","","null","77","NaN","","","","","","","","","","","","","","",""
"","S2","","html-keyboard-response","497","447626","0.0-1.0-697.0","0","0","73503","","null","","","null","77","","NaN","","","","","","","","","","","","","",""
"","response","","html-keyboard-response","498","448021","0.0-1.0-698.0-0.0","0","0","73503","","391","","","68","77","","","2","77","training","adjacent","DE","4","5","N.jpg","M.jpg","0","1","0","",""
"","feedback","","html-keyboard-response","499","449029","0.0-1.0-699.0-0.0","0","0","73503","","null","","","null","77","","","","","","","","","","","","","","","",""
"","time_out","","html-keyboard-response","500","451160","0.0-1.0-701.0-0.0","0","0","73503","","null","","","null","77","","","","","","","","","","","","","","","",""
"","ITI","","html-keyboard-response","501","452165","0.0-1.0-702.0","0","0","73503","","970","","","75","77","","","","","","","","","","","","","","","k",""
"","S1","","html-keyboard-response","502","452421","0.0-1.0-704.0","0","0","73503","","null","","","null","78","","","","","","","","","","","","","","","",""
"","ISI","","html-keyboard-response","503","452923","0.0-1.0-705.0","0","0","73503","","10","","","75","78","k","","","","","","","","","","","","","","",""
"","S2","","html-keyboard-response","504","453184","0.0-1.0-706.0","0","0","73503","","null","","","null","78","","NaN","","","","","","","","","","","","","",""
"","response","","html-keyboard-response","505","453876","0.0-1.0-707.0-0.0","0","0","73503","","688","","","75","78","","","2","78","training","adjacent","CB","3","2","L.jpg","O.jpg","1","0","0","",""
"","feedback","","html-keyboard-response","506","454886","0.0-1.0-708.0-0.0","0","0","73503","","null","","","null","78","","","","","","","","","","","","","","","",""
"","time_out","","html-keyboard-response","507","456897","0.0-1.0-710.0-0.0","0","0","73503","","null","","","null","78","","","","","","","","","","","","","","","",""
"","ITI","","html-keyboard-response","508","457908","0.0-1.0-711.0","0","0","73503","","null","","","null","78","","","","","","","","","","","","","","","NaN",""
"","S1","","html-keyboard-response","509","458164","0.0-1.0-713.0","0","0","73503","","null","","","null","79","","","","","","","","","","","","","","","",""
"","ISI","","html-keyboard-response","510","458686","0.0-1.0-714.0","0","0","73503","","null","","","null","79","NaN","","","","","","","","","","","","","","",""
"","S2","","html-keyboard-response","511","458944","0.0-1.0-715.0","0","0","73503","","null","","","null","79","","NaN","","","","","","","","","","","","","",""
"","response","","html-keyboard-response","512","459655","0.0-1.0-716.0-0.0","0","0","73503","","704","","","75","79","","","2","79","training","adjacent","BA","2","1","O.jpg","Q.jpg","1","0","0","",""
"","feedback","","html-keyboard-response","513","460660","0.0-1.0-717.0-0.0","0","0","73503","","null","","","null","79","","","","","","","","","","","","","","","",""
"","time_out","","html-keyboard-response","514","462668","0.0-1.0-719.0-0.0","0","0","73503","","null","","","null","79","","","","","","","","","","","","","","","",""
"","ITI","","html-keyboard-response","515","463699","0.0-1.0-720.0","0","0","73503","","null","","","null","79","","","","","","","","","","","","","","","NaN",""
"","S1","","html-keyboard-response","516","463951","0.0-1.0-722.0","0","0","73503","","null","","","null","80","","","","","","","","","","","","","","","",""
"","ISI","","html-keyboard-response","517","464455","0.0-1.0-723.0","0","0","73503","","null","","","null","80","NaN","","","","","","","","","","","","","","",""
"","S2","","html-keyboard-response","518","464712","0.0-1.0-724.0","0","0","73503","","null","","","null","80","","NaN","","","","","","","","","","","","","",""
"","response","","html-keyboard-response","519","465061","0.0-1.0-725.0-0.0","0","0","73503","","340","","","75","80","","","2","80","training","adjacent","EF","5","6","M.jpg","R.jpg","1","1","1","",""
"","feedback","","html-keyboard-response","520","466070","0.0-1.0-726.0-0.0","0","0","73503","","null","","","null","80","","","","","","","","","","","","","","","",""
"","ITI","","html-keyboard-response","521","467110","0.0-1.0-729.0","0","0","73503","","null","","","null","80","","","","","","","","","","","","","","","NaN",""
"","S1","","html-keyboard-response","522","467367","0.0-1.0-731.0","0","0","73503","","null","","","null","81","","","","","","","","","","","","","","","",""
"","ISI","","html-keyboard-response","523","467875","0.0-1.0-732.0","0","0","73503","","null","","","null","81","NaN","","","","","","","","","","","","","","",""
"","S2","","html-keyboard-response","524","468131","0.0-1.0-733.0","0","0","73503","","null","","","null","81","","NaN","","","","","","","","","","","","","",""
"","response","","html-keyboard-response","525","468830","0.0-1.0-734.0-0.0","0","0","73503","","694","","","75","81","","","2","81","training","adjacent","BA","2","1","O.jpg","Q.jpg","1","0","0","",""
"","feedback","","html-keyboard-response","526","469958","0.0-1.0-735.0-0.0","0","0","73503","","null","","","null","81","","","","","","","","","","","","","","","",""
"","time_out","","html-keyboard-response","527","471962","0.0-1.0-737.0-0.0","0","0","73503","","null","","","null","81","","","","","","","","","","","","","","","",""
"","ITI","","html-keyboard-response","528","472967","0.0-1.0-738.0","0","0","73503","","null","","","null","81","","","","","","","","","","","","","","","NaN",""
"","S1","","html-keyboard-response","529","473245","0.0-1.0-740.0","0","0","73503","","null","","","null","82","","","","","","","","","","","","","","","",""
"","ISI","","html-keyboard-response","530","473750","0.0-1.0-741.0","0","0","73503","","485","","","68","82","d","","","","","","","","","","","","","","",""
"","S2","","html-keyboard-response","531","474006","0.0-1.0-742.0","0","0","73503","","null","","","null","82","","NaN","","","","","","","","","","","","","",""
"","response","","html-keyboard-response","532","474828","0.0-1.0-743.0-0.0","0","0","73503","","817","","","68","82","","","2","82","training","adjacent","BC","2","3","O.jpg","L.jpg","0","1","0","",""
"","feedback","","html-keyboard-response","533","475832","0.0-1.0-744.0-0.0","0","0","73503","","null","","","null","82","","","","","","","","","","","","","","","",""
"","time_out","","html-keyboard-response","534","477837","0.0-1.0-746.0-0.0","0","0","73503","","null","","","null","82","","","","","","","","","","","","","","","",""
"","ITI","","html-keyboard-response","535","478841","0.0-1.0-747.0","0","0","73503","","null","","","null","82","","","","","","","","","","","","","","","NaN",""
"","S1","","html-keyboard-response","536","479136","0.0-1.0-749.0","0","0","73503","","null","","","null","83","","","","","","","","","","","","","","","",""
"","ISI","","html-keyboard-response","537","479646","0.0-1.0-750.0","0","0","73503","","null","","","null","83","NaN","","","","","","","","","","","","","","",""
"","S2","","html-keyboard-response","538","479900","0.0-1.0-751.0","0","0","73503","","null","","","null","83","","NaN","","","","","","","","","","","","","",""
"","response","","html-keyboard-response","539","480388","0.0-1.0-752.0-0.0","0","0","73503","","484","","","75","83","","","2","83","training","adjacent","EF","5","6","M.jpg","R.jpg","1","1","1","",""
"","feedback","","html-keyboard-response","540","481394","0.0-1.0-753.0-0.0","0","0","73503","","null","","","null","83","","","","","","","","","","","","","","","",""
"","ITI","","html-keyboard-response","541","482401","0.0-1.0-756.0","0","0","73503","","null","","","null","83","","","","","","","","","","","","","","","NaN",""
"","S1","","html-keyboard-response","542","482661","0.0-1.0-758.0","0","0","73503","","null","","","null","84","","","","","","","","","","","","","","","",""
"","ISI","","html-keyboard-response","543","483169","0.0-1.0-759.0","0","0","73503","","null","","","null","84","NaN","","","","","","","","","","","","","","",""
"","S2","","html-keyboard-response","544","483427","0.0-1.0-760.0","0","0","73503","","null","","","null","84","","NaN","","","","","","","","","","","","","",""
"","response","","html-keyboard-response","545","484199","0.0-1.0-761.0-0.0","0","0","73503","","765","","","75","84","","","2","84","training","adjacent","FG","6","7","R.jpg","P.jpg","1","1","1","",""
"","feedback","","html-keyboard-response","546","485207","0.0-1.0-762.0-0.0","0","0","73503","","null","","","null","84","","","","","","","","","","","","","","","",""
"","ITI","","html-keyboard-response","547","486218","0.0-1.0-765.0","0","0","73503","","null","","","null","84","","","","","","","","","","","","","","","NaN",""
"","S1","","html-keyboard-response","548","486475","0.0-1.0-767.0","0","0","73503","","null","","","null","85","","","","","","","","","","","","","","","",""
"","ISI","","html-keyboard-response","549","486979","0.0-1.0-768.0","0","0","73503","","205","","","68","85","d","","","","","","","","","","","","","","",""
"","S2","","html-keyboard-response","550","486994","0.0-1.0-769.0","0","0","73503","","11","","","75","85","","k","2","85","training","adjacent","CB","3","2","L.jpg","O.jpg","1","0","0","",""
"","feedback","","html-keyboard-response","551","488000","0.0-1.0-771.0-0.0","0","0","73503","","null","","","null","85","","","","","","","","","","","","","","","",""
"","time_out","","html-keyboard-response","552","490015","0.0-1.0-773.0-0.0","0","0","73503","","null","","","null","85","","","","","","","","","","","","","","","",""
"","ITI","","html-keyboard-response","553","491021","0.0-1.0-774.0","0","0","73503","","12","","","75","85","","","","","","","","","","","","","","","k",""
"","S1","","html-keyboard-response","554","491277","0.0-1.0-776.0","0","0","73503","","null","","","null","86","","","","","","","","","","","","","","","",""
"","ISI","","html-keyboard-response","555","491801","0.0-1.0-777.0","0","0","73503","","161","","","68","86","d","","","","","","","","","","","","","","",""
"","S2","","html-keyboard-response","556","491858","0.0-1.0-778.0","0","0","73503","","50","","","68","86","","d","2","86","training","adjacent","GF","7","6","P.jpg","R.jpg","0","0","1","",""
"","feedback","","html-keyboard-response","557","492868","0.0-1.0-780.0-0.0","0","0","73503","","null","","","null","86","","","","","","","","","","","","","","","",""
"","ITI","","html-keyboard-response","558","493872","0.0-1.0-783.0","0","0","73503","","341","","","75","86","","","","","","","","","","","","","","","k",""
"","S1","","html-keyboard-response","559","494127","0.0-1.0-785.0","0","0","73503","","null","","","null","87","","","","","","","","","","","","","","","",""
"","ISI","","html-keyboard-response","560","494634","0.0-1.0-786.0","0","0","73503","","426","","","75","87","k","","","","","","","","","","","","","","",""
"","S2","","html-keyboard-response","561","494655","0.0-1.0-787.0","0","0","73503","","12","","","68","87","","d","2","87","training","adjacent","GF","7","6","P.jpg","R.jpg","0","0","1","",""
"","feedback","","html-keyboard-response","562","495663","0.0-1.0-789.0-0.0","0","0","73503","","null","","","null","87","","","","","","","","","","","","","","","",""
"","ITI","","html-keyboard-response","563","496828","0.0-1.0-792.0","0","0","73503","","896","","","75","87","","","","","","","","","","","","","","","k",""
"","S1","","html-keyboard-response","564","497083","0.0-1.0-794.0","0","0","73503","","null","","","null","88","","","","","","","","","","","","","","","",""
"","ISI","","html-keyboard-response","565","497588","0.0-1.0-795.0","0","0","73503","","343","","","68","88","d","","","","","","","","","","","","","","",""
"","S2","","html-keyboard-response","566","497669","0.0-1.0-796.0","0","0","73503","","75","","","75","88","","k","2","88","training","adjacent","BA","2","1","O.jpg","Q.jpg","1","0","0","",""
"","feedback","","html-keyboard-response","567","498674","0.0-1.0-798.0-0.0","0","0","73503","","null","","","null","88","","","","","","","","","","","","","","","",""
"","time_out","","html-keyboard-response","568","500682","0.0-1.0-800.0-0.0","0","0","73503","","null","","","null","88","","","","","","","","","","","","","","","",""
"","ITI","","html-keyboard-response","569","501691","0.0-1.0-801.0","0","0","73503","","358","","","75","88","","","","","","","","","","","","","","","k",""
"","S1","","html-keyboard-response","570","501947","0.0-1.0-803.0","0","0","73503","","null","","","null","89","","","","","","","","","","","","","","","",""
"","ISI","","html-keyboard-response","571","502451","0.0-1.0-804.0","0","0","73503","","246","","","75","89","k","","","","","","","","","","","","","","",""
"","S2","","html-keyboard-response","572","502513","0.0-1.0-805.0","0","0","73503","","55","","","68","89","","d","2","89","training","adjacent","DE","4","5","N.jpg","M.jpg","0","1","0","",""
"","feedback","","html-keyboard-response","573","503521","0.0-1.0-807.0-0.0","0","0","73503","","null","","","null","89","","","","","","","","","","","","","","","",""
"","time_out","","html-keyboard-response","574","505528","0.0-1.0-809.0-0.0","0","0","73503","","null","","","null","89","","","","","","","","","","","","","","","",""
"","ITI","","html-keyboard-response","575","506827","0.0-1.0-810.0","0","0","73503","","null","","","null","89","","","","","","","","","","","","","","","NaN",""
"","S1","","html-keyboard-response","576","507082","0.0-1.0-812.0","0","0","73503","","null","","","null","90","","","","","","","","","","","","","","","",""
"","ISI","","html-keyboard-response","577","507586","0.0-1.0-813.0","0","0","73503","","335","","","75","90","k","","","","","","","","","","","","","","",""
"","S2","","html-keyboard-response","578","507667","0.0-1.0-814.0","0","0","73503","","77","","","75","90","","k","2","90","training","adjacent","AB","1","2","Q.jpg","O.jpg","1","1","1","",""
"","feedback","","html-keyboard-response","579","508674","0.0-1.0-816.0-0.0","0","0","73503","","null","","","null","90","","","","","","","","","","","","","","","",""
"","ITI","","html-keyboard-response","580","509677","0.0-1.0-819.0","0","0","73503","","null","","","null","90","","","","","","","","","","","","","","","NaN",""
"","S1","","html-keyboard-response","581","509933","0.0-1.0-821.0","0","0","73503","","null","","","null","91","","","","","","","","","","","","","","","",""
