"success","ttype","start_time","trial_type","trial_index","time_elapsed","internal_node_id","warning","missed_checkup","PID","view_history","rt","responses","repeat_instructions","key_press","index","keypress_isi","keypress_S2","block","trial_num","phase","group_type","pair_type","S1_stim","S2_stim","S1_img","S2_img","S1_chosen","S1_higher","accuracy","keypress_iti","total_bonus_tally"
"true","full_screen","d03082023hr1610","fullscreen","0","20468","0.0-0.0","0","0","34952","","","","","","","","","","","","","","","","","","","","","",""
"","instructions","","instructions","1","49989","0.0-1.0-0.0-0.0","0","0","34952","[{""page_index"":0,""viewing_time"":4359},{""page_index"":1,""viewing_time"":14565},{""page_index"":2,""viewing_time"":8666},{""page_index"":3,""viewing_time"":1925}]","29516","","","","","","","","","","","","","","","","","","","",""
"","comprehension_check","","survey-multi-choice","2","72495","0.0-1.0-0.0-1.0","0","0","34952","","22497","{""Q0"":""True"",""Q1"":""D"",""Q2"":""Only when the screen 'MAKE A CHOICE' is shown"",""Q3"":""Green mark"",""Q4"":""either D or K""}","1","","","","","","","","","","","","","","","","","",""
"","missed_instruction_checkup","","html-keyboard-response","3","74172","0.0-1.0-0.0-2.0-0.0","0","1","34952","","1670","","","32","","","","","","","","","","","","","","","","",""
"","instructions","","instructions","4","97983","0.0-1.0-0.1-0.1","0","0","34952","[{""page_index"":0,""viewing_time"":5378},{""page_index"":1,""viewing_time"":12932},{""page_index"":2,""viewing_time"":4632},{""page_index"":3,""viewing_time"":866}]","23808","","","","","","","","","","","","","","","","","","","",""
"","comprehension_check","","survey-multi-choice","5","107479","0.0-1.0-0.1-1.1","0","0","34952","","9491","{""Q0"":""True"",""Q1"":""D"",""Q2"":""Once the second image appears and while the screen 'MAKE A CHOICE' is shown"",""Q3"":""Green mark"",""Q4"":""either D or K""}","0","","","","","","","","","","","","","","","","","",""
"","start_exp","","html-keyboard-response","6","110724","0.0-1.0-1.0","0","0","34952","","3235","","","32","","","","","","","","","","","","","","","","",""
"","S1","","html-keyboard-response","7","110979","0.0-1.0-2.0","0","0","34952","","null","","","null","0","","","","","","","","","","","","","","","",""
"","ISI","","html-keyboard-response","8","111132","0.0-1.0-3.0","0","0","34952","","null","","","null","0","NaN","","","","","","","","","","","","","","",""
"","S2","","html-keyboard-response","9","111386","0.0-1.0-4.0","0","0","34952","","null","","","null","0","","NaN","","","","","","","","","","","","","",""
"","response","","html-keyboard-response","10","111959","0.0-1.0-5.0-0.0","0","0","34952","","568","","","68","0","","","1","0","training","adjacent","DC","4","3","Q.jpg","N.jpg","1","0","0","",""
"","feedback","","html-keyboard-response","11","112964","0.0-1.0-6.0-0.0","0","0","34952","","null","","","null","0","","","","","","","","","","","","","","","",""
"","time_out","","html-keyboard-response","12","114969","0.0-1.0-8.0-0.0","0","0","34952","","null","","","null","0","","","","","","","","","","","","","","","",""
"","ITI","","html-keyboard-response","13","115974","0.0-1.0-9.0","0","0","34952","","null","","","null","0","","","","","","","","","","","","","","","NaN",""
"","S1","","html-keyboard-response","14","116229","0.0-1.0-11.0","0","0","34952","","null","","","null","1","","","","","","","","","","","","","","","",""
"","ISI","","html-keyboard-response","15","116382","0.0-1.0-12.0","0","0","34952","","null","","","null","1","NaN","","","","","","","","","","","","","","",""
"","S2","","html-keyboard-response","16","116638","0.0-1.0-13.0","0","0","34952","","null","","","null","1","","NaN","","","","","","","","","","","","","",""
"","response","","html-keyboard-response","17","116996","0.0-1.0-14.0-0.0","0","0","34952","","354","","","75","1","","","1","1","training","adjacent","FG","6","7","O.jpg","L.jpg","0","1","0","",""
"","feedback","","html-keyboard-response","18","118001","0.0-1.0-15.0-0.0","0","0","34952","","null","","","null","1","","","","","","","","","","","","","","","",""
"","time_out","","html-keyboard-response","19","120006","0.0-1.0-17.0-0.0","0","0","34952","","null","","","null","1","","","","","","","","","","","","","","","",""
"","ITI","","html-keyboard-response","20","121011","0.0-1.0-18.0","0","0","34952","","null","","","null","1","","","","","","","","","","","","","","","NaN",""
"","S1","","html-keyboard-response","21","121266","0.0-1.0-20.0","0","0","34952","","null","","","null","2","","","","","","","","","","","","","","","",""
"","ISI","","html-keyboard-response","22","121421","0.0-1.0-21.0","0","0","34952","","null","","","null","2","NaN","","","","","","","","","","","","","","",""
"","S2","","html-keyboard-response","23","121676","0.0-1.0-22.0","0","0","34952","","null","","","null","2","","NaN","","","","","","","","","","","","","",""
"","response","","html-keyboard-response","24","122054","0.0-1.0-23.0-0.0","0","0","34952","","374","","","68","2","","","1","2","training","adjacent","EF","5","6","P.jpg","O.jpg","1","1","1","",""
"","feedback","","html-keyboard-response","25","123058","0.0-1.0-24.0-0.0","0","0","34952","","null","","","null","2","","","","","","","","","","","","","","","",""
"","ITI","","html-keyboard-response","26","124062","0.0-1.0-27.0","0","0","34952","","null","","","null","2","","","","","","","","","","","","","","","NaN",""
"","S1","","html-keyboard-response","27","124316","0.0-1.0-29.0","0","0","34952","","null","","","null","3","","","","","","","","","","","","","","","",""
"","ISI","","html-keyboard-response","28","124470","0.0-1.0-30.0","0","0","34952","","null","","","null","3","NaN","","","","","","","","","","","","","","",""
"","S2","","html-keyboard-response","29","124724","0.0-1.0-31.0","0","0","34952","","null","","","null","3","","NaN","","","","","","","","","","","","","",""
"","response","","html-keyboard-response","30","125126","0.0-1.0-32.0-0.0","0","0","34952","","399","","","68","3","","","1","3","training","adjacent","AB","1","2","M.jpg","R.jpg","1","1","1","",""
"","feedback","","html-keyboard-response","31","126131","0.0-1.0-33.0-0.0","0","0","34952","","null","","","null","3","","","","","","","","","","","","","","","",""
"","ITI","","html-keyboard-response","32","127135","0.0-1.0-36.0","0","0","34952","","null","","","null","3","","","","","","","","","","","","","","","NaN",""
"","S1","","html-keyboard-response","33","127397","0.0-1.0-38.0","0","0","34952","","null","","","null","4","","","","","","","","","","","","","","","",""
"","ISI","","html-keyboard-response","34","127551","0.0-1.0-39.0","0","0","34952","","null","","","null","4","NaN","","","","","","","","","","","","","","",""
"","S2","","html-keyboard-response","35","127805","0.0-1.0-40.0","0","0","34952","","null","","","null","4","","NaN","","","","","","","","","","","","","",""
"","response","","html-keyboard-response","36","128285","0.0-1.0-41.0-0.0","0","0","34952","","476","","","75","4","","","1","4","training","adjacent","DE","4","5","Q.jpg","P.jpg","0","1","0","",""
"","feedback","","html-keyboard-response","37","129290","0.0-1.0-42.0-0.0","0","0","34952","","null","","","null","4","","","","","","","","","","","","","","","",""
"","time_out","","html-keyboard-response","38","131295","0.0-1.0-44.0-0.0","0","0","34952","","null","","","null","4","","","","","","","","","","","","","","","",""
"","ITI","","html-keyboard-response","39","132300","0.0-1.0-45.0","0","0","34952","","null","","","null","4","","","","","","","","","","","","","","","NaN",""
"","S1","","html-keyboard-response","40","132554","0.0-1.0-47.0","0","0","34952","","null","","","null","5","","","","","","","","","","","","","","","",""
"","ISI","","html-keyboard-response","41","132708","0.0-1.0-48.0","0","0","34952","","null","","","null","5","NaN","","","","","","","","","","","","","","",""
"","S2","","html-keyboard-response","42","132961","0.0-1.0-49.0","0","0","34952","","null","","","null","5","","NaN","","","","","","","","","","","","","",""
"","response","","html-keyboard-response","43","133382","0.0-1.0-50.0-0.0","0","0","34952","","416","","","68","5","","","1","5","training","adjacent","EF","5","6","P.jpg","O.jpg","1","1","1","",""
"","feedback","","html-keyboard-response","44","134387","0.0-1.0-51.0-0.0","0","0","34952","","null","","","null","5","","","","","","","","","","","","","","","",""
"","ITI","","html-keyboard-response","45","135391","0.0-1.0-54.0","0","0","34952","","null","","","null","5","","","","","","","","","","","","","","","NaN",""
"","S1","","html-keyboard-response","46","135647","0.0-1.0-56.0","0","0","34952","","null","","","null","6","","","","","","","","","","","","","","","",""
"","ISI","","html-keyboard-response","47","135800","0.0-1.0-57.0","0","0","34952","","null","","","null","6","NaN","","","","","","","","","","","","","","",""
"","S2","","html-keyboard-response","48","136054","0.0-1.0-58.0","0","0","34952","","null","","","null","6","","NaN","","","","","","","","","","","","","",""
"","response","","html-keyboard-response","49","136611","0.0-1.0-59.0-0.0","0","0","34952","","554","","","75","6","","","1","6","training","adjacent","CB","3","2","N.jpg","R.jpg","0","0","1","",""
"","feedback","","html-keyboard-response","50","137617","0.0-1.0-60.0-0.0","0","0","34952","","null","","","null","6","","","","","","","","","","","","","","","",""
"","ITI","","html-keyboard-response","51","138621","0.0-1.0-63.0","0","0","34952","","null","","","null","6","","","","","","","","","","","","","","","NaN",""
"","S1","","html-keyboard-response","52","138876","0.0-1.0-65.0","0","0","34952","","null","","","null","7","","","","","","","","","","","","","","","",""
"","ISI","","html-keyboard-response","53","139030","0.0-1.0-66.0","0","0","34952","","null","","","null","7","NaN","","","","","","","","","","","","","","",""
"","S2","","html-keyboard-response","54","139286","0.0-1.0-67.0","0","0","34952","","null","","","null","7","","NaN","","","","","","","","","","","","","",""
"","response","","html-keyboard-response","55","139698","0.0-1.0-68.0-0.0","0","0","34952","","408","","","75","7","","","1","7","training","adjacent","CB","3","2","N.jpg","R.jpg","0","0","1","",""
"","feedback","","html-keyboard-response","56","140703","0.0-1.0-69.0-0.0","0","0","34952","","null","","","null","7","","","","","","","","","","","","","","","",""
"","ITI","","html-keyboard-response","57","141708","0.0-1.0-72.0","0","0","34952","","null","","","null","7","","","","","","","","","","","","","","","NaN",""
"","S1","","html-keyboard-response","58","141963","0.0-1.0-74.0","0","0","34952","","null","","","null","8","","","","","","","","","","","","","","","",""
"","ISI","","html-keyboard-response","59","142116","0.0-1.0-75.0","0","0","34952","","null","","","null","8","NaN","","","","","","","","","","","","","","",""
"","S2","","html-keyboard-response","60","142369","0.0-1.0-76.0","0","0","34952","","null","","","null","8","","NaN","","","","","","","","","","","","","",""
"","response","","html-keyboard-response","61","142700","0.0-1.0-77.0-0.0","0","0","34952","","328","","","68","8","","","1","8","training","adjacent","CB","3","2","N.jpg","R.jpg","1","0","0","",""
"","feedback","","html-keyboard-response","62","143712","0.0-1.0-78.0-0.0","0","0","34952","","null","","","null","8","","","","","","","","","","","","","","","",""
"","time_out","","html-keyboard-response","63","145717","0.0-1.0-80.0-0.0","0","0","34952","","null","","","null","8","","","","","","","","","","","","","","","",""
"","ITI","","html-keyboard-response","64","146723","0.0-1.0-81.0","0","0","34952","","null","","","null","8","","","","","","","","","","","","","","","NaN",""
"","S1","","html-keyboard-response","65","146978","0.0-1.0-83.0","0","0","34952","","null","","","null","9","","","","","","","","","","","","","","","",""
"","ISI","","html-keyboard-response","66","147131","0.0-1.0-84.0","0","0","34952","","null","","","null","9","NaN","","","","","","","","","","","","","","",""
"","S2","","html-keyboard-response","67","147386","0.0-1.0-85.0","0","0","34952","","null","","","null","9","","NaN","","","","","","","","","","","","","",""
"","response","","html-keyboard-response","68","147722","0.0-1.0-86.0-0.0","0","0","34952","","332","","","75","9","","","1","9","training","adjacent","GF","7","6","L.jpg","O.jpg","0","0","1","",""
"","feedback","","html-keyboard-response","69","148727","0.0-1.0-87.0-0.0","0","0","34952","","null","","","null","9","","","","","","","","","","","","","","","",""
"","ITI","","html-keyboard-response","70","149733","0.0-1.0-90.0","0","0","34952","","null","","","null","9","","","","","","","","","","","","","","","NaN",""
"","S1","","html-keyboard-response","71","149988","0.0-1.0-92.0","0","0","34952","","null","","","null","10","","","","","","","","","","","","","","","",""
"","ISI","","html-keyboard-response","72","150142","0.0-1.0-93.0","0","0","34952","","null","","","null","10","NaN","","","","","","","","","","","","","","",""
"","S2","","html-keyboard-response","73","150398","0.0-1.0-94.0","0","0","34952","","null","","","null","10","","NaN","","","","","","","","","","","","","",""
"","response","","html-keyboard-response","74","150681","0.0-1.0-95.0-0.0","0","0","34952","","279","","","75","10","","","1","10","training","adjacent","BC","2","3","R.jpg","N.jpg","0","1","0","",""
"","feedback","","html-keyboard-response","75","151687","0.0-1.0-96.0-0.0","0","0","34952","","null","","","null","10","","","","","","","","","","","","","","","",""
"","time_out","","html-keyboard-response","76","153690","0.0-1.0-98.0-0.0","0","0","34952","","null","","","null","10","","","","","","","","","","","","","","","",""
"","ITI","","html-keyboard-response","77","154695","0.0-1.0-99.0","0","0","34952","","null","","","null","10","","","","","","","","","","","","","","","NaN",""
"","S1","","html-keyboard-response","78","154950","0.0-1.0-101.0","0","0","34952","","null","","","null","11","","","","","","","","","","","","","","","",""
"","ISI","","html-keyboard-response","79","155104","0.0-1.0-102.0","0","0","34952","","null","","","null","11","NaN","","","","","","","","","","","","","","",""
"","S2","","html-keyboard-response","80","155358","0.0-1.0-103.0","0","0","34952","","null","","","null","11","","NaN","","","","","","","","","","","","","",""
"","response","","html-keyboard-response","81","155641","0.0-1.0-104.0-0.0","0","0","34952","","280","","","68","11","","","1","11","training","adjacent","CD","3","4","N.jpg","Q.jpg","1","1","1","",""
"","feedback","","html-keyboard-response","82","156647","0.0-1.0-105.0-0.0","0","0","34952","","null","","","null","11","","","","","","","","","","","","","","","",""
"","ITI","","html-keyboard-response","83","157656","0.0-1.0-108.0","0","0","34952","","null","","","null","11","","","","","","","","","","","","","","","NaN",""
"","S1","","html-keyboard-response","84","157912","0.0-1.0-110.0","0","0","34952","","null","","","null","12","","","","","","","","","","","","","","","",""
"","ISI","","html-keyboard-response","85","158066","0.0-1.0-111.0","0","0","34952","","null","","","null","12","NaN","","","","","","","","","","","","","","",""
"","S2","","html-keyboard-response","86","158322","0.0-1.0-112.0","0","0","34952","","null","","","null","12","","NaN","","","","","","","","","","","","","",""
"","response","","html-keyboard-response","87","158747","0.0-1.0-113.0-0.0","0","0","34952","","421","","","75","12","","","1","12","training","adjacent","EF","5","6","P.jpg","O.jpg","0","1","0","",""
"","feedback","","html-keyboard-response","88","159753","0.0-1.0-114.0-0.0","0","0","34952","","null","","","null","12","","","","","","","","","","","","","","","",""
"","time_out","","html-keyboard-response","89","161758","0.0-1.0-116.0-0.0","0","0","34952","","null","","","null","12","","","","","","","","","","","","","","","",""
"","ITI","","html-keyboard-response","90","162762","0.0-1.0-117.0","0","0","34952","","null","","","null","12","","","","","","","","","","","","","","","NaN",""
"","S1","","html-keyboard-response","91","163016","0.0-1.0-119.0","0","0","34952","","null","","","null","13","","","","","","","","","","","","","","","",""
"","ISI","","html-keyboard-response","92","163170","0.0-1.0-120.0","0","0","34952","","null","","","null","13","NaN","","","","","","","","","","","","","","",""
"","S2","","html-keyboard-response","93","163426","0.0-1.0-121.0","0","0","34952","","null","","","null","13","","NaN","","","","","","","","","","","","","",""
"","response","","html-keyboard-response","94","163917","0.0-1.0-122.0-0.0","0","0","34952","","488","","","68","13","","","1","13","training","adjacent","GF","7","6","L.jpg","O.jpg","1","0","0","",""
"","feedback","","html-keyboard-response","95","164922","0.0-1.0-123.0-0.0","0","0","34952","","null","","","null","13","","","","","","","","","","","","","","","",""
"","time_out","","html-keyboard-response","96","166927","0.0-1.0-125.0-0.0","0","0","34952","","null","","","null","13","","","","","","","","","","","","","","","",""
"","ITI","","html-keyboard-response","97","167932","0.0-1.0-126.0","0","0","34952","","null","","","null","13","","","","","","","","","","","","","","","NaN",""
"","S1","","html-keyboard-response","98","168187","0.0-1.0-128.0","0","0","34952","","null","","","null","14","","","","","","","","","","","","","","","",""
"","ISI","","html-keyboard-response","99","168341","0.0-1.0-129.0","0","0","34952","","null","","","null","14","NaN","","","","","","","","","","","","","","",""
"","S2","","html-keyboard-response","100","168594","0.0-1.0-130.0","0","0","34952","","null","","","null","14","","NaN","","","","","","","","","","","","","",""
"","response","","html-keyboard-response","101","169029","0.0-1.0-131.0-0.0","0","0","34952","","432","","","68","14","","","1","14","training","adjacent","FG","6","7","O.jpg","L.jpg","1","1","1","",""
"","feedback","","html-keyboard-response","102","170035","0.0-1.0-132.0-0.0","0","0","34952","","null","","","null","14","","","","","","","","","","","","","","","",""
"","ITI","","html-keyboard-response","103","171039","0.0-1.0-135.0","0","0","34952","","null","","","null","14","","","","","","","","","","","","","","","NaN",""
"","S1","","html-keyboard-response","104","171294","0.0-1.0-137.0","0","0","34952","","null","","","null","15","","","","","","","","","","","","","","","",""
"","ISI","","html-keyboard-response","105","171448","0.0-1.0-138.0","0","0","34952","","null","","","null","15","NaN","","","","","","","","","","","","","","",""
"","S2","","html-keyboard-response","106","171703","0.0-1.0-139.0","0","0","34952","","null","","","null","15","","NaN","","","","","","","","","","","","","",""
"","response","","html-keyboard-response","107","172028","0.0-1.0-140.0-0.0","0","0","34952","","320","","","75","15","","","1","15","training","adjacent","BA","2","1","R.jpg","M.jpg","0","0","1","",""
"","feedback","","html-keyboard-response","108","173033","0.0-1.0-141.0-0.0","0","0","34952","","null","","","null","15","","","","","","","","","","","","","","","",""
"","ITI","","html-keyboard-response","109","174038","0.0-1.0-144.0","0","0","34952","","null","","","null","15","","","","","","","","","","","","","","","NaN",""
"","S1","","html-keyboard-response","110","174293","0.0-1.0-146.0","0","0","34952","","null","","","null","16","","","","","","","","","","","","","","","",""
"","ISI","","html-keyboard-response","111","174447","0.0-1.0-147.0","0","0","34952","","null","","","null","16","NaN","","","","","","","","","","","","","","",""
"","S2","","html-keyboard-response","112","174701","0.0-1.0-148.0","0","0","34952","","null","","","null","16","","NaN","","","","","","","","","","","","","",""
"","response","","html-keyboard-response","113","174859","0.0-1.0-149.0-0.0","0","0","34952","","155","","","68","16","","","1","16","training","adjacent","GF","7","6","L.jpg","O.jpg","1","0","0","",""
"","feedback","","html-keyboard-response","114","175863","0.0-1.0-150.0-0.0","0","0","34952","","null","","","null","16","","","","","","","","","","","","","","","",""
"","time_out","","html-keyboard-response","115","177869","0.0-1.0-152.0-0.0","0","0","34952","","null","","","null","16","","","","","","","","","","","","","","","",""
"","ITI","","html-keyboard-response","116","178873","0.0-1.0-153.0","0","0","34952","","null","","","null","16","","","","","","","","","","","","","","","NaN",""
"","S1","","html-keyboard-response","117","179135","0.0-1.0-155.0","0","0","34952","","null","","","null","17","","","","","","","","","","","","","","","",""
"","ISI","","html-keyboard-response","118","179290","0.0-1.0-156.0","0","0","34952","","null","","","null","17","NaN","","","","","","","","","","","","","","",""
"","S2","","html-keyboard-response","119","179545","0.0-1.0-157.0","0","0","34952","","null","","","null","17","","NaN","","","","","","","","","","","","","",""
"","response","","html-keyboard-response","120","179864","0.0-1.0-158.0-0.0","0","0","34952","","315","","","75","17","","","1","17","training","adjacent","DC","4","3","Q.jpg","N.jpg","0","0","1","",""
"","feedback","","html-keyboard-response","121","180869","0.0-1.0-159.0-0.0","0","0","34952","","null","","","null","17","","","","","","","","","","","","","","","",""
"","ITI","","html-keyboard-response","122","181874","0.0-1.0-162.0","0","0","34952","","null","","","null","17","","","","","","","","","","","","","","","NaN",""
"","S1","","html-keyboard-response","123","182139","0.0-1.0-164.0","0","0","34952","","null","","","null","18","","","","","","","","","","","","","","","",""
"","ISI","","html-keyboard-response","124","182295","0.0-1.0-165.0","0","0","34952","","null","","","null","18","NaN","","","","","","","","","","","","","","",""
"","S2","","html-keyboard-response","125","182550","0.0-1.0-166.0","0","0","34952","","null","","","null","18","","NaN","","","","","","","","","","","","","",""
"","response","","html-keyboard-response","126","182848","0.0-1.0-167.0-0.0","0","0","34952","","295","","","75","18","","","1","18","training","adjacent","DE","4","5","Q.jpg","P.jpg","0","1","0","",""
"","feedback","","html-keyboard-response","127","183852","0.0-1.0-168.0-0.0","0","0","34952","","null","","","null","18","","","","","","","","","","","","","","","",""
"","time_out","","html-keyboard-response","128","185857","0.0-1.0-170.0-0.0","0","0","34952","","null","","","null","18","","","","","","","","","","","","","","","",""
"","ITI","","html-keyboard-response","129","186862","0.0-1.0-171.0","0","0","34952","","null","","","null","18","","","","","","","","","","","","","","","NaN",""
"","S1","","html-keyboard-response","130","187116","0.0-1.0-173.0","0","0","34952","","null","","","null","19","","","","","","","","","","","","","","","",""
"","ISI","","html-keyboard-response","131","187270","0.0-1.0-174.0","0","0","34952","","null","","","null","19","NaN","","","","","","","","","","","","","","",""
"","S2","","html-keyboard-response","132","187525","0.0-1.0-175.0","0","0","34952","","null","","","null","19","","NaN","","","","","","","","","","","","","",""
"","response","","html-keyboard-response","133","187953","0.0-1.0-176.0-0.0","0","0","34952","","425","","","75","19","","","1","19","training","adjacent","BC","2","3","R.jpg","N.jpg","0","1","0","",""
"","feedback","","html-keyboard-response","134","188958","0.0-1.0-177.0-0.0","0","0","34952","","null","","","null","19","","","","","","","","","","","","","","","",""
"","time_out","","html-keyboard-response","135","190960","0.0-1.0-179.0-0.0","0","0","34952","","null","","","null","19","","","","","","","","","","","","","","","",""
"","ITI","","html-keyboard-response","136","191965","0.0-1.0-180.0","0","0","34952","","null","","","null","19","","","","","","","","","","","","","","","NaN",""
"","S1","","html-keyboard-response","137","192220","0.0-1.0-182.0","0","0","34952","","null","","","null","20","","","","","","","","","","","","","","","",""
"","ISI","","html-keyboard-response","138","192375","0.0-1.0-183.0","0","0","34952","","null","","","null","20","NaN","","","","","","","","","","","","","","",""
"","S2","","html-keyboard-response","139","192630","0.0-1.0-184.0","0","0","34952","","null","","","null","20","","NaN","","","","","","","","","","","","","",""
"","response","","html-keyboard-response","140","192742","0.0-1.0-185.0-0.0","0","0","34952","","108","","","68","20","","","1","20","training","adjacent","DC","4","3","Q.jpg","N.jpg","1","0","0","",""
"","feedback","","html-keyboard-response","141","193747","0.0-1.0-186.0-0.0","0","0","34952","","null","","","null","20","","","","","","","","","","","","","","","",""
"","time_out","","html-keyboard-response","142","195752","0.0-1.0-188.0-0.0","0","0","34952","","null","","","null","20","","","","","","","","","","","","","","","",""
"","ITI","","html-keyboard-response","143","196757","0.0-1.0-189.0","0","0","34952","","null","","","null","20","","","","","","","","","","","","","","","NaN",""
"","S1","","html-keyboard-response","144","197011","0.0-1.0-191.0","0","0","34952","","null","","","null","21","","","","","","","","","","","","","","","",""
"","ISI","","html-keyboard-response","145","197166","0.0-1.0-192.0","0","0","34952","","null","","","null","21","NaN","","","","","","","","","","","","","","",""
"","S2","","html-keyboard-response","146","197423","0.0-1.0-193.0","0","0","34952","","null","","","null","21","","NaN","","","","","","","","","","","","","",""
"","response","","html-keyboard-response","147","197682","0.0-1.0-194.0-0.0","0","0","34952","","256","","","75","21","","","1","21","training","adjacent","ED","5","4","P.jpg","Q.jpg","0","0","1","",""
"","feedback","","html-keyboard-response","148","198688","0.0-1.0-195.0-0.0","0","0","34952","","null","","","null","21","","","","","","","","","","","","","","","",""
"","ITI","","html-keyboard-response","149","199692","0.0-1.0-198.0","0","0","34952","","null","","","null","21","","","","","","","","","","","","","","","NaN",""
"","S1","","html-keyboard-response","150","199947","0.0-1.0-200.0","0","0","34952","","null","","","null","22","","","","","","","","","","","","","","","",""
"","ISI","","html-keyboard-response","151","200100","0.0-1.0-201.0","0","0","34952","","null","","","null","22","NaN","","","","","","","","","","","","","","",""
"","S2","","html-keyboard-response","152","200355","0.0-1.0-202.0","0","0","34952","","null","","","null","22","","NaN","","","","","","","","","","","","","",""
"","response","","html-keyboard-response","153","200803","0.0-1.0-203.0-0.0","0","0","34952","","446","","","68","22","","","1","22","training","adjacent","GF","7","6","L.jpg","O.jpg","1","0","0","",""
"","feedback","","html-keyboard-response","154","201815","0.0-1.0-204.0-0.0","0","0","34952","","null","","","null","22","","","","","","","","","","","","","","","",""
"","time_out","","html-keyboard-response","155","203821","0.0-1.0-206.0-0.0","0","0","34952","","null","","","null","22","","","","","","","","","","","","","","","",""
"","ITI","","html-keyboard-response","156","204824","0.0-1.0-207.0","0","0","34952","","null","","","null","22","","","","","","","","","","","","","","","NaN",""
"","S1","","html-keyboard-response","157","205079","0.0-1.0-209.0","0","0","34952","","null","","","null","23","","","","","","","","","","","","","","","",""
"","ISI","","html-keyboard-response","158","205233","0.0-1.0-210.0","0","0","34952","","null","","","null","23","NaN","","","","","","","","","","","","","","",""
"","S2","","html-keyboard-response","159","205488","0.0-1.0-211.0","0","0","34952","","null","","","null","23","","NaN","","","","","","","","","","","","","",""
"","response","","html-keyboard-response","160","205797","0.0-1.0-212.0-0.0","0","0","34952","","305","","","75","23","","","1","23","training","adjacent","AB","1","2","M.jpg","R.jpg","0","1","0","",""
"","feedback","","html-keyboard-response","161","206802","0.0-1.0-213.0-0.0","0","0","34952","","null","","","null","23","","","","","","","","","","","","","","","",""
"","time_out","","html-keyboard-response","162","208806","0.0-1.0-215.0-0.0","0","0","34952","","null","","","null","23","","","","","","","","","","","","","","","",""
"","ITI","","html-keyboard-response","163","209812","0.0-1.0-216.0","0","0","34952","","null","","","null","23","","","","","","","","","","","","","","","NaN",""
"","S1","","html-keyboard-response","164","210066","0.0-1.0-218.0","0","0","34952","","null","","","null","24","","","","","","","","","","","","","","","",""
"","ISI","","html-keyboard-response","165","210222","0.0-1.0-219.0","0","0","34952","","null","","","null","24","NaN","","","","","","","","","","","","","","",""
"","S2","","html-keyboard-response","166","210479","0.0-1.0-220.0","0","0","34952","","null","","","null","24","","NaN","","","","","","","","","","","","","",""
"","response","","html-keyboard-response","167","210793","0.0-1.0-221.0-0.0","0","0","34952","","311","","","68","24","","","1","24","training","adjacent","CD","3","4","N.jpg","Q.jpg","1","1","1","",""
"","feedback","","html-keyboard-response","168","211798","0.0-1.0-222.0-0.0","0","0","34952","","null","","","null","24","","","","","","","","","","","","","","","",""
"","ITI","","html-keyboard-response","169","212811","0.0-1.0-225.0","0","0","34952","","null","","","null","24","","","","","","","","","","","","","","","NaN",""
"","S1","","html-keyboard-response","170","213067","0.0-1.0-227.0","0","0","34952","","null","","","null","25","","","","","","","","","","","","","","","",""
"","ISI","","html-keyboard-response","171","213221","0.0-1.0-228.0","0","0","34952","","null","","","null","25","NaN","","","","","","","","","","","","","","",""
"","S2","","html-keyboard-response","172","213476","0.0-1.0-229.0","0","0","34952","","null","","","null","25","","NaN","","","","","","","","","","","","","",""
"","response","","html-keyboard-response","173","213849","0.0-1.0-230.0-0.0","0","0","34952","","371","","","68","25","","","1","25","training","adjacent","FE","6","5","O.jpg","P.jpg","1","0","0","",""
"","feedback","","html-keyboard-response","174","214851","0.0-1.0-231.0-0.0","0","0","34952","","null","","","null","25","","","","","","","","","","","","","","","",""
"","time_out","","html-keyboard-response","175","216854","0.0-1.0-233.0-0.0","0","0","34952","","null","","","null","25","","","","","","","","","","","","","","","",""
"","ITI","","html-keyboard-response","176","217859","0.0-1.0-234.0","0","0","34952","","null","","","null","25","","","","","","","","","","","","","","","NaN",""
"","S1","","html-keyboard-response","177","218114","0.0-1.0-236.0","0","0","34952","","null","","","null","26","","","","","","","","","","","","","","","",""
"","ISI","","html-keyboard-response","178","218268","0.0-1.0-237.0","0","0","34952","","null","","","null","26","NaN","","","","","","","","","","","","","","",""
"","S2","","html-keyboard-response","179","218524","0.0-1.0-238.0","0","0","34952","","null","","","null","26","","NaN","","","","","","","","","","","","","",""
"","response","","html-keyboard-response","180","218831","0.0-1.0-239.0-0.0","0","0","34952","","305","","","75","26","","","1","26","training","adjacent","DE","4","5","Q.jpg","P.jpg","0","1","0","",""
"","feedback","","html-keyboard-response","181","219834","0.0-1.0-240.0-0.0","0","0","34952","","null","","","null","26","","","","","","","","","","","","","","","",""
"","time_out","","html-keyboard-response","182","221839","0.0-1.0-242.0-0.0","0","0","34952","","null","","","null","26","","","","","","","","","","","","","","","",""
"","ITI","","html-keyboard-response","183","222844","0.0-1.0-243.0","0","0","34952","","null","","","null","26","","","","","","","","","","","","","","","NaN",""
"","S1","","html-keyboard-response","184","223099","0.0-1.0-245.0","0","0","34952","","null","","","null","27","","","","","","","","","","","","","","","",""
"","ISI","","html-keyboard-response","185","223252","0.0-1.0-246.0","0","0","34952","","null","","","null","27","NaN","","","","","","","","","","","","","","",""
"","S2","","html-keyboard-response","186","223508","0.0-1.0-247.0","0","0","34952","","null","","","null","27","","NaN","","","","","","","","","","","","","",""
"","response","","html-keyboard-response","187","223878","0.0-1.0-248.0-0.0","0","0","34952","","366","","","75","27","","","1","27","training","adjacent","ED","5","4","P.jpg","Q.jpg","0","0","1","",""
"","feedback","","html-keyboard-response","188","224883","0.0-1.0-249.0-0.0","0","0","34952","","null","","","null","27","","","","","","","","","","","","","","","",""
"","ITI","","html-keyboard-response","189","225887","0.0-1.0-252.0","0","0","34952","","null","","","null","27","","","","","","","","","","","","","","","NaN",""
"","S1","","html-keyboard-response","190","226142","0.0-1.0-254.0","0","0","34952","","null","","","null","28","","","","","","","","","","","","","","","",""
"","ISI","","html-keyboard-response","191","226297","0.0-1.0-255.0","0","0","34952","","null","","","null","28","NaN","","","","","","","","","","","","","","",""
"","S2","","html-keyboard-response","192","226553","0.0-1.0-256.0","0","0","34952","","null","","","null","28","","NaN","","","","","","","","","","","","","",""
"","response","","html-keyboard-response","193","226867","0.0-1.0-257.0-0.0","0","0","34952","","311","","","68","28","","","1","28","training","adjacent","EF","5","6","P.jpg","O.jpg","1","1","1","",""
"","feedback","","html-keyboard-response","194","227871","0.0-1.0-258.0-0.0","0","0","34952","","null","","","null","28","","","","","","","","","","","","","","","",""
"","ITI","","html-keyboard-response","195","228874","0.0-1.0-261.0","0","0","34952","","null","","","null","28","","","","","","","","","","","","","","","NaN",""
"","S1","","html-keyboard-response","196","229128","0.0-1.0-263.0","0","0","34952","","null","","","null","29","","","","","","","","","","","","","","","",""
"","ISI","","html-keyboard-response","197","229283","0.0-1.0-264.0","0","0","34952","","null","","","null","29","NaN","","","","","","","","","","","","","","",""
"","S2","","html-keyboard-response","198","229539","0.0-1.0-265.0","0","0","34952","","null","","","null","29","","NaN","","","","","","","","","","","","","",""
"","response","","html-keyboard-response","199","229820","0.0-1.0-266.0-0.0","0","0","34952","","278","","","75","29","","","1","29","training","adjacent","DC","4","3","Q.jpg","N.jpg","0","0","1","",""
"","feedback","","html-keyboard-response","200","230824","0.0-1.0-267.0-0.0","0","0","34952","","null","","","null","29","","","","","","","","","","","","","","","",""
"","ITI","","html-keyboard-response","201","231829","0.0-1.0-270.0","0","0","34952","","null","","","null","29","","","","","","","","","","","","","","","NaN",""
"","S1","","html-keyboard-response","202","232085","0.0-1.0-272.0","0","0","34952","","null","","","null","30","","","","","","","","","","","","","","","",""
"","ISI","","html-keyboard-response","203","232240","0.0-1.0-273.0","0","0","34952","","null","","","null","30","NaN","","","","","","","","","","","","","","",""
"","S2","","html-keyboard-response","204","232506","0.0-1.0-274.0","0","0","34952","","null","","","null","30","","NaN","","","","","","","","","","","","","",""
"","response","","html-keyboard-response","205","232760","0.0-1.0-275.0-0.0","0","0","34952","","250","","","68","30","","","1","30","training","adjacent","DE","4","5","Q.jpg","P.jpg","1","1","1","",""
"","feedback","","html-keyboard-response","206","233766","0.0-1.0-276.0-0.0","0","0","34952","","null","","","null","30","","","","","","","","","","","","","","","",""
"","ITI","","html-keyboard-response","207","234769","0.0-1.0-279.0","0","0","34952","","null","","","null","30","","","","","","","","","","","","","","","NaN",""
"","S1","","html-keyboard-response","208","235024","0.0-1.0-281.0","0","0","34952","","null","","","null","31","","","","","","","","","","","","","","","",""
"","ISI","","html-keyboard-response","209","235179","0.0-1.0-282.0","0","0","34952","","null","","","null","31","NaN","","","","","","","","","","","","","","",""
"","S2","","html-keyboard-response","210","235434","0.0-1.0-283.0","0","0","34952","","null","","","null","31","","NaN","","","","","","","","","","","","","",""
"","response","","html-keyboard-response","211","235713","0.0-1.0-284.0-0.0","0","0","34952","","275","","","75","31","","","1","31","training","adjacent","BC","2","3","R.jpg","N.jpg","0","1","0","",""
"","feedback","","html-keyboard-response","212","236718","0.0-1.0-285.0-0.0","0","0","34952","","null","","","null","31","","","","","","","","","","","","","","","",""
"","time_out","","html-keyboard-response","213","238722","0.0-1.0-287.0-0.0","0","0","34952","","null","","","null","31","","","","","","","","","","","","","","","",""
"","ITI","","html-keyboard-response","214","239724","0.0-1.0-288.0","0","0","34952","","null","","","null","31","","","","","","","","","","","","","","","NaN",""
"","S1","","html-keyboard-response","215","239979","0.0-1.0-290.0","0","0","34952","","null","","","null","32","","","","","","","","","","","","","","","",""
"","ISI","","html-keyboard-response","216","240134","0.0-1.0-291.0","0","0","34952","","null","","","null","32","NaN","","","","","","","","","","","","","","",""
"","S2","","html-keyboard-response","217","240388","0.0-1.0-292.0","0","0","34952","","null","","","null","32","","NaN","","","","","","","","","","","","","",""
"","response","","html-keyboard-response","218","240620","0.0-1.0-293.0-0.0","0","0","34952","","228","","","68","32","","","1","32","training","adjacent","BA","2","1","R.jpg","M.jpg","1","0","0","",""
"","feedback","","html-keyboard-response","219","241624","0.0-1.0-294.0-0.0","0","0","34952","","null","","","null","32","","","","","","","","","","","","","","","",""
"","time_out","","html-keyboard-response","220","243628","0.0-1.0-296.0-0.0","0","0","34952","","null","","","null","32","","","","","","","","","","","","","","","",""
"","ITI","","html-keyboard-response","221","244634","0.0-1.0-297.0","0","0","34952","","null","","","null","32","","","","","","","","","","","","","","","NaN",""
"","S1","","html-keyboard-response","222","244889","0.0-1.0-299.0","0","0","34952","","null","","","null","33","","","","","","","","","","","","","","","",""
"","ISI","","html-keyboard-response","223","245045","0.0-1.0-300.0","0","0","34952","","null","","","null","33","NaN","","","","","","","","","","","","","","",""
"","S2","","html-keyboard-response","224","245300","0.0-1.0-301.0","0","0","34952","","null","","","null","33","","NaN","","","","","","","","","","","","","",""
"","response","","html-keyboard-response","225","245474","0.0-1.0-302.0-0.0","0","0","34952","","170","","","75","33","","","1","33","training","adjacent","ED","5","4","P.jpg","Q.jpg","0","0","1","",""
"","feedback","","html-keyboard-response","226","246479","0.0-1.0-303.0-0.0","0","0","34952","","null","","","null","33","","","","","","","","","","","","","","","",""
"","ITI","","html-keyboard-response","227","247483","0.0-1.0-306.0","0","0","34952","","null","","","null","33","","","","","","","","","","","","","","","NaN",""
"","S1","","html-keyboard-response","228","247738","0.0-1.0-308.0","0","0","34952","","null","","","null","34","","","","","","","","","","","","","","","",""
"","ISI","","html-keyboard-response","229","247893","0.0-1.0-309.0","0","0","34952","","null","","","null","34","NaN","","","","","","","","","","","","","","",""
"","S2","","html-keyboard-response","230","248147","0.0-1.0-310.0","0","0","34952","","null","","","null","34","","NaN","","","","","","","","","","","","","",""
"","response","","html-keyboard-response","231","248461","0.0-1.0-311.0-0.0","0","0","34952","","310","","","75","34","","","1","34","training","adjacent","FE","6","5","O.jpg","P.jpg","0","0","1","",""
"","feedback","","html-keyboard-response","232","249466","0.0-1.0-312.0-0.0","0","0","34952","","null","","","null","34","","","","","","","","","","","","","","","",""
"","ITI","","html-keyboard-response","233","250471","0.0-1.0-315.0","0","0","34952","","null","","","null","34","","","","","","","","","","","","","","","NaN",""
"","S1","","html-keyboard-response","234","250726","0.0-1.0-317.0","0","0","34952","","null","","","null","35","","","","","","","","","","","","","","","",""
"","ISI","","html-keyboard-response","235","250881","0.0-1.0-318.0","0","0","34952","","null","","","null","35","NaN","","","","","","","","","","","","","","",""
"","S2","","html-keyboard-response","236","251140","0.0-1.0-319.0","0","0","34952","","null","","","null","35","","NaN","","","","","","","","","","","","","",""
"","response","","html-keyboard-response","237","251427","0.0-1.0-320.0-0.0","0","0","34952","","283","","","75","35","","","1","35","training","adjacent","FE","6","5","O.jpg","P.jpg","0","0","1","",""
"","feedback","","html-keyboard-response","238","252432","0.0-1.0-321.0-0.0","0","0","34952","","null","","","null","35","","","","","","","","","","","","","","","",""
"","ITI","","html-keyboard-response","239","253438","0.0-1.0-324.0","0","0","34952","","null","","","null","35","","","","","","","","","","","","","","","NaN",""
"","S1","","html-keyboard-response","240","253704","0.0-1.0-326.0","0","0","34952","","null","","","null","36","","","","","","","","","","","","","","","",""
"","ISI","","html-keyboard-response","241","253857","0.0-1.0-327.0","0","0","34952","","null","","","null","36","NaN","","","","","","","","","","","","","","",""
"","S2","","html-keyboard-response","242","254113","0.0-1.0-328.0","0","0","34952","","null","","","null","36","","NaN","","","","","","","","","","","","","",""
"","response","","html-keyboard-response","243","254548","0.0-1.0-329.0-0.0","0","0","34952","","431","","","68","36","","","1","36","training","adjacent","BC","2","3","R.jpg","N.jpg","1","1","1","",""
"","feedback","","html-keyboard-response","244","255554","0.0-1.0-330.0-0.0","0","0","34952","","null","","","null","36","","","","","","","","","","","","","","","",""
"","ITI","","html-keyboard-response","245","256558","0.0-1.0-333.0","0","0","34952","","null","","","null","36","","","","","","","","","","","","","","","NaN",""
"","S1","","html-keyboard-response","246","256813","0.0-1.0-335.0","0","0","34952","","null","","","null","37","","","","","","","","","","","","","","","",""
"","ISI","","html-keyboard-response","247","256967","0.0-1.0-336.0","0","0","34952","","null","","","null","37","NaN","","","","","","","","","","","","","","",""
"","S2","","html-keyboard-response","248","257222","0.0-1.0-337.0","0","0","34952","","null","","","null","37","","NaN","","","","","","","","","","","","","",""
"","response","","html-keyboard-response","249","257504","0.0-1.0-338.0-0.0","0","0","34952","","278","","","68","37","","","1","37","training","adjacent","CD","3","4","N.jpg","Q.jpg","1","1","1","",""
"","feedback","","html-keyboard-response","250","258509","0.0-1.0-339.0-0.0","0","0","34952","","null","","","null","37","","","","","","","","","","","","","","","",""
"","ITI","","html-keyboard-response","251","259514","0.0-1.0-342.0","0","0","34952","","null","","","null","37","","","","","","","","","","","","","","","NaN",""
"","S1","","html-keyboard-response","252","259769","0.0-1.0-344.0","0","0","34952","","null","","","null","38","","","","","","","","","","","","","","","",""
"","ISI","","html-keyboard-response","253","259924","0.0-1.0-345.0","0","0","34952","","null","","","null","38","NaN","","","","","","","","","","","","","","",""
"","S2","","html-keyboard-response","254","260179","0.0-1.0-346.0","0","0","34952","","null","","","null","38","","NaN","","","","","","","","","","","","","",""
"","response","","html-keyboard-response","255","260469","0.0-1.0-347.0-0.0","0","0","34952","","286","","","68","38","","","1","38","training","adjacent","BA","2","1","R.jpg","M.jpg","1","0","0","",""
"","feedback","","html-keyboard-response","256","261475","0.0-1.0-348.0-0.0","0","0","34952","","null","","","null","38","","","","","","","","","","","","","","","",""
"","time_out","","html-keyboard-response","257","263479","0.0-1.0-350.0-0.0","0","0","34952","","null","","","null","38","","","","","","","","","","","","","","","",""
"","ITI","","html-keyboard-response","258","264485","0.0-1.0-351.0","0","0","34952","","null","","","null","38","","","","","","","","","","","","","","","NaN",""
"","S1","","html-keyboard-response","259","264741","0.0-1.0-353.0","0","0","34952","","null","","","null","39","","","","","","","","","","","","","","","",""
"","ISI","","html-keyboard-response","260","264895","0.0-1.0-354.0","0","0","34952","","null","","","null","39","NaN","","","","","","","","","","","","","","",""
"","S2","","html-keyboard-response","261","265150","0.0-1.0-355.0","0","0","34952","","null","","","null","39","","NaN","","","","","","","","","","","","","",""
"","response","","html-keyboard-response","262","265512","0.0-1.0-356.0-0.0","0","0","34952","","358","","","75","39","","","1","39","training","adjacent","FE","6","5","O.jpg","P.jpg","0","0","1","",""
"","feedback","","html-keyboard-response","263","266518","0.0-1.0-357.0-0.0","0","0","34952","","null","","","null","39","","","","","","","","","","","","","","","",""
"","ITI","","html-keyboard-response","264","267523","0.0-1.0-360.0","0","0","34952","","null","","","null","39","","","","","","","","","","","","","","","NaN",""
"","S1","","html-keyboard-response","265","267778","0.0-1.0-362.0","0","0","34952","","null","","","null","40","","","","","","","","","","","","","","","",""
"","ISI","","html-keyboard-response","266","267933","0.0-1.0-363.0","0","0","34952","","null","","","null","40","NaN","","","","","","","","","","","","","","",""
"","S2","","html-keyboard-response","267","268188","0.0-1.0-364.0","0","0","34952","","null","","","null","40","","NaN","","","","","","","","","","","","","",""
"","response","","html-keyboard-response","268","268456","0.0-1.0-365.0-0.0","0","0","34952","","263","","","75","40","","","1","40","training","adjacent","BA","2","1","R.jpg","M.jpg","0","0","1","",""
"","feedback","","html-keyboard-response","269","269463","0.0-1.0-366.0-0.0","0","0","34952","","null","","","null","40","","","","","","","","","","","","","","","",""
"","ITI","","html-keyboard-response","270","270468","0.0-1.0-369.0","0","0","34952","","null","","","null","40","","","","","","","","","","","","","","","NaN",""
"","S1","","html-keyboard-response","271","270723","0.0-1.0-371.0","0","0","34952","","null","","","null","41","","","","","","","","","","","","","","","",""
"","ISI","","html-keyboard-response","272","270877","0.0-1.0-372.0","0","0","34952","","null","","","null","41","NaN","","","","","","","","","","","","","","",""
"","S2","","html-keyboard-response","273","271022","0.0-1.0-373.0","0","0","34952","","143","","","68","41","","d","1","41","training","adjacent","AB","1","2","M.jpg","R.jpg","1","1","1","",""
"","feedback","","html-keyboard-response","274","272028","0.0-1.0-375.0-0.0","0","0","34952","","null","","","null","41","","","","","","","","","","","","","","","",""
"","ITI","","html-keyboard-response","275","273033","0.0-1.0-378.0","0","0","34952","","null","","","null","41","","","","","","","","","","","","","","","NaN",""
"","S1","","html-keyboard-response","276","273287","0.0-1.0-380.0","0","0","34952","","null","","","null","42","","","","","","","","","","","","","","","",""
"","ISI","","html-keyboard-response","277","273441","0.0-1.0-381.0","0","0","34952","","null","","","null","42","NaN","","","","","","","","","","","","","","",""
"","S2","","html-keyboard-response","278","273696","0.0-1.0-382.0","0","0","34952","","null","","","null","42","","NaN","","","","","","","","","","","","","",""
"","response","","html-keyboard-response","279","274035","0.0-1.0-383.0-0.0","0","0","34952","","334","","","68","42","","","1","42","training","adjacent","CB","3","2","N.jpg","R.jpg","1","0","0","",""
"","feedback","","html-keyboard-response","280","275039","0.0-1.0-384.0-0.0","0","0","34952","","null","","","null","42","","","","","","","","","","","","","","","",""
"","time_out","","html-keyboard-response","281","277042","0.0-1.0-386.0-0.0","0","0","34952","","null","","","null","42","","","","","","","","","","","","","","","",""
"","ITI","","html-keyboard-response","282","278046","0.0-1.0-387.0","0","0","34952","","null","","","null","42","","","","","","","","","","","","","","","NaN",""
"","S1","","html-keyboard-response","283","278301","0.0-1.0-389.0","0","0","34952","","null","","","null","43","","","","","","","","","","","","","","","",""
"","ISI","","html-keyboard-response","284","278456","0.0-1.0-390.0","0","0","34952","","null","","","null","43","NaN","","","","","","","","","","","","","","",""
"","S2","","html-keyboard-response","285","278711","0.0-1.0-391.0","0","0","34952","","null","","","null","43","","NaN","","","","","","","","","","","","","",""
"","response","","html-keyboard-response","286","279115","0.0-1.0-392.0-0.0","0","0","34952","","400","","","75","43","","","1","43","training","adjacent","FG","6","7","O.jpg","L.jpg","0","1","0","",""
"","feedback","","html-keyboard-response","287","280120","0.0-1.0-393.0-0.0","0","0","34952","","null","","","null","43","","","","","","","","","","","","","","","",""
"","time_out","","html-keyboard-response","288","282124","0.0-1.0-395.0-0.0","0","0","34952","","null","","","null","43","","","","","","","","","","","","","","","",""
"","ITI","","html-keyboard-response","289","283128","0.0-1.0-396.0","0","0","34952","","null","","","null","43","","","","","","","","","","","","","","","NaN",""
"","S1","","html-keyboard-response","290","283384","0.0-1.0-398.0","0","0","34952","","null","","","null","44","","","","","","","","","","","","","","","",""
"","ISI","","html-keyboard-response","291","283538","0.0-1.0-399.0","0","0","34952","","null","","","null","44","NaN","","","","","","","","","","","","","","",""
"","S2","","html-keyboard-response","292","283793","0.0-1.0-400.0","0","0","34952","","null","","","null","44","","NaN","","","","","","","","","","","","","",""
"","response","","html-keyboard-response","293","284037","0.0-1.0-401.0-0.0","0","0","34952","","239","","","68","44","","","1","44","training","adjacent","CD","3","4","N.jpg","Q.jpg","1","1","1","",""
"","feedback","","html-keyboard-response","294","285043","0.0-1.0-402.0-0.0","0","0","34952","","null","","","null","44","","","","","","","","","","","","","","","",""
"","ITI","","html-keyboard-response","295","286048","0.0-1.0-405.0","0","0","34952","","null","","","null","44","","","","","","","","","","","","","","","NaN",""
"","S1","","html-keyboard-response","296","286302","0.0-1.0-407.0","0","0","34952","","null","","","null","45","","","","","","","","","","","","","","","",""
"","ISI","","html-keyboard-response","297","286457","0.0-1.0-408.0","0","0","34952","","null","","","null","45","NaN","","","","","","","","","","","","","","",""
"","S2","","html-keyboard-response","298","286713","0.0-1.0-409.0","0","0","34952","","null","","","null","45","","NaN","","","","","","","","","","","","","",""
"","response","","html-keyboard-response","299","287121","0.0-1.0-410.0-0.0","0","0","34952","","403","","","68","45","","","1","45","training","adjacent","FG","6","7","O.jpg","L.jpg","1","1","1","",""
"","feedback","","html-keyboard-response","300","288126","0.0-1.0-411.0-0.0","0","0","34952","","null","","","null","45","","","","","","","","","","","","","","","",""
"","ITI","","html-keyboard-response","301","289130","0.0-1.0-414.0","0","0","34952","","null","","","null","45","","","","","","","","","","","","","","","NaN",""
"","S1","","html-keyboard-response","302","289384","0.0-1.0-416.0","0","0","34952","","null","","","null","46","","","","","","","","","","","","","","","",""
"","ISI","","html-keyboard-response","303","289539","0.0-1.0-417.0","0","0","34952","","null","","","null","46","NaN","","","","","","","","","","","","","","",""
"","S2","","html-keyboard-response","304","289765","0.0-1.0-418.0","0","0","34952","","222","","","68","46","","d","1","46","training","adjacent","AB","1","2","M.jpg","R.jpg","1","1","1","",""
"","feedback","","html-keyboard-response","305","290771","0.0-1.0-420.0-0.0","0","0","34952","","null","","","null","46","","","","","","","","","","","","","","","",""
"","ITI","","html-keyboard-response","306","291776","0.0-1.0-423.0","0","0","34952","","null","","","null","46","","","","","","","","","","","","","","","NaN",""
"","S1","","html-keyboard-response","307","292033","0.0-1.0-425.0","0","0","34952","","null","","","null","47","","","","","","","","","","","","","","","",""
"","ISI","","html-keyboard-response","308","292188","0.0-1.0-426.0","0","0","34952","","null","","","null","47","NaN","","","","","","","","","","","","","","",""
"","S2","","html-keyboard-response","309","292442","0.0-1.0-427.0","0","0","34952","","null","","","null","47","","NaN","","","","","","","","","","","","","",""
"","response","","html-keyboard-response","310","292674","0.0-1.0-428.0-0.0","0","0","34952","","230","","","75","47","","","1","47","training","adjacent","ED","5","4","P.jpg","Q.jpg","0","0","1","",""
"","feedback","","html-keyboard-response","311","293680","0.0-1.0-429.0-0.0","0","0","34952","","null","","","null","47","","","","","","","","","","","","","","","",""
"","ITI","","html-keyboard-response","312","294684","0.0-1.0-432.0","0","0","34952","","null","","","null","47","","","","","","","","","","","","","","","NaN",""
"","block_over","","html-keyboard-response","313","347205","0.0-1.0-433.0-0.0","0","0","34952","","52515","","","32","47","","","","","","","","","","","","","","","",""
"","S1","","html-keyboard-response","314","347461","0.0-1.0-434.0","0","0","34952","","null","","","null","48","","","","","","","","","","","","","","","",""
"","ISI","","html-keyboard-response","315","347614","0.0-1.0-435.0","0","0","34952","","null","","","null","48","NaN","","","","","","","","","","","","","","",""
"","S2","","html-keyboard-response","316","347873","0.0-1.0-436.0","0","0","34952","","null","","","null","48","","NaN","","","","","","","","","","","","","",""
"","response","","html-keyboard-response","317","348220","0.0-1.0-437.0-0.0","0","0","34952","","342","","","68","48","","","2","48","training","adjacent","FE","6","5","O.jpg","P.jpg","1","0","0","",""
"","feedback","","html-keyboard-response","318","349225","0.0-1.0-438.0-0.0","0","0","34952","","null","","","null","48","","","","","","","","","","","","","","","",""
"","time_out","","html-keyboard-response","319","351230","0.0-1.0-440.0-0.0","0","0","34952","","null","","","null","48","","","","","","","","","","","","","","","",""
"","ITI","","html-keyboard-response","320","352236","0.0-1.0-441.0","0","0","34952","","null","","","null","48","","","","","","","","","","","","","","","NaN",""
"","S1","","html-keyboard-response","321","352490","0.0-1.0-443.0","0","0","34952","","null","","","null","49","","","","","","","","","","","","","","","",""
"","ISI","","html-keyboard-response","322","352655","0.0-1.0-444.0","0","0","34952","","null","","","null","49","NaN","","","","","","","","","","","","","","",""
"","S2","","html-keyboard-response","323","352911","0.0-1.0-445.0","0","0","34952","","null","","","null","49","","NaN","","","","","","","","","","","","","",""
"","response","","html-keyboard-response","324","353034","0.0-1.0-446.0-0.0","0","0","34952","","119","","","75","49","","","2","49","training","adjacent","FG","6","7","O.jpg","L.jpg","0","1","0","",""
"","feedback","","html-keyboard-response","325","354039","0.0-1.0-447.0-0.0","0","0","34952","","null","","","null","49","","","","","","","","","","","","","","","",""
"","time_out","","html-keyboard-response","326","356045","0.0-1.0-449.0-0.0","0","0","34952","","null","","","null","49","","","","","","","","","","","","","","","",""
"","ITI","","html-keyboard-response","327","357050","0.0-1.0-450.0","0","0","34952","","null","","","null","49","","","","","","","","","","","","","","","NaN",""
"","S1","","html-keyboard-response","328","357306","0.0-1.0-452.0","0","0","34952","","null","","","null","50","","","","","","","","","","","","","","","",""
"","ISI","","html-keyboard-response","329","357461","0.0-1.0-453.0","0","0","34952","","null","","","null","50","NaN","","","","","","","","","","","","","","",""
"","S2","","html-keyboard-response","330","357715","0.0-1.0-454.0","0","0","34952","","null","","","null","50","","NaN","","","","","","","","","","","","","",""
"","response","","html-keyboard-response","331","357950","0.0-1.0-455.0-0.0","0","0","34952","","232","","","68","50","","","2","50","training","adjacent","DC","4","3","Q.jpg","N.jpg","1","0","0","",""
"","feedback","","html-keyboard-response","332","358956","0.0-1.0-456.0-0.0","0","0","34952","","null","","","null","50","","","","","","","","","","","","","","","",""
"","time_out","","html-keyboard-response","333","360962","0.0-1.0-458.0-0.0","0","0","34952","","null","","","null","50","","","","","","","","","","","","","","","",""
"","ITI","","html-keyboard-response","334","361967","0.0-1.0-459.0","0","0","34952","","null","","","null","50","","","","","","","","","","","","","","","NaN",""
"","S1","","html-keyboard-response","335","362222","0.0-1.0-461.0","0","0","34952","","null","","","null","51","","","","","","","","","","","","","","","",""
"","ISI","","html-keyboard-response","336","362378","0.0-1.0-462.0","0","0","34952","","null","","","null","51","NaN","","","","","","","","","","","","","","",""
"","S2","","html-keyboard-response","337","362636","0.0-1.0-463.0","0","0","34952","","null","","","null","51","","NaN","","","","","","","","","","","","","",""
"","response","","html-keyboard-response","338","362873","0.0-1.0-464.0-0.0","0","0","34952","","232","","","75","51","","","2","51","training","adjacent","EF","5","6","P.jpg","O.jpg","0","1","0","",""
"","feedback","","html-keyboard-response","339","363879","0.0-1.0-465.0-0.0","0","0","34952","","null","","","null","51","","","","","","","","","","","","","","","",""
"","time_out","","html-keyboard-response","340","365883","0.0-1.0-467.0-0.0","0","0","34952","","null","","","null","51","","","","","","","","","","","","","","","",""
"","ITI","","html-keyboard-response","341","366888","0.0-1.0-468.0","0","0","34952","","null","","","null","51","","","","","","","","","","","","","","","NaN",""
"","S1","","html-keyboard-response","342","367151","0.0-1.0-470.0","0","0","34952","","null","","","null","52","","","","","","","","","","","","","","","",""
"","ISI","","html-keyboard-response","343","367306","0.0-1.0-471.0","0","0","34952","","null","","","null","52","NaN","","","","","","","","","","","","","","",""
"","S2","","html-keyboard-response","344","367560","0.0-1.0-472.0","0","0","34952","","null","","","null","52","","NaN","","","","","","","","","","","","","",""
"","response","","html-keyboard-response","345","367838","0.0-1.0-473.0-0.0","0","0","34952","","274","","","75","52","","","2","52","training","adjacent","GF","7","6","L.jpg","O.jpg","0","0","1","",""
"","feedback","","html-keyboard-response","346","368842","0.0-1.0-474.0-0.0","0","0","34952","","null","","","null","52","","","","","","","","","","","","","","","",""
"","ITI","","html-keyboard-response","347","369845","0.0-1.0-477.0","0","0","34952","","null","","","null","52","","","","","","","","","","","","","","","NaN",""
"","S1","","html-keyboard-response","348","370099","0.0-1.0-479.0","0","0","34952","","null","","","null","53","","","","","","","","","","","","","","","",""
"","ISI","","html-keyboard-response","349","370267","0.0-1.0-480.0","0","0","34952","","null","","","null","53","NaN","","","","","","","","","","","","","","",""
"","S2","","html-keyboard-response","350","370521","0.0-1.0-481.0","0","0","34952","","null","","","null","53","","NaN","","","","","","","","","","","","","",""
"","response","","html-keyboard-response","351","370722","0.0-1.0-482.0-0.0","0","0","34952","","197","","","75","53","","","2","53","training","adjacent","AB","1","2","M.jpg","R.jpg","0","1","0","",""
"","feedback","","html-keyboard-response","352","371728","0.0-1.0-483.0-0.0","0","0","34952","","null","","","null","53","","","","","","","","","","","","","","","",""
"","time_out","","html-keyboard-response","353","373733","0.0-1.0-485.0-0.0","0","0","34952","","null","","","null","53","","","","","","","","","","","","","","","",""
"","ITI","","html-keyboard-response","354","374737","0.0-1.0-486.0","0","0","34952","","null","","","null","53","","","","","","","","","","","","","","","NaN",""
"","S1","","html-keyboard-response","355","374992","0.0-1.0-488.0","0","0","34952","","null","","","null","54","","","","","","","","","","","","","","","",""
"","ISI","","html-keyboard-response","356","375145","0.0-1.0-489.0","0","0","34952","","null","","","null","54","NaN","","","","","","","","","","","","","","",""
"","S2","","html-keyboard-response","357","375396","0.0-1.0-490.0","0","0","34952","","248","","","68","54","","d","2","54","training","adjacent","ED","5","4","P.jpg","Q.jpg","1","0","0","",""
"","feedback","","html-keyboard-response","358","376402","0.0-1.0-492.0-0.0","0","0","34952","","null","","","null","54","","","","","","","","","","","","","","","",""
"","time_out","","html-keyboard-response","359","378407","0.0-1.0-494.0-0.0","0","0","34952","","null","","","null","54","","","","","","","","","","","","","","","",""
"","ITI","","html-keyboard-response","360","379412","0.0-1.0-495.0","0","0","34952","","null","","","null","54","","","","","","","","","","","","","","","NaN",""
"","S1","","html-keyboard-response","361","379668","0.0-1.0-497.0","0","0","34952","","null","","","null","55","","","","","","","","","","","","","","","",""
"","ISI","","html-keyboard-response","362","379821","0.0-1.0-498.0","0","0","34952","","null","","","null","55","NaN","","","","","","","","","","","","","","",""
"","S2","","html-keyboard-response","363","380075","0.0-1.0-499.0","0","0","34952","","null","","","null","55","","NaN","","","","","","","","","","","","","",""
"","response","","html-keyboard-response","364","380271","0.0-1.0-500.0-0.0","0","0","34952","","191","","","68","55","","","2","55","training","adjacent","BC","2","3","R.jpg","N.jpg","1","1","1","",""
"","feedback","","html-keyboard-response","365","381277","0.0-1.0-501.0-0.0","0","0","34952","","null","","","null","55","","","","","","","","","","","","","","","",""
"","ITI","","html-keyboard-response","366","382282","0.0-1.0-504.0","0","0","34952","","null","","","null","55","","","","","","","","","","","","","","","NaN",""
"","S1","","html-keyboard-response","367","382537","0.0-1.0-506.0","0","0","34952","","null","","","null","56","","","","","","","","","","","","","","","",""
"","ISI","","html-keyboard-response","368","382691","0.0-1.0-507.0","0","0","34952","","null","","","null","56","NaN","","","","","","","","","","","","","","",""
"","S2","","html-keyboard-response","369","382951","0.0-1.0-508.0","0","0","34952","","null","","","null","56","","NaN","","","","","","","","","","","","","",""
"","response","","html-keyboard-response","370","383069","0.0-1.0-509.0-0.0","0","0","34952","","115","","","75","56","","","2","56","training","adjacent","DC","4","3","Q.jpg","N.jpg","0","0","1","",""
"","feedback","","html-keyboard-response","371","384074","0.0-1.0-510.0-0.0","0","0","34952","","null","","","null","56","","","","","","","","","","","","","","","",""
"","ITI","","html-keyboard-response","372","385079","0.0-1.0-513.0","0","0","34952","","null","","","null","56","","","","","","","","","","","","","","","NaN",""
"","S1","","html-keyboard-response","373","385348","0.0-1.0-515.0","0","0","34952","","null","","","null","57","","","","","","","","","","","","","","","",""
"","ISI","","html-keyboard-response","374","385501","0.0-1.0-516.0","0","0","34952","","null","","","null","57","NaN","","","","","","","","","","","","","","",""
"","S2","","html-keyboard-response","375","385756","0.0-1.0-517.0","0","0","34952","","null","","","null","57","","NaN","","","","","","","","","","","","","",""
"","response","","html-keyboard-response","376","385935","0.0-1.0-518.0-0.0","0","0","34952","","177","","","75","57","","","2","57","training","adjacent","ED","5","4","P.jpg","Q.jpg","0","0","1","",""
"","feedback","","html-keyboard-response","377","386940","0.0-1.0-519.0-0.0","0","0","34952","","null","","","null","57","","","","","","","","","","","","","","","",""
"","ITI","","html-keyboard-response","378","387946","0.0-1.0-522.0","0","0","34952","","null","","","null","57","","","","","","","","","","","","","","","NaN",""
"","S1","","html-keyboard-response","379","388202","0.0-1.0-524.0","0","0","34952","","null","","","null","58","","","","","","","","","","","","","","","",""
"","ISI","","html-keyboard-response","380","388356","0.0-1.0-525.0","0","0","34952","","null","","","null","58","NaN","","","","","","","","","","","","","","",""
"","S2","","html-keyboard-response","381","388611","0.0-1.0-526.0","0","0","34952","","null","","","null","58","","NaN","","","","","","","","","","","","","",""
"","response","","html-keyboard-response","382","388658","0.0-1.0-527.0-0.0","0","0","34952","","44","","","68","58","","","2","58","training","adjacent","BA","2","1","R.jpg","M.jpg","1","0","0","",""
"","feedback","","html-keyboard-response","383","389664","0.0-1.0-528.0-0.0","0","0","34952","","null","","","null","58","","","","","","","","","","","","","","","",""
"","time_out","","html-keyboard-response","384","391668","0.0-1.0-530.0-0.0","0","0","34952","","null","","","null","58","","","","","","","","","","","","","","","",""
"","ITI","","html-keyboard-response","385","392675","0.0-1.0-531.0","0","0","34952","","null","","","null","58","","","","","","","","","","","","","","","NaN",""
"","S1","","html-keyboard-response","386","392931","0.0-1.0-533.0","0","0","34952","","null","","","null","59","","","","","","","","","","","","","","","",""
"","ISI","","html-keyboard-response","387","393086","0.0-1.0-534.0","0","0","34952","","null","","","null","59","NaN","","","","","","","","","","","","","","",""
"","S2","","html-keyboard-response","388","393342","0.0-1.0-535.0","0","0","34952","","null","","","null","59","","NaN","","","","","","","","","","","","","",""
"","response","","html-keyboard-response","389","393431","0.0-1.0-536.0-0.0","0","0","34952","","84","","","68","59","","","2","59","training","adjacent","CB","3","2","N.jpg","R.jpg","1","0","0","",""
"","feedback","","html-keyboard-response","390","394436","0.0-1.0-537.0-0.0","0","0","34952","","null","","","null","59","","","","","","","","","","","","","","","",""
"","time_out","","html-keyboard-response","391","396442","0.0-1.0-539.0-0.0","0","0","34952","","null","","","null","59","","","","","","","","","","","","","","","",""
"","ITI","","html-keyboard-response","392","397445","0.0-1.0-540.0","0","0","34952","","null","","","null","59","","","","","","","","","","","","","","","NaN",""
"","S1","","html-keyboard-response","393","397701","0.0-1.0-542.0","0","0","34952","","null","","","null","60","","","","","","","","","","","","","","","",""
"","ISI","","html-keyboard-response","394","397855","0.0-1.0-543.0","0","0","34952","","null","","","null","60","NaN","","","","","","","","","","","","","","",""
"","S2","","html-keyboard-response","395","398107","0.0-1.0-544.0","0","0","34952","","null","","","null","60","","NaN","","","","","","","","","","","","","",""
"","response","","html-keyboard-response","396","398305","0.0-1.0-545.0-0.0","0","0","34952","","195","","","75","60","","","2","60","training","adjacent","EF","5","6","P.jpg","O.jpg","0","1","0","",""
"","feedback","","html-keyboard-response","397","399311","0.0-1.0-546.0-0.0","0","0","34952","","null","","","null","60","","","","","","","","","","","","","","","",""
"","time_out","","html-keyboard-response","398","401316","0.0-1.0-548.0-0.0","0","0","34952","","null","","","null","60","","","","","","","","","","","","","","","",""
"","ITI","","html-keyboard-response","399","402320","0.0-1.0-549.0","0","0","34952","","null","","","null","60","","","","","","","","","","","","","","","NaN",""
"","S1","","html-keyboard-response","400","402576","0.0-1.0-551.0","0","0","34952","","null","","","null","61","","","","","","","","","","","","","","","",""
"","ISI","","html-keyboard-response","401","402730","0.0-1.0-552.0","0","0","34952","","null","","","null","61","NaN","","","","","","","","","","","","","","",""
"","S2","","html-keyboard-response","402","402999","0.0-1.0-553.0","0","0","34952","","null","","","null","61","","NaN","","","","","","","","","","","","","",""
"","response","","html-keyboard-response","403","403397","0.0-1.0-554.0-0.0","0","0","34952","","393","","","68","61","","","2","61","training","adjacent","EF","5","6","P.jpg","O.jpg","1","1","1","",""
"","feedback","","html-keyboard-response","404","404403","0.0-1.0-555.0-0.0","0","0","34952","","null","","","null","61","","","","","","","","","","","","","","","",""
"","ITI","","html-keyboard-response","405","405407","0.0-1.0-558.0","0","0","34952","","null","","","null","61","","","","","","","","","","","","","","","NaN",""
"","S1","","html-keyboard-response","406","405663","0.0-1.0-560.0","0","0","34952","","null","","","null","62","","","","","","","","","","","","","","","",""
"","ISI","","html-keyboard-response","407","405816","0.0-1.0-561.0","0","0","34952","","null","","","null","62","NaN","","","","","","","","","","","","","","",""
"","S2","","html-keyboard-response","408","406071","0.0-1.0-562.0","0","0","34952","","null","","","null","62","","NaN","","","","","","","","","","","","","",""
"","response","","html-keyboard-response","409","406217","0.0-1.0-563.0-0.0","0","0","34952","","142","","","75","62","","","2","62","training","adjacent","GF","7","6","L.jpg","O.jpg","0","0","1","",""
"","feedback","","html-keyboard-response","410","407220","0.0-1.0-564.0-0.0","0","0","34952","","null","","","null","62","","","","","","","","","","","","","","","",""
"","ITI","","html-keyboard-response","411","408225","0.0-1.0-567.0","0","0","34952","","null","","","null","62","","","","","","","","","","","","","","","NaN",""
"","S1","","html-keyboard-response","412","408481","0.0-1.0-569.0","0","0","34952","","null","","","null","63","","","","","","","","","","","","","","","",""
"","ISI","","html-keyboard-response","413","408636","0.0-1.0-570.0","0","0","34952","","null","","","null","63","NaN","","","","","","","","","","","","","","",""
"","S2","","html-keyboard-response","414","408892","0.0-1.0-571.0","0","0","34952","","null","","","null","63","","NaN","","","","","","","","","","","","","",""
"","response","","html-keyboard-response","415","408978","0.0-1.0-572.0-0.0","0","0","34952","","81","","","68","63","","","2","63","training","adjacent","CB","3","2","N.jpg","R.jpg","1","0","0","",""
"","feedback","","html-keyboard-response","416","409984","0.0-1.0-573.0-0.0","0","0","34952","","null","","","null","63","","","","","","","","","","","","","","","",""
"","time_out","","html-keyboard-response","417","411990","0.0-1.0-575.0-0.0","0","0","34952","","null","","","null","63","","","","","","","","","","","","","","","",""
"","ITI","","html-keyboard-response","418","412994","0.0-1.0-576.0","0","0","34952","","null","","","null","63","","","","","","","","","","","","","","","NaN",""
"","S1","","html-keyboard-response","419","413250","0.0-1.0-578.0","0","0","34952","","null","","","null","64","","","","","","","","","","","","","","","",""
"","ISI","","html-keyboard-response","420","413403","0.0-1.0-579.0","0","0","34952","","null","","","null","64","NaN","","","","","","","","","","","","","","",""
"","S2","","html-keyboard-response","421","413656","0.0-1.0-580.0","0","0","34952","","null","","","null","64","","NaN","","","","","","","","","","","","","",""
"","response","","html-keyboard-response","422","413767","0.0-1.0-581.0-0.0","0","0","34952","","106","","","75","64","","","2","64","training","adjacent","FG","6","7","O.jpg","L.jpg","0","1","0","",""
"","feedback","","html-keyboard-response","423","414772","0.0-1.0-582.0-0.0","0","0","34952","","null","","","null","64","","","","","","","","","","","","","","","",""
"","time_out","","html-keyboard-response","424","416776","0.0-1.0-584.0-0.0","0","0","34952","","null","","","null","64","","","","","","","","","","","","","","","",""
"","ITI","","html-keyboard-response","425","417780","0.0-1.0-585.0","0","0","34952","","null","","","null","64","","","","","","","","","","","","","","","NaN",""
"","S1","","html-keyboard-response","426","418036","0.0-1.0-587.0","0","0","34952","","null","","","null","65","","","","","","","","","","","","","","","",""
"","ISI","","html-keyboard-response","427","418190","0.0-1.0-588.0","0","0","34952","","null","","","null","65","NaN","","","","","","","","","","","","","","",""
"","S2","","html-keyboard-response","428","418446","0.0-1.0-589.0","0","0","34952","","null","","","null","65","","NaN","","","","","","","","","","","","","",""
"","response","","html-keyboard-response","429","418546","0.0-1.0-590.0-0.0","0","0","34952","","96","","","75","65","","","2","65","training","adjacent","FE","6","5","O.jpg","P.jpg","0","0","1","",""
"","feedback","","html-keyboard-response","430","419550","0.0-1.0-591.0-0.0","0","0","34952","","null","","","null","65","","","","","","","","","","","","","","","",""
"","ITI","","html-keyboard-response","431","420554","0.0-1.0-594.0","0","0","34952","","null","","","null","65","","","","","","","","","","","","","","","NaN",""
"","S1","","html-keyboard-response","432","420810","0.0-1.0-596.0","0","0","34952","","null","","","null","66","","","","","","","","","","","","","","","",""
"","ISI","","html-keyboard-response","433","420964","0.0-1.0-597.0","0","0","34952","","null","","","null","66","NaN","","","","","","","","","","","","","","",""
"","S2","","html-keyboard-response","434","421217","0.0-1.0-598.0","0","0","34952","","null","","","null","66","","NaN","","","","","","","","","","","","","",""
"","response","","html-keyboard-response","435","421274","0.0-1.0-599.0-0.0","0","0","34952","","53","","","68","66","","","2","66","training","adjacent","AB","1","2","M.jpg","R.jpg","1","1","1","",""
"","feedback","","html-keyboard-response","436","422279","0.0-1.0-600.0-0.0","0","0","34952","","null","","","null","66","","","","","","","","","","","","","","","",""
"","ITI","","html-keyboard-response","437","423284","0.0-1.0-603.0","0","0","34952","","null","","","null","66","","","","","","","","","","","","","","","NaN",""
"","S1","","html-keyboard-response","438","423538","0.0-1.0-605.0","0","0","34952","","null","","","null","67","","","","","","","","","","","","","","","",""
"","ISI","","html-keyboard-response","439","423705","0.0-1.0-606.0","0","0","34952","","null","","","null","67","NaN","","","","","","","","","","","","","","",""
"","S2","","html-keyboard-response","440","423959","0.0-1.0-607.0","0","0","34952","","null","","","null","67","","NaN","","","","","","","","","","","","","",""
"","response","","html-keyboard-response","441","424117","0.0-1.0-608.0-0.0","0","0","34952","","153","","","68","67","","","2","67","training","adjacent","CB","3","2","N.jpg","R.jpg","1","0","0","",""
"","feedback","","html-keyboard-response","442","425122","0.0-1.0-609.0-0.0","0","0","34952","","null","","","null","67","","","","","","","","","","","","","","","",""
"","time_out","","html-keyboard-response","443","427126","0.0-1.0-611.0-0.0","0","0","34952","","null","","","null","67","","","","","","","","","","","","","","","",""
"","ITI","","html-keyboard-response","444","428131","0.0-1.0-612.0","0","0","34952","","null","","","null","67","","","","","","","","","","","","","","","NaN",""
"","S1","","html-keyboard-response","445","428386","0.0-1.0-614.0","0","0","34952","","null","","","null","68","","","","","","","","","","","","","","","",""
"","ISI","","html-keyboard-response","446","428542","0.0-1.0-615.0","0","0","34952","","null","","","null","68","NaN","","","","","","","","","","","","","","",""
"","S2","","html-keyboard-response","447","428799","0.0-1.0-616.0","0","0","34952","","null","","","null","68","","NaN","","","","","","","","","","","","","",""
"","response","","html-keyboard-response","448","428869","0.0-1.0-617.0-0.0","0","0","34952","","66","","","75","68","","","2","68","training","adjacent","DC","4","3","Q.jpg","N.jpg","0","0","1","",""
"","feedback","","html-keyboard-response","449","429873","0.0-1.0-618.0-0.0","0","0","34952","","null","","","null","68","","","","","","","","","","","","","","","",""
"","ITI","","html-keyboard-response","450","430879","0.0-1.0-621.0","0","0","34952","","null","","","null","68","","","","","","","","","","","","","","","NaN",""
"","S1","","html-keyboard-response","451","431134","0.0-1.0-623.0","0","0","34952","","null","","","null","69","","","","","","","","","","","","","","","",""
"","ISI","","html-keyboard-response","452","431289","0.0-1.0-624.0","0","0","34952","","null","","","null","69","NaN","","","","","","","","","","","","","","",""
"","S2","","html-keyboard-response","453","431543","0.0-1.0-625.0","0","0","34952","","null","","","null","69","","NaN","","","","","","","","","","","","","",""
"","response","","html-keyboard-response","454","431661","0.0-1.0-626.0-0.0","0","0","34952","","117","","","68","69","","","2","69","training","adjacent","CD","3","4","N.jpg","Q.jpg","1","1","1","",""
"","feedback","","html-keyboard-response","455","432671","0.0-1.0-627.0-0.0","0","0","34952","","null","","","null","69","","","","","","","","","","","","","","","",""
"","ITI","","html-keyboard-response","456","433677","0.0-1.0-630.0","0","0","34952","","null","","","null","69","","","","","","","","","","","","","","","NaN",""
"","S1","","html-keyboard-response","457","433933","0.0-1.0-632.0","0","0","34952","","null","","","null","70","","","","","","","","","","","","","","","",""
"","ISI","","html-keyboard-response","458","434088","0.0-1.0-633.0","0","0","34952","","null","","","null","70","NaN","","","","","","","","","","","","","","",""
"","S2","","html-keyboard-response","459","434343","0.0-1.0-634.0","0","0","34952","","null","","","null","70","","NaN","","","","","","","","","","","","","",""
"","response","","html-keyboard-response","460","434510","0.0-1.0-635.0-0.0","0","0","34952","","162","","","68","70","","","2","70","training","adjacent","BC","2","3","R.jpg","N.jpg","1","1","1","",""
"","feedback","","html-keyboard-response","461","435516","0.0-1.0-636.0-0.0","0","0","34952","","null","","","null","70","","","","","","","","","","","","","","","",""
"","ITI","","html-keyboard-response","462","436520","0.0-1.0-639.0","0","0","34952","","null","","","null","70","","","","","","","","","","","","","","","NaN",""
"","S1","","html-keyboard-response","463","436776","0.0-1.0-641.0","0","0","34952","","null","","","null","71","","","","","","","","","","","","","","","",""
"","ISI","","html-keyboard-response","464","436930","0.0-1.0-642.0","0","0","34952","","null","","","null","71","NaN","","","","","","","","","","","","","","",""
"","S2","","html-keyboard-response","465","437187","0.0-1.0-643.0","0","0","34952","","null","","","null","71","","NaN","","","","","","","","","","","","","",""
"","response","","html-keyboard-response","466","437311","0.0-1.0-644.0-0.0","0","0","34952","","120","","","75","71","","","2","71","training","adjacent","DE","4","5","Q.jpg","P.jpg","0","1","0","",""
"","feedback","","html-keyboard-response","467","438319","0.0-1.0-645.0-0.0","0","0","34952","","null","","","null","71","","","","","","","","","","","","","","","",""
"","time_out","","html-keyboard-response","468","440324","0.0-1.0-647.0-0.0","0","0","34952","","null","","","null","71","","","","","","","","","","","","","","","",""
"","ITI","","html-keyboard-response","469","441330","0.0-1.0-648.0","0","0","34952","","null","","","null","71","","","","","","","","","","","","","","","NaN",""
"","S1","","html-keyboard-response","470","441584","0.0-1.0-650.0","0","0","34952","","null","","","null","72","","","","","","","","","","","","","","","",""
"","ISI","","html-keyboard-response","471","441737","0.0-1.0-651.0","0","0","34952","","null","","","null","72","NaN","","","","","","","","","","","","","","",""
"","S2","","html-keyboard-response","472","441992","0.0-1.0-652.0","0","0","34952","","null","","","null","72","","NaN","","","","","","","","","","","","","",""
"","response","","html-keyboard-response","473","442115","0.0-1.0-653.0-0.0","0","0","34952","","117","","","75","72","","","2","72","training","adjacent","BA","2","1","R.jpg","M.jpg","0","0","1","",""
"","feedback","","html-keyboard-response","474","443121","0.0-1.0-654.0-0.0","0","0","34952","","null","","","null","72","","","","","","","","","","","","","","","",""
"","ITI","","html-keyboard-response","475","444127","0.0-1.0-657.0","0","0","34952","","null","","","null","72","","","","","","","","","","","","","","","NaN",""
"","S1","","html-keyboard-response","476","444382","0.0-1.0-659.0","0","0","34952","","null","","","null","73","","","","","","","","","","","","","","","",""
"","ISI","","html-keyboard-response","477","444537","0.0-1.0-660.0","0","0","34952","","null","","","null","73","NaN","","","","","","","","","","","","","","",""
"","S2","","html-keyboard-response","478","444808","0.0-1.0-661.0","0","0","34952","","null","","","null","73","","NaN","","","","","","","","","","","","","",""
"","response","","html-keyboard-response","479","445016","0.0-1.0-662.0-0.0","0","0","34952","","205","","","68","73","","","2","73","training","adjacent","CD","3","4","N.jpg","Q.jpg","1","1","1","",""
"","feedback","","html-keyboard-response","480","446021","0.0-1.0-663.0-0.0","0","0","34952","","null","","","null","73","","","","","","","","","","","","","","","",""
"","ITI","","html-keyboard-response","481","447026","0.0-1.0-666.0","0","0","34952","","null","","","null","73","","","","","","","","","","","","","","","NaN",""
"","S1","","html-keyboard-response","482","447281","0.0-1.0-668.0","0","0","34952","","null","","","null","74","","","","","","","","","","","","","","","",""
"","ISI","","html-keyboard-response","483","447436","0.0-1.0-669.0","0","0","34952","","null","","","null","74","NaN","","","","","","","","","","","","","","",""
"","S2","","html-keyboard-response","484","447691","0.0-1.0-670.0","0","0","34952","","null","","","null","74","","NaN","","","","","","","","","","","","","",""
"","response","","html-keyboard-response","485","447869","0.0-1.0-671.0-0.0","0","0","34952","","173","","","68","74","","","2","74","training","adjacent","DE","4","5","Q.jpg","P.jpg","1","1","1","",""
"","feedback","","html-keyboard-response","486","448887","0.0-1.0-672.0-0.0","0","0","34952","","null","","","null","74","","","","","","","","","","","","","","","",""
"","ITI","","html-keyboard-response","487","449891","0.0-1.0-675.0","0","0","34952","","null","","","null","74","","","","","","","","","","","","","","","NaN",""
"","S1","","html-keyboard-response","488","450145","0.0-1.0-677.0","0","0","34952","","null","","","null","75","","","","","","","","","","","","","","","",""
"","ISI","","html-keyboard-response","489","450300","0.0-1.0-678.0","0","0","34952","","null","","","null","75","NaN","","","","","","","","","","","","","","",""
"","S2","","html-keyboard-response","490","450526","0.0-1.0-679.0","0","0","34952","","221","","","68","75","","d","2","75","training","adjacent","DE","4","5","Q.jpg","P.jpg","1","1","1","",""
"","feedback","","html-keyboard-response","491","451531","0.0-1.0-681.0-0.0","0","0","34952","","null","","","null","75","","","","","","","","","","","","","","","",""
"","ITI","","html-keyboard-response","492","452537","0.0-1.0-684.0","0","0","34952","","null","","","null","75","","","","","","","","","","","","","","","NaN",""
"","S1","","html-keyboard-response","493","452805","0.0-1.0-686.0","0","0","34952","","null","","","null","76","","","","","","","","","","","","","","","",""
"","ISI","","html-keyboard-response","494","452958","0.0-1.0-687.0","0","0","34952","","null","","","null","76","NaN","","","","","","","","","","","","","","",""
"","S2","","html-keyboard-response","495","453224","0.0-1.0-688.0","0","0","34952","","null","","","null","76","","NaN","","","","","","","","","","","","","",""
"","response","","html-keyboard-response","496","453330","0.0-1.0-689.0-0.0","0","0","34952","","102","","","75","76","","","2","76","training","adjacent","FG","6","7","O.jpg","L.jpg","0","1","0","",""
"","feedback","","html-keyboard-response","497","454336","0.0-1.0-690.0-0.0","0","0","34952","","null","","","null","76","","","","","","","","","","","","","","","",""
"","time_out","","html-keyboard-response","498","456342","0.0-1.0-692.0-0.0","0","0","34952","","null","","","null","76","","","","","","","","","","","","","","","",""
"","ITI","","html-keyboard-response","499","457346","0.0-1.0-693.0","0","0","34952","","null","","","null","76","","","","","","","","","","","","","","","NaN",""
"","S1","","html-keyboard-response","500","457602","0.0-1.0-695.0","0","0","34952","","null","","","null","77","","","","","","","","","","","","","","","",""
"","ISI","","html-keyboard-response","501","457757","0.0-1.0-696.0","0","0","34952","","null","","","null","77","NaN","","","","","","","","","","","","","","",""
"","S2","","html-keyboard-response","502","458013","0.0-1.0-697.0","0","0","34952","","null","","","null","77","","NaN","","","","","","","","","","","","","",""
"","response","","html-keyboard-response","503","458208","0.0-1.0-698.0-0.0","0","0","34952","","191","","","68","77","","","2","77","training","adjacent","CD","3","4","N.jpg","Q.jpg","1","1","1","",""
"","feedback","","html-keyboard-response","504","459214","0.0-1.0-699.0-0.0","0","0","34952","","null","","","null","77","","","","","","","","","","","","","","","",""
"","ITI","","html-keyboard-response","505","460219","0.0-1.0-702.0","0","0","34952","","null","","","null","77","","","","","","","","","","","","","","","NaN",""
"","S1","","html-keyboard-response","506","460474","0.0-1.0-704.0","0","0","34952","","null","","","null","78","","","","","","","","","","","","","","","",""
"","ISI","","html-keyboard-response","507","460628","0.0-1.0-705.0","0","0","34952","","null","","","null","78","NaN","","","","","","","","","","","","","","",""
"","S2","","html-keyboard-response","508","460883","0.0-1.0-706.0","0","0","34952","","null","","","null","78","","NaN","","","","","","","","","","","","","",""
"","response","","html-keyboard-response","509","461177","0.0-1.0-707.0-0.0","0","0","34952","","290","","","68","78","","","2","78","training","adjacent","BC","2","3","R.jpg","N.jpg","1","1","1","",""
"","feedback","","html-keyboard-response","510","462183","0.0-1.0-708.0-0.0","0","0","34952","","null","","","null","78","","","","","","","","","","","","","","","",""
"","ITI","","html-keyboard-response","511","463188","0.0-1.0-711.0","0","0","34952","","null","","","null","78","","","","","","","","","","","","","","","NaN",""
"","S1","","html-keyboard-response","512","463444","0.0-1.0-713.0","0","0","34952","","null","","","null","79","","","","","","","","","","","","","","","",""
"","ISI","","html-keyboard-response","513","463603","0.0-1.0-714.0","0","0","34952","","null","","","null","79","NaN","","","","","","","","","","","","","","",""
"","S2","","html-keyboard-response","514","463857","0.0-1.0-715.0","0","0","34952","","null","","","null","79","","NaN","","","","","","","","","","","","","",""
"","response","","html-keyboard-response","515","463966","0.0-1.0-716.0-0.0","0","0","34952","","104","","","75","79","","","2","79","training","adjacent","EF","5","6","P.jpg","O.jpg","0","1","0","",""
"","feedback","","html-keyboard-response","516","464971","0.0-1.0-717.0-0.0","0","0","34952","","null","","","null","79","","","","","","","","","","","","","","","",""
"","time_out","","html-keyboard-response","517","466977","0.0-1.0-719.0-0.0","0","0","34952","","null","","","null","79","","","","","","","","","","","","","","","",""
"","ITI","","html-keyboard-response","518","467979","0.0-1.0-720.0","0","0","34952","","null","","","null","79","","","","","","","","","","","","","","","NaN",""
"","S1","","html-keyboard-response","519","468234","0.0-1.0-722.0","0","0","34952","","null","","","null","80","","","","","","","","","","","","","","","",""
"","ISI","","html-keyboard-response","520","468389","0.0-1.0-723.0","0","0","34952","","null","","","null","80","NaN","","","","","","","","","","","","","","",""
"","S2","","html-keyboard-response","521","468643","0.0-1.0-724.0","0","0","34952","","null","","","null","80","","NaN","","","","","","","","","","","","","",""
"","response","","html-keyboard-response","522","468780","0.0-1.0-725.0-0.0","0","0","34952","","134","","","75","80","","","2","80","training","adjacent","BA","2","1","R.jpg","M.jpg","0","0","1","",""
"","feedback","","html-keyboard-response","523","469786","0.0-1.0-726.0-0.0","0","0","34952","","null","","","null","80","","","","","","","","","","","","","","","",""
"","ITI","","html-keyboard-response","524","470792","0.0-1.0-729.0","0","0","34952","","null","","","null","80","","","","","","","","","","","","","","","NaN",""
"","S1","","html-keyboard-response","525","471047","0.0-1.0-731.0","0","0","34952","","null","","","null","81","","","","","","","","","","","","","","","",""
"","ISI","","html-keyboard-response","526","471206","0.0-1.0-732.0","0","0","34952","","null","","","null","81","NaN","","","","","","","","","","","","","","",""
"","S2","","html-keyboard-response","527","471460","0.0-1.0-733.0","0","0","34952","","null","","","null","81","","NaN","","","","","","","","","","","","","",""
"","response","","html-keyboard-response","528","471559","0.0-1.0-734.0-0.0","0","0","34952","","94","","","75","81","","","2","81","training","adjacent","FG","6","7","O.jpg","L.jpg","0","1","0","",""
"","feedback","","html-keyboard-response","529","472564","0.0-1.0-735.0-0.0","0","0","34952","","null","","","null","81","","","","","","","","","","","","","","","",""
"","time_out","","html-keyboard-response","530","474568","0.0-1.0-737.0-0.0","0","0","34952","","null","","","null","81","","","","","","","","","","","","","","","",""
"","ITI","","html-keyboard-response","531","475573","0.0-1.0-738.0","0","0","34952","","null","","","null","81","","","","","","","","","","","","","","","NaN",""
"","S1","","html-keyboard-response","532","475828","0.0-1.0-740.0","0","0","34952","","null","","","null","82","","","","","","","","","","","","","","","",""
"","ISI","","html-keyboard-response","533","475982","0.0-1.0-741.0","0","0","34952","","null","","","null","82","NaN","","","","","","","","","","","","","","",""
"","S2","","html-keyboard-response","534","476238","0.0-1.0-742.0","0","0","34952","","null","","","null","82","","NaN","","","","","","","","","","","","","",""
"","response","","html-keyboard-response","535","476409","0.0-1.0-743.0-0.0","0","0","34952","","167","","","68","82","","","2","82","training","adjacent","AB","1","2","M.jpg","R.jpg","1","1","1","",""
"","feedback","","html-keyboard-response","536","477428","0.0-1.0-744.0-0.0","0","0","34952","","null","","","null","82","","","","","","","","","","","","","","","",""
"","ITI","","html-keyboard-response","537","478433","0.0-1.0-747.0","0","0","34952","","null","","","null","82","","","","","","","","","","","","","","","NaN",""
"","S1","","html-keyboard-response","538","478689","0.0-1.0-749.0","0","0","34952","","null","","","null","83","","","","","","","","","","","","","","","",""
"","ISI","","html-keyboard-response","539","478843","0.0-1.0-750.0","0","0","34952","","null","","","null","83","NaN","","","","","","","","","","","","","","",""
"","S2","","html-keyboard-response","540","479098","0.0-1.0-751.0","0","0","34952","","null","","","null","83","","NaN","","","","","","","","","","","","","",""
"","response","","html-keyboard-response","541","479327","0.0-1.0-752.0-0.0","0","0","34952","","226","","","75","83","","","2","83","training","adjacent","DE","4","5","Q.jpg","P.jpg","0","1","0","",""
"","feedback","","html-keyboard-response","542","480333","0.0-1.0-753.0-0.0","0","0","34952","","null","","","null","83","","","","","","","","","","","","","","","",""
"","time_out","","html-keyboard-response","543","482339","0.0-1.0-755.0-0.0","0","0","34952","","null","","","null","83","","","","","","","","","","","","","","","",""
"","ITI","","html-keyboard-response","544","483344","0.0-1.0-756.0","0","0","34952","","null","","","null","83","","","","","","","","","","","","","","","NaN",""
"","S1","","html-keyboard-response","545","483599","0.0-1.0-758.0","0","0","34952","","null","","","null","84","","","","","","","","","","","","","","","",""
"","ISI","","html-keyboard-response","546","483754","0.0-1.0-759.0","0","0","34952","","null","","","null","84","NaN","","","","","","","","","","","","","","",""
"","S2","","html-keyboard-response","547","484009","0.0-1.0-760.0","0","0","34952","","null","","","null","84","","NaN","","","","","","","","","","","","","",""
"","response","","html-keyboard-response","548","484081","0.0-1.0-761.0-0.0","0","0","34952","","68","","","68","84","","","2","84","training","adjacent","AB","1","2","M.jpg","R.jpg","1","1","1","",""
"","feedback","","html-keyboard-response","549","485086","0.0-1.0-762.0-0.0","0","0","34952","","null","","","null","84","","","","","","","","","","","","","","","",""
"","ITI","","html-keyboard-response","550","486093","0.0-1.0-765.0","0","0","34952","","null","","","null","84","","","","","","","","","","","","","","","NaN",""
"","S1","","html-keyboard-response","551","486348","0.0-1.0-767.0","0","0","34952","","null","","","null","85","","","","","","","","","","","","","","","",""
"","ISI","","html-keyboard-response","552","486502","0.0-1.0-768.0","0","0","34952","","null","","","null","85","NaN","","","","","","","","","","","","","","",""
"","S2","","html-keyboard-response","553","486756","0.0-1.0-769.0","0","0","34952","","null","","","null","85","","NaN","","","","","","","","","","","","","",""
"","response","","html-keyboard-response","554","487115","0.0-1.0-770.0-0.0","0","0","34952","","355","","","68","85","","","2","85","training","adjacent","FE","6","5","O.jpg","P.jpg","1","0","0","",""
"","feedback","","html-keyboard-response","555","488120","0.0-1.0-771.0-0.0","0","0","34952","","null","","","null","85","","","","","","","","","","","","","","","",""
"","time_out","","html-keyboard-response","556","490127","0.0-1.0-773.0-0.0","0","0","34952","","null","","","null","85","","","","","","","","","","","","","","","",""
"","ITI","","html-keyboard-response","557","491133","0.0-1.0-774.0","0","0","34952","","null","","","null","85","","","","","","","","","","","","","","","NaN",""
"","S1","","html-keyboard-response","558","491388","0.0-1.0-776.0","0","0","34952","","null","","","null","86","","","","","","","","","","","","","","","",""
"","ISI","","html-keyboard-response","559","491543","0.0-1.0-777.0","0","0","34952","","null","","","null","86","NaN","","","","","","","","","","","","","","",""
"","S2","","html-keyboard-response","560","491798","0.0-1.0-778.0","0","0","34952","","null","","","null","86","","NaN","","","","","","","","","","","","","",""
"","response","","html-keyboard-response","561","491901","0.0-1.0-779.0-0.0","0","0","34952","","99","","","75","86","","","2","86","training","adjacent","CB","3","2","N.jpg","R.jpg","0","0","1","",""
"","feedback","","html-keyboard-response","562","492905","0.0-1.0-780.0-0.0","0","0","34952","","null","","","null","86","","","","","","","","","","","","","","","",""
"","ITI","","html-keyboard-response","563","493906","0.0-1.0-783.0","0","0","34952","","null","","","null","86","","","","","","","","","","","","","","","NaN",""
"","S1","","html-keyboard-response","564","494170","0.0-1.0-785.0","0","0","34952","","null","","","null","87","","","","","","","","","","","","","","","",""
"","ISI","","html-keyboard-response","565","494324","0.0-1.0-786.0","0","0","34952","","null","","","null","87","NaN","","","","","","","","","","","","","","",""
"","S2","","html-keyboard-response","566","494579","0.0-1.0-787.0","0","0","34952","","null","","","null","87","","NaN","","","","","","","","","","","","","",""
"","response","","html-keyboard-response","567","494644","0.0-1.0-788.0-0.0","0","0","34952","","62","","","75","87","","","2","87","training","adjacent","ED","5","4","P.jpg","Q.jpg","0","0","1","",""
"","feedback","","html-keyboard-response","568","495650","0.0-1.0-789.0-0.0","0","0","34952","","null","","","null","87","","","","","","","","","","","","","","","",""
"","ITI","","html-keyboard-response","569","496654","0.0-1.0-792.0","0","0","34952","","null","","","null","87","","","","","","","","","","","","","","","NaN",""
"","S1","","html-keyboard-response","570","496909","0.0-1.0-794.0","0","0","34952","","null","","","null","88","","","","","","","","","","","","","","","",""
"","ISI","","html-keyboard-response","571","497063","0.0-1.0-795.0","0","0","34952","","null","","","null","88","NaN","","","","","","","","","","","","","","",""
"","S2","","html-keyboard-response","572","497291","0.0-1.0-796.0","0","0","34952","","223","","","75","88","","k","2","88","training","adjacent","GF","7","6","L.jpg","O.jpg","0","0","1","",""
"","feedback","","html-keyboard-response","573","498296","0.0-1.0-798.0-0.0","0","0","34952","","null","","","null","88","","","","","","","","","","","","","","","",""
"","ITI","","html-keyboard-response","574","499301","0.0-1.0-801.0","0","0","34952","","null","","","null","88","","","","","","","","","","","","","","","NaN",""
"","S1","","html-keyboard-response","575","499557","0.0-1.0-803.0","0","0","34952","","null","","","null","89","","","","","","","","","","","","","","","",""
"","ISI","","html-keyboard-response","576","499713","0.0-1.0-804.0","0","0","34952","","null","","","null","89","NaN","","","","","","","","","","","","","","",""
"","S2","","html-keyboard-response","577","499966","0.0-1.0-805.0","0","0","34952","","null","","","null","89","","NaN","","","","","","","","","","","","","",""
"","response","","html-keyboard-response","578","500060","0.0-1.0-806.0-0.0","0","0","34952","","90","","","68","89","","","2","89","training","adjacent","CD","3","4","N.jpg","Q.jpg","1","1","1","",""
"","feedback","","html-keyboard-response","579","501066","0.0-1.0-807.0-0.0","0","0","34952","","null","","","null","89","","","","","","","","","","","","","","","",""
"","ITI","","html-keyboard-response","580","502071","0.0-1.0-810.0","0","0","34952","","null","","","null","89","","","","","","","","","","","","","","","NaN",""
"","S1","","html-keyboard-response","581","502326","0.0-1.0-812.0","0","0","34952","","null","","","null","90","","","","","","","","","","","","","","","",""
