"success","ttype","start_time","trial_type","trial_index","time_elapsed","internal_node_id","warning","missed_checkup","PID","view_history","rt","responses","repeat_instructions","key_press","index","keypress_isi","keypress_S2","block","trial_num","phase","group_type","pair_type","S1_stim","S2_stim","S1_img","S2_img","S1_chosen","S1_higher","accuracy","keypress_iti","total_bonus_tally"
"true","full_screen","d08012022hr1623","fullscreen","0","10354","0.0-0.0","0","0","40410","","","","","","","","","","","","","","","","","","","","","",""
"","instructions","","instructions","1","55666","0.0-1.0-0.0-0.0","0","0","40410","[{""page_index"":0,""viewing_time"":3905},{""page_index"":1,""viewing_time"":32145},{""page_index"":2,""viewing_time"":7991},{""page_index"":3,""viewing_time"":1264}]","45306","","","","","","","","","","","","","","","","","","","",""
"","comprehension_check","","survey-multi-choice","2","71667","0.0-1.0-0.0-1.0","0","0","40410","","15992","{""Q0"":""True"",""Q1"":""D"",""Q2"":""When you see the prompt 'MAKE A CHOICE' after the second image was presented"",""Q3"":""Green mark"",""Q4"":""either D or K""}","0","","","","","","","","","","","","","","","","","",""
"","start_exp","","html-keyboard-response","3","73112","0.0-1.0-1.0","0","0","40410","","1440","","","32","","","","","","","","","","","","","","","","",""
"","S1","","html-keyboard-response","4","73367","0.0-1.0-2.0","0","0","40410","","null","","","null","0","","","","","","","","","","","","","","","",""
"","ISI","","html-keyboard-response","5","75370","0.0-1.0-3.0","0","0","40410","","null","","","null","0","NaN","","","","","","","","","","","","","","",""
"","S2","","html-keyboard-response","6","75623","0.0-1.0-4.0","0","0","40410","","null","","","null","0","","NaN","","","","","","","","","","","","","",""
"","response","","html-keyboard-response","7","76968","0.0-1.0-5.0","0","0","40410","","1342","","","75","0","","","1","0","training","adjacent","CB","3","2","R.jpg","M.jpg","0","0","1","",""
"","feedback","","html-keyboard-response","8","77971","0.0-1.0-6.0-0.0","0","0","40410","","null","","","null","0","","","","","","","","","","","","","","","",""
"","ITI","","html-keyboard-response","9","78973","0.0-1.0-9.0","0","0","40410","","null","","","null","0","","","","","","","","","","","","","","","NaN",""
"","S1","","html-keyboard-response","10","79226","0.0-1.0-11.0","0","0","40410","","null","","","null","1","","","","","","","","","","","","","","","",""
"","ISI","","html-keyboard-response","11","81227","0.0-1.0-12.0","0","0","40410","","null","","","null","1","NaN","","","","","","","","","","","","","","",""
"","S2","","html-keyboard-response","12","81480","0.0-1.0-13.0","0","0","40410","","null","","","null","1","","NaN","","","","","","","","","","","","","",""
"","response","","html-keyboard-response","13","82144","0.0-1.0-14.0","0","0","40410","","662","","","75","1","","","1","1","training","adjacent","FE","6","5","Q.jpg","P.jpg","0","0","1","",""
"","feedback","","html-keyboard-response","14","83147","0.0-1.0-15.0-0.0","0","0","40410","","null","","","null","1","","","","","","","","","","","","","","","",""
"","ITI","","html-keyboard-response","15","84148","0.0-1.0-18.0","0","0","40410","","null","","","null","1","","","","","","","","","","","","","","","NaN",""
"","S1","","html-keyboard-response","16","84403","0.0-1.0-20.0","0","0","40410","","null","","","null","2","","","","","","","","","","","","","","","",""
"","ISI","","html-keyboard-response","17","86405","0.0-1.0-21.0","0","0","40410","","null","","","null","2","NaN","","","","","","","","","","","","","","",""
"","S2","","html-keyboard-response","18","86658","0.0-1.0-22.0","0","0","40410","","null","","","null","2","","NaN","","","","","","","","","","","","","",""
"","response","","html-keyboard-response","19","87160","0.0-1.0-23.0","0","0","40410","","499","","","75","2","","","1","2","training","adjacent","DE","4","5","L.jpg","P.jpg","0","1","0","",""
"","feedback","","html-keyboard-response","20","88161","0.0-1.0-24.0-0.0","0","0","40410","","null","","","null","2","","","","","","","","","","","","","","","",""
"","time_out","","html-keyboard-response","21","90163","0.0-1.0-26.0-0.0","0","0","40410","","null","","","null","2","","","","","","","","","","","","","","","",""
"","ITI","","html-keyboard-response","22","91166","0.0-1.0-27.0","0","0","40410","","null","","","null","2","","","","","","","","","","","","","","","NaN",""
"","S1","","html-keyboard-response","23","91419","0.0-1.0-29.0","0","0","40410","","null","","","null","3","","","","","","","","","","","","","","","",""
"","ISI","","html-keyboard-response","24","93422","0.0-1.0-30.0","0","0","40410","","null","","","null","3","NaN","","","","","","","","","","","","","","",""
"","S2","","html-keyboard-response","25","93675","0.0-1.0-31.0","0","0","40410","","null","","","null","3","","NaN","","","","","","","","","","","","","",""
"","response","","html-keyboard-response","26","94256","0.0-1.0-32.0","0","0","40410","","578","","","75","3","","","1","3","training","adjacent","FE","6","5","Q.jpg","P.jpg","0","0","1","",""
"","feedback","","html-keyboard-response","27","95258","0.0-1.0-33.0-0.0","0","0","40410","","null","","","null","3","","","","","","","","","","","","","","","",""
"","ITI","","html-keyboard-response","28","96260","0.0-1.0-36.0","0","0","40410","","null","","","null","3","","","","","","","","","","","","","","","NaN",""
"","S1","","html-keyboard-response","29","96513","0.0-1.0-38.0","0","0","40410","","null","","","null","4","","","","","","","","","","","","","","","",""
"","ISI","","html-keyboard-response","30","98558","0.0-1.0-39.0","0","0","40410","","null","","","null","4","NaN","","","","","","","","","","","","","","",""
"","S2","","html-keyboard-response","31","98810","0.0-1.0-40.0","0","0","40410","","null","","","null","4","","NaN","","","","","","","","","","","","","",""
"","response","","html-keyboard-response","32","99176","0.0-1.0-41.0","0","0","40410","","363","","","68","4","","","1","4","training","adjacent","GF","7","6","N.jpg","Q.jpg","1","0","0","",""
"","feedback","","html-keyboard-response","33","100179","0.0-1.0-42.0-0.0","0","0","40410","","null","","","null","4","","","","","","","","","","","","","","","",""
"","time_out","","html-keyboard-response","34","102186","0.0-1.0-44.0-0.0","0","0","40410","","null","","","null","4","","","","","","","","","","","","","","","",""
"","ITI","","html-keyboard-response","35","103189","0.0-1.0-45.0","0","0","40410","","null","","","null","4","","","","","","","","","","","","","","","NaN",""
"","S1","","html-keyboard-response","36","103441","0.0-1.0-47.0","0","0","40410","","null","","","null","5","","","","","","","","","","","","","","","",""
"","ISI","","html-keyboard-response","37","105443","0.0-1.0-48.0","0","0","40410","","null","","","null","5","NaN","","","","","","","","","","","","","","",""
"","S2","","html-keyboard-response","38","105694","0.0-1.0-49.0","0","0","40410","","null","","","null","5","","NaN","","","","","","","","","","","","","",""
"","response","","html-keyboard-response","39","106015","0.0-1.0-50.0","0","0","40410","","318","","","75","5","","","1","5","training","adjacent","BA","2","1","M.jpg","O.jpg","0","0","1","",""
"","feedback","","html-keyboard-response","40","107017","0.0-1.0-51.0-0.0","0","0","40410","","null","","","null","5","","","","","","","","","","","","","","","",""
"","ITI","","html-keyboard-response","41","108018","0.0-1.0-54.0","0","0","40410","","null","","","null","5","","","","","","","","","","","","","","","NaN",""
"","S1","","html-keyboard-response","42","108293","0.0-1.0-56.0","0","0","40410","","null","","","null","6","","","","","","","","","","","","","","","",""
"","ISI","","html-keyboard-response","43","110296","0.0-1.0-57.0","0","0","40410","","null","","","null","6","NaN","","","","","","","","","","","","","","",""
"","S2","","html-keyboard-response","44","110548","0.0-1.0-58.0","0","0","40410","","null","","","null","6","","NaN","","","","","","","","","","","","","",""
"","response","","html-keyboard-response","45","111503","0.0-1.0-59.0","0","0","40410","","952","","","75","6","","","1","6","training","adjacent","DC","4","3","L.jpg","R.jpg","0","0","1","",""
"","feedback","","html-keyboard-response","46","112587","0.0-1.0-60.0-0.0","0","0","40410","","null","","","null","6","","","","","","","","","","","","","","","",""
"","ITI","","html-keyboard-response","47","113589","0.0-1.0-63.0","0","0","40410","","null","","","null","6","","","","","","","","","","","","","","","NaN",""
"","S1","","html-keyboard-response","48","113841","0.0-1.0-65.0","0","0","40410","","null","","","null","7","","","","","","","","","","","","","","","",""
"","ISI","","html-keyboard-response","49","115843","0.0-1.0-66.0","0","0","40410","","null","","","null","7","NaN","","","","","","","","","","","","","","",""
"","S2","","html-keyboard-response","50","116096","0.0-1.0-67.0","0","0","40410","","null","","","null","7","","NaN","","","","","","","","","","","","","",""
"","response","","html-keyboard-response","51","116406","0.0-1.0-68.0","0","0","40410","","308","","","68","7","","","1","7","training","adjacent","AB","1","2","O.jpg","M.jpg","1","1","1","",""
"","feedback","","html-keyboard-response","52","117408","0.0-1.0-69.0-0.0","0","0","40410","","null","","","null","7","","","","","","","","","","","","","","","",""
"","ITI","","html-keyboard-response","53","118411","0.0-1.0-72.0","0","0","40410","","null","","","null","7","","","","","","","","","","","","","","","NaN",""
"","S1","","html-keyboard-response","54","118663","0.0-1.0-74.0","0","0","40410","","null","","","null","8","","","","","","","","","","","","","","","",""
"","ISI","","html-keyboard-response","55","120666","0.0-1.0-75.0","0","0","40410","","null","","","null","8","NaN","","","","","","","","","","","","","","",""
"","S2","","html-keyboard-response","56","120918","0.0-1.0-76.0","0","0","40410","","null","","","null","8","","NaN","","","","","","","","","","","","","",""
"","response","","html-keyboard-response","57","121324","0.0-1.0-77.0","0","0","40410","","402","","","75","8","","","1","8","training","adjacent","BA","2","1","M.jpg","O.jpg","0","0","1","",""
"","feedback","","html-keyboard-response","58","122326","0.0-1.0-78.0-0.0","0","0","40410","","null","","","null","8","","","","","","","","","","","","","","","",""
"","ITI","","html-keyboard-response","59","123328","0.0-1.0-81.0","0","0","40410","","null","","","null","8","","","","","","","","","","","","","","","NaN",""
"","S1","","html-keyboard-response","60","123580","0.0-1.0-83.0","0","0","40410","","null","","","null","9","","","","","","","","","","","","","","","",""
"","ISI","","html-keyboard-response","61","125582","0.0-1.0-84.0","0","0","40410","","null","","","null","9","NaN","","","","","","","","","","","","","","",""
"","S2","","html-keyboard-response","62","125834","0.0-1.0-85.0","0","0","40410","","null","","","null","9","","NaN","","","","","","","","","","","","","",""
"","response","","html-keyboard-response","63","126471","0.0-1.0-86.0","0","0","40410","","634","","","68","9","","","1","9","training","adjacent","CD","3","4","R.jpg","L.jpg","1","1","1","",""
"","feedback","","html-keyboard-response","64","127473","0.0-1.0-87.0-0.0","0","0","40410","","null","","","null","9","","","","","","","","","","","","","","","",""
"","ITI","","html-keyboard-response","65","128513","0.0-1.0-90.0","0","0","40410","","null","","","null","9","","","","","","","","","","","","","","","NaN",""
"","S1","","html-keyboard-response","66","128766","0.0-1.0-92.0","0","0","40410","","null","","","null","10","","","","","","","","","","","","","","","",""
"","ISI","","html-keyboard-response","67","130768","0.0-1.0-93.0","0","0","40410","","null","","","null","10","NaN","","","","","","","","","","","","","","",""
"","S2","","html-keyboard-response","68","131020","0.0-1.0-94.0","0","0","40410","","null","","","null","10","","NaN","","","","","","","","","","","","","",""
"","response","","html-keyboard-response","69","131446","0.0-1.0-95.0","0","0","40410","","423","","","75","10","","","1","10","training","adjacent","FG","6","7","Q.jpg","N.jpg","0","1","0","",""
"","feedback","","html-keyboard-response","70","132449","0.0-1.0-96.0-0.0","0","0","40410","","null","","","null","10","","","","","","","","","","","","","","","",""
"","time_out","","html-keyboard-response","71","134454","0.0-1.0-98.0-0.0","0","0","40410","","null","","","null","10","","","","","","","","","","","","","","","",""
"","ITI","","html-keyboard-response","72","135456","0.0-1.0-99.0","0","0","40410","","null","","","null","10","","","","","","","","","","","","","","","NaN",""
"","S1","","html-keyboard-response","73","135708","0.0-1.0-101.0","0","0","40410","","null","","","null","11","","","","","","","","","","","","","","","",""
"","ISI","","html-keyboard-response","74","137710","0.0-1.0-102.0","0","0","40410","","null","","","null","11","NaN","","","","","","","","","","","","","","",""
"","S2","","html-keyboard-response","75","137962","0.0-1.0-103.0","0","0","40410","","null","","","null","11","","NaN","","","","","","","","","","","","","",""
"","response","","html-keyboard-response","76","138423","0.0-1.0-104.0","0","0","40410","","458","","","75","11","","","1","11","training","adjacent","DE","4","5","L.jpg","P.jpg","0","1","0","",""
"","feedback","","html-keyboard-response","77","139426","0.0-1.0-105.0-0.0","0","0","40410","","null","","","null","11","","","","","","","","","","","","","","","",""
"","time_out","","html-keyboard-response","78","141428","0.0-1.0-107.0-0.0","0","0","40410","","null","","","null","11","","","","","","","","","","","","","","","",""
"","ITI","","html-keyboard-response","79","142432","0.0-1.0-108.0","0","0","40410","","null","","","null","11","","","","","","","","","","","","","","","NaN",""
"","S1","","html-keyboard-response","80","142686","0.0-1.0-110.0","0","0","40410","","null","","","null","12","","","","","","","","","","","","","","","",""
"","ISI","","html-keyboard-response","81","144689","0.0-1.0-111.0","0","0","40410","","null","","","null","12","NaN","","","","","","","","","","","","","","",""
"","S2","","html-keyboard-response","82","144940","0.0-1.0-112.0","0","0","40410","","null","","","null","12","","NaN","","","","","","","","","","","","","",""
"","response","","html-keyboard-response","83","145575","0.0-1.0-113.0","0","0","40410","","632","","","68","12","","","1","12","training","adjacent","AB","1","2","O.jpg","M.jpg","1","1","1","",""
"","feedback","","html-keyboard-response","84","146577","0.0-1.0-114.0-0.0","0","0","40410","","null","","","null","12","","","","","","","","","","","","","","","",""
"","ITI","","html-keyboard-response","85","147578","0.0-1.0-117.0","0","0","40410","","null","","","null","12","","","","","","","","","","","","","","","NaN",""
"","S1","","html-keyboard-response","86","147830","0.0-1.0-119.0","0","0","40410","","null","","","null","13","","","","","","","","","","","","","","","",""
"","ISI","","html-keyboard-response","87","149832","0.0-1.0-120.0","0","0","40410","","null","","","null","13","NaN","","","","","","","","","","","","","","",""
"","S2","","html-keyboard-response","88","150085","0.0-1.0-121.0","0","0","40410","","null","","","null","13","","NaN","","","","","","","","","","","","","",""
"","response","","html-keyboard-response","89","150966","0.0-1.0-122.0","0","0","40410","","878","","","68","13","","","1","13","training","adjacent","CD","3","4","R.jpg","L.jpg","1","1","1","",""
"","feedback","","html-keyboard-response","90","151968","0.0-1.0-123.0-0.0","0","0","40410","","null","","","null","13","","","","","","","","","","","","","","","",""
"","ITI","","html-keyboard-response","91","152970","0.0-1.0-126.0","0","0","40410","","null","","","null","13","","","","","","","","","","","","","","","NaN",""
"","S1","","html-keyboard-response","92","153222","0.0-1.0-128.0","0","0","40410","","null","","","null","14","","","","","","","","","","","","","","","",""
"","ISI","","html-keyboard-response","93","155224","0.0-1.0-129.0","0","0","40410","","null","","","null","14","NaN","","","","","","","","","","","","","","",""
"","S2","","html-keyboard-response","94","155477","0.0-1.0-130.0","0","0","40410","","null","","","null","14","","NaN","","","","","","","","","","","","","",""
"","response","","html-keyboard-response","95","155998","0.0-1.0-131.0","0","0","40410","","519","","","75","14","","","1","14","training","adjacent","BC","2","3","M.jpg","R.jpg","0","1","0","",""
"","feedback","","html-keyboard-response","96","157000","0.0-1.0-132.0-0.0","0","0","40410","","null","","","null","14","","","","","","","","","","","","","","","",""
"","time_out","","html-keyboard-response","97","159002","0.0-1.0-134.0-0.0","0","0","40410","","null","","","null","14","","","","","","","","","","","","","","","",""
"","ITI","","html-keyboard-response","98","160005","0.0-1.0-135.0","0","0","40410","","null","","","null","14","","","","","","","","","","","","","","","NaN",""
"","S1","","html-keyboard-response","99","160257","0.0-1.0-137.0","0","0","40410","","null","","","null","15","","","","","","","","","","","","","","","",""
"","ISI","","html-keyboard-response","100","162260","0.0-1.0-138.0","0","0","40410","","null","","","null","15","NaN","","","","","","","","","","","","","","",""
"","S2","","html-keyboard-response","101","162512","0.0-1.0-139.0","0","0","40410","","null","","","null","15","","NaN","","","","","","","","","","","","","",""
"","response","","html-keyboard-response","102","163071","0.0-1.0-140.0","0","0","40410","","556","","","68","15","","","1","15","training","adjacent","ED","5","4","P.jpg","L.jpg","1","0","0","",""
"","feedback","","html-keyboard-response","103","164073","0.0-1.0-141.0-0.0","0","0","40410","","null","","","null","15","","","","","","","","","","","","","","","",""
"","time_out","","html-keyboard-response","104","166075","0.0-1.0-143.0-0.0","0","0","40410","","null","","","null","15","","","","","","","","","","","","","","","",""
"","ITI","","html-keyboard-response","105","167077","0.0-1.0-144.0","0","0","40410","","null","","","null","15","","","","","","","","","","","","","","","NaN",""
"","S1","","html-keyboard-response","106","167330","0.0-1.0-146.0","0","0","40410","","null","","","null","16","","","","","","","","","","","","","","","",""
"","ISI","","html-keyboard-response","107","169331","0.0-1.0-147.0","0","0","40410","","null","","","null","16","NaN","","","","","","","","","","","","","","",""
"","S2","","html-keyboard-response","108","169583","0.0-1.0-148.0","0","0","40410","","null","","","null","16","","NaN","","","","","","","","","","","","","",""
"","response","","html-keyboard-response","109","170142","0.0-1.0-149.0","0","0","40410","","557","","","68","16","","","1","16","training","adjacent","CB","3","2","R.jpg","M.jpg","1","0","0","",""
"","feedback","","html-keyboard-response","110","171144","0.0-1.0-150.0-0.0","0","0","40410","","null","","","null","16","","","","","","","","","","","","","","","",""
"","time_out","","html-keyboard-response","111","173146","0.0-1.0-152.0-0.0","0","0","40410","","null","","","null","16","","","","","","","","","","","","","","","",""
"","ITI","","html-keyboard-response","112","174148","0.0-1.0-153.0","0","0","40410","","null","","","null","16","","","","","","","","","","","","","","","NaN",""
"","S1","","html-keyboard-response","113","174400","0.0-1.0-155.0","0","0","40410","","null","","","null","17","","","","","","","","","","","","","","","",""
"","ISI","","html-keyboard-response","114","176404","0.0-1.0-156.0","0","0","40410","","null","","","null","17","NaN","","","","","","","","","","","","","","",""
"","S2","","html-keyboard-response","115","176658","0.0-1.0-157.0","0","0","40410","","null","","","null","17","","NaN","","","","","","","","","","","","","",""
"","response","","html-keyboard-response","116","177287","0.0-1.0-158.0","0","0","40410","","626","","","75","17","","","1","17","training","adjacent","BA","2","1","M.jpg","O.jpg","0","0","1","",""
"","feedback","","html-keyboard-response","117","178289","0.0-1.0-159.0-0.0","0","0","40410","","null","","","null","17","","","","","","","","","","","","","","","",""
"","ITI","","html-keyboard-response","118","179291","0.0-1.0-162.0","0","0","40410","","null","","","null","17","","","","","","","","","","","","","","","NaN",""
"","S1","","html-keyboard-response","119","179543","0.0-1.0-164.0","0","0","40410","","null","","","null","18","","","","","","","","","","","","","","","",""
"","ISI","","html-keyboard-response","120","181545","0.0-1.0-165.0","0","0","40410","","null","","","null","18","NaN","","","","","","","","","","","","","","",""
"","S2","","html-keyboard-response","121","181798","0.0-1.0-166.0","0","0","40410","","null","","","null","18","","NaN","","","","","","","","","","","","","",""
"","response","","html-keyboard-response","122","183110","0.0-1.0-167.0","0","0","40410","","1311","","","68","18","","","1","18","training","adjacent","FE","6","5","Q.jpg","P.jpg","1","0","0","",""
"","feedback","","html-keyboard-response","123","184113","0.0-1.0-168.0-0.0","0","0","40410","","null","","","null","18","","","","","","","","","","","","","","","",""
"","time_out","","html-keyboard-response","124","186116","0.0-1.0-170.0-0.0","0","0","40410","","null","","","null","18","","","","","","","","","","","","","","","",""
"","ITI","","html-keyboard-response","125","187119","0.0-1.0-171.0","0","0","40410","","null","","","null","18","","","","","","","","","","","","","","","NaN",""
"","S1","","html-keyboard-response","126","187370","0.0-1.0-173.0","0","0","40410","","null","","","null","19","","","","","","","","","","","","","","","",""
"","ISI","","html-keyboard-response","127","189373","0.0-1.0-174.0","0","0","40410","","null","","","null","19","NaN","","","","","","","","","","","","","","",""
"","S2","","html-keyboard-response","128","189626","0.0-1.0-175.0","0","0","40410","","null","","","null","19","","NaN","","","","","","","","","","","","","",""
"","response","","html-keyboard-response","129","190111","0.0-1.0-176.0","0","0","40410","","482","","","68","19","","","1","19","training","adjacent","CD","3","4","R.jpg","L.jpg","1","1","1","",""
"","feedback","","html-keyboard-response","130","191113","0.0-1.0-177.0-0.0","0","0","40410","","null","","","null","19","","","","","","","","","","","","","","","",""
"","ITI","","html-keyboard-response","131","192116","0.0-1.0-180.0","0","0","40410","","null","","","null","19","","","","","","","","","","","","","","","NaN",""
"","S1","","html-keyboard-response","132","192370","0.0-1.0-182.0","0","0","40410","","null","","","null","20","","","","","","","","","","","","","","","",""
"","ISI","","html-keyboard-response","133","194372","0.0-1.0-183.0","0","0","40410","","null","","","null","20","NaN","","","","","","","","","","","","","","",""
"","S2","","html-keyboard-response","134","194624","0.0-1.0-184.0","0","0","40410","","null","","","null","20","","NaN","","","","","","","","","","","","","",""
"","response","","html-keyboard-response","135","196626","0.0-1.0-185.0","0","0","40410","","null","","","null","20","","","1","20","training","adjacent","EF","5","6","P.jpg","Q.jpg","NaN","1","0","",""
"","too_slow_prompt","","html-keyboard-response","136","197629","0.0-1.0-187.0-0.0","1","0","40410","","null","","","null","","","","","","","","","","","","","","","","",""
"","time_out","","html-keyboard-response","137","199630","0.0-1.0-188.0-0.0","0","0","40410","","null","","","null","20","","","","","","","","","","","","","","","",""
"","ITI","","html-keyboard-response","138","200632","0.0-1.0-189.0","0","0","40410","","null","","","null","20","","","","","","","","","","","","","","","NaN",""
"","S1","","html-keyboard-response","139","200884","0.0-1.0-191.0","0","0","40410","","null","","","null","21","","","","","","","","","","","","","","","",""
"","ISI","","html-keyboard-response","140","202888","0.0-1.0-192.0","0","0","40410","","null","","","null","21","NaN","","","","","","","","","","","","","","",""
"","S2","","html-keyboard-response","141","203142","0.0-1.0-193.0","0","0","40410","","null","","","null","21","","NaN","","","","","","","","","","","","","",""
"","response","","html-keyboard-response","142","203631","0.0-1.0-194.0","0","0","40410","","486","","","75","21","","","1","21","training","adjacent","BC","2","3","M.jpg","R.jpg","0","1","0","",""
"","feedback","","html-keyboard-response","143","204634","0.0-1.0-195.0-0.0","0","0","40410","","null","","","null","21","","","","","","","","","","","","","","","",""
"","time_out","","html-keyboard-response","144","206662","0.0-1.0-197.0-0.0","0","0","40410","","null","","","null","21","","","","","","","","","","","","","","","",""
"","ITI","","html-keyboard-response","145","207664","0.0-1.0-198.0","0","0","40410","","null","","","null","21","","","","","","","","","","","","","","","NaN",""
"","S1","","html-keyboard-response","146","207917","0.0-1.0-200.0","0","0","40410","","null","","","null","22","","","","","","","","","","","","","","","",""
"","ISI","","html-keyboard-response","147","209920","0.0-1.0-201.0","0","0","40410","","null","","","null","22","NaN","","","","","","","","","","","","","","",""
"","S2","","html-keyboard-response","148","210176","0.0-1.0-202.0","0","0","40410","","null","","","null","22","","NaN","","","","","","","","","","","","","",""
"","response","","html-keyboard-response","149","211254","0.0-1.0-203.0","0","0","40410","","1076","","","75","22","","","1","22","training","adjacent","DC","4","3","L.jpg","R.jpg","0","0","1","",""
"","feedback","","html-keyboard-response","150","212256","0.0-1.0-204.0-0.0","0","0","40410","","null","","","null","22","","","","","","","","","","","","","","","",""
"","ITI","","html-keyboard-response","151","213258","0.0-1.0-207.0","0","0","40410","","null","","","null","22","","","","","","","","","","","","","","","NaN",""
"","S1","","html-keyboard-response","152","213511","0.0-1.0-209.0","0","0","40410","","null","","","null","23","","","","","","","","","","","","","","","",""
"","ISI","","html-keyboard-response","153","215512","0.0-1.0-210.0","0","0","40410","","null","","","null","23","NaN","","","","","","","","","","","","","","",""
"","S2","","html-keyboard-response","154","215766","0.0-1.0-211.0","0","0","40410","","null","","","null","23","","NaN","","","","","","","","","","","","","",""
"","response","","html-keyboard-response","155","216682","0.0-1.0-212.0","0","0","40410","","914","","","68","23","","","1","23","training","adjacent","ED","5","4","P.jpg","L.jpg","1","0","0","",""
"","feedback","","html-keyboard-response","156","217684","0.0-1.0-213.0-0.0","0","0","40410","","null","","","null","23","","","","","","","","","","","","","","","",""
"","time_out","","html-keyboard-response","157","219689","0.0-1.0-215.0-0.0","0","0","40410","","null","","","null","23","","","","","","","","","","","","","","","",""
"","ITI","","html-keyboard-response","158","220690","0.0-1.0-216.0","0","0","40410","","null","","","null","23","","","","","","","","","","","","","","","NaN",""
"","S1","","html-keyboard-response","159","220942","0.0-1.0-218.0","0","0","40410","","null","","","null","24","","","","","","","","","","","","","","","",""
"","ISI","","html-keyboard-response","160","222945","0.0-1.0-219.0","0","0","40410","","null","","","null","24","NaN","","","","","","","","","","","","","","",""
"","S2","","html-keyboard-response","161","223198","0.0-1.0-220.0","0","0","40410","","null","","","null","24","","NaN","","","","","","","","","","","","","",""
"","response","","html-keyboard-response","162","223495","0.0-1.0-221.0","0","0","40410","","293","","","68","24","","","1","24","training","adjacent","ED","5","4","P.jpg","L.jpg","1","0","0","",""
"","feedback","","html-keyboard-response","163","224498","0.0-1.0-222.0-0.0","0","0","40410","","null","","","null","24","","","","","","","","","","","","","","","",""
"","time_out","","html-keyboard-response","164","226502","0.0-1.0-224.0-0.0","0","0","40410","","null","","","null","24","","","","","","","","","","","","","","","",""
"","ITI","","html-keyboard-response","165","227510","0.0-1.0-225.0","0","0","40410","","null","","","null","24","","","","","","","","","","","","","","","NaN",""
"","S1","","html-keyboard-response","166","227762","0.0-1.0-227.0","0","0","40410","","null","","","null","25","","","","","","","","","","","","","","","",""
"","ISI","","html-keyboard-response","167","229765","0.0-1.0-228.0","0","0","40410","","null","","","null","25","NaN","","","","","","","","","","","","","","",""
"","S2","","html-keyboard-response","168","230018","0.0-1.0-229.0","0","0","40410","","null","","","null","25","","NaN","","","","","","","","","","","","","",""
"","response","","html-keyboard-response","169","231798","0.0-1.0-230.0","0","0","40410","","1777","","","68","25","","","1","25","training","adjacent","BA","2","1","M.jpg","O.jpg","1","0","0","",""
"","feedback","","html-keyboard-response","170","232803","0.0-1.0-231.0-0.0","0","0","40410","","null","","","null","25","","","","","","","","","","","","","","","",""
"","time_out","","html-keyboard-response","171","234805","0.0-1.0-233.0-0.0","0","0","40410","","null","","","null","25","","","","","","","","","","","","","","","",""
"","ITI","","html-keyboard-response","172","235813","0.0-1.0-234.0","0","0","40410","","null","","","null","25","","","","","","","","","","","","","","","NaN",""
"","S1","","html-keyboard-response","173","236066","0.0-1.0-236.0","0","0","40410","","null","","","null","26","","","","","","","","","","","","","","","",""
"","ISI","","html-keyboard-response","174","238068","0.0-1.0-237.0","0","0","40410","","null","","","null","26","NaN","","","","","","","","","","","","","","",""
"","S2","","html-keyboard-response","175","238320","0.0-1.0-238.0","0","0","40410","","null","","","null","26","","NaN","","","","","","","","","","","","","",""
"","response","","html-keyboard-response","176","239999","0.0-1.0-239.0","0","0","40410","","1675","","","68","26","","","1","26","training","adjacent","AB","1","2","O.jpg","M.jpg","1","1","1","",""
"","feedback","","html-keyboard-response","177","241001","0.0-1.0-240.0-0.0","0","0","40410","","null","","","null","26","","","","","","","","","","","","","","","",""
"","ITI","","html-keyboard-response","178","242003","0.0-1.0-243.0","0","0","40410","","null","","","null","26","","","","","","","","","","","","","","","NaN",""
"","S1","","html-keyboard-response","179","242256","0.0-1.0-245.0","0","0","40410","","null","","","null","27","","","","","","","","","","","","","","","",""
"","ISI","","html-keyboard-response","180","244259","0.0-1.0-246.0","0","0","40410","","null","","","null","27","NaN","","","","","","","","","","","","","","",""
"","S2","","html-keyboard-response","181","244510","0.0-1.0-247.0","0","0","40410","","null","","","null","27","","NaN","","","","","","","","","","","","","",""
"","response","","html-keyboard-response","182","245078","0.0-1.0-248.0","0","0","40410","","565","","","75","27","","","1","27","training","adjacent","DC","4","3","L.jpg","R.jpg","0","0","1","",""
"","feedback","","html-keyboard-response","183","246079","0.0-1.0-249.0-0.0","0","0","40410","","null","","","null","27","","","","","","","","","","","","","","","",""
"","ITI","","html-keyboard-response","184","247081","0.0-1.0-252.0","0","0","40410","","null","","","null","27","","","","","","","","","","","","","","","NaN",""
"","S1","","html-keyboard-response","185","247334","0.0-1.0-254.0","0","0","40410","","null","","","null","28","","","","","","","","","","","","","","","",""
"","ISI","","html-keyboard-response","186","249335","0.0-1.0-255.0","0","0","40410","","null","","","null","28","NaN","","","","","","","","","","","","","","",""
"","S2","","html-keyboard-response","187","249587","0.0-1.0-256.0","0","0","40410","","null","","","null","28","","NaN","","","","","","","","","","","","","",""
"","response","","html-keyboard-response","188","249817","0.0-1.0-257.0","0","0","40410","","227","","","68","28","","","1","28","training","adjacent","CB","3","2","R.jpg","M.jpg","1","0","0","",""
"","feedback","","html-keyboard-response","189","250819","0.0-1.0-258.0-0.0","0","0","40410","","null","","","null","28","","","","","","","","","","","","","","","",""
"","time_out","","html-keyboard-response","190","252821","0.0-1.0-260.0-0.0","0","0","40410","","null","","","null","28","","","","","","","","","","","","","","","",""
"","ITI","","html-keyboard-response","191","253824","0.0-1.0-261.0","0","0","40410","","null","","","null","28","","","","","","","","","","","","","","","NaN",""
"","S1","","html-keyboard-response","192","254076","0.0-1.0-263.0","0","0","40410","","null","","","null","29","","","","","","","","","","","","","","","",""
"","ISI","","html-keyboard-response","193","256077","0.0-1.0-264.0","0","0","40410","","null","","","null","29","NaN","","","","","","","","","","","","","","",""
"","S2","","html-keyboard-response","194","256332","0.0-1.0-265.0","0","0","40410","","null","","","null","29","","NaN","","","","","","","","","","","","","",""
"","response","","html-keyboard-response","195","256886","0.0-1.0-266.0","0","0","40410","","548","","","68","29","","","1","29","training","adjacent","GF","7","6","N.jpg","Q.jpg","1","0","0","",""
"","feedback","","html-keyboard-response","196","257888","0.0-1.0-267.0-0.0","0","0","40410","","null","","","null","29","","","","","","","","","","","","","","","",""
"","time_out","","html-keyboard-response","197","259890","0.0-1.0-269.0-0.0","0","0","40410","","null","","","null","29","","","","","","","","","","","","","","","",""
"","ITI","","html-keyboard-response","198","260893","0.0-1.0-270.0","0","0","40410","","null","","","null","29","","","","","","","","","","","","","","","NaN",""
"","S1","","html-keyboard-response","199","261145","0.0-1.0-272.0","0","0","40410","","null","","","null","30","","","","","","","","","","","","","","","",""
"","ISI","","html-keyboard-response","200","263147","0.0-1.0-273.0","0","0","40410","","null","","","null","30","NaN","","","","","","","","","","","","","","",""
"","S2","","html-keyboard-response","201","263400","0.0-1.0-274.0","0","0","40410","","null","","","null","30","","NaN","","","","","","","","","","","","","",""
"","response","","html-keyboard-response","202","263823","0.0-1.0-275.0","0","0","40410","","421","","","75","30","","","1","30","training","adjacent","GF","7","6","N.jpg","Q.jpg","0","0","1","",""
"","feedback","","html-keyboard-response","203","264825","0.0-1.0-276.0-0.0","0","0","40410","","null","","","null","30","","","","","","","","","","","","","","","",""
"","ITI","","html-keyboard-response","204","265826","0.0-1.0-279.0","0","0","40410","","null","","","null","30","","","","","","","","","","","","","","","NaN",""
"","S1","","html-keyboard-response","205","266078","0.0-1.0-281.0","0","0","40410","","null","","","null","31","","","","","","","","","","","","","","","",""
"","ISI","","html-keyboard-response","206","268080","0.0-1.0-282.0","0","0","40410","","null","","","null","31","NaN","","","","","","","","","","","","","","",""
"","S2","","html-keyboard-response","207","268333","0.0-1.0-283.0","0","0","40410","","null","","","null","31","","NaN","","","","","","","","","","","","","",""
"","response","","html-keyboard-response","208","268654","0.0-1.0-284.0","0","0","40410","","318","","","68","31","","","1","31","training","adjacent","ED","5","4","P.jpg","L.jpg","1","0","0","",""
"","feedback","","html-keyboard-response","209","269664","0.0-1.0-285.0-0.0","0","0","40410","","null","","","null","31","","","","","","","","","","","","","","","",""
"","time_out","","html-keyboard-response","210","271666","0.0-1.0-287.0-0.0","0","0","40410","","null","","","null","31","","","","","","","","","","","","","","","",""
"","ITI","","html-keyboard-response","211","272675","0.0-1.0-288.0","0","0","40410","","null","","","null","31","","","","","","","","","","","","","","","NaN",""
"","S1","","html-keyboard-response","212","272927","0.0-1.0-290.0","0","0","40410","","null","","","null","32","","","","","","","","","","","","","","","",""
"","ISI","","html-keyboard-response","213","274930","0.0-1.0-291.0","0","0","40410","","null","","","null","32","NaN","","","","","","","","","","","","","","",""
"","S2","","html-keyboard-response","214","275184","0.0-1.0-292.0","0","0","40410","","null","","","null","32","","NaN","","","","","","","","","","","","","",""
"","response","","html-keyboard-response","215","275384","0.0-1.0-293.0","0","0","40410","","195","","","75","32","","","1","32","training","adjacent","GF","7","6","N.jpg","Q.jpg","0","0","1","",""
"","feedback","","html-keyboard-response","216","276386","0.0-1.0-294.0-0.0","0","0","40410","","null","","","null","32","","","","","","","","","","","","","","","",""
"","ITI","","html-keyboard-response","217","277404","0.0-1.0-297.0","0","0","40410","","null","","","null","32","","","","","","","","","","","","","","","NaN",""
"","S1","","html-keyboard-response","218","277656","0.0-1.0-299.0","0","0","40410","","null","","","null","33","","","","","","","","","","","","","","","",""
"","ISI","","html-keyboard-response","219","279658","0.0-1.0-300.0","0","0","40410","","null","","","null","33","NaN","","","","","","","","","","","","","","",""
"","S2","","html-keyboard-response","220","279910","0.0-1.0-301.0","0","0","40410","","null","","","null","33","","NaN","","","","","","","","","","","","","",""
"","response","","html-keyboard-response","221","280447","0.0-1.0-302.0","0","0","40410","","533","","","75","33","","","1","33","training","adjacent","EF","5","6","P.jpg","Q.jpg","0","1","0","",""
"","feedback","","html-keyboard-response","222","281450","0.0-1.0-303.0-0.0","0","0","40410","","null","","","null","33","","","","","","","","","","","","","","","",""
"","time_out","","html-keyboard-response","223","283452","0.0-1.0-305.0-0.0","0","0","40410","","null","","","null","33","","","","","","","","","","","","","","","",""
"","ITI","","html-keyboard-response","224","284455","0.0-1.0-306.0","0","0","40410","","null","","","null","33","","","","","","","","","","","","","","","NaN",""
"","S1","","html-keyboard-response","225","284707","0.0-1.0-308.0","0","0","40410","","null","","","null","34","","","","","","","","","","","","","","","",""
"","ISI","","html-keyboard-response","226","286710","0.0-1.0-309.0","0","0","40410","","null","","","null","34","NaN","","","","","","","","","","","","","","",""
"","S2","","html-keyboard-response","227","286963","0.0-1.0-310.0","0","0","40410","","null","","","null","34","","NaN","","","","","","","","","","","","","",""
"","response","","html-keyboard-response","228","287519","0.0-1.0-311.0","0","0","40410","","552","","","68","34","","","1","34","training","adjacent","CB","3","2","R.jpg","M.jpg","1","0","0","",""
"","feedback","","html-keyboard-response","229","288520","0.0-1.0-312.0-0.0","0","0","40410","","null","","","null","34","","","","","","","","","","","","","","","",""
"","time_out","","html-keyboard-response","230","290522","0.0-1.0-314.0-0.0","0","0","40410","","null","","","null","34","","","","","","","","","","","","","","","",""
"","ITI","","html-keyboard-response","231","291524","0.0-1.0-315.0","0","0","40410","","null","","","null","34","","","","","","","","","","","","","","","NaN",""
"","S1","","html-keyboard-response","232","291777","0.0-1.0-317.0","0","0","40410","","null","","","null","35","","","","","","","","","","","","","","","",""
"","ISI","","html-keyboard-response","233","293781","0.0-1.0-318.0","0","0","40410","","null","","","null","35","NaN","","","","","","","","","","","","","","",""
"","S2","","html-keyboard-response","234","294033","0.0-1.0-319.0","0","0","40410","","null","","","null","35","","NaN","","","","","","","","","","","","","",""
"","response","","html-keyboard-response","235","294323","0.0-1.0-320.0","0","0","40410","","287","","","68","35","","","1","35","training","adjacent","EF","5","6","P.jpg","Q.jpg","1","1","1","",""
"","feedback","","html-keyboard-response","236","295326","0.0-1.0-321.0-0.0","0","0","40410","","null","","","null","35","","","","","","","","","","","","","","","",""
"","ITI","","html-keyboard-response","237","296328","0.0-1.0-324.0","0","0","40410","","null","","","null","35","","","","","","","","","","","","","","","NaN",""
"","S1","","html-keyboard-response","238","296581","0.0-1.0-326.0","0","0","40410","","null","","","null","36","","","","","","","","","","","","","","","",""
"","ISI","","html-keyboard-response","239","298583","0.0-1.0-327.0","0","0","40410","","null","","","null","36","NaN","","","","","","","","","","","","","","",""
"","S2","","html-keyboard-response","240","298836","0.0-1.0-328.0","0","0","40410","","null","","","null","36","","NaN","","","","","","","","","","","","","",""
"","response","","html-keyboard-response","241","299758","0.0-1.0-329.0","0","0","40410","","920","","","68","36","","","1","36","training","adjacent","FG","6","7","Q.jpg","N.jpg","1","1","1","",""
"","feedback","","html-keyboard-response","242","300760","0.0-1.0-330.0-0.0","0","0","40410","","null","","","null","36","","","","","","","","","","","","","","","",""
"","ITI","","html-keyboard-response","243","301762","0.0-1.0-333.0","0","0","40410","","null","","","null","36","","","","","","","","","","","","","","","NaN",""
"","S1","","html-keyboard-response","244","302014","0.0-1.0-335.0","0","0","40410","","null","","","null","37","","","","","","","","","","","","","","","",""
"","ISI","","html-keyboard-response","245","304017","0.0-1.0-336.0","0","0","40410","","null","","","null","37","NaN","","","","","","","","","","","","","","",""
"","S2","","html-keyboard-response","246","304276","0.0-1.0-337.0","0","0","40410","","null","","","null","37","","NaN","","","","","","","","","","","","","",""
"","response","","html-keyboard-response","247","304719","0.0-1.0-338.0","0","0","40410","","441","","","68","37","","","1","37","training","adjacent","CD","3","4","R.jpg","L.jpg","1","1","1","",""
"","feedback","","html-keyboard-response","248","305721","0.0-1.0-339.0-0.0","0","0","40410","","null","","","null","37","","","","","","","","","","","","","","","",""
"","ITI","","html-keyboard-response","249","306723","0.0-1.0-342.0","0","0","40410","","null","","","null","37","","","","","","","","","","","","","","","NaN",""
"","S1","","html-keyboard-response","250","306976","0.0-1.0-344.0","0","0","40410","","null","","","null","38","","","","","","","","","","","","","","","",""
"","ISI","","html-keyboard-response","251","308978","0.0-1.0-345.0","0","0","40410","","null","","","null","38","NaN","","","","","","","","","","","","","","",""
"","S2","","html-keyboard-response","252","309230","0.0-1.0-346.0","0","0","40410","","null","","","null","38","","NaN","","","","","","","","","","","","","",""
"","response","","html-keyboard-response","253","310047","0.0-1.0-347.0","0","0","40410","","814","","","75","38","","","1","38","training","adjacent","BC","2","3","M.jpg","R.jpg","0","1","0","",""
"","feedback","","html-keyboard-response","254","311048","0.0-1.0-348.0-0.0","0","0","40410","","null","","","null","38","","","","","","","","","","","","","","","",""
"","time_out","","html-keyboard-response","255","313050","0.0-1.0-350.0-0.0","0","0","40410","","null","","","null","38","","","","","","","","","","","","","","","",""
"","ITI","","html-keyboard-response","256","314052","0.0-1.0-351.0","0","0","40410","","null","","","null","38","","","","","","","","","","","","","","","NaN",""
"","S1","","html-keyboard-response","257","314306","0.0-1.0-353.0","0","0","40410","","null","","","null","39","","","","","","","","","","","","","","","",""
"","ISI","","html-keyboard-response","258","316309","0.0-1.0-354.0","0","0","40410","","null","","","null","39","NaN","","","","","","","","","","","","","","",""
"","S2","","html-keyboard-response","259","316561","0.0-1.0-355.0","0","0","40410","","null","","","null","39","","NaN","","","","","","","","","","","","","",""
"","response","","html-keyboard-response","260","317927","0.0-1.0-356.0","0","0","40410","","1363","","","68","39","","","1","39","training","adjacent","EF","5","6","P.jpg","Q.jpg","1","1","1","",""
"","feedback","","html-keyboard-response","261","318929","0.0-1.0-357.0-0.0","0","0","40410","","null","","","null","39","","","","","","","","","","","","","","","",""
"","ITI","","html-keyboard-response","262","319932","0.0-1.0-360.0","0","0","40410","","null","","","null","39","","","","","","","","","","","","","","","NaN",""
"","S1","","html-keyboard-response","263","320186","0.0-1.0-362.0","0","0","40410","","null","","","null","40","","","","","","","","","","","","","","","",""
"","ISI","","html-keyboard-response","264","322196","0.0-1.0-363.0","0","0","40410","","null","","","null","40","NaN","","","","","","","","","","","","","","",""
"","S2","","html-keyboard-response","265","322447","0.0-1.0-364.0","0","0","40410","","null","","","null","40","","NaN","","","","","","","","","","","","","",""
"","response","","html-keyboard-response","266","322950","0.0-1.0-365.0","0","0","40410","","501","","","75","40","","","1","40","training","adjacent","FE","6","5","Q.jpg","P.jpg","0","0","1","",""
"","feedback","","html-keyboard-response","267","323953","0.0-1.0-366.0-0.0","0","0","40410","","null","","","null","40","","","","","","","","","","","","","","","",""
"","ITI","","html-keyboard-response","268","324956","0.0-1.0-369.0","0","0","40410","","null","","","null","40","","","","","","","","","","","","","","","NaN",""
"","S1","","html-keyboard-response","269","325209","0.0-1.0-371.0","0","0","40410","","null","","","null","41","","","","","","","","","","","","","","","",""
"","ISI","","html-keyboard-response","270","327211","0.0-1.0-372.0","0","0","40410","","null","","","null","41","NaN","","","","","","","","","","","","","","",""
"","S2","","html-keyboard-response","271","327466","0.0-1.0-373.0","0","0","40410","","null","","","null","41","","NaN","","","","","","","","","","","","","",""
"","response","","html-keyboard-response","272","328487","0.0-1.0-374.0","0","0","40410","","1019","","","68","41","","","1","41","training","adjacent","DE","4","5","L.jpg","P.jpg","1","1","1","",""
"","feedback","","html-keyboard-response","273","329490","0.0-1.0-375.0-0.0","0","0","40410","","null","","","null","41","","","","","","","","","","","","","","","",""
"","ITI","","html-keyboard-response","274","330492","0.0-1.0-378.0","0","0","40410","","null","","","null","41","","","","","","","","","","","","","","","NaN",""
"","S1","","html-keyboard-response","275","330745","0.0-1.0-380.0","0","0","40410","","null","","","null","42","","","","","","","","","","","","","","","",""
"","ISI","","html-keyboard-response","276","332746","0.0-1.0-381.0","0","0","40410","","null","","","null","42","NaN","","","","","","","","","","","","","","",""
"","S2","","html-keyboard-response","277","332999","0.0-1.0-382.0","0","0","40410","","null","","","null","42","","NaN","","","","","","","","","","","","","",""
"","response","","html-keyboard-response","278","333664","0.0-1.0-383.0","0","0","40410","","662","","","68","42","","","1","42","training","adjacent","FG","6","7","Q.jpg","N.jpg","1","1","1","",""
"","feedback","","html-keyboard-response","279","334667","0.0-1.0-384.0-0.0","0","0","40410","","null","","","null","42","","","","","","","","","","","","","","","",""
"","ITI","","html-keyboard-response","280","335671","0.0-1.0-387.0","0","0","40410","","null","","","null","42","","","","","","","","","","","","","","","NaN",""
"","S1","","html-keyboard-response","281","335923","0.0-1.0-389.0","0","0","40410","","null","","","null","43","","","","","","","","","","","","","","","",""
"","ISI","","html-keyboard-response","282","337925","0.0-1.0-390.0","0","0","40410","","null","","","null","43","NaN","","","","","","","","","","","","","","",""
"","S2","","html-keyboard-response","283","338180","0.0-1.0-391.0","0","0","40410","","null","","","null","43","","NaN","","","","","","","","","","","","","",""
"","response","","html-keyboard-response","284","339167","0.0-1.0-392.0","0","0","40410","","984","","","75","43","","","1","43","training","adjacent","BC","2","3","M.jpg","R.jpg","0","1","0","",""
"","feedback","","html-keyboard-response","285","340174","0.0-1.0-393.0-0.0","0","0","40410","","null","","","null","43","","","","","","","","","","","","","","","",""
"","time_out","","html-keyboard-response","286","342179","0.0-1.0-395.0-0.0","0","0","40410","","null","","","null","43","","","","","","","","","","","","","","","",""
"","ITI","","html-keyboard-response","287","343181","0.0-1.0-396.0","0","0","40410","","null","","","null","43","","","","","","","","","","","","","","","NaN",""
"","S1","","html-keyboard-response","288","343435","0.0-1.0-398.0","0","0","40410","","null","","","null","44","","","","","","","","","","","","","","","",""
"","ISI","","html-keyboard-response","289","345438","0.0-1.0-399.0","0","0","40410","","null","","","null","44","NaN","","","","","","","","","","","","","","",""
"","S2","","html-keyboard-response","290","345691","0.0-1.0-400.0","0","0","40410","","null","","","null","44","","NaN","","","","","","","","","","","","","",""
"","response","","html-keyboard-response","291","346119","0.0-1.0-401.0","0","0","40410","","426","","","75","44","","","1","44","training","adjacent","DE","4","5","L.jpg","P.jpg","0","1","0","",""
"","feedback","","html-keyboard-response","292","347121","0.0-1.0-402.0-0.0","0","0","40410","","null","","","null","44","","","","","","","","","","","","","","","",""
"","time_out","","html-keyboard-response","293","349123","0.0-1.0-404.0-0.0","0","0","40410","","null","","","null","44","","","","","","","","","","","","","","","",""
"","ITI","","html-keyboard-response","294","350126","0.0-1.0-405.0","0","0","40410","","null","","","null","44","","","","","","","","","","","","","","","NaN",""
"","S1","","html-keyboard-response","295","350378","0.0-1.0-407.0","0","0","40410","","null","","","null","45","","","","","","","","","","","","","","","",""
"","ISI","","html-keyboard-response","296","352380","0.0-1.0-408.0","0","0","40410","","null","","","null","45","NaN","","","","","","","","","","","","","","",""
"","S2","","html-keyboard-response","297","352632","0.0-1.0-409.0","0","0","40410","","null","","","null","45","","NaN","","","","","","","","","","","","","",""
"","response","","html-keyboard-response","298","353070","0.0-1.0-410.0","0","0","40410","","435","","","68","45","","","1","45","training","adjacent","FG","6","7","Q.jpg","N.jpg","1","1","1","",""
"","feedback","","html-keyboard-response","299","354072","0.0-1.0-411.0-0.0","0","0","40410","","null","","","null","45","","","","","","","","","","","","","","","",""
"","ITI","","html-keyboard-response","300","355074","0.0-1.0-414.0","0","0","40410","","null","","","null","45","","","","","","","","","","","","","","","NaN",""
"","S1","","html-keyboard-response","301","355326","0.0-1.0-416.0","0","0","40410","","null","","","null","46","","","","","","","","","","","","","","","",""
"","ISI","","html-keyboard-response","302","357328","0.0-1.0-417.0","0","0","40410","","null","","","null","46","NaN","","","","","","","","","","","","","","",""
"","S2","","html-keyboard-response","303","357580","0.0-1.0-418.0","0","0","40410","","null","","","null","46","","NaN","","","","","","","","","","","","","",""
"","response","","html-keyboard-response","304","358318","0.0-1.0-419.0","0","0","40410","","735","","","68","46","","","1","46","training","adjacent","AB","1","2","O.jpg","M.jpg","1","1","1","",""
"","feedback","","html-keyboard-response","305","359321","0.0-1.0-420.0-0.0","0","0","40410","","null","","","null","46","","","","","","","","","","","","","","","",""
"","ITI","","html-keyboard-response","306","360324","0.0-1.0-423.0","0","0","40410","","null","","","null","46","","","","","","","","","","","","","","","NaN",""
"","S1","","html-keyboard-response","307","360577","0.0-1.0-425.0","0","0","40410","","null","","","null","47","","","","","","","","","","","","","","","",""
"","ISI","","html-keyboard-response","308","362579","0.0-1.0-426.0","0","0","40410","","null","","","null","47","NaN","","","","","","","","","","","","","","",""
"","S2","","html-keyboard-response","309","362831","0.0-1.0-427.0","0","0","40410","","null","","","null","47","","NaN","","","","","","","","","","","","","",""
"","response","","html-keyboard-response","310","363326","0.0-1.0-428.0","0","0","40410","","492","","","75","47","","","1","47","training","adjacent","DC","4","3","L.jpg","R.jpg","0","0","1","",""
"","feedback","","html-keyboard-response","311","364329","0.0-1.0-429.0-0.0","0","0","40410","","null","","","null","47","","","","","","","","","","","","","","","",""
"","ITI","","html-keyboard-response","312","365331","0.0-1.0-432.0","0","0","40410","","null","","","null","47","","","","","","","","","","","","","","","NaN",""
"","block_over","","html-keyboard-response","313","369654","0.0-1.0-433.0-0.0","0","0","40410","","4319","","","32","47","","","","","","","","","","","","","","","",""
"","S1","","html-keyboard-response","314","369906","0.0-1.0-434.0","0","0","40410","","null","","","null","48","","","","","","","","","","","","","","","",""
"","ISI","","html-keyboard-response","315","371908","0.0-1.0-435.0","0","0","40410","","null","","","null","48","NaN","","","","","","","","","","","","","","",""
"","S2","","html-keyboard-response","316","372160","0.0-1.0-436.0","0","0","40410","","null","","","null","48","","NaN","","","","","","","","","","","","","",""
"","response","","html-keyboard-response","317","372838","0.0-1.0-437.0","0","0","40410","","675","","","68","48","","","2","48","training","adjacent","FG","6","7","Q.jpg","N.jpg","1","1","1","",""
"","feedback","","html-keyboard-response","318","373841","0.0-1.0-438.0-0.0","0","0","40410","","null","","","null","48","","","","","","","","","","","","","","","",""
"","ITI","","html-keyboard-response","319","374843","0.0-1.0-441.0","0","0","40410","","null","","","null","48","","","","","","","","","","","","","","","NaN",""
"","S1","","html-keyboard-response","320","375096","0.0-1.0-443.0","0","0","40410","","null","","","null","49","","","","","","","","","","","","","","","",""
"","ISI","","html-keyboard-response","321","377099","0.0-1.0-444.0","0","0","40410","","null","","","null","49","NaN","","","","","","","","","","","","","","",""
"","S2","","html-keyboard-response","322","377350","0.0-1.0-445.0","0","0","40410","","null","","","null","49","","NaN","","","","","","","","","","","","","",""
"","response","","html-keyboard-response","323","379174","0.0-1.0-446.0","0","0","40410","","1821","","","68","49","","","2","49","training","adjacent","EF","5","6","P.jpg","Q.jpg","1","1","1","",""
"","feedback","","html-keyboard-response","324","380176","0.0-1.0-447.0-0.0","0","0","40410","","null","","","null","49","","","","","","","","","","","","","","","",""
"","ITI","","html-keyboard-response","325","381178","0.0-1.0-450.0","0","0","40410","","null","","","null","49","","","","","","","","","","","","","","","NaN",""
"","S1","","html-keyboard-response","326","381431","0.0-1.0-452.0","0","0","40410","","null","","","null","50","","","","","","","","","","","","","","","",""
"","ISI","","html-keyboard-response","327","383434","0.0-1.0-453.0","0","0","40410","","null","","","null","50","NaN","","","","","","","","","","","","","","",""
"","S2","","html-keyboard-response","328","383687","0.0-1.0-454.0","0","0","40410","","null","","","null","50","","NaN","","","","","","","","","","","","","",""
"","response","","html-keyboard-response","329","384301","0.0-1.0-455.0","0","0","40410","","613","","","68","50","","","2","50","training","adjacent","AB","1","2","O.jpg","M.jpg","1","1","1","",""
"","feedback","","html-keyboard-response","330","385305","0.0-1.0-456.0-0.0","0","0","40410","","null","","","null","50","","","","","","","","","","","","","","","",""
"","ITI","","html-keyboard-response","331","386307","0.0-1.0-459.0","0","0","40410","","null","","","null","50","","","","","","","","","","","","","","","NaN",""
"","S1","","html-keyboard-response","332","386559","0.0-1.0-461.0","0","0","40410","","null","","","null","51","","","","","","","","","","","","","","","",""
"","ISI","","html-keyboard-response","333","388561","0.0-1.0-462.0","0","0","40410","","null","","","null","51","NaN","","","","","","","","","","","","","","",""
"","S2","","html-keyboard-response","334","388813","0.0-1.0-463.0","0","0","40410","","null","","","null","51","","NaN","","","","","","","","","","","","","",""
"","response","","html-keyboard-response","335","389534","0.0-1.0-464.0","0","0","40410","","717","","","75","51","","","2","51","training","adjacent","BC","2","3","M.jpg","R.jpg","0","1","0","",""
"","feedback","","html-keyboard-response","336","390536","0.0-1.0-465.0-0.0","0","0","40410","","null","","","null","51","","","","","","","","","","","","","","","",""
"","time_out","","html-keyboard-response","337","392538","0.0-1.0-467.0-0.0","0","0","40410","","null","","","null","51","","","","","","","","","","","","","","","",""
"","ITI","","html-keyboard-response","338","393542","0.0-1.0-468.0","0","0","40410","","null","","","null","51","","","","","","","","","","","","","","","NaN",""
"","S1","","html-keyboard-response","339","393794","0.0-1.0-470.0","0","0","40410","","null","","","null","52","","","","","","","","","","","","","","","",""
"","ISI","","html-keyboard-response","340","395797","0.0-1.0-471.0","0","0","40410","","null","","","null","52","NaN","","","","","","","","","","","","","","",""
"","S2","","html-keyboard-response","341","396051","0.0-1.0-472.0","0","0","40410","","null","","","null","52","","NaN","","","","","","","","","","","","","",""
"","response","","html-keyboard-response","342","396494","0.0-1.0-473.0","0","0","40410","","440","","","68","52","","","2","52","training","adjacent","AB","1","2","O.jpg","M.jpg","1","1","1","",""
"","feedback","","html-keyboard-response","343","397497","0.0-1.0-474.0-0.0","0","0","40410","","null","","","null","52","","","","","","","","","","","","","","","",""
"","ITI","","html-keyboard-response","344","398498","0.0-1.0-477.0","0","0","40410","","null","","","null","52","","","","","","","","","","","","","","","NaN",""
"","S1","","html-keyboard-response","345","398751","0.0-1.0-479.0","0","0","40410","","null","","","null","53","","","","","","","","","","","","","","","",""
"","ISI","","html-keyboard-response","346","400752","0.0-1.0-480.0","0","0","40410","","null","","","null","53","NaN","","","","","","","","","","","","","","",""
"","S2","","html-keyboard-response","347","401004","0.0-1.0-481.0","0","0","40410","","null","","","null","53","","NaN","","","","","","","","","","","","","",""
"","response","","html-keyboard-response","348","402262","0.0-1.0-482.0","0","0","40410","","1255","","","68","53","","","2","53","training","adjacent","FG","6","7","Q.jpg","N.jpg","1","1","1","",""
"","feedback","","html-keyboard-response","349","403264","0.0-1.0-483.0-0.0","0","0","40410","","null","","","null","53","","","","","","","","","","","","","","","",""
"","ITI","","html-keyboard-response","350","404266","0.0-1.0-486.0","0","0","40410","","null","","","null","53","","","","","","","","","","","","","","","NaN",""
"","S1","","html-keyboard-response","351","404518","0.0-1.0-488.0","0","0","40410","","null","","","null","54","","","","","","","","","","","","","","","",""
"","ISI","","html-keyboard-response","352","406521","0.0-1.0-489.0","0","0","40410","","null","","","null","54","NaN","","","","","","","","","","","","","","",""
"","S2","","html-keyboard-response","353","406772","0.0-1.0-490.0","0","0","40410","","null","","","null","54","","NaN","","","","","","","","","","","","","",""
"","response","","html-keyboard-response","354","408015","0.0-1.0-491.0","0","0","40410","","1240","","","75","54","","","2","54","training","adjacent","GF","7","6","N.jpg","Q.jpg","0","0","1","",""
"","feedback","","html-keyboard-response","355","409018","0.0-1.0-492.0-0.0","0","0","40410","","null","","","null","54","","","","","","","","","","","","","","","",""
"","ITI","","html-keyboard-response","356","410020","0.0-1.0-495.0","0","0","40410","","null","","","null","54","","","","","","","","","","","","","","","NaN",""
"","S1","","html-keyboard-response","357","410274","0.0-1.0-497.0","0","0","40410","","null","","","null","55","","","","","","","","","","","","","","","",""
"","ISI","","html-keyboard-response","358","412276","0.0-1.0-498.0","0","0","40410","","null","","","null","55","NaN","","","","","","","","","","","","","","",""
"","S2","","html-keyboard-response","359","412529","0.0-1.0-499.0","0","0","40410","","null","","","null","55","","NaN","","","","","","","","","","","","","",""
"","response","","html-keyboard-response","360","413472","0.0-1.0-500.0","0","0","40410","","941","","","75","55","","","2","55","training","adjacent","DE","4","5","L.jpg","P.jpg","0","1","0","",""
"","feedback","","html-keyboard-response","361","414476","0.0-1.0-501.0-0.0","0","0","40410","","null","","","null","55","","","","","","","","","","","","","","","",""
"","time_out","","html-keyboard-response","362","416479","0.0-1.0-503.0-0.0","0","0","40410","","null","","","null","55","","","","","","","","","","","","","","","",""
"","ITI","","html-keyboard-response","363","417520","0.0-1.0-504.0","0","0","40410","","null","","","null","55","","","","","","","","","","","","","","","NaN",""
"","S1","","html-keyboard-response","364","417772","0.0-1.0-506.0","0","0","40410","","null","","","null","56","","","","","","","","","","","","","","","",""
"","ISI","","html-keyboard-response","365","419775","0.0-1.0-507.0","0","0","40410","","null","","","null","56","NaN","","","","","","","","","","","","","","",""
"","S2","","html-keyboard-response","366","420028","0.0-1.0-508.0","0","0","40410","","null","","","null","56","","NaN","","","","","","","","","","","","","",""
"","response","","html-keyboard-response","367","421562","0.0-1.0-509.0","0","0","40410","","1530","","","75","56","","","2","56","training","adjacent","AB","1","2","O.jpg","M.jpg","0","1","0","",""
"","feedback","","html-keyboard-response","368","422567","0.0-1.0-510.0-0.0","0","0","40410","","null","","","null","56","","","","","","","","","","","","","","","",""
"","time_out","","html-keyboard-response","369","424570","0.0-1.0-512.0-0.0","0","0","40410","","null","","","null","56","","","","","","","","","","","","","","","",""
"","ITI","","html-keyboard-response","370","425574","0.0-1.0-513.0","0","0","40410","","null","","","null","56","","","","","","","","","","","","","","","NaN",""
"","S1","","html-keyboard-response","371","425826","0.0-1.0-515.0","0","0","40410","","null","","","null","57","","","","","","","","","","","","","","","",""
"","ISI","","html-keyboard-response","372","427828","0.0-1.0-516.0","0","0","40410","","null","","","null","57","NaN","","","","","","","","","","","","","","",""
"","S2","","html-keyboard-response","373","428080","0.0-1.0-517.0","0","0","40410","","null","","","null","57","","NaN","","","","","","","","","","","","","",""
"","response","","html-keyboard-response","374","428488","0.0-1.0-518.0","0","0","40410","","404","","","75","57","","","2","57","training","adjacent","FE","6","5","Q.jpg","P.jpg","0","0","1","",""
"","feedback","","html-keyboard-response","375","429494","0.0-1.0-519.0-0.0","0","0","40410","","null","","","null","57","","","","","","","","","","","","","","","",""
"","ITI","","html-keyboard-response","376","430496","0.0-1.0-522.0","0","0","40410","","null","","","null","57","","","","","","","","","","","","","","","NaN",""
"","S1","","html-keyboard-response","377","430794","0.0-1.0-524.0","0","0","40410","","null","","","null","58","","","","","","","","","","","","","","","",""
"","ISI","","html-keyboard-response","378","432797","0.0-1.0-525.0","0","0","40410","","null","","","null","58","NaN","","","","","","","","","","","","","","",""
"","S2","","html-keyboard-response","379","433049","0.0-1.0-526.0","0","0","40410","","null","","","null","58","","NaN","","","","","","","","","","","","","",""
"","response","","html-keyboard-response","380","433959","0.0-1.0-527.0","0","0","40410","","907","","","68","58","","","2","58","training","adjacent","BC","2","3","M.jpg","R.jpg","1","1","1","",""
"","feedback","","html-keyboard-response","381","434961","0.0-1.0-528.0-0.0","0","0","40410","","null","","","null","58","","","","","","","","","","","","","","","",""
"","ITI","","html-keyboard-response","382","435967","0.0-1.0-531.0","0","0","40410","","null","","","null","58","","","","","","","","","","","","","","","NaN",""
"","S1","","html-keyboard-response","383","436221","0.0-1.0-533.0","0","0","40410","","null","","","null","59","","","","","","","","","","","","","","","",""
"","ISI","","html-keyboard-response","384","438223","0.0-1.0-534.0","0","0","40410","","null","","","null","59","NaN","","","","","","","","","","","","","","",""
"","S2","","html-keyboard-response","385","438475","0.0-1.0-535.0","0","0","40410","","null","","","null","59","","NaN","","","","","","","","","","","","","",""
"","response","","html-keyboard-response","386","438991","0.0-1.0-536.0","0","0","40410","","513","","","75","59","","","2","59","training","adjacent","BA","2","1","M.jpg","O.jpg","0","0","1","",""
"","feedback","","html-keyboard-response","387","439995","0.0-1.0-537.0-0.0","0","0","40410","","null","","","null","59","","","","","","","","","","","","","","","",""
"","ITI","","html-keyboard-response","388","440997","0.0-1.0-540.0","0","0","40410","","null","","","null","59","","","","","","","","","","","","","","","NaN",""
"","S1","","html-keyboard-response","389","441249","0.0-1.0-542.0","0","0","40410","","null","","","null","60","","","","","","","","","","","","","","","",""
"","ISI","","html-keyboard-response","390","443251","0.0-1.0-543.0","0","0","40410","","null","","","null","60","NaN","","","","","","","","","","","","","","",""
"","S2","","html-keyboard-response","391","443505","0.0-1.0-544.0","0","0","40410","","null","","","null","60","","NaN","","","","","","","","","","","","","",""
"","response","","html-keyboard-response","392","444222","0.0-1.0-545.0","0","0","40410","","716","","","68","60","","","2","60","training","adjacent","DC","4","3","L.jpg","R.jpg","1","0","0","",""
"","feedback","","html-keyboard-response","393","445224","0.0-1.0-546.0-0.0","0","0","40410","","null","","","null","60","","","","","","","","","","","","","","","",""
"","time_out","","html-keyboard-response","394","447226","0.0-1.0-548.0-0.0","0","0","40410","","null","","","null","60","","","","","","","","","","","","","","","",""
"","ITI","","html-keyboard-response","395","448229","0.0-1.0-549.0","0","0","40410","","null","","","null","60","","","","","","","","","","","","","","","NaN",""
"","S1","","html-keyboard-response","396","448485","0.0-1.0-551.0","0","0","40410","","null","","","null","61","","","","","","","","","","","","","","","",""
"","ISI","","html-keyboard-response","397","450525","0.0-1.0-552.0","0","0","40410","","null","","","null","61","NaN","","","","","","","","","","","","","","",""
"","S2","","html-keyboard-response","398","450780","0.0-1.0-553.0","0","0","40410","","null","","","null","61","","NaN","","","","","","","","","","","","","",""
"","response","","html-keyboard-response","399","451247","0.0-1.0-554.0","0","0","40410","","465","","","75","61","","","2","61","training","adjacent","BA","2","1","M.jpg","O.jpg","0","0","1","",""
"","feedback","","html-keyboard-response","400","452249","0.0-1.0-555.0-0.0","0","0","40410","","null","","","null","61","","","","","","","","","","","","","","","",""
"","ITI","","html-keyboard-response","401","453251","0.0-1.0-558.0","0","0","40410","","null","","","null","61","","","","","","","","","","","","","","","NaN",""
"","S1","","html-keyboard-response","402","453503","0.0-1.0-560.0","0","0","40410","","null","","","null","62","","","","","","","","","","","","","","","",""
"","ISI","","html-keyboard-response","403","455507","0.0-1.0-561.0","0","0","40410","","null","","","null","62","NaN","","","","","","","","","","","","","","",""
"","S2","","html-keyboard-response","404","455758","0.0-1.0-562.0","0","0","40410","","null","","","null","62","","NaN","","","","","","","","","","","","","",""
"","response","","html-keyboard-response","405","456399","0.0-1.0-563.0","0","0","40410","","638","","","68","62","","","2","62","training","adjacent","EF","5","6","P.jpg","Q.jpg","1","1","1","",""
"","feedback","","html-keyboard-response","406","457401","0.0-1.0-564.0-0.0","0","0","40410","","null","","","null","62","","","","","","","","","","","","","","","",""
"","ITI","","html-keyboard-response","407","458403","0.0-1.0-567.0","0","0","40410","","null","","","null","62","","","","","","","","","","","","","","","NaN",""
"","S1","","html-keyboard-response","408","458655","0.0-1.0-569.0","0","0","40410","","null","","","null","63","","","","","","","","","","","","","","","",""
"","ISI","","html-keyboard-response","409","460658","0.0-1.0-570.0","0","0","40410","","null","","","null","63","NaN","","","","","","","","","","","","","","",""
"","S2","","html-keyboard-response","410","460910","0.0-1.0-571.0","0","0","40410","","null","","","null","63","","NaN","","","","","","","","","","","","","",""
"","response","","html-keyboard-response","411","461335","0.0-1.0-572.0","0","0","40410","","422","","","75","63","","","2","63","training","adjacent","CD","3","4","R.jpg","L.jpg","0","1","0","",""
"","feedback","","html-keyboard-response","412","462337","0.0-1.0-573.0-0.0","0","0","40410","","null","","","null","63","","","","","","","","","","","","","","","",""
"","time_out","","html-keyboard-response","413","464339","0.0-1.0-575.0-0.0","0","0","40410","","null","","","null","63","","","","","","","","","","","","","","","",""
"","ITI","","html-keyboard-response","414","465341","0.0-1.0-576.0","0","0","40410","","null","","","null","63","","","","","","","","","","","","","","","NaN",""
"","S1","","html-keyboard-response","415","465593","0.0-1.0-578.0","0","0","40410","","null","","","null","64","","","","","","","","","","","","","","","",""
"","ISI","","html-keyboard-response","416","467595","0.0-1.0-579.0","0","0","40410","","null","","","null","64","NaN","","","","","","","","","","","","","","",""
"","S2","","html-keyboard-response","417","467847","0.0-1.0-580.0","0","0","40410","","null","","","null","64","","NaN","","","","","","","","","","","","","",""
"","response","","html-keyboard-response","418","468491","0.0-1.0-581.0","0","0","40410","","640","","","75","64","","","2","64","training","adjacent","DE","4","5","L.jpg","P.jpg","0","1","0","",""
"","feedback","","html-keyboard-response","419","469493","0.0-1.0-582.0-0.0","0","0","40410","","null","","","null","64","","","","","","","","","","","","","","","",""
"","time_out","","html-keyboard-response","420","471495","0.0-1.0-584.0-0.0","0","0","40410","","null","","","null","64","","","","","","","","","","","","","","","",""
"","ITI","","html-keyboard-response","421","472498","0.0-1.0-585.0","0","0","40410","","null","","","null","64","","","","","","","","","","","","","","","NaN",""
"","S1","","html-keyboard-response","422","472750","0.0-1.0-587.0","0","0","40410","","null","","","null","65","","","","","","","","","","","","","","","",""
"","ISI","","html-keyboard-response","423","474752","0.0-1.0-588.0","0","0","40410","","null","","","null","65","NaN","","","","","","","","","","","","","","",""
"","S2","","html-keyboard-response","424","475004","0.0-1.0-589.0","0","0","40410","","null","","","null","65","","NaN","","","","","","","","","","","","","",""
"","response","","html-keyboard-response","425","475679","0.0-1.0-590.0","0","0","40410","","672","","","68","65","","","2","65","training","adjacent","CD","3","4","R.jpg","L.jpg","1","1","1","",""
"","feedback","","html-keyboard-response","426","476681","0.0-1.0-591.0-0.0","0","0","40410","","null","","","null","65","","","","","","","","","","","","","","","",""
"","ITI","","html-keyboard-response","427","477683","0.0-1.0-594.0","0","0","40410","","null","","","null","65","","","","","","","","","","","","","","","NaN",""
"","S1","","html-keyboard-response","428","477936","0.0-1.0-596.0","0","0","40410","","null","","","null","66","","","","","","","","","","","","","","","",""
"","ISI","","html-keyboard-response","429","479938","0.0-1.0-597.0","0","0","40410","","null","","","null","66","NaN","","","","","","","","","","","","","","",""
"","S2","","html-keyboard-response","430","480191","0.0-1.0-598.0","0","0","40410","","null","","","null","66","","NaN","","","","","","","","","","","","","",""
"","response","","html-keyboard-response","431","481198","0.0-1.0-599.0","0","0","40410","","1006","","","68","66","","","2","66","training","adjacent","EF","5","6","P.jpg","Q.jpg","1","1","1","",""
"","feedback","","html-keyboard-response","432","482202","0.0-1.0-600.0-0.0","0","0","40410","","null","","","null","66","","","","","","","","","","","","","","","",""
"","ITI","","html-keyboard-response","433","483204","0.0-1.0-603.0","0","0","40410","","null","","","null","66","","","","","","","","","","","","","","","NaN",""
"","S1","","html-keyboard-response","434","483456","0.0-1.0-605.0","0","0","40410","","null","","","null","67","","","","","","","","","","","","","","","",""
"","ISI","","html-keyboard-response","435","485458","0.0-1.0-606.0","0","0","40410","","null","","","null","67","NaN","","","","","","","","","","","","","","",""
"","S2","","html-keyboard-response","436","485710","0.0-1.0-607.0","0","0","40410","","null","","","null","67","","NaN","","","","","","","","","","","","","",""
"","response","","html-keyboard-response","437","486392","0.0-1.0-608.0","0","0","40410","","678","","","68","67","","","2","67","training","adjacent","ED","5","4","P.jpg","L.jpg","1","0","0","",""
"","feedback","","html-keyboard-response","438","487393","0.0-1.0-609.0-0.0","0","0","40410","","null","","","null","67","","","","","","","","","","","","","","","",""
"","time_out","","html-keyboard-response","439","489396","0.0-1.0-611.0-0.0","0","0","40410","","null","","","null","67","","","","","","","","","","","","","","","",""
"","ITI","","html-keyboard-response","440","490398","0.0-1.0-612.0","0","0","40410","","null","","","null","67","","","","","","","","","","","","","","","NaN",""
"","S1","","html-keyboard-response","441","490651","0.0-1.0-614.0","0","0","40410","","null","","","null","68","","","","","","","","","","","","","","","",""
"","ISI","","html-keyboard-response","442","492652","0.0-1.0-615.0","0","0","40410","","null","","","null","68","NaN","","","","","","","","","","","","","","",""
"","S2","","html-keyboard-response","443","492910","0.0-1.0-616.0","0","0","40410","","null","","","null","68","","NaN","","","","","","","","","","","","","",""
"","response","","html-keyboard-response","444","493215","0.0-1.0-617.0","0","0","40410","","302","","","68","68","","","2","68","training","adjacent","ED","5","4","P.jpg","L.jpg","1","0","0","",""
"","feedback","","html-keyboard-response","445","494218","0.0-1.0-618.0-0.0","0","0","40410","","null","","","null","68","","","","","","","","","","","","","","","",""
"","time_out","","html-keyboard-response","446","496220","0.0-1.0-620.0-0.0","0","0","40410","","null","","","null","68","","","","","","","","","","","","","","","",""
"","ITI","","html-keyboard-response","447","497222","0.0-1.0-621.0","0","0","40410","","null","","","null","68","","","","","","","","","","","","","","","NaN",""
"","S1","","html-keyboard-response","448","497476","0.0-1.0-623.0","0","0","40410","","null","","","null","69","","","","","","","","","","","","","","","",""
"","ISI","","html-keyboard-response","449","499478","0.0-1.0-624.0","0","0","40410","","null","","","null","69","NaN","","","","","","","","","","","","","","",""
"","S2","","html-keyboard-response","450","499730","0.0-1.0-625.0","0","0","40410","","null","","","null","69","","NaN","","","","","","","","","","","","","",""
"","response","","html-keyboard-response","451","500488","0.0-1.0-626.0","0","0","40410","","754","","","68","69","","","2","69","training","adjacent","CB","3","2","R.jpg","M.jpg","1","0","0","",""
"","feedback","","html-keyboard-response","452","501492","0.0-1.0-627.0-0.0","0","0","40410","","null","","","null","69","","","","","","","","","","","","","","","",""
"","time_out","","html-keyboard-response","453","503495","0.0-1.0-629.0-0.0","0","0","40410","","null","","","null","69","","","","","","","","","","","","","","","",""
"","ITI","","html-keyboard-response","454","504504","0.0-1.0-630.0","0","0","40410","","null","","","null","69","","","","","","","","","","","","","","","NaN",""
"","S1","","html-keyboard-response","455","504756","0.0-1.0-632.0","0","0","40410","","null","","","null","70","","","","","","","","","","","","","","","",""
"","ISI","","html-keyboard-response","456","506759","0.0-1.0-633.0","0","0","40410","","null","","","null","70","NaN","","","","","","","","","","","","","","",""
"","S2","","html-keyboard-response","457","507010","0.0-1.0-634.0","0","0","40410","","null","","","null","70","","NaN","","","","","","","","","","","","","",""
"","response","","html-keyboard-response","458","507544","0.0-1.0-635.0","0","0","40410","","528","","","68","70","","","2","70","training","adjacent","FG","6","7","Q.jpg","N.jpg","1","1","1","",""
"","feedback","","html-keyboard-response","459","508548","0.0-1.0-636.0-0.0","0","0","40410","","null","","","null","70","","","","","","","","","","","","","","","",""
"","ITI","","html-keyboard-response","460","509552","0.0-1.0-639.0","0","0","40410","","null","","","null","70","","","","","","","","","","","","","","","NaN",""
"","S1","","html-keyboard-response","461","509809","0.0-1.0-641.0","0","0","40410","","null","","","null","71","","","","","","","","","","","","","","","",""
"","ISI","","html-keyboard-response","462","511811","0.0-1.0-642.0","0","0","40410","","null","","","null","71","NaN","","","","","","","","","","","","","","",""
"","S2","","html-keyboard-response","463","512063","0.0-1.0-643.0","0","0","40410","","null","","","null","71","","NaN","","","","","","","","","","","","","",""
"","response","","html-keyboard-response","464","512927","0.0-1.0-644.0","0","0","40410","","861","","","68","71","","","2","71","training","adjacent","ED","5","4","P.jpg","L.jpg","1","0","0","",""
"","feedback","","html-keyboard-response","465","513930","0.0-1.0-645.0-0.0","0","0","40410","","null","","","null","71","","","","","","","","","","","","","","","",""
"","time_out","","html-keyboard-response","466","515933","0.0-1.0-647.0-0.0","0","0","40410","","null","","","null","71","","","","","","","","","","","","","","","",""
"","ITI","","html-keyboard-response","467","516936","0.0-1.0-648.0","0","0","40410","","null","","","null","71","","","","","","","","","","","","","","","NaN",""
"","S1","","html-keyboard-response","468","517189","0.0-1.0-650.0","0","0","40410","","null","","","null","72","","","","","","","","","","","","","","","",""
"","ISI","","html-keyboard-response","469","519191","0.0-1.0-651.0","0","0","40410","","null","","","null","72","NaN","","","","","","","","","","","","","","",""
"","S2","","html-keyboard-response","470","519444","0.0-1.0-652.0","0","0","40410","","null","","","null","72","","NaN","","","","","","","","","","","","","",""
"","response","","html-keyboard-response","471","520015","0.0-1.0-653.0","0","0","40410","","568","","","68","72","","","2","72","training","adjacent","FG","6","7","Q.jpg","N.jpg","1","1","1","",""
"","feedback","","html-keyboard-response","472","521019","0.0-1.0-654.0-0.0","0","0","40410","","null","","","null","72","","","","","","","","","","","","","","","",""
"","ITI","","html-keyboard-response","473","522023","0.0-1.0-657.0","0","0","40410","","null","","","null","72","","","","","","","","","","","","","","","NaN",""
"","S1","","html-keyboard-response","474","522280","0.0-1.0-659.0","0","0","40410","","null","","","null","73","","","","","","","","","","","","","","","",""
"","ISI","","html-keyboard-response","475","524282","0.0-1.0-660.0","0","0","40410","","null","","","null","73","NaN","","","","","","","","","","","","","","",""
"","S2","","html-keyboard-response","476","524534","0.0-1.0-661.0","0","0","40410","","null","","","null","73","","NaN","","","","","","","","","","","","","",""
"","response","","html-keyboard-response","477","525151","0.0-1.0-662.0","0","0","40410","","614","","","68","73","","","2","73","training","adjacent","EF","5","6","P.jpg","Q.jpg","1","1","1","",""
"","feedback","","html-keyboard-response","478","526153","0.0-1.0-663.0-0.0","0","0","40410","","null","","","null","73","","","","","","","","","","","","","","","",""
"","ITI","","html-keyboard-response","479","527157","0.0-1.0-666.0","0","0","40410","","null","","","null","73","","","","","","","","","","","","","","","NaN",""
"","S1","","html-keyboard-response","480","527409","0.0-1.0-668.0","0","0","40410","","null","","","null","74","","","","","","","","","","","","","","","",""
"","ISI","","html-keyboard-response","481","529411","0.0-1.0-669.0","0","0","40410","","null","","","null","74","NaN","","","","","","","","","","","","","","",""
"","S2","","html-keyboard-response","482","529713","0.0-1.0-670.0","0","0","40410","","null","","","null","74","","NaN","","","","","","","","","","","","","",""
"","response","","html-keyboard-response","483","530185","0.0-1.0-671.0","0","0","40410","","467","","","75","74","","","2","74","training","adjacent","CB","3","2","R.jpg","M.jpg","0","0","1","",""
"","feedback","","html-keyboard-response","484","531188","0.0-1.0-672.0-0.0","0","0","40410","","null","","","null","74","","","","","","","","","","","","","","","",""
"","ITI","","html-keyboard-response","485","532191","0.0-1.0-675.0","0","0","40410","","null","","","null","74","","","","","","","","","","","","","","","NaN",""
"","S1","","html-keyboard-response","486","532469","0.0-1.0-677.0","0","0","40410","","null","","","null","75","","","","","","","","","","","","","","","",""
"","ISI","","html-keyboard-response","487","534473","0.0-1.0-678.0","0","0","40410","","null","","","null","75","NaN","","","","","","","","","","","","","","",""
"","S2","","html-keyboard-response","488","534735","0.0-1.0-679.0","0","0","40410","","null","","","null","75","","NaN","","","","","","","","","","","","","",""
"","response","","html-keyboard-response","489","534935","0.0-1.0-680.0","0","0","40410","","197","","","75","75","","","2","75","training","adjacent","FE","6","5","Q.jpg","P.jpg","0","0","1","",""
"","feedback","","html-keyboard-response","490","535938","0.0-1.0-681.0-0.0","0","0","40410","","null","","","null","75","","","","","","","","","","","","","","","",""
"","ITI","","html-keyboard-response","491","536940","0.0-1.0-684.0","0","0","40410","","null","","","null","75","","","","","","","","","","","","","","","NaN",""
"","S1","","html-keyboard-response","492","537192","0.0-1.0-686.0","0","0","40410","","null","","","null","76","","","","","","","","","","","","","","","",""
"","ISI","","html-keyboard-response","493","539194","0.0-1.0-687.0","0","0","40410","","null","","","null","76","NaN","","","","","","","","","","","","","","",""
"","S2","","html-keyboard-response","494","539447","0.0-1.0-688.0","0","0","40410","","null","","","null","76","","NaN","","","","","","","","","","","","","",""
"","response","","html-keyboard-response","495","539695","0.0-1.0-689.0","0","0","40410","","245","","","75","76","","","2","76","training","adjacent","GF","7","6","N.jpg","Q.jpg","0","0","1","",""
"","feedback","","html-keyboard-response","496","540697","0.0-1.0-690.0-0.0","0","0","40410","","null","","","null","76","","","","","","","","","","","","","","","",""
"","ITI","","html-keyboard-response","497","541699","0.0-1.0-693.0","0","0","40410","","null","","","null","76","","","","","","","","","","","","","","","NaN",""
"","S1","","html-keyboard-response","498","541952","0.0-1.0-695.0","0","0","40410","","null","","","null","77","","","","","","","","","","","","","","","",""
"","ISI","","html-keyboard-response","499","543954","0.0-1.0-696.0","0","0","40410","","null","","","null","77","NaN","","","","","","","","","","","","","","",""
"","S2","","html-keyboard-response","500","544206","0.0-1.0-697.0","0","0","40410","","null","","","null","77","","NaN","","","","","","","","","","","","","",""
"","response","","html-keyboard-response","501","544703","0.0-1.0-698.0","0","0","40410","","494","","","75","77","","","2","77","training","adjacent","FE","6","5","Q.jpg","P.jpg","0","0","1","",""
"","feedback","","html-keyboard-response","502","545707","0.0-1.0-699.0-0.0","0","0","40410","","null","","","null","77","","","","","","","","","","","","","","","",""
"","ITI","","html-keyboard-response","503","546712","0.0-1.0-702.0","0","0","40410","","null","","","null","77","","","","","","","","","","","","","","","NaN",""
"","S1","","html-keyboard-response","504","546965","0.0-1.0-704.0","0","0","40410","","null","","","null","78","","","","","","","","","","","","","","","",""
"","ISI","","html-keyboard-response","505","548966","0.0-1.0-705.0","0","0","40410","","null","","","null","78","NaN","","","","","","","","","","","","","","",""
"","S2","","html-keyboard-response","506","549219","0.0-1.0-706.0","0","0","40410","","null","","","null","78","","NaN","","","","","","","","","","","","","",""
"","response","","html-keyboard-response","507","549911","0.0-1.0-707.0","0","0","40410","","689","","","68","78","","","2","78","training","adjacent","CD","3","4","R.jpg","L.jpg","1","1","1","",""
"","feedback","","html-keyboard-response","508","550914","0.0-1.0-708.0-0.0","0","0","40410","","null","","","null","78","","","","","","","","","","","","","","","",""
"","ITI","","html-keyboard-response","509","551917","0.0-1.0-711.0","0","0","40410","","null","","","null","78","","","","","","","","","","","","","","","NaN",""
"","S1","","html-keyboard-response","510","552172","0.0-1.0-713.0","0","0","40410","","null","","","null","79","","","","","","","","","","","","","","","",""
"","ISI","","html-keyboard-response","511","554182","0.0-1.0-714.0","0","0","40410","","null","","","null","79","NaN","","","","","","","","","","","","","","",""
"","S2","","html-keyboard-response","512","554437","0.0-1.0-715.0","0","0","40410","","null","","","null","79","","NaN","","","","","","","","","","","","","",""
"","response","","html-keyboard-response","513","555126","0.0-1.0-716.0","0","0","40410","","686","","","75","79","","","2","79","training","adjacent","DE","4","5","L.jpg","P.jpg","0","1","0","",""
"","feedback","","html-keyboard-response","514","556128","0.0-1.0-717.0-0.0","0","0","40410","","null","","","null","79","","","","","","","","","","","","","","","",""
"","time_out","","html-keyboard-response","515","558130","0.0-1.0-719.0-0.0","0","0","40410","","null","","","null","79","","","","","","","","","","","","","","","",""
"","ITI","","html-keyboard-response","516","559132","0.0-1.0-720.0","0","0","40410","","null","","","null","79","","","","","","","","","","","","","","","NaN",""
"","S1","","html-keyboard-response","517","559385","0.0-1.0-722.0","0","0","40410","","null","","","null","80","","","","","","","","","","","","","","","",""
"","ISI","","html-keyboard-response","518","561386","0.0-1.0-723.0","0","0","40410","","null","","","null","80","NaN","","","","","","","","","","","","","","",""
"","S2","","html-keyboard-response","519","561638","0.0-1.0-724.0","0","0","40410","","null","","","null","80","","NaN","","","","","","","","","","","","","",""
"","response","","html-keyboard-response","520","561895","0.0-1.0-725.0","0","0","40410","","254","","","75","80","","","2","80","training","adjacent","GF","7","6","N.jpg","Q.jpg","0","0","1","",""
"","feedback","","html-keyboard-response","521","562899","0.0-1.0-726.0-0.0","0","0","40410","","null","","","null","80","","","","","","","","","","","","","","","",""
"","ITI","","html-keyboard-response","522","563903","0.0-1.0-729.0","0","0","40410","","null","","","null","80","","","","","","","","","","","","","","","NaN",""
"","S1","","html-keyboard-response","523","564156","0.0-1.0-731.0","0","0","40410","","null","","","null","81","","","","","","","","","","","","","","","",""
"","ISI","","html-keyboard-response","524","566157","0.0-1.0-732.0","0","0","40410","","null","","","null","81","NaN","","","","","","","","","","","","","","",""
"","S2","","html-keyboard-response","525","566410","0.0-1.0-733.0","0","0","40410","","null","","","null","81","","NaN","","","","","","","","","","","","","",""
"","response","","html-keyboard-response","526","567273","0.0-1.0-734.0","0","0","40410","","859","","","68","81","","","2","81","training","adjacent","DE","4","5","L.jpg","P.jpg","1","1","1","",""
"","feedback","","html-keyboard-response","527","568282","0.0-1.0-735.0-0.0","0","0","40410","","null","","","null","81","","","","","","","","","","","","","","","",""
"","ITI","","html-keyboard-response","528","569286","0.0-1.0-738.0","0","0","40410","","null","","","null","81","","","","","","","","","","","","","","","NaN",""
"","S1","","html-keyboard-response","529","569543","0.0-1.0-740.0","0","0","40410","","null","","","null","82","","","","","","","","","","","","","","","",""
"","ISI","","html-keyboard-response","530","571548","0.0-1.0-741.0","0","0","40410","","null","","","null","82","NaN","","","","","","","","","","","","","","",""
"","S2","","html-keyboard-response","531","571800","0.0-1.0-742.0","0","0","40410","","null","","","null","82","","NaN","","","","","","","","","","","","","",""
"","response","","html-keyboard-response","532","572486","0.0-1.0-743.0","0","0","40410","","683","","","75","82","","","2","82","training","adjacent","FE","6","5","Q.jpg","P.jpg","0","0","1","",""
"","feedback","","html-keyboard-response","533","573489","0.0-1.0-744.0-0.0","0","0","40410","","null","","","null","82","","","","","","","","","","","","","","","",""
"","ITI","","html-keyboard-response","534","574491","0.0-1.0-747.0","0","0","40410","","null","","","null","82","","","","","","","","","","","","","","","NaN",""
"","S1","","html-keyboard-response","535","574743","0.0-1.0-749.0","0","0","40410","","null","","","null","83","","","","","","","","","","","","","","","",""
"","ISI","","html-keyboard-response","536","576746","0.0-1.0-750.0","0","0","40410","","null","","","null","83","NaN","","","","","","","","","","","","","","",""
"","S2","","html-keyboard-response","537","576998","0.0-1.0-751.0","0","0","40410","","null","","","null","83","","NaN","","","","","","","","","","","","","",""
"","response","","html-keyboard-response","538","578622","0.0-1.0-752.0","0","0","40410","","1623","","","68","83","","","2","83","training","adjacent","DC","4","3","L.jpg","R.jpg","1","0","0","",""
"","feedback","","html-keyboard-response","539","579625","0.0-1.0-753.0-0.0","0","0","40410","","null","","","null","83","","","","","","","","","","","","","","","",""
"","time_out","","html-keyboard-response","540","581630","0.0-1.0-755.0-0.0","0","0","40410","","null","","","null","83","","","","","","","","","","","","","","","",""
"","ITI","","html-keyboard-response","541","582631","0.0-1.0-756.0","0","0","40410","","null","","","null","83","","","","","","","","","","","","","","","NaN",""
"","S1","","html-keyboard-response","542","582883","0.0-1.0-758.0","0","0","40410","","null","","","null","84","","","","","","","","","","","","","","","",""
"","ISI","","html-keyboard-response","543","584885","0.0-1.0-759.0","0","0","40410","","null","","","null","84","NaN","","","","","","","","","","","","","","",""
"","S2","","html-keyboard-response","544","585139","0.0-1.0-760.0","0","0","40410","","null","","","null","84","","NaN","","","","","","","","","","","","","",""
"","response","","html-keyboard-response","545","586895","0.0-1.0-761.0","0","0","40410","","1753","","","75","84","","","2","84","training","adjacent","ED","5","4","P.jpg","L.jpg","0","0","1","",""
"","feedback","","html-keyboard-response","546","587897","0.0-1.0-762.0-0.0","0","0","40410","","null","","","null","84","","","","","","","","","","","","","","","",""
"","ITI","","html-keyboard-response","547","588899","0.0-1.0-765.0","0","0","40410","","null","","","null","84","","","","","","","","","","","","","","","NaN",""
"","S1","","html-keyboard-response","548","589151","0.0-1.0-767.0","0","0","40410","","null","","","null","85","","","","","","","","","","","","","","","",""
"","ISI","","html-keyboard-response","549","591153","0.0-1.0-768.0","0","0","40410","","null","","","null","85","NaN","","","","","","","","","","","","","","",""
"","S2","","html-keyboard-response","550","591406","0.0-1.0-769.0","0","0","40410","","null","","","null","85","","NaN","","","","","","","","","","","","","",""
"","response","","html-keyboard-response","551","591727","0.0-1.0-770.0","0","0","40410","","318","","","68","85","","","2","85","training","adjacent","CD","3","4","R.jpg","L.jpg","1","1","1","",""
"","feedback","","html-keyboard-response","552","592730","0.0-1.0-771.0-0.0","0","0","40410","","null","","","null","85","","","","","","","","","","","","","","","",""
"","ITI","","html-keyboard-response","553","593732","0.0-1.0-774.0","0","0","40410","","null","","","null","85","","","","","","","","","","","","","","","NaN",""
"","S1","","html-keyboard-response","554","593986","0.0-1.0-776.0","0","0","40410","","null","","","null","86","","","","","","","","","","","","","","","",""
"","ISI","","html-keyboard-response","555","595988","0.0-1.0-777.0","0","0","40410","","null","","","null","86","NaN","","","","","","","","","","","","","","",""
"","S2","","html-keyboard-response","556","596239","0.0-1.0-778.0","0","0","40410","","null","","","null","86","","NaN","","","","","","","","","","","","","",""
"","response","","html-keyboard-response","557","598241","0.0-1.0-779.0","0","0","40410","","null","","","null","86","","","2","86","training","adjacent","DC","4","3","L.jpg","R.jpg","NaN","0","0","",""
"","too_slow_prompt","","html-keyboard-response","558","599243","0.0-1.0-781.0-0.0","1","0","40410","","null","","","null","","","","","","","","","","","","","","","","",""
"","time_out","","html-keyboard-response","559","601247","0.0-1.0-782.0-0.0","0","0","40410","","null","","","null","86","","","","","","","","","","","","","","","",""
"","ITI","","html-keyboard-response","560","602249","0.0-1.0-783.0","0","0","40410","","null","","","null","86","","","","","","","","","","","","","","","NaN",""
"","S1","","html-keyboard-response","561","602501","0.0-1.0-785.0","0","0","40410","","null","","","null","87","","","","","","","","","","","","","","","",""
"","ISI","","html-keyboard-response","562","604503","0.0-1.0-786.0","0","0","40410","","null","","","null","87","NaN","","","","","","","","","","","","","","",""
"","S2","","html-keyboard-response","563","604755","0.0-1.0-787.0","0","0","40410","","null","","","null","87","","NaN","","","","","","","","","","","","","",""
"","response","","html-keyboard-response","564","605303","0.0-1.0-788.0","0","0","40410","","544","","","68","87","","","2","87","training","adjacent","CB","3","2","R.jpg","M.jpg","1","0","0","",""
"","feedback","","html-keyboard-response","565","606306","0.0-1.0-789.0-0.0","0","0","40410","","null","","","null","87","","","","","","","","","","","","","","","",""
"","time_out","","html-keyboard-response","566","608308","0.0-1.0-791.0-0.0","0","0","40410","","null","","","null","87","","","","","","","","","","","","","","","",""
"","ITI","","html-keyboard-response","567","609311","0.0-1.0-792.0","0","0","40410","","null","","","null","87","","","","","","","","","","","","","","","NaN",""
"","S1","","html-keyboard-response","568","609585","0.0-1.0-794.0","0","0","40410","","null","","","null","88","","","","","","","","","","","","","","","",""
"","ISI","","html-keyboard-response","569","611587","0.0-1.0-795.0","0","0","40410","","null","","","null","88","NaN","","","","","","","","","","","","","","",""
"","S2","","html-keyboard-response","570","611840","0.0-1.0-796.0","0","0","40410","","null","","","null","88","","NaN","","","","","","","","","","","","","",""
"","response","","html-keyboard-response","571","612767","0.0-1.0-797.0","0","0","40410","","924","","","68","88","","","2","88","training","adjacent","BC","2","3","M.jpg","R.jpg","1","1","1","",""
"","feedback","","html-keyboard-response","572","613770","0.0-1.0-798.0-0.0","0","0","40410","","null","","","null","88","","","","","","","","","","","","","","","",""
"","ITI","","html-keyboard-response","573","614772","0.0-1.0-801.0","0","0","40410","","null","","","null","88","","","","","","","","","","","","","","","NaN",""
"","S1","","html-keyboard-response","574","615024","0.0-1.0-803.0","0","0","40410","","null","","","null","89","","","","","","","","","","","","","","","",""
"","ISI","","html-keyboard-response","575","617026","0.0-1.0-804.0","0","0","40410","","null","","","null","89","NaN","","","","","","","","","","","","","","",""
"","S2","","html-keyboard-response","576","617280","0.0-1.0-805.0","0","0","40410","","null","","","null","89","","NaN","","","","","","","","","","","","","",""
"","response","","html-keyboard-response","577","617846","0.0-1.0-806.0","0","0","40410","","562","","","75","89","","","2","89","training","adjacent","BA","2","1","M.jpg","O.jpg","0","0","1","",""
"","feedback","","html-keyboard-response","578","618848","0.0-1.0-807.0-0.0","0","0","40410","","null","","","null","89","","","","","","","","","","","","","","","",""
"","ITI","","html-keyboard-response","579","619852","0.0-1.0-810.0","0","0","40410","","null","","","null","89","","","","","","","","","","","","","","","NaN",""
"","S1","","html-keyboard-response","580","620104","0.0-1.0-812.0","0","0","40410","","null","","","null","90","","","","","","","","","","","","","","","",""
"","ISI","","html-keyboard-response","581","622106","0.0-1.0-813.0","0","0","40410","","null","","","null","90","NaN","","","","","","","","","","","","","","",""
"","S2","","html-keyboard-response","582","622358","0.0-1.0-814.0","0","0","40410","","null","","","null","90","","NaN","","","","","","","","","","","","","",""
"","response","","html-keyboard-response","583","622575","0.0-1.0-815.0","0","0","40410","","214","","","75","90","","","2","90","training","adjacent","GF","7","6","N.jpg","Q.jpg","0","0","1","",""
"","feedback","","html-keyboard-response","584","623580","0.0-1.0-816.0-0.0","0","0","40410","","null","","","null","90","","","","","","","","","","","","","","","",""
