"success","ttype","start_time","trial_type","trial_index","time_elapsed","internal_node_id","warning","missed_checkup","PID","view_history","rt","responses","repeat_instructions","key_press","index","keypress_isi","keypress_S2","block","trial_num","phase","group_type","pair_type","S1_stim","S2_stim","S1_img","S2_img","S1_chosen","S1_higher","accuracy","keypress_iti","total_bonus_tally"
"true","full_screen","d04132023hr1751","fullscreen","0","5583","0.0-0.0","0","0","65247","","","","","","","","","","","","","","","","","","","","","",""
"","instructions","","instructions","1","50060","0.0-1.0-0.0-0.0","0","0","65247","[{""page_index"":0,""viewing_time"":8429},{""page_index"":1,""viewing_time"":25783},{""page_index"":2,""viewing_time"":7914},{""page_index"":3,""viewing_time"":2338}]","44466","","","","","","","","","","","","","","","","","","","",""
"","comprehension_check","","survey-multi-choice","2","73924","0.0-1.0-0.0-1.0","0","0","65247","","23838","{""Q0"":""True"",""Q1"":""K"",""Q2"":""Once the second image appears and while the screen 'MAKE A CHOICE' is shown"",""Q3"":""Green mark"",""Q4"":""either D or K""}","0","","","","","","","","","","","","","","","","","",""
"","start_exp","","html-keyboard-response","3","114955","0.0-1.0-1.0","0","0","65247","","41018","","","32","","","","","","","","","","","","","","","","",""
"","S1","","html-keyboard-response","4","115214","0.0-1.0-2.0","0","0","65247","","null","","","null","0","","","","","","","","","","","","","","","",""
"","ISI","","html-keyboard-response","5","116221","0.0-1.0-3.0","0","0","65247","","null","","","null","0","NaN","","","","","","","","","","","","","","",""
"","S2","","html-keyboard-response","6","116482","0.0-1.0-4.0","0","0","65247","","null","","","null","0","","NaN","","","","","","","","","","","","","",""
"","response","","html-keyboard-response","7","117213","0.0-1.0-5.0-0.0","0","0","65247","","717","","","68","0","","","1","0","training","adjacent","ED","5","4","O.jpg","M.jpg","0","0","1","",""
"","feedback","","html-keyboard-response","8","118224","0.0-1.0-6.0-0.0","0","0","65247","","null","","","null","0","","","","","","","","","","","","","","","",""
"","ITI","","html-keyboard-response","9","119234","0.0-1.0-9.0","0","0","65247","","null","","","null","0","","","","","","","","","","","","","","","NaN",""
"","S1","","html-keyboard-response","10","119497","0.0-1.0-11.0","0","0","65247","","null","","","null","1","","","","","","","","","","","","","","","",""
"","ISI","","html-keyboard-response","11","120505","0.0-1.0-12.0","0","0","65247","","null","","","null","1","NaN","","","","","","","","","","","","","","",""
"","S2","","html-keyboard-response","12","120765","0.0-1.0-13.0","0","0","65247","","null","","","null","1","","NaN","","","","","","","","","","","","","",""
"","response","","html-keyboard-response","13","121299","0.0-1.0-14.0-0.0","0","0","65247","","525","","","68","1","","","1","1","training","adjacent","ED","5","4","O.jpg","M.jpg","0","0","1","",""
"","feedback","","html-keyboard-response","14","122309","0.0-1.0-15.0-0.0","0","0","65247","","null","","","null","1","","","","","","","","","","","","","","","",""
"","ITI","","html-keyboard-response","15","123317","0.0-1.0-18.0","0","0","65247","","null","","","null","1","","","","","","","","","","","","","","","NaN",""
"","S1","","html-keyboard-response","16","123574","0.0-1.0-20.0","0","0","65247","","null","","","null","2","","","","","","","","","","","","","","","",""
"","ISI","","html-keyboard-response","17","124582","0.0-1.0-21.0","0","0","65247","","null","","","null","2","NaN","","","","","","","","","","","","","","",""
"","S2","","html-keyboard-response","18","124844","0.0-1.0-22.0","0","0","65247","","null","","","null","2","","NaN","","","","","","","","","","","","","",""
"","response","","html-keyboard-response","19","125073","0.0-1.0-23.0-0.0","0","0","65247","","221","","","75","2","","","1","2","training","adjacent","BA","2","1","R.jpg","N.jpg","1","0","0","",""
"","feedback","","html-keyboard-response","20","126082","0.0-1.0-24.0-0.0","0","0","65247","","null","","","null","2","","","","","","","","","","","","","","","",""
"","time_out","","html-keyboard-response","21","128091","0.0-1.0-26.0-0.0","0","0","65247","","null","","","null","2","","","","","","","","","","","","","","","",""
"","ITI","","html-keyboard-response","22","129100","0.0-1.0-27.0","0","0","65247","","null","","","null","2","","","","","","","","","","","","","","","NaN",""
"","S1","","html-keyboard-response","23","129359","0.0-1.0-29.0","0","0","65247","","null","","","null","3","","","","","","","","","","","","","","","",""
"","ISI","","html-keyboard-response","24","130366","0.0-1.0-30.0","0","0","65247","","null","","","null","3","NaN","","","","","","","","","","","","","","",""
"","S2","","html-keyboard-response","25","130626","0.0-1.0-31.0","0","0","65247","","null","","","null","3","","NaN","","","","","","","","","","","","","",""
"","response","","html-keyboard-response","26","131150","0.0-1.0-32.0-0.0","0","0","65247","","517","","","68","3","","","1","3","training","adjacent","ED","5","4","O.jpg","M.jpg","0","0","1","",""
"","feedback","","html-keyboard-response","27","132160","0.0-1.0-33.0-0.0","0","0","65247","","null","","","null","3","","","","","","","","","","","","","","","",""
"","ITI","","html-keyboard-response","28","133169","0.0-1.0-36.0","0","0","65247","","null","","","null","3","","","","","","","","","","","","","","","NaN",""
"","S1","","html-keyboard-response","29","133427","0.0-1.0-38.0","0","0","65247","","null","","","null","4","","","","","","","","","","","","","","","",""
"","ISI","","html-keyboard-response","30","134435","0.0-1.0-39.0","0","0","65247","","null","","","null","4","NaN","","","","","","","","","","","","","","",""
"","S2","","html-keyboard-response","31","134694","0.0-1.0-40.0","0","0","65247","","null","","","null","4","","NaN","","","","","","","","","","","","","",""
"","response","","html-keyboard-response","32","135407","0.0-1.0-41.0-0.0","0","0","65247","","705","","","68","4","","","1","4","training","adjacent","ED","5","4","O.jpg","M.jpg","0","0","1","",""
"","feedback","","html-keyboard-response","33","136415","0.0-1.0-42.0-0.0","0","0","65247","","null","","","null","4","","","","","","","","","","","","","","","",""
"","ITI","","html-keyboard-response","34","137423","0.0-1.0-45.0","0","0","65247","","null","","","null","4","","","","","","","","","","","","","","","NaN",""
"","S1","","html-keyboard-response","35","137682","0.0-1.0-47.0","0","0","65247","","null","","","null","5","","","","","","","","","","","","","","","",""
"","ISI","","html-keyboard-response","36","138690","0.0-1.0-48.0","0","0","65247","","null","","","null","5","NaN","","","","","","","","","","","","","","",""
"","S2","","html-keyboard-response","37","138950","0.0-1.0-49.0","0","0","65247","","null","","","null","5","","NaN","","","","","","","","","","","","","",""
"","response","","html-keyboard-response","38","139247","0.0-1.0-50.0-0.0","0","0","65247","","289","","","75","5","","","1","5","training","adjacent","BC","2","3","R.jpg","L.jpg","1","1","1","",""
"","feedback","","html-keyboard-response","39","140259","0.0-1.0-51.0-0.0","0","0","65247","","null","","","null","5","","","","","","","","","","","","","","","",""
"","ITI","","html-keyboard-response","40","141268","0.0-1.0-54.0","0","0","65247","","null","","","null","5","","","","","","","","","","","","","","","NaN",""
"","S1","","html-keyboard-response","41","141527","0.0-1.0-56.0","0","0","65247","","null","","","null","6","","","","","","","","","","","","","","","",""
"","ISI","","html-keyboard-response","42","142535","0.0-1.0-57.0","0","0","65247","","null","","","null","6","NaN","","","","","","","","","","","","","","",""
"","S2","","html-keyboard-response","43","142793","0.0-1.0-58.0","0","0","65247","","null","","","null","6","","NaN","","","","","","","","","","","","","",""
"","response","","html-keyboard-response","44","143298","0.0-1.0-59.0-0.0","0","0","65247","","498","","","68","6","","","1","6","training","adjacent","CB","3","2","L.jpg","R.jpg","0","0","1","",""
"","feedback","","html-keyboard-response","45","144307","0.0-1.0-60.0-0.0","0","0","65247","","null","","","null","6","","","","","","","","","","","","","","","",""
"","ITI","","html-keyboard-response","46","145316","0.0-1.0-63.0","0","0","65247","","null","","","null","6","","","","","","","","","","","","","","","NaN",""
"","S1","","html-keyboard-response","47","145575","0.0-1.0-65.0","0","0","65247","","null","","","null","7","","","","","","","","","","","","","","","",""
"","ISI","","html-keyboard-response","48","146582","0.0-1.0-66.0","0","0","65247","","null","","","null","7","NaN","","","","","","","","","","","","","","",""
"","S2","","html-keyboard-response","49","146842","0.0-1.0-67.0","0","0","65247","","null","","","null","7","","NaN","","","","","","","","","","","","","",""
"","response","","html-keyboard-response","50","147280","0.0-1.0-68.0-0.0","0","0","65247","","431","","","68","7","","","1","7","training","adjacent","CD","3","4","L.jpg","M.jpg","0","1","0","",""
"","feedback","","html-keyboard-response","51","148288","0.0-1.0-69.0-0.0","0","0","65247","","null","","","null","7","","","","","","","","","","","","","","","",""
"","time_out","","html-keyboard-response","52","150297","0.0-1.0-71.0-0.0","0","0","65247","","null","","","null","7","","","","","","","","","","","","","","","",""
"","ITI","","html-keyboard-response","53","151305","0.0-1.0-72.0","0","0","65247","","null","","","null","7","","","","","","","","","","","","","","","NaN",""
"","S1","","html-keyboard-response","54","151565","0.0-1.0-74.0","0","0","65247","","null","","","null","8","","","","","","","","","","","","","","","",""
"","ISI","","html-keyboard-response","55","152573","0.0-1.0-75.0","0","0","65247","","null","","","null","8","NaN","","","","","","","","","","","","","","",""
"","S2","","html-keyboard-response","56","152833","0.0-1.0-76.0","0","0","65247","","null","","","null","8","","NaN","","","","","","","","","","","","","",""
"","response","","html-keyboard-response","57","153227","0.0-1.0-77.0-0.0","0","0","65247","","387","","","68","8","","","1","8","training","adjacent","AB","1","2","N.jpg","R.jpg","0","1","0","",""
"","feedback","","html-keyboard-response","58","154238","0.0-1.0-78.0-0.0","0","0","65247","","null","","","null","8","","","","","","","","","","","","","","","",""
"","time_out","","html-keyboard-response","59","156247","0.0-1.0-80.0-0.0","0","0","65247","","null","","","null","8","","","","","","","","","","","","","","","",""
"","ITI","","html-keyboard-response","60","157259","0.0-1.0-81.0","0","0","65247","","null","","","null","8","","","","","","","","","","","","","","","NaN",""
"","S1","","html-keyboard-response","61","157521","0.0-1.0-83.0","0","0","65247","","null","","","null","9","","","","","","","","","","","","","","","",""
"","ISI","","html-keyboard-response","62","158529","0.0-1.0-84.0","0","0","65247","","null","","","null","9","NaN","","","","","","","","","","","","","","",""
"","S2","","html-keyboard-response","63","158788","0.0-1.0-85.0","0","0","65247","","null","","","null","9","","NaN","","","","","","","","","","","","","",""
"","response","","html-keyboard-response","64","159306","0.0-1.0-86.0-0.0","0","0","65247","","512","","","68","9","","","1","9","training","adjacent","FG","6","7","Q.jpg","P.jpg","0","1","0","",""
"","feedback","","html-keyboard-response","65","160314","0.0-1.0-87.0-0.0","0","0","65247","","null","","","null","9","","","","","","","","","","","","","","","",""
"","time_out","","html-keyboard-response","66","162322","0.0-1.0-89.0-0.0","0","0","65247","","null","","","null","9","","","","","","","","","","","","","","","",""
"","ITI","","html-keyboard-response","67","163330","0.0-1.0-90.0","0","0","65247","","null","","","null","9","","","","","","","","","","","","","","","NaN",""
"","S1","","html-keyboard-response","68","163592","0.0-1.0-92.0","0","0","65247","","null","","","null","10","","","","","","","","","","","","","","","",""
"","ISI","","html-keyboard-response","69","164601","0.0-1.0-93.0","0","0","65247","","null","","","null","10","NaN","","","","","","","","","","","","","","",""
"","S2","","html-keyboard-response","70","164860","0.0-1.0-94.0","0","0","65247","","null","","","null","10","","NaN","","","","","","","","","","","","","",""
"","response","","html-keyboard-response","71","165229","0.0-1.0-95.0-0.0","0","0","65247","","362","","","75","10","","","1","10","training","adjacent","BC","2","3","R.jpg","L.jpg","1","1","1","",""
"","feedback","","html-keyboard-response","72","166237","0.0-1.0-96.0-0.0","0","0","65247","","null","","","null","10","","","","","","","","","","","","","","","",""
"","ITI","","html-keyboard-response","73","167245","0.0-1.0-99.0","0","0","65247","","null","","","null","10","","","","","","","","","","","","","","","NaN",""
"","S1","","html-keyboard-response","74","167504","0.0-1.0-101.0","0","0","65247","","null","","","null","11","","","","","","","","","","","","","","","",""
"","ISI","","html-keyboard-response","75","168511","0.0-1.0-102.0","0","0","65247","","null","","","null","11","NaN","","","","","","","","","","","","","","",""
"","S2","","html-keyboard-response","76","168772","0.0-1.0-103.0","0","0","65247","","null","","","null","11","","NaN","","","","","","","","","","","","","",""
"","response","","html-keyboard-response","77","169423","0.0-1.0-104.0-0.0","0","0","65247","","645","","","68","11","","","1","11","training","adjacent","DC","4","3","M.jpg","L.jpg","0","0","1","",""
"","feedback","","html-keyboard-response","78","170431","0.0-1.0-105.0-0.0","0","0","65247","","null","","","null","11","","","","","","","","","","","","","","","",""
"","ITI","","html-keyboard-response","79","171440","0.0-1.0-108.0","0","0","65247","","null","","","null","11","","","","","","","","","","","","","","","NaN",""
"","S1","","html-keyboard-response","80","171699","0.0-1.0-110.0","0","0","65247","","null","","","null","12","","","","","","","","","","","","","","","",""
"","ISI","","html-keyboard-response","81","172707","0.0-1.0-111.0","0","0","65247","","null","","","null","12","NaN","","","","","","","","","","","","","","",""
"","S2","","html-keyboard-response","82","172968","0.0-1.0-112.0","0","0","65247","","null","","","null","12","","NaN","","","","","","","","","","","","","",""
"","response","","html-keyboard-response","83","173623","0.0-1.0-113.0-0.0","0","0","65247","","649","","","75","12","","","1","12","training","adjacent","DC","4","3","M.jpg","L.jpg","1","0","0","",""
"","feedback","","html-keyboard-response","84","174631","0.0-1.0-114.0-0.0","0","0","65247","","null","","","null","12","","","","","","","","","","","","","","","",""
"","time_out","","html-keyboard-response","85","176642","0.0-1.0-116.0-0.0","0","0","65247","","null","","","null","12","","","","","","","","","","","","","","","",""
"","ITI","","html-keyboard-response","86","177650","0.0-1.0-117.0","0","0","65247","","null","","","null","12","","","","","","","","","","","","","","","NaN",""
"","S1","","html-keyboard-response","87","177911","0.0-1.0-119.0","0","0","65247","","null","","","null","13","","","","","","","","","","","","","","","",""
"","ISI","","html-keyboard-response","88","178919","0.0-1.0-120.0","0","0","65247","","null","","","null","13","NaN","","","","","","","","","","","","","","",""
"","S2","","html-keyboard-response","89","179179","0.0-1.0-121.0","0","0","65247","","null","","","null","13","","NaN","","","","","","","","","","","","","",""
"","response","","html-keyboard-response","90","179643","0.0-1.0-122.0-0.0","0","0","65247","","457","","","68","13","","","1","13","training","adjacent","CD","3","4","L.jpg","M.jpg","0","1","0","",""
"","feedback","","html-keyboard-response","91","180656","0.0-1.0-123.0-0.0","0","0","65247","","null","","","null","13","","","","","","","","","","","","","","","",""
"","time_out","","html-keyboard-response","92","182664","0.0-1.0-125.0-0.0","0","0","65247","","null","","","null","13","","","","","","","","","","","","","","","",""
"","ITI","","html-keyboard-response","93","183670","0.0-1.0-126.0","0","0","65247","","null","","","null","13","","","","","","","","","","","","","","","NaN",""
"","S1","","html-keyboard-response","94","183929","0.0-1.0-128.0","0","0","65247","","null","","","null","14","","","","","","","","","","","","","","","",""
"","ISI","","html-keyboard-response","95","184937","0.0-1.0-129.0","0","0","65247","","null","","","null","14","NaN","","","","","","","","","","","","","","",""
"","S2","","html-keyboard-response","96","185196","0.0-1.0-130.0","0","0","65247","","null","","","null","14","","NaN","","","","","","","","","","","","","",""
"","response","","html-keyboard-response","97","185792","0.0-1.0-131.0-0.0","0","0","65247","","589","","","75","14","","","1","14","training","adjacent","FE","6","5","Q.jpg","O.jpg","1","0","0","",""
"","feedback","","html-keyboard-response","98","186800","0.0-1.0-132.0-0.0","0","0","65247","","null","","","null","14","","","","","","","","","","","","","","","",""
"","time_out","","html-keyboard-response","99","188809","0.0-1.0-134.0-0.0","0","0","65247","","null","","","null","14","","","","","","","","","","","","","","","",""
"","ITI","","html-keyboard-response","100","189818","0.0-1.0-135.0","0","0","65247","","null","","","null","14","","","","","","","","","","","","","","","NaN",""
"","S1","","html-keyboard-response","101","190076","0.0-1.0-137.0","0","0","65247","","null","","","null","15","","","","","","","","","","","","","","","",""
"","ISI","","html-keyboard-response","102","191083","0.0-1.0-138.0","0","0","65247","","null","","","null","15","NaN","","","","","","","","","","","","","","",""
"","S2","","html-keyboard-response","103","191343","0.0-1.0-139.0","0","0","65247","","null","","","null","15","","NaN","","","","","","","","","","","","","",""
"","response","","html-keyboard-response","104","192347","0.0-1.0-140.0-0.0","0","0","65247","","997","","","68","15","","","1","15","training","adjacent","EF","5","6","O.jpg","Q.jpg","0","1","0","",""
"","feedback","","html-keyboard-response","105","193358","0.0-1.0-141.0-0.0","0","0","65247","","null","","","null","15","","","","","","","","","","","","","","","",""
"","time_out","","html-keyboard-response","106","195367","0.0-1.0-143.0-0.0","0","0","65247","","null","","","null","15","","","","","","","","","","","","","","","",""
"","ITI","","html-keyboard-response","107","196377","0.0-1.0-144.0","0","0","65247","","null","","","null","15","","","","","","","","","","","","","","","NaN",""
"","S1","","html-keyboard-response","108","196637","0.0-1.0-146.0","0","0","65247","","null","","","null","16","","","","","","","","","","","","","","","",""
"","ISI","","html-keyboard-response","109","197645","0.0-1.0-147.0","0","0","65247","","null","","","null","16","NaN","","","","","","","","","","","","","","",""
"","S2","","html-keyboard-response","110","197904","0.0-1.0-148.0","0","0","65247","","null","","","null","16","","NaN","","","","","","","","","","","","","",""
"","response","","html-keyboard-response","111","198358","0.0-1.0-149.0-0.0","0","0","65247","","445","","","75","16","","","1","16","training","adjacent","BA","2","1","R.jpg","N.jpg","1","0","0","",""
"","feedback","","html-keyboard-response","112","199367","0.0-1.0-150.0-0.0","0","0","65247","","null","","","null","16","","","","","","","","","","","","","","","",""
"","time_out","","html-keyboard-response","113","201375","0.0-1.0-152.0-0.0","0","0","65247","","null","","","null","16","","","","","","","","","","","","","","","",""
"","ITI","","html-keyboard-response","114","202381","0.0-1.0-153.0","0","0","65247","","null","","","null","16","","","","","","","","","","","","","","","NaN",""
"","S1","","html-keyboard-response","115","202642","0.0-1.0-155.0","0","0","65247","","null","","","null","17","","","","","","","","","","","","","","","",""
"","ISI","","html-keyboard-response","116","203652","0.0-1.0-156.0","0","0","65247","","null","","","null","17","NaN","","","","","","","","","","","","","","",""
"","S2","","html-keyboard-response","117","203912","0.0-1.0-157.0","0","0","65247","","null","","","null","17","","NaN","","","","","","","","","","","","","",""
"","response","","html-keyboard-response","118","205189","0.0-1.0-158.0-0.0","0","0","65247","","1267","","","68","17","","","1","17","training","adjacent","CB","3","2","L.jpg","R.jpg","0","0","1","",""
"","feedback","","html-keyboard-response","119","206200","0.0-1.0-159.0-0.0","0","0","65247","","null","","","null","17","","","","","","","","","","","","","","","",""
"","ITI","","html-keyboard-response","120","207209","0.0-1.0-162.0","0","0","65247","","null","","","null","17","","","","","","","","","","","","","","","NaN",""
"","S1","","html-keyboard-response","121","207467","0.0-1.0-164.0","0","0","65247","","null","","","null","18","","","","","","","","","","","","","","","",""
"","ISI","","html-keyboard-response","122","208475","0.0-1.0-165.0","0","0","65247","","null","","","null","18","NaN","","","","","","","","","","","","","","",""
"","S2","","html-keyboard-response","123","208736","0.0-1.0-166.0","0","0","65247","","null","","","null","18","","NaN","","","","","","","","","","","","","",""
"","response","","html-keyboard-response","124","209222","0.0-1.0-167.0-0.0","0","0","65247","","480","","","75","18","","","1","18","training","adjacent","DE","4","5","M.jpg","O.jpg","1","1","1","",""
"","feedback","","html-keyboard-response","125","210229","0.0-1.0-168.0-0.0","0","0","65247","","null","","","null","18","","","","","","","","","","","","","","","",""
"","ITI","","html-keyboard-response","126","211238","0.0-1.0-171.0","0","0","65247","","null","","","null","18","","","","","","","","","","","","","","","NaN",""
"","S1","","html-keyboard-response","127","211497","0.0-1.0-173.0","0","0","65247","","null","","","null","19","","","","","","","","","","","","","","","",""
"","ISI","","html-keyboard-response","128","212504","0.0-1.0-174.0","0","0","65247","","null","","","null","19","NaN","","","","","","","","","","","","","","",""
"","S2","","html-keyboard-response","129","212764","0.0-1.0-175.0","0","0","65247","","null","","","null","19","","NaN","","","","","","","","","","","","","",""
"","response","","html-keyboard-response","130","213296","0.0-1.0-176.0-0.0","0","0","65247","","526","","","68","19","","","1","19","training","adjacent","AB","1","2","N.jpg","R.jpg","0","1","0","",""
"","feedback","","html-keyboard-response","131","214304","0.0-1.0-177.0-0.0","0","0","65247","","null","","","null","19","","","","","","","","","","","","","","","",""
"","time_out","","html-keyboard-response","132","216312","0.0-1.0-179.0-0.0","0","0","65247","","null","","","null","19","","","","","","","","","","","","","","","",""
"","ITI","","html-keyboard-response","133","217322","0.0-1.0-180.0","0","0","65247","","null","","","null","19","","","","","","","","","","","","","","","NaN",""
"","S1","","html-keyboard-response","134","217580","0.0-1.0-182.0","0","0","65247","","null","","","null","20","","","","","","","","","","","","","","","",""
"","ISI","","html-keyboard-response","135","218587","0.0-1.0-183.0","0","0","65247","","null","","","null","20","NaN","","","","","","","","","","","","","","",""
"","S2","","html-keyboard-response","136","218848","0.0-1.0-184.0","0","0","65247","","null","","","null","20","","NaN","","","","","","","","","","","","","",""
"","response","","html-keyboard-response","137","219311","0.0-1.0-185.0-0.0","0","0","65247","","456","","","75","20","","","1","20","training","adjacent","FG","6","7","Q.jpg","P.jpg","1","1","1","",""
"","feedback","","html-keyboard-response","138","220318","0.0-1.0-186.0-0.0","0","0","65247","","null","","","null","20","","","","","","","","","","","","","","","",""
"","ITI","","html-keyboard-response","139","221326","0.0-1.0-189.0","0","0","65247","","null","","","null","20","","","","","","","","","","","","","","","NaN",""
"","S1","","html-keyboard-response","140","221586","0.0-1.0-191.0","0","0","65247","","null","","","null","21","","","","","","","","","","","","","","","",""
"","ISI","","html-keyboard-response","141","222594","0.0-1.0-192.0","0","0","65247","","null","","","null","21","NaN","","","","","","","","","","","","","","",""
"","S2","","html-keyboard-response","142","222858","0.0-1.0-193.0","0","0","65247","","null","","","null","21","","NaN","","","","","","","","","","","","","",""
"","response","","html-keyboard-response","143","223702","0.0-1.0-194.0-0.0","0","0","65247","","838","","","68","21","","","1","21","training","adjacent","AB","1","2","N.jpg","R.jpg","0","1","0","",""
"","feedback","","html-keyboard-response","144","224711","0.0-1.0-195.0-0.0","0","0","65247","","null","","","null","21","","","","","","","","","","","","","","","",""
"","time_out","","html-keyboard-response","145","226719","0.0-1.0-197.0-0.0","0","0","65247","","null","","","null","21","","","","","","","","","","","","","","","",""
"","ITI","","html-keyboard-response","146","227727","0.0-1.0-198.0","0","0","65247","","null","","","null","21","","","","","","","","","","","","","","","NaN",""
"","S1","","html-keyboard-response","147","227986","0.0-1.0-200.0","0","0","65247","","null","","","null","22","","","","","","","","","","","","","","","",""
"","ISI","","html-keyboard-response","148","228995","0.0-1.0-201.0","0","0","65247","","null","","","null","22","NaN","","","","","","","","","","","","","","",""
"","S2","","html-keyboard-response","149","229255","0.0-1.0-202.0","0","0","65247","","null","","","null","22","","NaN","","","","","","","","","","","","","",""
"","response","","html-keyboard-response","150","229975","0.0-1.0-203.0-0.0","0","0","65247","","714","","","68","22","","","1","22","training","adjacent","DE","4","5","M.jpg","O.jpg","0","1","0","",""
"","feedback","","html-keyboard-response","151","230983","0.0-1.0-204.0-0.0","0","0","65247","","null","","","null","22","","","","","","","","","","","","","","","",""
"","time_out","","html-keyboard-response","152","232991","0.0-1.0-206.0-0.0","0","0","65247","","null","","","null","22","","","","","","","","","","","","","","","",""
"","ITI","","html-keyboard-response","153","233999","0.0-1.0-207.0","0","0","65247","","null","","","null","22","","","","","","","","","","","","","","","NaN",""
"","S1","","html-keyboard-response","154","234262","0.0-1.0-209.0","0","0","65247","","null","","","null","23","","","","","","","","","","","","","","","",""
"","ISI","","html-keyboard-response","155","235270","0.0-1.0-210.0","0","0","65247","","null","","","null","23","NaN","","","","","","","","","","","","","","",""
"","S2","","html-keyboard-response","156","235533","0.0-1.0-211.0","0","0","65247","","null","","","null","23","","NaN","","","","","","","","","","","","","",""
"","response","","html-keyboard-response","157","235981","0.0-1.0-212.0-0.0","0","0","65247","","442","","","75","23","","","1","23","training","adjacent","DE","4","5","M.jpg","O.jpg","1","1","1","",""
"","feedback","","html-keyboard-response","158","236989","0.0-1.0-213.0-0.0","0","0","65247","","null","","","null","23","","","","","","","","","","","","","","","",""
"","ITI","","html-keyboard-response","159","237998","0.0-1.0-216.0","0","0","65247","","null","","","null","23","","","","","","","","","","","","","","","NaN",""
"","S1","","html-keyboard-response","160","238258","0.0-1.0-218.0","0","0","65247","","null","","","null","24","","","","","","","","","","","","","","","",""
"","ISI","","html-keyboard-response","161","239267","0.0-1.0-219.0","0","0","65247","","null","","","null","24","NaN","","","","","","","","","","","","","","",""
"","S2","","html-keyboard-response","162","239527","0.0-1.0-220.0","0","0","65247","","null","","","null","24","","NaN","","","","","","","","","","","","","",""
"","response","","html-keyboard-response","163","239892","0.0-1.0-221.0-0.0","0","0","65247","","358","","","75","24","","","1","24","training","adjacent","FG","6","7","Q.jpg","P.jpg","1","1","1","",""
"","feedback","","html-keyboard-response","164","240901","0.0-1.0-222.0-0.0","0","0","65247","","null","","","null","24","","","","","","","","","","","","","","","",""
"","ITI","","html-keyboard-response","165","241910","0.0-1.0-225.0","0","0","65247","","null","","","null","24","","","","","","","","","","","","","","","NaN",""
"","S1","","html-keyboard-response","166","242171","0.0-1.0-227.0","0","0","65247","","null","","","null","25","","","","","","","","","","","","","","","",""
"","ISI","","html-keyboard-response","167","243181","0.0-1.0-228.0","0","0","65247","","null","","","null","25","NaN","","","","","","","","","","","","","","",""
"","S2","","html-keyboard-response","168","243441","0.0-1.0-229.0","0","0","65247","","null","","","null","25","","NaN","","","","","","","","","","","","","",""
"","response","","html-keyboard-response","169","243740","0.0-1.0-230.0-0.0","0","0","65247","","293","","","68","25","","","1","25","training","adjacent","GF","7","6","P.jpg","Q.jpg","0","0","1","",""
"","feedback","","html-keyboard-response","170","244749","0.0-1.0-231.0-0.0","0","0","65247","","null","","","null","25","","","","","","","","","","","","","","","",""
"","ITI","","html-keyboard-response","171","245759","0.0-1.0-234.0","0","0","65247","","null","","","null","25","","","","","","","","","","","","","","","NaN",""
"","S1","","html-keyboard-response","172","246018","0.0-1.0-236.0","0","0","65247","","null","","","null","26","","","","","","","","","","","","","","","",""
"","ISI","","html-keyboard-response","173","247026","0.0-1.0-237.0","0","0","65247","","null","","","null","26","NaN","","","","","","","","","","","","","","",""
"","S2","","html-keyboard-response","174","247285","0.0-1.0-238.0","0","0","65247","","null","","","null","26","","NaN","","","","","","","","","","","","","",""
"","response","","html-keyboard-response","175","247516","0.0-1.0-239.0-0.0","0","0","65247","","224","","","68","26","","","1","26","training","adjacent","GF","7","6","P.jpg","Q.jpg","0","0","1","",""
"","feedback","","html-keyboard-response","176","248524","0.0-1.0-240.0-0.0","0","0","65247","","null","","","null","26","","","","","","","","","","","","","","","",""
"","ITI","","html-keyboard-response","177","249534","0.0-1.0-243.0","0","0","65247","","null","","","null","26","","","","","","","","","","","","","","","NaN",""
"","S1","","html-keyboard-response","178","249795","0.0-1.0-245.0","0","0","65247","","null","","","null","27","","","","","","","","","","","","","","","",""
"","ISI","","html-keyboard-response","179","250803","0.0-1.0-246.0","0","0","65247","","null","","","null","27","NaN","","","","","","","","","","","","","","",""
"","S2","","html-keyboard-response","180","251064","0.0-1.0-247.0","0","0","65247","","null","","","null","27","","NaN","","","","","","","","","","","","","",""
"","response","","html-keyboard-response","181","251391","0.0-1.0-248.0-0.0","0","0","65247","","319","","","75","27","","","1","27","training","adjacent","CD","3","4","L.jpg","M.jpg","1","1","1","",""
"","feedback","","html-keyboard-response","182","252399","0.0-1.0-249.0-0.0","0","0","65247","","null","","","null","27","","","","","","","","","","","","","","","",""
"","ITI","","html-keyboard-response","183","253408","0.0-1.0-252.0","0","0","65247","","null","","","null","27","","","","","","","","","","","","","","","NaN",""
"","S1","","html-keyboard-response","184","253667","0.0-1.0-254.0","0","0","65247","","null","","","null","28","","","","","","","","","","","","","","","",""
"","ISI","","html-keyboard-response","185","254676","0.0-1.0-255.0","0","0","65247","","null","","","null","28","NaN","","","","","","","","","","","","","","",""
"","S2","","html-keyboard-response","186","254936","0.0-1.0-256.0","0","0","65247","","null","","","null","28","","NaN","","","","","","","","","","","","","",""
"","response","","html-keyboard-response","187","255215","0.0-1.0-257.0-0.0","0","0","65247","","272","","","75","28","","","1","28","training","adjacent","CB","3","2","L.jpg","R.jpg","1","0","0","",""
"","feedback","","html-keyboard-response","188","256223","0.0-1.0-258.0-0.0","0","0","65247","","null","","","null","28","","","","","","","","","","","","","","","",""
"","time_out","","html-keyboard-response","189","258232","0.0-1.0-260.0-0.0","0","0","65247","","null","","","null","28","","","","","","","","","","","","","","","",""
"","ITI","","html-keyboard-response","190","259239","0.0-1.0-261.0","0","0","65247","","null","","","null","28","","","","","","","","","","","","","","","NaN",""
"","S1","","html-keyboard-response","191","259498","0.0-1.0-263.0","0","0","65247","","null","","","null","29","","","","","","","","","","","","","","","",""
"","ISI","","html-keyboard-response","192","260506","0.0-1.0-264.0","0","0","65247","","null","","","null","29","NaN","","","","","","","","","","","","","","",""
"","S2","","html-keyboard-response","193","260766","0.0-1.0-265.0","0","0","65247","","null","","","null","29","","NaN","","","","","","","","","","","","","",""
"","response","","html-keyboard-response","194","261177","0.0-1.0-266.0-0.0","0","0","65247","","403","","","68","29","","","1","29","training","adjacent","CB","3","2","L.jpg","R.jpg","0","0","1","",""
"","feedback","","html-keyboard-response","195","262189","0.0-1.0-267.0-0.0","0","0","65247","","null","","","null","29","","","","","","","","","","","","","","","",""
"","ITI","","html-keyboard-response","196","263197","0.0-1.0-270.0","0","0","65247","","null","","","null","29","","","","","","","","","","","","","","","NaN",""
"","S1","","html-keyboard-response","197","263462","0.0-1.0-272.0","0","0","65247","","null","","","null","30","","","","","","","","","","","","","","","",""
"","ISI","","html-keyboard-response","198","264470","0.0-1.0-273.0","0","0","65247","","null","","","null","30","NaN","","","","","","","","","","","","","","",""
"","S2","","html-keyboard-response","199","264730","0.0-1.0-274.0","0","0","65247","","null","","","null","30","","NaN","","","","","","","","","","","","","",""
"","response","","html-keyboard-response","200","265305","0.0-1.0-275.0-0.0","0","0","65247","","565","","","68","30","","","1","30","training","adjacent","BA","2","1","R.jpg","N.jpg","0","0","1","",""
"","feedback","","html-keyboard-response","201","266314","0.0-1.0-276.0-0.0","0","0","65247","","null","","","null","30","","","","","","","","","","","","","","","",""
"","ITI","","html-keyboard-response","202","267325","0.0-1.0-279.0","0","0","65247","","null","","","null","30","","","","","","","","","","","","","","","NaN",""
"","S1","","html-keyboard-response","203","267584","0.0-1.0-281.0","0","0","65247","","null","","","null","31","","","","","","","","","","","","","","","",""
"","ISI","","html-keyboard-response","204","268593","0.0-1.0-282.0","0","0","65247","","null","","","null","31","NaN","","","","","","","","","","","","","","",""
"","S2","","html-keyboard-response","205","268854","0.0-1.0-283.0","0","0","65247","","null","","","null","31","","NaN","","","","","","","","","","","","","",""
"","response","","html-keyboard-response","206","269595","0.0-1.0-284.0-0.0","0","0","65247","","734","","","68","31","","","1","31","training","adjacent","EF","5","6","O.jpg","Q.jpg","0","1","0","",""
"","feedback","","html-keyboard-response","207","270604","0.0-1.0-285.0-0.0","0","0","65247","","null","","","null","31","","","","","","","","","","","","","","","",""
"","time_out","","html-keyboard-response","208","272613","0.0-1.0-287.0-0.0","0","0","65247","","null","","","null","31","","","","","","","","","","","","","","","",""
"","ITI","","html-keyboard-response","209","273622","0.0-1.0-288.0","0","0","65247","","null","","","null","31","","","","","","","","","","","","","","","NaN",""
"","S1","","html-keyboard-response","210","273881","0.0-1.0-290.0","0","0","65247","","null","","","null","32","","","","","","","","","","","","","","","",""
"","ISI","","html-keyboard-response","211","274889","0.0-1.0-291.0","0","0","65247","","null","","","null","32","NaN","","","","","","","","","","","","","","",""
"","S2","","html-keyboard-response","212","275149","0.0-1.0-292.0","0","0","65247","","null","","","null","32","","NaN","","","","","","","","","","","","","",""
"","response","","html-keyboard-response","213","275664","0.0-1.0-293.0-0.0","0","0","65247","","503","","","68","32","","","1","32","training","adjacent","DC","4","3","M.jpg","L.jpg","0","0","1","",""
"","feedback","","html-keyboard-response","214","276674","0.0-1.0-294.0-0.0","0","0","65247","","null","","","null","32","","","","","","","","","","","","","","","",""
"","ITI","","html-keyboard-response","215","277683","0.0-1.0-297.0","0","0","65247","","null","","","null","32","","","","","","","","","","","","","","","NaN",""
"","S1","","html-keyboard-response","216","277943","0.0-1.0-299.0","0","0","65247","","null","","","null","33","","","","","","","","","","","","","","","",""
"","ISI","","html-keyboard-response","217","278953","0.0-1.0-300.0","0","0","65247","","null","","","null","33","NaN","","","","","","","","","","","","","","",""
"","S2","","html-keyboard-response","218","279212","0.0-1.0-301.0","0","0","65247","","null","","","null","33","","NaN","","","","","","","","","","","","","",""
"","response","","html-keyboard-response","219","279659","0.0-1.0-302.0-0.0","0","0","65247","","439","","","68","33","","","1","33","training","adjacent","GF","7","6","P.jpg","Q.jpg","0","0","1","",""
"","feedback","","html-keyboard-response","220","280668","0.0-1.0-303.0-0.0","0","0","65247","","null","","","null","33","","","","","","","","","","","","","","","",""
"","ITI","","html-keyboard-response","221","281677","0.0-1.0-306.0","0","0","65247","","null","","","null","33","","","","","","","","","","","","","","","NaN",""
"","S1","","html-keyboard-response","222","281936","0.0-1.0-308.0","0","0","65247","","null","","","null","34","","","","","","","","","","","","","","","",""
"","ISI","","html-keyboard-response","223","282945","0.0-1.0-309.0","0","0","65247","","null","","","null","34","NaN","","","","","","","","","","","","","","",""
"","S2","","html-keyboard-response","224","283205","0.0-1.0-310.0","0","0","65247","","null","","","null","34","","NaN","","","","","","","","","","","","","",""
"","response","","html-keyboard-response","225","283519","0.0-1.0-311.0-0.0","0","0","65247","","308","","","75","34","","","1","34","training","adjacent","FG","6","7","Q.jpg","P.jpg","1","1","1","",""
"","feedback","","html-keyboard-response","226","284527","0.0-1.0-312.0-0.0","0","0","65247","","null","","","null","34","","","","","","","","","","","","","","","",""
"","ITI","","html-keyboard-response","227","285539","0.0-1.0-315.0","0","0","65247","","null","","","null","34","","","","","","","","","","","","","","","NaN",""
"","S1","","html-keyboard-response","228","285804","0.0-1.0-317.0","0","0","65247","","null","","","null","35","","","","","","","","","","","","","","","",""
"","ISI","","html-keyboard-response","229","286812","0.0-1.0-318.0","0","0","65247","","null","","","null","35","NaN","","","","","","","","","","","","","","",""
"","S2","","html-keyboard-response","230","287073","0.0-1.0-319.0","0","0","65247","","null","","","null","35","","NaN","","","","","","","","","","","","","",""
"","response","","html-keyboard-response","231","288073","0.0-1.0-320.0-0.0","0","0","65247","","993","","","68","35","","","1","35","training","adjacent","AB","1","2","N.jpg","R.jpg","0","1","0","",""
"","feedback","","html-keyboard-response","232","289081","0.0-1.0-321.0-0.0","0","0","65247","","null","","","null","35","","","","","","","","","","","","","","","",""
"","time_out","","html-keyboard-response","233","291090","0.0-1.0-323.0-0.0","0","0","65247","","null","","","null","35","","","","","","","","","","","","","","","",""
"","ITI","","html-keyboard-response","234","292099","0.0-1.0-324.0","0","0","65247","","null","","","null","35","","","","","","","","","","","","","","","NaN",""
"","S1","","html-keyboard-response","235","292357","0.0-1.0-326.0","0","0","65247","","null","","","null","36","","","","","","","","","","","","","","","",""
"","ISI","","html-keyboard-response","236","293365","0.0-1.0-327.0","0","0","65247","","null","","","null","36","NaN","","","","","","","","","","","","","","",""
"","S2","","html-keyboard-response","237","293625","0.0-1.0-328.0","0","0","65247","","null","","","null","36","","NaN","","","","","","","","","","","","","",""
"","response","","html-keyboard-response","238","293973","0.0-1.0-329.0-0.0","0","0","65247","","342","","","68","36","","","1","36","training","adjacent","GF","7","6","P.jpg","Q.jpg","0","0","1","",""
"","feedback","","html-keyboard-response","239","294981","0.0-1.0-330.0-0.0","0","0","65247","","null","","","null","36","","","","","","","","","","","","","","","",""
"","ITI","","html-keyboard-response","240","295990","0.0-1.0-333.0","0","0","65247","","null","","","null","36","","","","","","","","","","","","","","","NaN",""
"","S1","","html-keyboard-response","241","296250","0.0-1.0-335.0","0","0","65247","","null","","","null","37","","","","","","","","","","","","","","","",""
"","ISI","","html-keyboard-response","242","297262","0.0-1.0-336.0","0","0","65247","","null","","","null","37","NaN","","","","","","","","","","","","","","",""
"","S2","","html-keyboard-response","243","297522","0.0-1.0-337.0","0","0","65247","","null","","","null","37","","NaN","","","","","","","","","","","","","",""
"","response","","html-keyboard-response","244","298205","0.0-1.0-338.0-0.0","0","0","65247","","676","","","68","37","","","1","37","training","adjacent","FE","6","5","Q.jpg","O.jpg","0","0","1","",""
"","feedback","","html-keyboard-response","245","299215","0.0-1.0-339.0-0.0","0","0","65247","","null","","","null","37","","","","","","","","","","","","","","","",""
"","ITI","","html-keyboard-response","246","300222","0.0-1.0-342.0","0","0","65247","","null","","","null","37","","","","","","","","","","","","","","","NaN",""
"","S1","","html-keyboard-response","247","300481","0.0-1.0-344.0","0","0","65247","","null","","","null","38","","","","","","","","","","","","","","","",""
"","ISI","","html-keyboard-response","248","301489","0.0-1.0-345.0","0","0","65247","","null","","","null","38","NaN","","","","","","","","","","","","","","",""
"","S2","","html-keyboard-response","249","301749","0.0-1.0-346.0","0","0","65247","","null","","","null","38","","NaN","","","","","","","","","","","","","",""
"","response","","html-keyboard-response","250","302365","0.0-1.0-347.0-0.0","0","0","65247","","608","","","68","38","","","1","38","training","adjacent","BC","2","3","R.jpg","L.jpg","0","1","0","",""
"","feedback","","html-keyboard-response","251","303375","0.0-1.0-348.0-0.0","0","0","65247","","null","","","null","38","","","","","","","","","","","","","","","",""
"","time_out","","html-keyboard-response","252","305384","0.0-1.0-350.0-0.0","0","0","65247","","null","","","null","38","","","","","","","","","","","","","","","",""
"","ITI","","html-keyboard-response","253","306392","0.0-1.0-351.0","0","0","65247","","null","","","null","38","","","","","","","","","","","","","","","NaN",""
"","S1","","html-keyboard-response","254","306649","0.0-1.0-353.0","0","0","65247","","null","","","null","39","","","","","","","","","","","","","","","",""
"","ISI","","html-keyboard-response","255","307659","0.0-1.0-354.0","0","0","65247","","null","","","null","39","NaN","","","","","","","","","","","","","","",""
"","S2","","html-keyboard-response","256","307915","0.0-1.0-355.0","0","0","65247","","null","","","null","39","","NaN","","","","","","","","","","","","","",""
"","response","","html-keyboard-response","257","308458","0.0-1.0-356.0-0.0","0","0","65247","","537","","","68","39","","","1","39","training","adjacent","EF","5","6","O.jpg","Q.jpg","0","1","0","",""
"","feedback","","html-keyboard-response","258","309464","0.0-1.0-357.0-0.0","0","0","65247","","null","","","null","39","","","","","","","","","","","","","","","",""
"","time_out","","html-keyboard-response","259","311472","0.0-1.0-359.0-0.0","0","0","65247","","null","","","null","39","","","","","","","","","","","","","","","",""
"","ITI","","html-keyboard-response","260","312480","0.0-1.0-360.0","0","0","65247","","null","","","null","39","","","","","","","","","","","","","","","NaN",""
"","S1","","html-keyboard-response","261","312739","0.0-1.0-362.0","0","0","65247","","null","","","null","40","","","","","","","","","","","","","","","",""
"","ISI","","html-keyboard-response","262","313745","0.0-1.0-363.0","0","0","65247","","null","","","null","40","NaN","","","","","","","","","","","","","","",""
"","S2","","html-keyboard-response","263","314001","0.0-1.0-364.0","0","0","65247","","null","","","null","40","","NaN","","","","","","","","","","","","","",""
"","response","","html-keyboard-response","264","314196","0.0-1.0-365.0-0.0","0","0","65247","","190","","","75","40","","","1","40","training","adjacent","FE","6","5","Q.jpg","O.jpg","1","0","0","",""
"","feedback","","html-keyboard-response","265","315202","0.0-1.0-366.0-0.0","0","0","65247","","null","","","null","40","","","","","","","","","","","","","","","",""
"","time_out","","html-keyboard-response","266","317210","0.0-1.0-368.0-0.0","0","0","65247","","null","","","null","40","","","","","","","","","","","","","","","",""
"","ITI","","html-keyboard-response","267","318221","0.0-1.0-369.0","0","0","65247","","null","","","null","40","","","","","","","","","","","","","","","NaN",""
"","S1","","html-keyboard-response","268","318484","0.0-1.0-371.0","0","0","65247","","null","","","null","41","","","","","","","","","","","","","","","",""
"","ISI","","html-keyboard-response","269","319493","0.0-1.0-372.0","0","0","65247","","null","","","null","41","NaN","","","","","","","","","","","","","","",""
"","S2","","html-keyboard-response","270","319753","0.0-1.0-373.0","0","0","65247","","null","","","null","41","","NaN","","","","","","","","","","","","","",""
"","response","","html-keyboard-response","271","320078","0.0-1.0-374.0-0.0","0","0","65247","","315","","","75","41","","","1","41","training","adjacent","CD","3","4","L.jpg","M.jpg","1","1","1","",""
"","feedback","","html-keyboard-response","272","321087","0.0-1.0-375.0-0.0","0","0","65247","","null","","","null","41","","","","","","","","","","","","","","","",""
"","ITI","","html-keyboard-response","273","322094","0.0-1.0-378.0","0","0","65247","","null","","","null","41","","","","","","","","","","","","","","","NaN",""
"","S1","","html-keyboard-response","274","322351","0.0-1.0-380.0","0","0","65247","","null","","","null","42","","","","","","","","","","","","","","","",""
"","ISI","","html-keyboard-response","275","323356","0.0-1.0-381.0","0","0","65247","","null","","","null","42","NaN","","","","","","","","","","","","","","",""
"","S2","","html-keyboard-response","276","323612","0.0-1.0-382.0","0","0","65247","","null","","","null","42","","NaN","","","","","","","","","","","","","",""
"","response","","html-keyboard-response","277","324433","0.0-1.0-383.0-0.0","0","0","65247","","814","","","68","42","","","1","42","training","adjacent","DC","4","3","M.jpg","L.jpg","0","0","1","",""
"","feedback","","html-keyboard-response","278","325439","0.0-1.0-384.0-0.0","0","0","65247","","null","","","null","42","","","","","","","","","","","","","","","",""
"","ITI","","html-keyboard-response","279","326446","0.0-1.0-387.0","0","0","65247","","null","","","null","42","","","","","","","","","","","","","","","NaN",""
"","S1","","html-keyboard-response","280","326701","0.0-1.0-389.0","0","0","65247","","null","","","null","43","","","","","","","","","","","","","","","",""
"","ISI","","html-keyboard-response","281","327710","0.0-1.0-390.0","0","0","65247","","null","","","null","43","NaN","","","","","","","","","","","","","","",""
"","S2","","html-keyboard-response","282","327968","0.0-1.0-391.0","0","0","65247","","null","","","null","43","","NaN","","","","","","","","","","","","","",""
"","response","","html-keyboard-response","283","328911","0.0-1.0-392.0-0.0","0","0","65247","","937","","","75","43","","","1","43","training","adjacent","FE","6","5","Q.jpg","O.jpg","1","0","0","",""
"","feedback","","html-keyboard-response","284","329916","0.0-1.0-393.0-0.0","0","0","65247","","null","","","null","43","","","","","","","","","","","","","","","",""
"","time_out","","html-keyboard-response","285","331922","0.0-1.0-395.0-0.0","0","0","65247","","null","","","null","43","","","","","","","","","","","","","","","",""
"","ITI","","html-keyboard-response","286","332927","0.0-1.0-396.0","0","0","65247","","null","","","null","43","","","","","","","","","","","","","","","NaN",""
"","S1","","html-keyboard-response","287","333183","0.0-1.0-398.0","0","0","65247","","null","","","null","44","","","","","","","","","","","","","","","",""
"","ISI","","html-keyboard-response","288","334194","0.0-1.0-399.0","0","0","65247","","null","","","null","44","NaN","","","","","","","","","","","","","","",""
"","S2","","html-keyboard-response","289","334452","0.0-1.0-400.0","0","0","65247","","null","","","null","44","","NaN","","","","","","","","","","","","","",""
"","response","","html-keyboard-response","290","334719","0.0-1.0-401.0-0.0","0","0","65247","","261","","","75","44","","","1","44","training","adjacent","EF","5","6","O.jpg","Q.jpg","1","1","1","",""
"","feedback","","html-keyboard-response","291","335725","0.0-1.0-402.0-0.0","0","0","65247","","null","","","null","44","","","","","","","","","","","","","","","",""
"","ITI","","html-keyboard-response","292","336730","0.0-1.0-405.0","0","0","65247","","null","","","null","44","","","","","","","","","","","","","","","NaN",""
"","S1","","html-keyboard-response","293","336986","0.0-1.0-407.0","0","0","65247","","null","","","null","45","","","","","","","","","","","","","","","",""
"","ISI","","html-keyboard-response","294","337991","0.0-1.0-408.0","0","0","65247","","null","","","null","45","NaN","","","","","","","","","","","","","","",""
"","S2","","html-keyboard-response","295","338246","0.0-1.0-409.0","0","0","65247","","null","","","null","45","","NaN","","","","","","","","","","","","","",""
"","response","","html-keyboard-response","296","338829","0.0-1.0-410.0-0.0","0","0","65247","","578","","","68","45","","","1","45","training","adjacent","BA","2","1","R.jpg","N.jpg","0","0","1","",""
"","feedback","","html-keyboard-response","297","339836","0.0-1.0-411.0-0.0","0","0","65247","","null","","","null","45","","","","","","","","","","","","","","","",""
"","ITI","","html-keyboard-response","298","340842","0.0-1.0-414.0","0","0","65247","","null","","","null","45","","","","","","","","","","","","","","","NaN",""
"","S1","","html-keyboard-response","299","341097","0.0-1.0-416.0","0","0","65247","","null","","","null","46","","","","","","","","","","","","","","","",""
"","ISI","","html-keyboard-response","300","342102","0.0-1.0-417.0","0","0","65247","","null","","","null","46","NaN","","","","","","","","","","","","","","",""
"","S2","","html-keyboard-response","301","342358","0.0-1.0-418.0","0","0","65247","","null","","","null","46","","NaN","","","","","","","","","","","","","",""
"","response","","html-keyboard-response","302","342876","0.0-1.0-419.0-0.0","0","0","65247","","512","","","75","46","","","1","46","training","adjacent","BC","2","3","R.jpg","L.jpg","1","1","1","",""
"","feedback","","html-keyboard-response","303","343882","0.0-1.0-420.0-0.0","0","0","65247","","null","","","null","46","","","","","","","","","","","","","","","",""
"","ITI","","html-keyboard-response","304","344888","0.0-1.0-423.0","0","0","65247","","null","","","null","46","","","","","","","","","","","","","","","NaN",""
"","S1","","html-keyboard-response","305","345145","0.0-1.0-425.0","0","0","65247","","null","","","null","47","","","","","","","","","","","","","","","",""
"","ISI","","html-keyboard-response","306","346159","0.0-1.0-426.0","0","0","65247","","null","","","null","47","NaN","","","","","","","","","","","","","","",""
"","S2","","html-keyboard-response","307","346417","0.0-1.0-427.0","0","0","65247","","null","","","null","47","","NaN","","","","","","","","","","","","","",""
"","response","","html-keyboard-response","308","347068","0.0-1.0-428.0-0.0","0","0","65247","","646","","","68","47","","","1","47","training","adjacent","DE","4","5","M.jpg","O.jpg","0","1","0","",""
"","feedback","","html-keyboard-response","309","348075","0.0-1.0-429.0-0.0","0","0","65247","","null","","","null","47","","","","","","","","","","","","","","","",""
"","time_out","","html-keyboard-response","310","350080","0.0-1.0-431.0-0.0","0","0","65247","","null","","","null","47","","","","","","","","","","","","","","","",""
"","ITI","","html-keyboard-response","311","351086","0.0-1.0-432.0","0","0","65247","","null","","","null","47","","","","","","","","","","","","","","","NaN",""
"","block_over","","html-keyboard-response","312","367115","0.0-1.0-433.0-0.0","0","0","65247","","16018","","","32","47","","","","","","","","","","","","","","","",""
"","S1","","html-keyboard-response","313","367372","0.0-1.0-434.0","0","0","65247","","null","","","null","48","","","","","","","","","","","","","","","",""
"","ISI","","html-keyboard-response","314","368380","0.0-1.0-435.0","0","0","65247","","null","","","null","48","NaN","","","","","","","","","","","","","","",""
"","S2","","html-keyboard-response","315","368642","0.0-1.0-436.0","0","0","65247","","null","","","null","48","","NaN","","","","","","","","","","","","","",""
"","response","","html-keyboard-response","316","369070","0.0-1.0-437.0-0.0","0","0","65247","","421","","","75","48","","","2","48","training","adjacent","CB","3","2","L.jpg","R.jpg","1","0","0","",""
"","feedback","","html-keyboard-response","317","370079","0.0-1.0-438.0-0.0","0","0","65247","","null","","","null","48","","","","","","","","","","","","","","","",""
"","time_out","","html-keyboard-response","318","372086","0.0-1.0-440.0-0.0","0","0","65247","","null","","","null","48","","","","","","","","","","","","","","","",""
"","ITI","","html-keyboard-response","319","373091","0.0-1.0-441.0","0","0","65247","","null","","","null","48","","","","","","","","","","","","","","","NaN",""
"","S1","","html-keyboard-response","320","373347","0.0-1.0-443.0","0","0","65247","","null","","","null","49","","","","","","","","","","","","","","","",""
"","ISI","","html-keyboard-response","321","374352","0.0-1.0-444.0","0","0","65247","","null","","","null","49","NaN","","","","","","","","","","","","","","",""
"","S2","","html-keyboard-response","322","374607","0.0-1.0-445.0","0","0","65247","","null","","","null","49","","NaN","","","","","","","","","","","","","",""
"","response","","html-keyboard-response","323","374884","0.0-1.0-446.0-0.0","0","0","65247","","271","","","68","49","","","2","49","training","adjacent","AB","1","2","N.jpg","R.jpg","0","1","0","",""
"","feedback","","html-keyboard-response","324","375890","0.0-1.0-447.0-0.0","0","0","65247","","null","","","null","49","","","","","","","","","","","","","","","",""
"","time_out","","html-keyboard-response","325","377895","0.0-1.0-449.0-0.0","0","0","65247","","null","","","null","49","","","","","","","","","","","","","","","",""
"","ITI","","html-keyboard-response","326","378901","0.0-1.0-450.0","0","0","65247","","null","","","null","49","","","","","","","","","","","","","","","NaN",""
"","S1","","html-keyboard-response","327","379156","0.0-1.0-452.0","0","0","65247","","null","","","null","50","","","","","","","","","","","","","","","",""
"","ISI","","html-keyboard-response","328","380162","0.0-1.0-453.0","0","0","65247","","null","","","null","50","NaN","","","","","","","","","","","","","","",""
"","S2","","html-keyboard-response","329","380417","0.0-1.0-454.0","0","0","65247","","null","","","null","50","","NaN","","","","","","","","","","","","","",""
"","response","","html-keyboard-response","330","380820","0.0-1.0-455.0-0.0","0","0","65247","","397","","","68","50","","","2","50","training","adjacent","AB","1","2","N.jpg","R.jpg","0","1","0","",""
"","feedback","","html-keyboard-response","331","381826","0.0-1.0-456.0-0.0","0","0","65247","","null","","","null","50","","","","","","","","","","","","","","","",""
"","time_out","","html-keyboard-response","332","383831","0.0-1.0-458.0-0.0","0","0","65247","","null","","","null","50","","","","","","","","","","","","","","","",""
"","ITI","","html-keyboard-response","333","384838","0.0-1.0-459.0","0","0","65247","","null","","","null","50","","","","","","","","","","","","","","","NaN",""
"","S1","","html-keyboard-response","334","385093","0.0-1.0-461.0","0","0","65247","","null","","","null","51","","","","","","","","","","","","","","","",""
"","ISI","","html-keyboard-response","335","386098","0.0-1.0-462.0","0","0","65247","","null","","","null","51","NaN","","","","","","","","","","","","","","",""
"","S2","","html-keyboard-response","336","386356","0.0-1.0-463.0","0","0","65247","","null","","","null","51","","NaN","","","","","","","","","","","","","",""
"","response","","html-keyboard-response","337","386727","0.0-1.0-464.0-0.0","0","0","65247","","366","","","68","51","","","2","51","training","adjacent","DC","4","3","M.jpg","L.jpg","0","0","1","",""
"","feedback","","html-keyboard-response","338","387736","0.0-1.0-465.0-0.0","0","0","65247","","null","","","null","51","","","","","","","","","","","","","","","",""
"","ITI","","html-keyboard-response","339","388741","0.0-1.0-468.0","0","0","65247","","null","","","null","51","","","","","","","","","","","","","","","NaN",""
"","S1","","html-keyboard-response","340","388996","0.0-1.0-470.0","0","0","65247","","null","","","null","52","","","","","","","","","","","","","","","",""
"","ISI","","html-keyboard-response","341","390002","0.0-1.0-471.0","0","0","65247","","null","","","null","52","NaN","","","","","","","","","","","","","","",""
"","S2","","html-keyboard-response","342","390257","0.0-1.0-472.0","0","0","65247","","null","","","null","52","","NaN","","","","","","","","","","","","","",""
"","response","","html-keyboard-response","343","390635","0.0-1.0-473.0-0.0","0","0","65247","","372","","","68","52","","","2","52","training","adjacent","DC","4","3","M.jpg","L.jpg","0","0","1","",""
"","feedback","","html-keyboard-response","344","391641","0.0-1.0-474.0-0.0","0","0","65247","","null","","","null","52","","","","","","","","","","","","","","","",""
"","ITI","","html-keyboard-response","345","392647","0.0-1.0-477.0","0","0","65247","","null","","","null","52","","","","","","","","","","","","","","","NaN",""
"","S1","","html-keyboard-response","346","392903","0.0-1.0-479.0","0","0","65247","","null","","","null","53","","","","","","","","","","","","","","","",""
"","ISI","","html-keyboard-response","347","393908","0.0-1.0-480.0","0","0","65247","","null","","","null","53","NaN","","","","","","","","","","","","","","",""
"","S2","","html-keyboard-response","348","394164","0.0-1.0-481.0","0","0","65247","","null","","","null","53","","NaN","","","","","","","","","","","","","",""
"","response","","html-keyboard-response","349","394728","0.0-1.0-482.0-0.0","0","0","65247","","557","","","68","53","","","2","53","training","adjacent","CB","3","2","L.jpg","R.jpg","0","0","1","",""
"","feedback","","html-keyboard-response","350","395734","0.0-1.0-483.0-0.0","0","0","65247","","null","","","null","53","","","","","","","","","","","","","","","",""
"","ITI","","html-keyboard-response","351","396740","0.0-1.0-486.0","0","0","65247","","null","","","null","53","","","","","","","","","","","","","","","NaN",""
"","S1","","html-keyboard-response","352","396996","0.0-1.0-488.0","0","0","65247","","null","","","null","54","","","","","","","","","","","","","","","",""
"","ISI","","html-keyboard-response","353","398001","0.0-1.0-489.0","0","0","65247","","null","","","null","54","NaN","","","","","","","","","","","","","","",""
"","S2","","html-keyboard-response","354","398257","0.0-1.0-490.0","0","0","65247","","null","","","null","54","","NaN","","","","","","","","","","","","","",""
"","response","","html-keyboard-response","355","398736","0.0-1.0-491.0-0.0","0","0","65247","","474","","","68","54","","","2","54","training","adjacent","AB","1","2","N.jpg","R.jpg","0","1","0","",""
"","feedback","","html-keyboard-response","356","399742","0.0-1.0-492.0-0.0","0","0","65247","","null","","","null","54","","","","","","","","","","","","","","","",""
"","time_out","","html-keyboard-response","357","401748","0.0-1.0-494.0-0.0","0","0","65247","","null","","","null","54","","","","","","","","","","","","","","","",""
"","ITI","","html-keyboard-response","358","402756","0.0-1.0-495.0","0","0","65247","","null","","","null","54","","","","","","","","","","","","","","","NaN",""
"","S1","","html-keyboard-response","359","403011","0.0-1.0-497.0","0","0","65247","","null","","","null","55","","","","","","","","","","","","","","","",""
"","ISI","","html-keyboard-response","360","404017","0.0-1.0-498.0","0","0","65247","","null","","","null","55","NaN","","","","","","","","","","","","","","",""
"","S2","","html-keyboard-response","361","404274","0.0-1.0-499.0","0","0","65247","","null","","","null","55","","NaN","","","","","","","","","","","","","",""
"","response","","html-keyboard-response","362","404911","0.0-1.0-500.0-0.0","0","0","65247","","630","","","75","55","","","2","55","training","adjacent","CB","3","2","L.jpg","R.jpg","1","0","0","",""
"","feedback","","html-keyboard-response","363","405917","0.0-1.0-501.0-0.0","0","0","65247","","null","","","null","55","","","","","","","","","","","","","","","",""
"","time_out","","html-keyboard-response","364","407923","0.0-1.0-503.0-0.0","0","0","65247","","null","","","null","55","","","","","","","","","","","","","","","",""
"","ITI","","html-keyboard-response","365","408929","0.0-1.0-504.0","0","0","65247","","null","","","null","55","","","","","","","","","","","","","","","NaN",""
"","S1","","html-keyboard-response","366","409184","0.0-1.0-506.0","0","0","65247","","null","","","null","56","","","","","","","","","","","","","","","",""
"","ISI","","html-keyboard-response","367","410190","0.0-1.0-507.0","0","0","65247","","null","","","null","56","NaN","","","","","","","","","","","","","","",""
"","S2","","html-keyboard-response","368","410446","0.0-1.0-508.0","0","0","65247","","null","","","null","56","","NaN","","","","","","","","","","","","","",""
"","response","","html-keyboard-response","369","411043","0.0-1.0-509.0-0.0","0","0","65247","","591","","","68","56","","","2","56","training","adjacent","AB","1","2","N.jpg","R.jpg","0","1","0","",""
"","feedback","","html-keyboard-response","370","412054","0.0-1.0-510.0-0.0","0","0","65247","","null","","","null","56","","","","","","","","","","","","","","","",""
"","time_out","","html-keyboard-response","371","414060","0.0-1.0-512.0-0.0","0","0","65247","","null","","","null","56","","","","","","","","","","","","","","","",""
"","ITI","","html-keyboard-response","372","415065","0.0-1.0-513.0","0","0","65247","","null","","","null","56","","","","","","","","","","","","","","","NaN",""
"","S1","","html-keyboard-response","373","415320","0.0-1.0-515.0","0","0","65247","","null","","","null","57","","","","","","","","","","","","","","","",""
"","ISI","","html-keyboard-response","374","416326","0.0-1.0-516.0","0","0","65247","","null","","","null","57","NaN","","","","","","","","","","","","","","",""
"","S2","","html-keyboard-response","375","416583","0.0-1.0-517.0","0","0","65247","","null","","","null","57","","NaN","","","","","","","","","","","","","",""
"","response","","html-keyboard-response","376","417351","0.0-1.0-518.0-0.0","0","0","65247","","762","","","68","57","","","2","57","training","adjacent","GF","7","6","P.jpg","Q.jpg","0","0","1","",""
"","feedback","","html-keyboard-response","377","418360","0.0-1.0-519.0-0.0","0","0","65247","","null","","","null","57","","","","","","","","","","","","","","","",""
"","ITI","","html-keyboard-response","378","419366","0.0-1.0-522.0","0","0","65247","","null","","","null","57","","","","","","","","","","","","","","","NaN",""
"","S1","","html-keyboard-response","379","419623","0.0-1.0-524.0","0","0","65247","","null","","","null","58","","","","","","","","","","","","","","","",""
"","ISI","","html-keyboard-response","380","420629","0.0-1.0-525.0","0","0","65247","","null","","","null","58","NaN","","","","","","","","","","","","","","",""
"","S2","","html-keyboard-response","381","420887","0.0-1.0-526.0","0","0","65247","","null","","","null","58","","NaN","","","","","","","","","","","","","",""
"","response","","html-keyboard-response","382","421989","0.0-1.0-527.0-0.0","0","0","65247","","1095","","","75","58","","","2","58","training","adjacent","FE","6","5","Q.jpg","O.jpg","1","0","0","",""
"","feedback","","html-keyboard-response","383","422998","0.0-1.0-528.0-0.0","0","0","65247","","null","","","null","58","","","","","","","","","","","","","","","",""
"","time_out","","html-keyboard-response","384","425007","0.0-1.0-530.0-0.0","0","0","65247","","null","","","null","58","","","","","","","","","","","","","","","",""
"","ITI","","html-keyboard-response","385","426012","0.0-1.0-531.0","0","0","65247","","null","","","null","58","","","","","","","","","","","","","","","NaN",""
"","S1","","html-keyboard-response","386","426268","0.0-1.0-533.0","0","0","65247","","null","","","null","59","","","","","","","","","","","","","","","",""
"","ISI","","html-keyboard-response","387","427276","0.0-1.0-534.0","0","0","65247","","null","","","null","59","NaN","","","","","","","","","","","","","","",""
"","S2","","html-keyboard-response","388","427533","0.0-1.0-535.0","0","0","65247","","null","","","null","59","","NaN","","","","","","","","","","","","","",""
"","response","","html-keyboard-response","389","428063","0.0-1.0-536.0-0.0","0","0","65247","","522","","","68","59","","","2","59","training","adjacent","GF","7","6","P.jpg","Q.jpg","0","0","1","",""
"","feedback","","html-keyboard-response","390","429071","0.0-1.0-537.0-0.0","0","0","65247","","null","","","null","59","","","","","","","","","","","","","","","",""
"","ITI","","html-keyboard-response","391","430078","0.0-1.0-540.0","0","0","65247","","null","","","null","59","","","","","","","","","","","","","","","NaN",""
"","S1","","html-keyboard-response","392","430334","0.0-1.0-542.0","0","0","65247","","null","","","null","60","","","","","","","","","","","","","","","",""
"","ISI","","html-keyboard-response","393","431341","0.0-1.0-543.0","0","0","65247","","null","","","null","60","NaN","","","","","","","","","","","","","","",""
"","S2","","html-keyboard-response","394","431597","0.0-1.0-544.0","0","0","65247","","null","","","null","60","","NaN","","","","","","","","","","","","","",""
"","response","","html-keyboard-response","395","432413","0.0-1.0-545.0-0.0","0","0","65247","","809","","","75","60","","","2","60","training","adjacent","FE","6","5","Q.jpg","O.jpg","1","0","0","",""
"","feedback","","html-keyboard-response","396","433422","0.0-1.0-546.0-0.0","0","0","65247","","null","","","null","60","","","","","","","","","","","","","","","",""
"","time_out","","html-keyboard-response","397","435428","0.0-1.0-548.0-0.0","0","0","65247","","null","","","null","60","","","","","","","","","","","","","","","",""
"","ITI","","html-keyboard-response","398","436434","0.0-1.0-549.0","0","0","65247","","null","","","null","60","","","","","","","","","","","","","","","NaN",""
"","S1","","html-keyboard-response","399","436690","0.0-1.0-551.0","0","0","65247","","null","","","null","61","","","","","","","","","","","","","","","",""
"","ISI","","html-keyboard-response","400","437699","0.0-1.0-552.0","0","0","65247","","null","","","null","61","NaN","","","","","","","","","","","","","","",""
"","S2","","html-keyboard-response","401","437959","0.0-1.0-553.0","0","0","65247","","null","","","null","61","","NaN","","","","","","","","","","","","","",""
"","response","","html-keyboard-response","402","438855","0.0-1.0-554.0-0.0","0","0","65247","","885","","","75","61","","","2","61","training","adjacent","ED","5","4","O.jpg","M.jpg","1","0","0","",""
"","feedback","","html-keyboard-response","403","439864","0.0-1.0-555.0-0.0","0","0","65247","","null","","","null","61","","","","","","","","","","","","","","","",""
"","time_out","","html-keyboard-response","404","441870","0.0-1.0-557.0-0.0","0","0","65247","","null","","","null","61","","","","","","","","","","","","","","","",""
"","ITI","","html-keyboard-response","405","442875","0.0-1.0-558.0","0","0","65247","","null","","","null","61","","","","","","","","","","","","","","","NaN",""
"","S1","","html-keyboard-response","406","443131","0.0-1.0-560.0","0","0","65247","","null","","","null","62","","","","","","","","","","","","","","","",""
"","ISI","","html-keyboard-response","407","444137","0.0-1.0-561.0","0","0","65247","","null","","","null","62","NaN","","","","","","","","","","","","","","",""
"","S2","","html-keyboard-response","408","444393","0.0-1.0-562.0","0","0","65247","","null","","","null","62","","NaN","","","","","","","","","","","","","",""
"","response","","html-keyboard-response","409","444862","0.0-1.0-563.0-0.0","0","0","65247","","464","","","68","62","","","2","62","training","adjacent","DE","4","5","M.jpg","O.jpg","0","1","0","",""
"","feedback","","html-keyboard-response","410","445869","0.0-1.0-564.0-0.0","0","0","65247","","null","","","null","62","","","","","","","","","","","","","","","",""
"","time_out","","html-keyboard-response","411","447875","0.0-1.0-566.0-0.0","0","0","65247","","null","","","null","62","","","","","","","","","","","","","","","",""
"","ITI","","html-keyboard-response","412","448880","0.0-1.0-567.0","0","0","65247","","null","","","null","62","","","","","","","","","","","","","","","NaN",""
"","S1","","html-keyboard-response","413","449136","0.0-1.0-569.0","0","0","65247","","null","","","null","63","","","","","","","","","","","","","","","",""
"","ISI","","html-keyboard-response","414","450141","0.0-1.0-570.0","0","0","65247","","null","","","null","63","NaN","","","","","","","","","","","","","","",""
"","S2","","html-keyboard-response","415","450397","0.0-1.0-571.0","0","0","65247","","null","","","null","63","","NaN","","","","","","","","","","","","","",""
"","response","","html-keyboard-response","416","450889","0.0-1.0-572.0-0.0","0","0","65247","","487","","","68","63","","","2","63","training","adjacent","BA","2","1","R.jpg","N.jpg","0","0","1","",""
"","feedback","","html-keyboard-response","417","451896","0.0-1.0-573.0-0.0","0","0","65247","","null","","","null","63","","","","","","","","","","","","","","","",""
"","ITI","","html-keyboard-response","418","452901","0.0-1.0-576.0","0","0","65247","","null","","","null","63","","","","","","","","","","","","","","","NaN",""
"","S1","","html-keyboard-response","419","453157","0.0-1.0-578.0","0","0","65247","","null","","","null","64","","","","","","","","","","","","","","","",""
"","ISI","","html-keyboard-response","420","454163","0.0-1.0-579.0","0","0","65247","","null","","","null","64","NaN","","","","","","","","","","","","","","",""
"","S2","","html-keyboard-response","421","454419","0.0-1.0-580.0","0","0","65247","","null","","","null","64","","NaN","","","","","","","","","","","","","",""
"","response","","html-keyboard-response","422","454759","0.0-1.0-581.0-0.0","0","0","65247","","333","","","75","64","","","2","64","training","adjacent","EF","5","6","O.jpg","Q.jpg","1","1","1","",""
"","feedback","","html-keyboard-response","423","455768","0.0-1.0-582.0-0.0","0","0","65247","","null","","","null","64","","","","","","","","","","","","","","","",""
"","ITI","","html-keyboard-response","424","456777","0.0-1.0-585.0","0","0","65247","","null","","","null","64","","","","","","","","","","","","","","","NaN",""
"","S1","","html-keyboard-response","425","457040","0.0-1.0-587.0","0","0","65247","","null","","","null","65","","","","","","","","","","","","","","","",""
"","ISI","","html-keyboard-response","426","458051","0.0-1.0-588.0","0","0","65247","","null","","","null","65","NaN","","","","","","","","","","","","","","",""
"","S2","","html-keyboard-response","427","458308","0.0-1.0-589.0","0","0","65247","","null","","","null","65","","NaN","","","","","","","","","","","","","",""
"","response","","html-keyboard-response","428","458804","0.0-1.0-590.0-0.0","0","0","65247","","491","","","75","65","","","2","65","training","adjacent","EF","5","6","O.jpg","Q.jpg","1","1","1","",""
"","feedback","","html-keyboard-response","429","459810","0.0-1.0-591.0-0.0","0","0","65247","","null","","","null","65","","","","","","","","","","","","","","","",""
"","ITI","","html-keyboard-response","430","460816","0.0-1.0-594.0","0","0","65247","","null","","","null","65","","","","","","","","","","","","","","","NaN",""
"","S1","","html-keyboard-response","431","461071","0.0-1.0-596.0","0","0","65247","","null","","","null","66","","","","","","","","","","","","","","","",""
"","ISI","","html-keyboard-response","432","462076","0.0-1.0-597.0","0","0","65247","","null","","","null","66","NaN","","","","","","","","","","","","","","",""
"","S2","","html-keyboard-response","433","462333","0.0-1.0-598.0","0","0","65247","","null","","","null","66","","NaN","","","","","","","","","","","","","",""
"","response","","html-keyboard-response","434","463066","0.0-1.0-599.0-0.0","0","0","65247","","724","","","68","66","","","2","66","training","adjacent","BC","2","3","R.jpg","L.jpg","0","1","0","",""
"","feedback","","html-keyboard-response","435","464075","0.0-1.0-600.0-0.0","0","0","65247","","null","","","null","66","","","","","","","","","","","","","","","",""
"","time_out","","html-keyboard-response","436","466081","0.0-1.0-602.0-0.0","0","0","65247","","null","","","null","66","","","","","","","","","","","","","","","",""
"","ITI","","html-keyboard-response","437","467087","0.0-1.0-603.0","0","0","65247","","null","","","null","66","","","","","","","","","","","","","","","NaN",""
"","S1","","html-keyboard-response","438","467344","0.0-1.0-605.0","0","0","65247","","null","","","null","67","","","","","","","","","","","","","","","",""
"","ISI","","html-keyboard-response","439","468350","0.0-1.0-606.0","0","0","65247","","null","","","null","67","NaN","","","","","","","","","","","","","","",""
"","S2","","html-keyboard-response","440","468609","0.0-1.0-607.0","0","0","65247","","null","","","null","67","","NaN","","","","","","","","","","","","","",""
"","response","","html-keyboard-response","441","468922","0.0-1.0-608.0-0.0","0","0","65247","","307","","","68","67","","","2","67","training","adjacent","CB","3","2","L.jpg","R.jpg","0","0","1","",""
"","feedback","","html-keyboard-response","442","469929","0.0-1.0-609.0-0.0","0","0","65247","","null","","","null","67","","","","","","","","","","","","","","","",""
"","ITI","","html-keyboard-response","443","470936","0.0-1.0-612.0","0","0","65247","","null","","","null","67","","","","","","","","","","","","","","","NaN",""
"","S1","","html-keyboard-response","444","471192","0.0-1.0-614.0","0","0","65247","","null","","","null","68","","","","","","","","","","","","","","","",""
"","ISI","","html-keyboard-response","445","472198","0.0-1.0-615.0","0","0","65247","","null","","","null","68","NaN","","","","","","","","","","","","","","",""
"","S2","","html-keyboard-response","446","472456","0.0-1.0-616.0","0","0","65247","","null","","","null","68","","NaN","","","","","","","","","","","","","",""
"","response","","html-keyboard-response","447","472800","0.0-1.0-617.0-0.0","0","0","65247","","335","","","75","68","","","2","68","training","adjacent","BA","2","1","R.jpg","N.jpg","1","0","0","",""
"","feedback","","html-keyboard-response","448","473809","0.0-1.0-618.0-0.0","0","0","65247","","null","","","null","68","","","","","","","","","","","","","","","",""
"","time_out","","html-keyboard-response","449","475817","0.0-1.0-620.0-0.0","0","0","65247","","null","","","null","68","","","","","","","","","","","","","","","",""
"","ITI","","html-keyboard-response","450","476828","0.0-1.0-621.0","0","0","65247","","null","","","null","68","","","","","","","","","","","","","","","NaN",""
"","S1","","html-keyboard-response","451","477089","0.0-1.0-623.0","0","0","65247","","null","","","null","69","","","","","","","","","","","","","","","",""
"","ISI","","html-keyboard-response","452","478096","0.0-1.0-624.0","0","0","65247","","null","","","null","69","NaN","","","","","","","","","","","","","","",""
"","S2","","html-keyboard-response","453","478353","0.0-1.0-625.0","0","0","65247","","null","","","null","69","","NaN","","","","","","","","","","","","","",""
"","response","","html-keyboard-response","454","478609","0.0-1.0-626.0-0.0","0","0","65247","","249","","","75","69","","","2","69","training","adjacent","FE","6","5","Q.jpg","O.jpg","1","0","0","",""
"","feedback","","html-keyboard-response","455","479617","0.0-1.0-627.0-0.0","0","0","65247","","null","","","null","69","","","","","","","","","","","","","","","",""
"","time_out","","html-keyboard-response","456","481623","0.0-1.0-629.0-0.0","0","0","65247","","null","","","null","69","","","","","","","","","","","","","","","",""
"","ITI","","html-keyboard-response","457","482629","0.0-1.0-630.0","0","0","65247","","null","","","null","69","","","","","","","","","","","","","","","NaN",""
"","S1","","html-keyboard-response","458","482885","0.0-1.0-632.0","0","0","65247","","null","","","null","70","","","","","","","","","","","","","","","",""
"","ISI","","html-keyboard-response","459","483890","0.0-1.0-633.0","0","0","65247","","null","","","null","70","NaN","","","","","","","","","","","","","","",""
"","S2","","html-keyboard-response","460","484146","0.0-1.0-634.0","0","0","65247","","null","","","null","70","","NaN","","","","","","","","","","","","","",""
"","response","","html-keyboard-response","461","484593","0.0-1.0-635.0-0.0","0","0","65247","","440","","","68","70","","","2","70","training","adjacent","CD","3","4","L.jpg","M.jpg","0","1","0","",""
"","feedback","","html-keyboard-response","462","485600","0.0-1.0-636.0-0.0","0","0","65247","","null","","","null","70","","","","","","","","","","","","","","","",""
"","time_out","","html-keyboard-response","463","487606","0.0-1.0-638.0-0.0","0","0","65247","","null","","","null","70","","","","","","","","","","","","","","","",""
"","ITI","","html-keyboard-response","464","488615","0.0-1.0-639.0","0","0","65247","","null","","","null","70","","","","","","","","","","","","","","","NaN",""
"","S1","","html-keyboard-response","465","488875","0.0-1.0-641.0","0","0","65247","","null","","","null","71","","","","","","","","","","","","","","","",""
"","ISI","","html-keyboard-response","466","489883","0.0-1.0-642.0","0","0","65247","","null","","","null","71","NaN","","","","","","","","","","","","","","",""
"","S2","","html-keyboard-response","467","490143","0.0-1.0-643.0","0","0","65247","","null","","","null","71","","NaN","","","","","","","","","","","","","",""
"","response","","html-keyboard-response","468","490633","0.0-1.0-644.0-0.0","0","0","65247","","483","","","75","71","","","2","71","training","adjacent","BC","2","3","R.jpg","L.jpg","1","1","1","",""
"","feedback","","html-keyboard-response","469","491644","0.0-1.0-645.0-0.0","0","0","65247","","null","","","null","71","","","","","","","","","","","","","","","",""
"","ITI","","html-keyboard-response","470","492652","0.0-1.0-648.0","0","0","65247","","null","","","null","71","","","","","","","","","","","","","","","NaN",""
"","S1","","html-keyboard-response","471","492909","0.0-1.0-650.0","0","0","65247","","null","","","null","72","","","","","","","","","","","","","","","",""
"","ISI","","html-keyboard-response","472","493916","0.0-1.0-651.0","0","0","65247","","null","","","null","72","NaN","","","","","","","","","","","","","","",""
"","S2","","html-keyboard-response","473","494176","0.0-1.0-652.0","0","0","65247","","null","","","null","72","","NaN","","","","","","","","","","","","","",""
"","response","","html-keyboard-response","474","494509","0.0-1.0-653.0-0.0","0","0","65247","","325","","","75","72","","","2","72","training","adjacent","EF","5","6","O.jpg","Q.jpg","1","1","1","",""
"","feedback","","html-keyboard-response","475","495519","0.0-1.0-654.0-0.0","0","0","65247","","null","","","null","72","","","","","","","","","","","","","","","",""
"","ITI","","html-keyboard-response","476","496529","0.0-1.0-657.0","0","0","65247","","null","","","null","72","","","","","","","","","","","","","","","NaN",""
"","S1","","html-keyboard-response","477","496789","0.0-1.0-659.0","0","0","65247","","null","","","null","73","","","","","","","","","","","","","","","",""
"","ISI","","html-keyboard-response","478","497798","0.0-1.0-660.0","0","0","65247","","null","","","null","73","NaN","","","","","","","","","","","","","","",""
"","S2","","html-keyboard-response","479","498060","0.0-1.0-661.0","0","0","65247","","null","","","null","73","","NaN","","","","","","","","","","","","","",""
"","response","","html-keyboard-response","480","498364","0.0-1.0-662.0-0.0","0","0","65247","","298","","","68","73","","","2","73","training","adjacent","BA","2","1","R.jpg","N.jpg","0","0","1","",""
"","feedback","","html-keyboard-response","481","499373","0.0-1.0-663.0-0.0","0","0","65247","","null","","","null","73","","","","","","","","","","","","","","","",""
"","ITI","","html-keyboard-response","482","500383","0.0-1.0-666.0","0","0","65247","","null","","","null","73","","","","","","","","","","","","","","","NaN",""
"","S1","","html-keyboard-response","483","500643","0.0-1.0-668.0","0","0","65247","","null","","","null","74","","","","","","","","","","","","","","","",""
"","ISI","","html-keyboard-response","484","501649","0.0-1.0-669.0","0","0","65247","","null","","","null","74","NaN","","","","","","","","","","","","","","",""
"","S2","","html-keyboard-response","485","501905","0.0-1.0-670.0","0","0","65247","","null","","","null","74","","NaN","","","","","","","","","","","","","",""
"","response","","html-keyboard-response","486","502127","0.0-1.0-671.0-0.0","0","0","65247","","216","","","75","74","","","2","74","training","adjacent","EF","5","6","O.jpg","Q.jpg","1","1","1","",""
"","feedback","","html-keyboard-response","487","503136","0.0-1.0-672.0-0.0","0","0","65247","","null","","","null","74","","","","","","","","","","","","","","","",""
"","ITI","","html-keyboard-response","488","504147","0.0-1.0-675.0","0","0","65247","","null","","","null","74","","","","","","","","","","","","","","","NaN",""
"","S1","","html-keyboard-response","489","504408","0.0-1.0-677.0","0","0","65247","","null","","","null","75","","","","","","","","","","","","","","","",""
"","ISI","","html-keyboard-response","490","505416","0.0-1.0-678.0","0","0","65247","","null","","","null","75","NaN","","","","","","","","","","","","","","",""
"","S2","","html-keyboard-response","491","505677","0.0-1.0-679.0","0","0","65247","","null","","","null","75","","NaN","","","","","","","","","","","","","",""
"","response","","html-keyboard-response","492","506318","0.0-1.0-680.0-0.0","0","0","65247","","634","","","68","75","","","2","75","training","adjacent","DC","4","3","M.jpg","L.jpg","0","0","1","",""
"","feedback","","html-keyboard-response","493","507327","0.0-1.0-681.0-0.0","0","0","65247","","null","","","null","75","","","","","","","","","","","","","","","",""
"","ITI","","html-keyboard-response","494","508339","0.0-1.0-684.0","0","0","65247","","null","","","null","75","","","","","","","","","","","","","","","NaN",""
"","S1","","html-keyboard-response","495","508600","0.0-1.0-686.0","0","0","65247","","null","","","null","76","","","","","","","","","","","","","","","",""
"","ISI","","html-keyboard-response","496","509609","0.0-1.0-687.0","0","0","65247","","null","","","null","76","NaN","","","","","","","","","","","","","","",""
"","S2","","html-keyboard-response","497","509869","0.0-1.0-688.0","0","0","65247","","null","","","null","76","","NaN","","","","","","","","","","","","","",""
"","response","","html-keyboard-response","498","510299","0.0-1.0-689.0-0.0","0","0","65247","","423","","","75","76","","","2","76","training","adjacent","ED","5","4","O.jpg","M.jpg","1","0","0","",""
"","feedback","","html-keyboard-response","499","511310","0.0-1.0-690.0-0.0","0","0","65247","","null","","","null","76","","","","","","","","","","","","","","","",""
"","time_out","","html-keyboard-response","500","513319","0.0-1.0-692.0-0.0","0","0","65247","","null","","","null","76","","","","","","","","","","","","","","","",""
"","ITI","","html-keyboard-response","501","514329","0.0-1.0-693.0","0","0","65247","","null","","","null","76","","","","","","","","","","","","","","","NaN",""
"","S1","","html-keyboard-response","502","514588","0.0-1.0-695.0","0","0","65247","","null","","","null","77","","","","","","","","","","","","","","","",""
"","ISI","","html-keyboard-response","503","515596","0.0-1.0-696.0","0","0","65247","","null","","","null","77","NaN","","","","","","","","","","","","","","",""
"","S2","","html-keyboard-response","504","515856","0.0-1.0-697.0","0","0","65247","","null","","","null","77","","NaN","","","","","","","","","","","","","",""
"","response","","html-keyboard-response","505","516720","0.0-1.0-698.0-0.0","0","0","65247","","854","","","75","77","","","2","77","training","adjacent","CD","3","4","L.jpg","M.jpg","1","1","1","",""
"","feedback","","html-keyboard-response","506","517731","0.0-1.0-699.0-0.0","0","0","65247","","null","","","null","77","","","","","","","","","","","","","","","",""
"","ITI","","html-keyboard-response","507","518743","0.0-1.0-702.0","0","0","65247","","null","","","null","77","","","","","","","","","","","","","","","NaN",""
"","S1","","html-keyboard-response","508","519003","0.0-1.0-704.0","0","0","65247","","null","","","null","78","","","","","","","","","","","","","","","",""
"","ISI","","html-keyboard-response","509","520012","0.0-1.0-705.0","0","0","65247","","null","","","null","78","NaN","","","","","","","","","","","","","","",""
"","S2","","html-keyboard-response","510","520272","0.0-1.0-706.0","0","0","65247","","null","","","null","78","","NaN","","","","","","","","","","","","","",""
"","response","","html-keyboard-response","511","520932","0.0-1.0-707.0-0.0","0","0","65247","","653","","","68","78","","","2","78","training","adjacent","FG","6","7","Q.jpg","P.jpg","0","1","0","",""
"","feedback","","html-keyboard-response","512","521941","0.0-1.0-708.0-0.0","0","0","65247","","null","","","null","78","","","","","","","","","","","","","","","",""
"","time_out","","html-keyboard-response","513","523956","0.0-1.0-710.0-0.0","0","0","65247","","null","","","null","78","","","","","","","","","","","","","","","",""
"","ITI","","html-keyboard-response","514","524966","0.0-1.0-711.0","0","0","65247","","null","","","null","78","","","","","","","","","","","","","","","NaN",""
"","S1","","html-keyboard-response","515","525223","0.0-1.0-713.0","0","0","65247","","null","","","null","79","","","","","","","","","","","","","","","",""
"","ISI","","html-keyboard-response","516","526231","0.0-1.0-714.0","0","0","65247","","null","","","null","79","NaN","","","","","","","","","","","","","","",""
"","S2","","html-keyboard-response","517","526490","0.0-1.0-715.0","0","0","65247","","null","","","null","79","","NaN","","","","","","","","","","","","","",""
"","response","","html-keyboard-response","518","526987","0.0-1.0-716.0-0.0","0","0","65247","","489","","","68","79","","","2","79","training","adjacent","ED","5","4","O.jpg","M.jpg","0","0","1","",""
"","feedback","","html-keyboard-response","519","527996","0.0-1.0-717.0-0.0","0","0","65247","","null","","","null","79","","","","","","","","","","","","","","","",""
"","ITI","","html-keyboard-response","520","529006","0.0-1.0-720.0","0","0","65247","","null","","","null","79","","","","","","","","","","","","","","","NaN",""
"","S1","","html-keyboard-response","521","529266","0.0-1.0-722.0","0","0","65247","","null","","","null","80","","","","","","","","","","","","","","","",""
"","ISI","","html-keyboard-response","522","530274","0.0-1.0-723.0","0","0","65247","","null","","","null","80","NaN","","","","","","","","","","","","","","",""
"","S2","","html-keyboard-response","523","530534","0.0-1.0-724.0","0","0","65247","","null","","","null","80","","NaN","","","","","","","","","","","","","",""
"","response","","html-keyboard-response","524","531441","0.0-1.0-725.0-0.0","0","0","65247","","900","","","68","80","","","2","80","training","adjacent","DE","4","5","M.jpg","O.jpg","0","1","0","",""
"","feedback","","html-keyboard-response","525","532451","0.0-1.0-726.0-0.0","0","0","65247","","null","","","null","80","","","","","","","","","","","","","","","",""
"","time_out","","html-keyboard-response","526","534460","0.0-1.0-728.0-0.0","0","0","65247","","null","","","null","80","","","","","","","","","","","","","","","",""
"","ITI","","html-keyboard-response","527","535468","0.0-1.0-729.0","0","0","65247","","null","","","null","80","","","","","","","","","","","","","","","NaN",""
"","S1","","html-keyboard-response","528","535728","0.0-1.0-731.0","0","0","65247","","null","","","null","81","","","","","","","","","","","","","","","",""
"","ISI","","html-keyboard-response","529","536736","0.0-1.0-732.0","0","0","65247","","null","","","null","81","NaN","","","","","","","","","","","","","","",""
"","S2","","html-keyboard-response","530","536997","0.0-1.0-733.0","0","0","65247","","null","","","null","81","","NaN","","","","","","","","","","","","","",""
"","response","","html-keyboard-response","531","537477","0.0-1.0-734.0-0.0","0","0","65247","","474","","","68","81","","","2","81","training","adjacent","ED","5","4","O.jpg","M.jpg","0","0","1","",""
"","feedback","","html-keyboard-response","532","538486","0.0-1.0-735.0-0.0","0","0","65247","","null","","","null","81","","","","","","","","","","","","","","","",""
"","ITI","","html-keyboard-response","533","539497","0.0-1.0-738.0","0","0","65247","","null","","","null","81","","","","","","","","","","","","","","","NaN",""
"","S1","","html-keyboard-response","534","539759","0.0-1.0-740.0","0","0","65247","","null","","","null","82","","","","","","","","","","","","","","","",""
"","ISI","","html-keyboard-response","535","540767","0.0-1.0-741.0","0","0","65247","","null","","","null","82","NaN","","","","","","","","","","","","","","",""
"","S2","","html-keyboard-response","536","541027","0.0-1.0-742.0","0","0","65247","","null","","","null","82","","NaN","","","","","","","","","","","","","",""
"","response","","html-keyboard-response","537","541276","0.0-1.0-743.0-0.0","0","0","65247","","240","","","68","82","","","2","82","training","adjacent","CD","3","4","L.jpg","M.jpg","0","1","0","",""
"","feedback","","html-keyboard-response","538","542287","0.0-1.0-744.0-0.0","0","0","65247","","null","","","null","82","","","","","","","","","","","","","","","",""
"","time_out","","html-keyboard-response","539","544299","0.0-1.0-746.0-0.0","0","0","65247","","null","","","null","82","","","","","","","","","","","","","","","",""
"","ITI","","html-keyboard-response","540","545306","0.0-1.0-747.0","0","0","65247","","null","","","null","82","","","","","","","","","","","","","","","NaN",""
"","S1","","html-keyboard-response","541","545562","0.0-1.0-749.0","0","0","65247","","null","","","null","83","","","","","","","","","","","","","","","",""
"","ISI","","html-keyboard-response","542","546567","0.0-1.0-750.0","0","0","65247","","null","","","null","83","NaN","","","","","","","","","","","","","","",""
"","S2","","html-keyboard-response","543","546824","0.0-1.0-751.0","0","0","65247","","null","","","null","83","","NaN","","","","","","","","","","","","","",""
"","response","","html-keyboard-response","544","547772","0.0-1.0-752.0-0.0","0","0","65247","","939","","","68","83","","","2","83","training","adjacent","CD","3","4","L.jpg","M.jpg","0","1","0","",""
"","feedback","","html-keyboard-response","545","548781","0.0-1.0-753.0-0.0","0","0","65247","","null","","","null","83","","","","","","","","","","","","","","","",""
"","time_out","","html-keyboard-response","546","550788","0.0-1.0-755.0-0.0","0","0","65247","","null","","","null","83","","","","","","","","","","","","","","","",""
"","ITI","","html-keyboard-response","547","551793","0.0-1.0-756.0","0","0","65247","","null","","","null","83","","","","","","","","","","","","","","","NaN",""
"","S1","","html-keyboard-response","548","552052","0.0-1.0-758.0","0","0","65247","","null","","","null","84","","","","","","","","","","","","","","","",""
"","ISI","","html-keyboard-response","549","553062","0.0-1.0-759.0","0","0","65247","","null","","","null","84","NaN","","","","","","","","","","","","","","",""
"","S2","","html-keyboard-response","550","553321","0.0-1.0-760.0","0","0","65247","","null","","","null","84","","NaN","","","","","","","","","","","","","",""
"","response","","html-keyboard-response","551","553837","0.0-1.0-761.0-0.0","0","0","65247","","505","","","75","84","","","2","84","training","adjacent","BC","2","3","R.jpg","L.jpg","1","1","1","",""
"","feedback","","html-keyboard-response","552","554848","0.0-1.0-762.0-0.0","0","0","65247","","null","","","null","84","","","","","","","","","","","","","","","",""
"","ITI","","html-keyboard-response","553","555858","0.0-1.0-765.0","0","0","65247","","null","","","null","84","","","","","","","","","","","","","","","NaN",""
"","S1","","html-keyboard-response","554","556118","0.0-1.0-767.0","0","0","65247","","null","","","null","85","","","","","","","","","","","","","","","",""
"","ISI","","html-keyboard-response","555","557128","0.0-1.0-768.0","0","0","65247","","null","","","null","85","NaN","","","","","","","","","","","","","","",""
"","S2","","html-keyboard-response","556","557388","0.0-1.0-769.0","0","0","65247","","null","","","null","85","","NaN","","","","","","","","","","","","","",""
"","response","","html-keyboard-response","557","559046","0.0-1.0-770.0-0.0","0","0","65247","","1652","","","68","85","","","2","85","training","adjacent","DC","4","3","M.jpg","L.jpg","0","0","1","",""
"","feedback","","html-keyboard-response","558","560056","0.0-1.0-771.0-0.0","0","0","65247","","null","","","null","85","","","","","","","","","","","","","","","",""
"","ITI","","html-keyboard-response","559","561071","0.0-1.0-774.0","0","0","65247","","null","","","null","85","","","","","","","","","","","","","","","NaN",""
"","S1","","html-keyboard-response","560","561330","0.0-1.0-776.0","0","0","65247","","null","","","null","86","","","","","","","","","","","","","","","",""
"","ISI","","html-keyboard-response","561","562340","0.0-1.0-777.0","0","0","65247","","null","","","null","86","NaN","","","","","","","","","","","","","","",""
"","S2","","html-keyboard-response","562","562601","0.0-1.0-778.0","0","0","65247","","null","","","null","86","","NaN","","","","","","","","","","","","","",""
"","response","","html-keyboard-response","563","562942","0.0-1.0-779.0-0.0","0","0","65247","","334","","","75","86","","","2","86","training","adjacent","BC","2","3","R.jpg","L.jpg","1","1","1","",""
"","feedback","","html-keyboard-response","564","563952","0.0-1.0-780.0-0.0","0","0","65247","","null","","","null","86","","","","","","","","","","","","","","","",""
"","ITI","","html-keyboard-response","565","564963","0.0-1.0-783.0","0","0","65247","","null","","","null","86","","","","","","","","","","","","","","","NaN",""
"","S1","","html-keyboard-response","566","565222","0.0-1.0-785.0","0","0","65247","","null","","","null","87","","","","","","","","","","","","","","","",""
"","ISI","","html-keyboard-response","567","566231","0.0-1.0-786.0","0","0","65247","","null","","","null","87","NaN","","","","","","","","","","","","","","",""
"","S2","","html-keyboard-response","568","566491","0.0-1.0-787.0","0","0","65247","","null","","","null","87","","NaN","","","","","","","","","","","","","",""
"","response","","html-keyboard-response","569","566779","0.0-1.0-788.0-0.0","0","0","65247","","282","","","68","87","","","2","87","training","adjacent","BA","2","1","R.jpg","N.jpg","0","0","1","",""
"","feedback","","html-keyboard-response","570","567788","0.0-1.0-789.0-0.0","0","0","65247","","null","","","null","87","","","","","","","","","","","","","","","",""
"","ITI","","html-keyboard-response","571","568798","0.0-1.0-792.0","0","0","65247","","null","","","null","87","","","","","","","","","","","","","","","NaN",""
"","S1","","html-keyboard-response","572","569059","0.0-1.0-794.0","0","0","65247","","null","","","null","88","","","","","","","","","","","","","","","",""
"","ISI","","html-keyboard-response","573","570068","0.0-1.0-795.0","0","0","65247","","null","","","null","88","NaN","","","","","","","","","","","","","","",""
"","S2","","html-keyboard-response","574","570328","0.0-1.0-796.0","0","0","65247","","null","","","null","88","","NaN","","","","","","","","","","","","","",""
"","response","","html-keyboard-response","575","570858","0.0-1.0-797.0-0.0","0","0","65247","","524","","","75","88","","","2","88","training","adjacent","DE","4","5","M.jpg","O.jpg","1","1","1","",""
"","feedback","","html-keyboard-response","576","571870","0.0-1.0-798.0-0.0","0","0","65247","","null","","","null","88","","","","","","","","","","","","","","","",""
"","ITI","","html-keyboard-response","577","572882","0.0-1.0-801.0","0","0","65247","","null","","","null","88","","","","","","","","","","","","","","","NaN",""
"","S1","","html-keyboard-response","578","573143","0.0-1.0-803.0","0","0","65247","","null","","","null","89","","","","","","","","","","","","","","","",""
"","ISI","","html-keyboard-response","579","574158","0.0-1.0-804.0","0","0","65247","","null","","","null","89","NaN","","","","","","","","","","","","","","",""
"","S2","","html-keyboard-response","580","574417","0.0-1.0-805.0","0","0","65247","","null","","","null","89","","NaN","","","","","","","","","","","","","",""
"","response","","html-keyboard-response","581","574893","0.0-1.0-806.0-0.0","0","0","65247","","467","","","75","89","","","2","89","training","adjacent","FG","6","7","Q.jpg","P.jpg","1","1","1","",""
"","feedback","","html-keyboard-response","582","575902","0.0-1.0-807.0-0.0","0","0","65247","","null","","","null","89","","","","","","","","","","","","","","","",""
