"success","ttype","start_time","trial_type","trial_index","time_elapsed","internal_node_id","warning","missed_checkup","PID","view_history","rt","responses","repeat_instructions","key_press","index","keypress_isi","keypress_S2","block","trial_num","phase","group_type","pair_type","S1_stim","S2_stim","S1_img","S2_img","S1_chosen","S1_higher","accuracy","keypress_iti","total_bonus_tally"
"true","full_screen","d04062023hr2108","fullscreen","0","6677","0.0-0.0","0","0","80758","","","","","","","","","","","","","","","","","","","","","",""
"","instructions","","instructions","1","22272","0.0-1.0-0.0-0.0","0","0","80758","[{""page_index"":0,""viewing_time"":3055},{""page_index"":1,""viewing_time"":4874},{""page_index"":2,""viewing_time"":6150},{""page_index"":3,""viewing_time"":1512}]","15591","","","","","","","","","","","","","","","","","","","",""
"","comprehension_check","","survey-multi-choice","2","274949","0.0-1.0-0.0-1.0","0","0","80758","","252673","{""Q0"":""True"",""Q1"":""D"",""Q2"":""Only when the screen 'MAKE A CHOICE' is shown"",""Q3"":""Green mark"",""Q4"":""either D or K""}","1","","","","","","","","","","","","","","","","","",""
"","missed_instruction_checkup","","html-keyboard-response","3","277521","0.0-1.0-0.0-2.0-0.0","0","1","80758","","2568","","","32","","","","","","","","","","","","","","","","",""
"","instructions","","instructions","4","297777","0.0-1.0-0.1-0.1","0","0","80758","[{""page_index"":0,""viewing_time"":4344},{""page_index"":1,""viewing_time"":2487},{""page_index"":2,""viewing_time"":6124},{""page_index"":3,""viewing_time"":1217},{""page_index"":2,""viewing_time"":2423},{""page_index"":3,""viewing_time"":960},{""page_index"":2,""viewing_time"":2204},{""page_index"":3,""viewing_time"":494}]","20254","","","","","","","","","","","","","","","","","","","",""
"","comprehension_check","","survey-multi-choice","5","314480","0.0-1.0-0.1-1.1","0","0","80758","","16699","{""Q0"":""True"",""Q1"":""D"",""Q2"":""Only while the second image is shown"",""Q3"":""Green mark"",""Q4"":""either D or K""}","1","","","","","","","","","","","","","","","","","",""
"","missed_instruction_checkup","","html-keyboard-response","6","316063","0.0-1.0-0.1-2.1-0.1","0","1","80758","","1580","","","32","","","","","","","","","","","","","","","","",""
"","instructions","","instructions","7","343238","0.0-1.0-0.2-0.2","0","0","80758","[{""page_index"":0,""viewing_time"":2739},{""page_index"":1,""viewing_time"":17848},{""page_index"":2,""viewing_time"":5228},{""page_index"":3,""viewing_time"":1358}]","27173","","","","","","","","","","","","","","","","","","","",""
"","comprehension_check","","survey-multi-choice","8","353101","0.0-1.0-0.2-1.2","0","0","80758","","9859","{""Q0"":""True"",""Q1"":""D"",""Q2"":""Once the second image appears and while the screen 'MAKE A CHOICE' is shown"",""Q3"":""Green mark"",""Q4"":""either D or K""}","0","","","","","","","","","","","","","","","","","",""
"","start_exp","","html-keyboard-response","9","363419","0.0-1.0-1.0","0","0","80758","","10316","","","32","","","","","","","","","","","","","","","","",""
"","S1","","html-keyboard-response","10","363573","0.0-1.0-2.0","0","0","80758","","null","","","null","0","","","","","","","","","","","","","","","",""
"","ISI","","html-keyboard-response","11","365574","0.0-1.0-3.0","0","0","80758","","null","","","null","0","NaN","","","","","","","","","","","","","","",""
"","S2","","html-keyboard-response","12","365726","0.0-1.0-4.0","0","0","80758","","null","","","null","0","","NaN","","","","","","","","","","","","","",""
"","response","","html-keyboard-response","13","366583","0.0-1.0-5.0-0.0","0","0","80758","","855","","","75","0","","","1","0","training","adjacent","GF","7","6","P.jpg","O.jpg","0","0","1","",""
"","feedback","","html-keyboard-response","14","367587","0.0-1.0-6.0-0.0","0","0","80758","","null","","","null","0","","","","","","","","","","","","","","","",""
"","ITI","","html-keyboard-response","15","368590","0.0-1.0-9.0","0","0","80758","","null","","","null","0","","","","","","","","","","","","","","","NaN",""
"","S1","","html-keyboard-response","16","368743","0.0-1.0-11.0","0","0","80758","","null","","","null","1","","","","","","","","","","","","","","","",""
"","ISI","","html-keyboard-response","17","370744","0.0-1.0-12.0","0","0","80758","","null","","","null","1","NaN","","","","","","","","","","","","","","",""
"","S2","","html-keyboard-response","18","370897","0.0-1.0-13.0","0","0","80758","","null","","","null","1","","NaN","","","","","","","","","","","","","",""
"","response","","html-keyboard-response","19","371620","0.0-1.0-14.0-0.0","0","0","80758","","721","","","68","1","","","1","1","training","adjacent","CD","3","4","N.jpg","M.jpg","1","1","1","",""
"","feedback","","html-keyboard-response","20","372623","0.0-1.0-15.0-0.0","0","0","80758","","null","","","null","1","","","","","","","","","","","","","","","",""
"","ITI","","html-keyboard-response","21","373628","0.0-1.0-18.0","0","0","80758","","null","","","null","1","","","","","","","","","","","","","","","NaN",""
"","S1","","html-keyboard-response","22","373782","0.0-1.0-20.0","0","0","80758","","null","","","null","2","","","","","","","","","","","","","","","",""
"","ISI","","html-keyboard-response","23","375785","0.0-1.0-21.0","0","0","80758","","null","","","null","2","NaN","","","","","","","","","","","","","","",""
"","S2","","html-keyboard-response","24","375939","0.0-1.0-22.0","0","0","80758","","null","","","null","2","","NaN","","","","","","","","","","","","","",""
"","response","","html-keyboard-response","25","376541","0.0-1.0-23.0-0.0","0","0","80758","","600","","","75","2","","","1","2","training","adjacent","FE","6","5","O.jpg","L.jpg","0","0","1","",""
"","feedback","","html-keyboard-response","26","377544","0.0-1.0-24.0-0.0","0","0","80758","","null","","","null","2","","","","","","","","","","","","","","","",""
"","ITI","","html-keyboard-response","27","378546","0.0-1.0-27.0","0","0","80758","","null","","","null","2","","","","","","","","","","","","","","","NaN",""
"","S1","","html-keyboard-response","28","378699","0.0-1.0-29.0","0","0","80758","","null","","","null","3","","","","","","","","","","","","","","","",""
"","ISI","","html-keyboard-response","29","380701","0.0-1.0-30.0","0","0","80758","","null","","","null","3","NaN","","","","","","","","","","","","","","",""
"","S2","","html-keyboard-response","30","380854","0.0-1.0-31.0","0","0","80758","","null","","","null","3","","NaN","","","","","","","","","","","","","",""
"","response","","html-keyboard-response","31","381164","0.0-1.0-32.0-0.0","0","0","80758","","308","","","68","3","","","1","3","training","adjacent","EF","5","6","L.jpg","O.jpg","1","1","1","",""
"","feedback","","html-keyboard-response","32","382167","0.0-1.0-33.0-0.0","0","0","80758","","null","","","null","3","","","","","","","","","","","","","","","",""
"","ITI","","html-keyboard-response","33","383171","0.0-1.0-36.0","0","0","80758","","null","","","null","3","","","","","","","","","","","","","","","NaN",""
"","S1","","html-keyboard-response","34","383325","0.0-1.0-38.0","0","0","80758","","null","","","null","4","","","","","","","","","","","","","","","",""
"","ISI","","html-keyboard-response","35","385328","0.0-1.0-39.0","0","0","80758","","null","","","null","4","NaN","","","","","","","","","","","","","","",""
"","S2","","html-keyboard-response","36","385481","0.0-1.0-40.0","0","0","80758","","null","","","null","4","","NaN","","","","","","","","","","","","","",""
"","response","","html-keyboard-response","37","386391","0.0-1.0-41.0-0.0","0","0","80758","","908","","","68","4","","","1","4","training","adjacent","FG","6","7","O.jpg","P.jpg","1","1","1","",""
"","feedback","","html-keyboard-response","38","387395","0.0-1.0-42.0-0.0","0","0","80758","","null","","","null","4","","","","","","","","","","","","","","","",""
"","ITI","","html-keyboard-response","39","388397","0.0-1.0-45.0","0","0","80758","","null","","","null","4","","","","","","","","","","","","","","","NaN",""
"","S1","","html-keyboard-response","40","388564","0.0-1.0-47.0","0","0","80758","","null","","","null","5","","","","","","","","","","","","","","","",""
"","ISI","","html-keyboard-response","41","390567","0.0-1.0-48.0","0","0","80758","","null","","","null","5","NaN","","","","","","","","","","","","","","",""
"","S2","","html-keyboard-response","42","390719","0.0-1.0-49.0","0","0","80758","","null","","","null","5","","NaN","","","","","","","","","","","","","",""
"","response","","html-keyboard-response","43","390964","0.0-1.0-50.0-0.0","0","0","80758","","243","","","68","5","","","1","5","training","adjacent","GF","7","6","P.jpg","O.jpg","1","0","0","",""
"","feedback","","html-keyboard-response","44","391967","0.0-1.0-51.0-0.0","0","0","80758","","null","","","null","5","","","","","","","","","","","","","","","",""
"","time_out","","html-keyboard-response","45","393971","0.0-1.0-53.0-0.0","0","0","80758","","null","","","null","5","","","","","","","","","","","","","","","",""
"","ITI","","html-keyboard-response","46","394972","0.0-1.0-54.0","0","0","80758","","null","","","null","5","","","","","","","","","","","","","","","NaN",""
"","S1","","html-keyboard-response","47","395124","0.0-1.0-56.0","0","0","80758","","null","","","null","6","","","","","","","","","","","","","","","",""
"","ISI","","html-keyboard-response","48","397126","0.0-1.0-57.0","0","0","80758","","null","","","null","6","NaN","","","","","","","","","","","","","","",""
"","S2","","html-keyboard-response","49","397278","0.0-1.0-58.0","0","0","80758","","null","","","null","6","","NaN","","","","","","","","","","","","","",""
"","response","","html-keyboard-response","50","397588","0.0-1.0-59.0-0.0","0","0","80758","","307","","","75","6","","","1","6","training","adjacent","CD","3","4","N.jpg","M.jpg","0","1","0","",""
"","feedback","","html-keyboard-response","51","398591","0.0-1.0-60.0-0.0","0","0","80758","","null","","","null","6","","","","","","","","","","","","","","","",""
"","time_out","","html-keyboard-response","52","400594","0.0-1.0-62.0-0.0","0","0","80758","","null","","","null","6","","","","","","","","","","","","","","","",""
"","ITI","","html-keyboard-response","53","401600","0.0-1.0-63.0","0","0","80758","","null","","","null","6","","","","","","","","","","","","","","","NaN",""
"","S1","","html-keyboard-response","54","401753","0.0-1.0-65.0","0","0","80758","","null","","","null","7","","","","","","","","","","","","","","","",""
"","ISI","","html-keyboard-response","55","403755","0.0-1.0-66.0","0","0","80758","","null","","","null","7","NaN","","","","","","","","","","","","","","",""
"","S2","","html-keyboard-response","56","403908","0.0-1.0-67.0","0","0","80758","","null","","","null","7","","NaN","","","","","","","","","","","","","",""
"","response","","html-keyboard-response","57","404338","0.0-1.0-68.0-0.0","0","0","80758","","429","","","75","7","","","1","7","training","adjacent","CB","3","2","N.jpg","Q.jpg","0","0","1","",""
"","feedback","","html-keyboard-response","58","405345","0.0-1.0-69.0-0.0","0","0","80758","","null","","","null","7","","","","","","","","","","","","","","","",""
"","ITI","","html-keyboard-response","59","406348","0.0-1.0-72.0","0","0","80758","","null","","","null","7","","","","","","","","","","","","","","","NaN",""
"","S1","","html-keyboard-response","60","406501","0.0-1.0-74.0","0","0","80758","","null","","","null","8","","","","","","","","","","","","","","","",""
"","ISI","","html-keyboard-response","61","408505","0.0-1.0-75.0","0","0","80758","","null","","","null","8","NaN","","","","","","","","","","","","","","",""
"","S2","","html-keyboard-response","62","408661","0.0-1.0-76.0","0","0","80758","","null","","","null","8","","NaN","","","","","","","","","","","","","",""
"","response","","html-keyboard-response","63","408987","0.0-1.0-77.0-0.0","0","0","80758","","325","","","68","8","","","1","8","training","adjacent","BC","2","3","Q.jpg","N.jpg","1","1","1","",""
"","feedback","","html-keyboard-response","64","409990","0.0-1.0-78.0-0.0","0","0","80758","","null","","","null","8","","","","","","","","","","","","","","","",""
"","ITI","","html-keyboard-response","65","410995","0.0-1.0-81.0","0","0","80758","","null","","","null","8","","","","","","","","","","","","","","","NaN",""
"","S1","","html-keyboard-response","66","411148","0.0-1.0-83.0","0","0","80758","","null","","","null","9","","","","","","","","","","","","","","","",""
"","ISI","","html-keyboard-response","67","413151","0.0-1.0-84.0","0","0","80758","","null","","","null","9","NaN","","","","","","","","","","","","","","",""
"","S2","","html-keyboard-response","68","413303","0.0-1.0-85.0","0","0","80758","","null","","","null","9","","NaN","","","","","","","","","","","","","",""
"","response","","html-keyboard-response","69","413634","0.0-1.0-86.0-0.0","0","0","80758","","329","","","68","9","","","1","9","training","adjacent","DC","4","3","M.jpg","N.jpg","1","0","0","",""
"","feedback","","html-keyboard-response","70","414636","0.0-1.0-87.0-0.0","0","0","80758","","null","","","null","9","","","","","","","","","","","","","","","",""
"","time_out","","html-keyboard-response","71","416639","0.0-1.0-89.0-0.0","0","0","80758","","null","","","null","9","","","","","","","","","","","","","","","",""
"","ITI","","html-keyboard-response","72","417642","0.0-1.0-90.0","0","0","80758","","null","","","null","9","","","","","","","","","","","","","","","NaN",""
"","S1","","html-keyboard-response","73","417796","0.0-1.0-92.0","0","0","80758","","null","","","null","10","","","","","","","","","","","","","","","",""
"","ISI","","html-keyboard-response","74","419799","0.0-1.0-93.0","0","0","80758","","null","","","null","10","NaN","","","","","","","","","","","","","","",""
"","S2","","html-keyboard-response","75","419953","0.0-1.0-94.0","0","0","80758","","null","","","null","10","","NaN","","","","","","","","","","","","","",""
"","response","","html-keyboard-response","76","420344","0.0-1.0-95.0-0.0","0","0","80758","","388","","","68","10","","","1","10","training","adjacent","BC","2","3","Q.jpg","N.jpg","1","1","1","",""
"","feedback","","html-keyboard-response","77","421347","0.0-1.0-96.0-0.0","0","0","80758","","null","","","null","10","","","","","","","","","","","","","","","",""
"","ITI","","html-keyboard-response","78","422350","0.0-1.0-99.0","0","0","80758","","null","","","null","10","","","","","","","","","","","","","","","NaN",""
"","S1","","html-keyboard-response","79","422503","0.0-1.0-101.0","0","0","80758","","null","","","null","11","","","","","","","","","","","","","","","",""
"","ISI","","html-keyboard-response","80","424506","0.0-1.0-102.0","0","0","80758","","null","","","null","11","NaN","","","","","","","","","","","","","","",""
"","S2","","html-keyboard-response","81","424660","0.0-1.0-103.0","0","0","80758","","null","","","null","11","","NaN","","","","","","","","","","","","","",""
"","response","","html-keyboard-response","82","425211","0.0-1.0-104.0-0.0","0","0","80758","","549","","","75","11","","","1","11","training","adjacent","AB","1","2","R.jpg","Q.jpg","0","1","0","",""
"","feedback","","html-keyboard-response","83","426213","0.0-1.0-105.0-0.0","0","0","80758","","null","","","null","11","","","","","","","","","","","","","","","",""
"","time_out","","html-keyboard-response","84","428216","0.0-1.0-107.0-0.0","0","0","80758","","null","","","null","11","","","","","","","","","","","","","","","",""
"","ITI","","html-keyboard-response","85","429218","0.0-1.0-108.0","0","0","80758","","null","","","null","11","","","","","","","","","","","","","","","NaN",""
"","S1","","html-keyboard-response","86","429372","0.0-1.0-110.0","0","0","80758","","null","","","null","12","","","","","","","","","","","","","","","",""
"","ISI","","html-keyboard-response","87","431373","0.0-1.0-111.0","0","0","80758","","null","","","null","12","NaN","","","","","","","","","","","","","","",""
"","S2","","html-keyboard-response","88","431526","0.0-1.0-112.0","0","0","80758","","null","","","null","12","","NaN","","","","","","","","","","","","","",""
"","response","","html-keyboard-response","89","432496","0.0-1.0-113.0-0.0","0","0","80758","","969","","","68","12","","","1","12","training","adjacent","AB","1","2","R.jpg","Q.jpg","1","1","1","",""
"","feedback","","html-keyboard-response","90","433497","0.0-1.0-114.0-0.0","0","0","80758","","null","","","null","12","","","","","","","","","","","","","","","",""
"","ITI","","html-keyboard-response","91","434501","0.0-1.0-117.0","0","0","80758","","null","","","null","12","","","","","","","","","","","","","","","NaN",""
"","S1","","html-keyboard-response","92","434654","0.0-1.0-119.0","0","0","80758","","null","","","null","13","","","","","","","","","","","","","","","",""
"","ISI","","html-keyboard-response","93","436656","0.0-1.0-120.0","0","0","80758","","null","","","null","13","NaN","","","","","","","","","","","","","","",""
"","S2","","html-keyboard-response","94","436812","0.0-1.0-121.0","0","0","80758","","null","","","null","13","","NaN","","","","","","","","","","","","","",""
"","response","","html-keyboard-response","95","437627","0.0-1.0-122.0-0.0","0","0","80758","","812","","","68","13","","","1","13","training","adjacent","ED","5","4","L.jpg","M.jpg","1","0","0","",""
"","feedback","","html-keyboard-response","96","438631","0.0-1.0-123.0-0.0","0","0","80758","","null","","","null","13","","","","","","","","","","","","","","","",""
"","time_out","","html-keyboard-response","97","440635","0.0-1.0-125.0-0.0","0","0","80758","","null","","","null","13","","","","","","","","","","","","","","","",""
"","ITI","","html-keyboard-response","98","441639","0.0-1.0-126.0","0","0","80758","","null","","","null","13","","","","","","","","","","","","","","","NaN",""
"","S1","","html-keyboard-response","99","441791","0.0-1.0-128.0","0","0","80758","","null","","","null","14","","","","","","","","","","","","","","","",""
"","ISI","","html-keyboard-response","100","443793","0.0-1.0-129.0","0","0","80758","","null","","","null","14","NaN","","","","","","","","","","","","","","",""
"","S2","","html-keyboard-response","101","443947","0.0-1.0-130.0","0","0","80758","","null","","","null","14","","NaN","","","","","","","","","","","","","",""
"","response","","html-keyboard-response","102","444396","0.0-1.0-131.0-0.0","0","0","80758","","446","","","68","14","","","1","14","training","adjacent","DC","4","3","M.jpg","N.jpg","1","0","0","",""
"","feedback","","html-keyboard-response","103","445400","0.0-1.0-132.0-0.0","0","0","80758","","null","","","null","14","","","","","","","","","","","","","","","",""
"","time_out","","html-keyboard-response","104","447403","0.0-1.0-134.0-0.0","0","0","80758","","null","","","null","14","","","","","","","","","","","","","","","",""
"","ITI","","html-keyboard-response","105","448406","0.0-1.0-135.0","0","0","80758","","null","","","null","14","","","","","","","","","","","","","","","NaN",""
"","S1","","html-keyboard-response","106","448564","0.0-1.0-137.0","0","0","80758","","null","","","null","15","","","","","","","","","","","","","","","",""
"","ISI","","html-keyboard-response","107","450567","0.0-1.0-138.0","0","0","80758","","null","","","null","15","NaN","","","","","","","","","","","","","","",""
"","S2","","html-keyboard-response","108","450721","0.0-1.0-139.0","0","0","80758","","null","","","null","15","","NaN","","","","","","","","","","","","","",""
"","response","","html-keyboard-response","109","451370","0.0-1.0-140.0-0.0","0","0","80758","","646","","","75","15","","","1","15","training","adjacent","CB","3","2","N.jpg","Q.jpg","0","0","1","",""
"","feedback","","html-keyboard-response","110","452372","0.0-1.0-141.0-0.0","0","0","80758","","null","","","null","15","","","","","","","","","","","","","","","",""
"","ITI","","html-keyboard-response","111","453374","0.0-1.0-144.0","0","0","80758","","null","","","null","15","","","","","","","","","","","","","","","NaN",""
"","S1","","html-keyboard-response","112","453527","0.0-1.0-146.0","0","0","80758","","null","","","null","16","","","","","","","","","","","","","","","",""
"","ISI","","html-keyboard-response","113","455529","0.0-1.0-147.0","0","0","80758","","null","","","null","16","NaN","","","","","","","","","","","","","","",""
"","S2","","html-keyboard-response","114","455682","0.0-1.0-148.0","0","0","80758","","null","","","null","16","","NaN","","","","","","","","","","","","","",""
"","response","","html-keyboard-response","115","456315","0.0-1.0-149.0-0.0","0","0","80758","","630","","","68","16","","","1","16","training","adjacent","DE","4","5","M.jpg","L.jpg","1","1","1","",""
"","feedback","","html-keyboard-response","116","457319","0.0-1.0-150.0-0.0","0","0","80758","","null","","","null","16","","","","","","","","","","","","","","","",""
"","ITI","","html-keyboard-response","117","458322","0.0-1.0-153.0","0","0","80758","","null","","","null","16","","","","","","","","","","","","","","","NaN",""
"","S1","","html-keyboard-response","118","458476","0.0-1.0-155.0","0","0","80758","","null","","","null","17","","","","","","","","","","","","","","","",""
"","ISI","","html-keyboard-response","119","460479","0.0-1.0-156.0","0","0","80758","","null","","","null","17","NaN","","","","","","","","","","","","","","",""
"","S2","","html-keyboard-response","120","460632","0.0-1.0-157.0","0","0","80758","","null","","","null","17","","NaN","","","","","","","","","","","","","",""
"","response","","html-keyboard-response","121","461192","0.0-1.0-158.0-0.0","0","0","80758","","558","","","68","17","","","1","17","training","adjacent","DC","4","3","M.jpg","N.jpg","1","0","0","",""
"","feedback","","html-keyboard-response","122","462195","0.0-1.0-159.0-0.0","0","0","80758","","null","","","null","17","","","","","","","","","","","","","","","",""
"","time_out","","html-keyboard-response","123","464198","0.0-1.0-161.0-0.0","0","0","80758","","null","","","null","17","","","","","","","","","","","","","","","",""
"","ITI","","html-keyboard-response","124","465202","0.0-1.0-162.0","0","0","80758","","null","","","null","17","","","","","","","","","","","","","","","NaN",""
"","S1","","html-keyboard-response","125","465355","0.0-1.0-164.0","0","0","80758","","null","","","null","18","","","","","","","","","","","","","","","",""
"","ISI","","html-keyboard-response","126","467358","0.0-1.0-165.0","0","0","80758","","null","","","null","18","NaN","","","","","","","","","","","","","","",""
"","S2","","html-keyboard-response","127","467512","0.0-1.0-166.0","0","0","80758","","null","","","null","18","","NaN","","","","","","","","","","","","","",""
"","response","","html-keyboard-response","128","467898","0.0-1.0-167.0-0.0","0","0","80758","","385","","","68","18","","","1","18","training","adjacent","DC","4","3","M.jpg","N.jpg","1","0","0","",""
"","feedback","","html-keyboard-response","129","468900","0.0-1.0-168.0-0.0","0","0","80758","","null","","","null","18","","","","","","","","","","","","","","","",""
"","time_out","","html-keyboard-response","130","470903","0.0-1.0-170.0-0.0","0","0","80758","","null","","","null","18","","","","","","","","","","","","","","","",""
"","ITI","","html-keyboard-response","131","471905","0.0-1.0-171.0","0","0","80758","","null","","","null","18","","","","","","","","","","","","","","","NaN",""
"","S1","","html-keyboard-response","132","472059","0.0-1.0-173.0","0","0","80758","","null","","","null","19","","","","","","","","","","","","","","","",""
"","ISI","","html-keyboard-response","133","474062","0.0-1.0-174.0","0","0","80758","","null","","","null","19","NaN","","","","","","","","","","","","","","",""
"","S2","","html-keyboard-response","134","474214","0.0-1.0-175.0","0","0","80758","","null","","","null","19","","NaN","","","","","","","","","","","","","",""
"","response","","html-keyboard-response","135","474572","0.0-1.0-176.0-0.0","0","0","80758","","356","","","75","19","","","1","19","training","adjacent","DE","4","5","M.jpg","L.jpg","0","1","0","",""
"","feedback","","html-keyboard-response","136","475576","0.0-1.0-177.0-0.0","0","0","80758","","null","","","null","19","","","","","","","","","","","","","","","",""
"","time_out","","html-keyboard-response","137","477579","0.0-1.0-179.0-0.0","0","0","80758","","null","","","null","19","","","","","","","","","","","","","","","",""
"","ITI","","html-keyboard-response","138","478580","0.0-1.0-180.0","0","0","80758","","null","","","null","19","","","","","","","","","","","","","","","NaN",""
"","S1","","html-keyboard-response","139","478733","0.0-1.0-182.0","0","0","80758","","null","","","null","20","","","","","","","","","","","","","","","",""
"","ISI","","html-keyboard-response","140","480735","0.0-1.0-183.0","0","0","80758","","null","","","null","20","NaN","","","","","","","","","","","","","","",""
"","S2","","html-keyboard-response","141","480896","0.0-1.0-184.0","0","0","80758","","null","","","null","20","","NaN","","","","","","","","","","","","","",""
"","response","","html-keyboard-response","142","481316","0.0-1.0-185.0-0.0","0","0","80758","","418","","","75","20","","","1","20","training","adjacent","AB","1","2","R.jpg","Q.jpg","0","1","0","",""
"","feedback","","html-keyboard-response","143","482320","0.0-1.0-186.0-0.0","0","0","80758","","null","","","null","20","","","","","","","","","","","","","","","",""
"","time_out","","html-keyboard-response","144","484321","0.0-1.0-188.0-0.0","0","0","80758","","null","","","null","20","","","","","","","","","","","","","","","",""
"","ITI","","html-keyboard-response","145","485323","0.0-1.0-189.0","0","0","80758","","null","","","null","20","","","","","","","","","","","","","","","NaN",""
"","S1","","html-keyboard-response","146","485476","0.0-1.0-191.0","0","0","80758","","null","","","null","21","","","","","","","","","","","","","","","",""
"","ISI","","html-keyboard-response","147","487478","0.0-1.0-192.0","0","0","80758","","null","","","null","21","NaN","","","","","","","","","","","","","","",""
"","S2","","html-keyboard-response","148","487631","0.0-1.0-193.0","0","0","80758","","null","","","null","21","","NaN","","","","","","","","","","","","","",""
"","response","","html-keyboard-response","149","488657","0.0-1.0-194.0-0.0","0","0","80758","","1025","","","75","21","","","1","21","training","adjacent","ED","5","4","L.jpg","M.jpg","0","0","1","",""
"","feedback","","html-keyboard-response","150","489660","0.0-1.0-195.0-0.0","0","0","80758","","null","","","null","21","","","","","","","","","","","","","","","",""
"","ITI","","html-keyboard-response","151","490663","0.0-1.0-198.0","0","0","80758","","null","","","null","21","","","","","","","","","","","","","","","NaN",""
"","S1","","html-keyboard-response","152","490816","0.0-1.0-200.0","0","0","80758","","null","","","null","22","","","","","","","","","","","","","","","",""
"","ISI","","html-keyboard-response","153","492818","0.0-1.0-201.0","0","0","80758","","null","","","null","22","NaN","","","","","","","","","","","","","","",""
"","S2","","html-keyboard-response","154","492971","0.0-1.0-202.0","0","0","80758","","null","","","null","22","","NaN","","","","","","","","","","","","","",""
"","response","","html-keyboard-response","155","493798","0.0-1.0-203.0-0.0","0","0","80758","","825","","","68","22","","","1","22","training","adjacent","FG","6","7","O.jpg","P.jpg","1","1","1","",""
"","feedback","","html-keyboard-response","156","494802","0.0-1.0-204.0-0.0","0","0","80758","","null","","","null","22","","","","","","","","","","","","","","","",""
"","ITI","","html-keyboard-response","157","495806","0.0-1.0-207.0","0","0","80758","","null","","","null","22","","","","","","","","","","","","","","","NaN",""
"","S1","","html-keyboard-response","158","495959","0.0-1.0-209.0","0","0","80758","","null","","","null","23","","","","","","","","","","","","","","","",""
"","ISI","","html-keyboard-response","159","497961","0.0-1.0-210.0","0","0","80758","","null","","","null","23","NaN","","","","","","","","","","","","","","",""
"","S2","","html-keyboard-response","160","498114","0.0-1.0-211.0","0","0","80758","","null","","","null","23","","NaN","","","","","","","","","","","","","",""
"","response","","html-keyboard-response","161","498747","0.0-1.0-212.0-0.0","0","0","80758","","631","","","75","23","","","1","23","training","adjacent","BA","2","1","Q.jpg","R.jpg","0","0","1","",""
"","feedback","","html-keyboard-response","162","499750","0.0-1.0-213.0-0.0","0","0","80758","","null","","","null","23","","","","","","","","","","","","","","","",""
"","ITI","","html-keyboard-response","163","500753","0.0-1.0-216.0","0","0","80758","","null","","","null","23","","","","","","","","","","","","","","","NaN",""
"","S1","","html-keyboard-response","164","500906","0.0-1.0-218.0","0","0","80758","","null","","","null","24","","","","","","","","","","","","","","","",""
"","ISI","","html-keyboard-response","165","502908","0.0-1.0-219.0","0","0","80758","","null","","","null","24","NaN","","","","","","","","","","","","","","",""
"","S2","","html-keyboard-response","166","503060","0.0-1.0-220.0","0","0","80758","","null","","","null","24","","NaN","","","","","","","","","","","","","",""
"","response","","html-keyboard-response","167","504135","0.0-1.0-221.0-0.0","0","0","80758","","1073","","","68","24","","","1","24","training","adjacent","DE","4","5","M.jpg","L.jpg","1","1","1","",""
"","feedback","","html-keyboard-response","168","505139","0.0-1.0-222.0-0.0","0","0","80758","","null","","","null","24","","","","","","","","","","","","","","","",""
"","ITI","","html-keyboard-response","169","506142","0.0-1.0-225.0","0","0","80758","","null","","","null","24","","","","","","","","","","","","","","","NaN",""
"","S1","","html-keyboard-response","170","506295","0.0-1.0-227.0","0","0","80758","","null","","","null","25","","","","","","","","","","","","","","","",""
"","ISI","","html-keyboard-response","171","508298","0.0-1.0-228.0","0","0","80758","","null","","","null","25","NaN","","","","","","","","","","","","","","",""
"","S2","","html-keyboard-response","172","508451","0.0-1.0-229.0","0","0","80758","","null","","","null","25","","NaN","","","","","","","","","","","","","",""
"","response","","html-keyboard-response","173","508907","0.0-1.0-230.0-0.0","0","0","80758","","453","","","75","25","","","1","25","training","adjacent","ED","5","4","L.jpg","M.jpg","0","0","1","",""
"","feedback","","html-keyboard-response","174","509921","0.0-1.0-231.0-0.0","0","0","80758","","null","","","null","25","","","","","","","","","","","","","","","",""
"","ITI","","html-keyboard-response","175","510924","0.0-1.0-234.0","0","0","80758","","null","","","null","25","","","","","","","","","","","","","","","NaN",""
"","S1","","html-keyboard-response","176","511077","0.0-1.0-236.0","0","0","80758","","null","","","null","26","","","","","","","","","","","","","","","",""
"","ISI","","html-keyboard-response","177","513080","0.0-1.0-237.0","0","0","80758","","null","","","null","26","NaN","","","","","","","","","","","","","","",""
"","S2","","html-keyboard-response","178","513232","0.0-1.0-238.0","0","0","80758","","null","","","null","26","","NaN","","","","","","","","","","","","","",""
"","response","","html-keyboard-response","179","513604","0.0-1.0-239.0-0.0","0","0","80758","","370","","","68","26","","","1","26","training","adjacent","FG","6","7","O.jpg","P.jpg","1","1","1","",""
"","feedback","","html-keyboard-response","180","514609","0.0-1.0-240.0-0.0","0","0","80758","","null","","","null","26","","","","","","","","","","","","","","","",""
"","ITI","","html-keyboard-response","181","515613","0.0-1.0-243.0","0","0","80758","","null","","","null","26","","","","","","","","","","","","","","","NaN",""
"","S1","","html-keyboard-response","182","515766","0.0-1.0-245.0","0","0","80758","","null","","","null","27","","","","","","","","","","","","","","","",""
"","ISI","","html-keyboard-response","183","517768","0.0-1.0-246.0","0","0","80758","","null","","","null","27","NaN","","","","","","","","","","","","","","",""
"","S2","","html-keyboard-response","184","517921","0.0-1.0-247.0","0","0","80758","","null","","","null","27","","NaN","","","","","","","","","","","","","",""
"","response","","html-keyboard-response","185","518481","0.0-1.0-248.0-0.0","0","0","80758","","559","","","75","27","","","1","27","training","adjacent","FE","6","5","O.jpg","L.jpg","0","0","1","",""
"","feedback","","html-keyboard-response","186","519484","0.0-1.0-249.0-0.0","0","0","80758","","null","","","null","27","","","","","","","","","","","","","","","",""
"","ITI","","html-keyboard-response","187","520486","0.0-1.0-252.0","0","0","80758","","null","","","null","27","","","","","","","","","","","","","","","NaN",""
"","S1","","html-keyboard-response","188","520638","0.0-1.0-254.0","0","0","80758","","null","","","null","28","","","","","","","","","","","","","","","",""
"","ISI","","html-keyboard-response","189","522642","0.0-1.0-255.0","0","0","80758","","null","","","null","28","NaN","","","","","","","","","","","","","","",""
"","S2","","html-keyboard-response","190","522795","0.0-1.0-256.0","0","0","80758","","null","","","null","28","","NaN","","","","","","","","","","","","","",""
"","response","","html-keyboard-response","191","523394","0.0-1.0-257.0-0.0","0","0","80758","","597","","","68","28","","","1","28","training","adjacent","EF","5","6","L.jpg","O.jpg","1","1","1","",""
"","feedback","","html-keyboard-response","192","524397","0.0-1.0-258.0-0.0","0","0","80758","","null","","","null","28","","","","","","","","","","","","","","","",""
"","ITI","","html-keyboard-response","193","525400","0.0-1.0-261.0","0","0","80758","","null","","","null","28","","","","","","","","","","","","","","","NaN",""
"","S1","","html-keyboard-response","194","525553","0.0-1.0-263.0","0","0","80758","","null","","","null","29","","","","","","","","","","","","","","","",""
"","ISI","","html-keyboard-response","195","527555","0.0-1.0-264.0","0","0","80758","","null","","","null","29","NaN","","","","","","","","","","","","","","",""
"","S2","","html-keyboard-response","196","527710","0.0-1.0-265.0","0","0","80758","","null","","","null","29","","NaN","","","","","","","","","","","","","",""
"","response","","html-keyboard-response","197","528505","0.0-1.0-266.0-0.0","0","0","80758","","793","","","75","29","","","1","29","training","adjacent","FE","6","5","O.jpg","L.jpg","0","0","1","",""
"","feedback","","html-keyboard-response","198","529507","0.0-1.0-267.0-0.0","0","0","80758","","null","","","null","29","","","","","","","","","","","","","","","",""
"","ITI","","html-keyboard-response","199","530509","0.0-1.0-270.0","0","0","80758","","null","","","null","29","","","","","","","","","","","","","","","NaN",""
"","S1","","html-keyboard-response","200","530661","0.0-1.0-272.0","0","0","80758","","null","","","null","30","","","","","","","","","","","","","","","",""
"","ISI","","html-keyboard-response","201","532664","0.0-1.0-273.0","0","0","80758","","null","","","null","30","NaN","","","","","","","","","","","","","","",""
"","S2","","html-keyboard-response","202","532816","0.0-1.0-274.0","0","0","80758","","null","","","null","30","","NaN","","","","","","","","","","","","","",""
"","response","","html-keyboard-response","203","533347","0.0-1.0-275.0-0.0","0","0","80758","","529","","","75","30","","","1","30","training","adjacent","BA","2","1","Q.jpg","R.jpg","0","0","1","",""
"","feedback","","html-keyboard-response","204","534364","0.0-1.0-276.0-0.0","0","0","80758","","null","","","null","30","","","","","","","","","","","","","","","",""
"","ITI","","html-keyboard-response","205","535379","0.0-1.0-279.0","0","0","80758","","null","","","null","30","","","","","","","","","","","","","","","NaN",""
"","S1","","html-keyboard-response","206","535532","0.0-1.0-281.0","0","0","80758","","null","","","null","31","","","","","","","","","","","","","","","",""
"","ISI","","html-keyboard-response","207","537535","0.0-1.0-282.0","0","0","80758","","null","","","null","31","NaN","","","","","","","","","","","","","","",""
"","S2","","html-keyboard-response","208","537687","0.0-1.0-283.0","0","0","80758","","null","","","null","31","","NaN","","","","","","","","","","","","","",""
"","response","","html-keyboard-response","209","538863","0.0-1.0-284.0-0.0","0","0","80758","","1174","","","68","31","","","1","31","training","adjacent","FG","6","7","O.jpg","P.jpg","1","1","1","",""
"","feedback","","html-keyboard-response","210","539881","0.0-1.0-285.0-0.0","0","0","80758","","null","","","null","31","","","","","","","","","","","","","","","",""
"","ITI","","html-keyboard-response","211","540885","0.0-1.0-288.0","0","0","80758","","null","","","null","31","","","","","","","","","","","","","","","NaN",""
"","S1","","html-keyboard-response","212","541047","0.0-1.0-290.0","0","0","80758","","null","","","null","32","","","","","","","","","","","","","","","",""
"","ISI","","html-keyboard-response","213","543049","0.0-1.0-291.0","0","0","80758","","null","","","null","32","NaN","","","","","","","","","","","","","","",""
"","S2","","html-keyboard-response","214","543200","0.0-1.0-292.0","0","0","80758","","null","","","null","32","","NaN","","","","","","","","","","","","","",""
"","response","","html-keyboard-response","215","543907","0.0-1.0-293.0-0.0","0","0","80758","","705","","","68","32","","","1","32","training","adjacent","GF","7","6","P.jpg","O.jpg","1","0","0","",""
"","feedback","","html-keyboard-response","216","544909","0.0-1.0-294.0-0.0","0","0","80758","","null","","","null","32","","","","","","","","","","","","","","","",""
"","time_out","","html-keyboard-response","217","546912","0.0-1.0-296.0-0.0","0","0","80758","","null","","","null","32","","","","","","","","","","","","","","","",""
"","ITI","","html-keyboard-response","218","547914","0.0-1.0-297.0","0","0","80758","","null","","","null","32","","","","","","","","","","","","","","","NaN",""
"","S1","","html-keyboard-response","219","548068","0.0-1.0-299.0","0","0","80758","","null","","","null","33","","","","","","","","","","","","","","","",""
"","ISI","","html-keyboard-response","220","550070","0.0-1.0-300.0","0","0","80758","","null","","","null","33","NaN","","","","","","","","","","","","","","",""
"","S2","","html-keyboard-response","221","550223","0.0-1.0-301.0","0","0","80758","","null","","","null","33","","NaN","","","","","","","","","","","","","",""
"","response","","html-keyboard-response","222","550518","0.0-1.0-302.0-0.0","0","0","80758","","293","","","75","33","","","1","33","training","adjacent","BA","2","1","Q.jpg","R.jpg","0","0","1","",""
"","feedback","","html-keyboard-response","223","551522","0.0-1.0-303.0-0.0","0","0","80758","","null","","","null","33","","","","","","","","","","","","","","","",""
"","ITI","","html-keyboard-response","224","552526","0.0-1.0-306.0","0","0","80758","","null","","","null","33","","","","","","","","","","","","","","","NaN",""
"","S1","","html-keyboard-response","225","552692","0.0-1.0-308.0","0","0","80758","","null","","","null","34","","","","","","","","","","","","","","","",""
"","ISI","","html-keyboard-response","226","554695","0.0-1.0-309.0","0","0","80758","","null","","","null","34","NaN","","","","","","","","","","","","","","",""
"","S2","","html-keyboard-response","227","554849","0.0-1.0-310.0","0","0","80758","","null","","","null","34","","NaN","","","","","","","","","","","","","",""
"","response","","html-keyboard-response","228","555230","0.0-1.0-311.0-0.0","0","0","80758","","379","","","68","34","","","1","34","training","adjacent","BC","2","3","Q.jpg","N.jpg","1","1","1","",""
"","feedback","","html-keyboard-response","229","556232","0.0-1.0-312.0-0.0","0","0","80758","","null","","","null","34","","","","","","","","","","","","","","","",""
"","ITI","","html-keyboard-response","230","557234","0.0-1.0-315.0","0","0","80758","","null","","","null","34","","","","","","","","","","","","","","","NaN",""
"","S1","","html-keyboard-response","231","557386","0.0-1.0-317.0","0","0","80758","","null","","","null","35","","","","","","","","","","","","","","","",""
"","ISI","","html-keyboard-response","232","559388","0.0-1.0-318.0","0","0","80758","","null","","","null","35","NaN","","","","","","","","","","","","","","",""
"","S2","","html-keyboard-response","233","559541","0.0-1.0-319.0","0","0","80758","","null","","","null","35","","NaN","","","","","","","","","","","","","",""
"","response","","html-keyboard-response","234","560173","0.0-1.0-320.0-0.0","0","0","80758","","629","","","75","35","","","1","35","training","adjacent","BA","2","1","Q.jpg","R.jpg","0","0","1","",""
"","feedback","","html-keyboard-response","235","561178","0.0-1.0-321.0-0.0","0","0","80758","","null","","","null","35","","","","","","","","","","","","","","","",""
"","ITI","","html-keyboard-response","236","562182","0.0-1.0-324.0","0","0","80758","","null","","","null","35","","","","","","","","","","","","","","","NaN",""
"","S1","","html-keyboard-response","237","562334","0.0-1.0-326.0","0","0","80758","","null","","","null","36","","","","","","","","","","","","","","","",""
"","ISI","","html-keyboard-response","238","564338","0.0-1.0-327.0","0","0","80758","","null","","","null","36","NaN","","","","","","","","","","","","","","",""
"","S2","","html-keyboard-response","239","564493","0.0-1.0-328.0","0","0","80758","","null","","","null","36","","NaN","","","","","","","","","","","","","",""
"","response","","html-keyboard-response","240","564869","0.0-1.0-329.0-0.0","0","0","80758","","374","","","68","36","","","1","36","training","adjacent","DE","4","5","M.jpg","L.jpg","1","1","1","",""
"","feedback","","html-keyboard-response","241","565871","0.0-1.0-330.0-0.0","0","0","80758","","null","","","null","36","","","","","","","","","","","","","","","",""
"","ITI","","html-keyboard-response","242","566875","0.0-1.0-333.0","0","0","80758","","null","","","null","36","","","","","","","","","","","","","","","NaN",""
"","S1","","html-keyboard-response","243","567028","0.0-1.0-335.0","0","0","80758","","null","","","null","37","","","","","","","","","","","","","","","",""
"","ISI","","html-keyboard-response","244","569031","0.0-1.0-336.0","0","0","80758","","null","","","null","37","NaN","","","","","","","","","","","","","","",""
"","S2","","html-keyboard-response","245","569183","0.0-1.0-337.0","0","0","80758","","null","","","null","37","","NaN","","","","","","","","","","","","","",""
"","response","","html-keyboard-response","246","569874","0.0-1.0-338.0-0.0","0","0","80758","","689","","","68","37","","","1","37","training","adjacent","EF","5","6","L.jpg","O.jpg","1","1","1","",""
"","feedback","","html-keyboard-response","247","570880","0.0-1.0-339.0-0.0","0","0","80758","","null","","","null","37","","","","","","","","","","","","","","","",""
"","ITI","","html-keyboard-response","248","571883","0.0-1.0-342.0","0","0","80758","","null","","","null","37","","","","","","","","","","","","","","","NaN",""
"","S1","","html-keyboard-response","249","572035","0.0-1.0-344.0","0","0","80758","","null","","","null","38","","","","","","","","","","","","","","","",""
"","ISI","","html-keyboard-response","250","574038","0.0-1.0-345.0","0","0","80758","","null","","","null","38","NaN","","","","","","","","","","","","","","",""
"","S2","","html-keyboard-response","251","574191","0.0-1.0-346.0","0","0","80758","","null","","","null","38","","NaN","","","","","","","","","","","","","",""
"","response","","html-keyboard-response","252","574808","0.0-1.0-347.0-0.0","0","0","80758","","614","","","75","38","","","1","38","training","adjacent","EF","5","6","L.jpg","O.jpg","0","1","0","",""
"","feedback","","html-keyboard-response","253","575811","0.0-1.0-348.0-0.0","0","0","80758","","null","","","null","38","","","","","","","","","","","","","","","",""
"","time_out","","html-keyboard-response","254","577816","0.0-1.0-350.0-0.0","0","0","80758","","null","","","null","38","","","","","","","","","","","","","","","",""
"","ITI","","html-keyboard-response","255","578818","0.0-1.0-351.0","0","0","80758","","null","","","null","38","","","","","","","","","","","","","","","NaN",""
"","S1","","html-keyboard-response","256","578971","0.0-1.0-353.0","0","0","80758","","null","","","null","39","","","","","","","","","","","","","","","",""
"","ISI","","html-keyboard-response","257","580975","0.0-1.0-354.0","0","0","80758","","null","","","null","39","NaN","","","","","","","","","","","","","","",""
"","S2","","html-keyboard-response","258","581128","0.0-1.0-355.0","0","0","80758","","null","","","null","39","","NaN","","","","","","","","","","","","","",""
"","response","","html-keyboard-response","259","581408","0.0-1.0-356.0-0.0","0","0","80758","","277","","","75","39","","","1","39","training","adjacent","CB","3","2","N.jpg","Q.jpg","0","0","1","",""
"","feedback","","html-keyboard-response","260","582411","0.0-1.0-357.0-0.0","0","0","80758","","null","","","null","39","","","","","","","","","","","","","","","",""
"","ITI","","html-keyboard-response","261","583413","0.0-1.0-360.0","0","0","80758","","null","","","null","39","","","","","","","","","","","","","","","NaN",""
"","S1","","html-keyboard-response","262","583567","0.0-1.0-362.0","0","0","80758","","null","","","null","40","","","","","","","","","","","","","","","",""
"","ISI","","html-keyboard-response","263","585571","0.0-1.0-363.0","0","0","80758","","null","","","null","40","NaN","","","","","","","","","","","","","","",""
"","S2","","html-keyboard-response","264","585725","0.0-1.0-364.0","0","0","80758","","null","","","null","40","","NaN","","","","","","","","","","","","","",""
"","response","","html-keyboard-response","265","586156","0.0-1.0-365.0-0.0","0","0","80758","","429","","","68","40","","","1","40","training","adjacent","BC","2","3","Q.jpg","N.jpg","1","1","1","",""
"","feedback","","html-keyboard-response","266","587160","0.0-1.0-366.0-0.0","0","0","80758","","null","","","null","40","","","","","","","","","","","","","","","",""
"","ITI","","html-keyboard-response","267","588163","0.0-1.0-369.0","0","0","80758","","null","","","null","40","","","","","","","","","","","","","","","NaN",""
"","S1","","html-keyboard-response","268","588316","0.0-1.0-371.0","0","0","80758","","null","","","null","41","","","","","","","","","","","","","","","",""
"","ISI","","html-keyboard-response","269","590318","0.0-1.0-372.0","0","0","80758","","null","","","null","41","NaN","","","","","","","","","","","","","","",""
"","S2","","html-keyboard-response","270","590471","0.0-1.0-373.0","0","0","80758","","null","","","null","41","","NaN","","","","","","","","","","","","","",""
"","response","","html-keyboard-response","271","590986","0.0-1.0-374.0-0.0","0","0","80758","","513","","","75","41","","","1","41","training","adjacent","GF","7","6","P.jpg","O.jpg","0","0","1","",""
"","feedback","","html-keyboard-response","272","591990","0.0-1.0-375.0-0.0","0","0","80758","","null","","","null","41","","","","","","","","","","","","","","","",""
"","ITI","","html-keyboard-response","273","592994","0.0-1.0-378.0","0","0","80758","","null","","","null","41","","","","","","","","","","","","","","","NaN",""
"","S1","","html-keyboard-response","274","593147","0.0-1.0-380.0","0","0","80758","","null","","","null","42","","","","","","","","","","","","","","","",""
"","ISI","","html-keyboard-response","275","595150","0.0-1.0-381.0","0","0","80758","","null","","","null","42","NaN","","","","","","","","","","","","","","",""
"","S2","","html-keyboard-response","276","595304","0.0-1.0-382.0","0","0","80758","","null","","","null","42","","NaN","","","","","","","","","","","","","",""
"","response","","html-keyboard-response","277","595869","0.0-1.0-383.0-0.0","0","0","80758","","563","","","75","42","","","1","42","training","adjacent","CD","3","4","N.jpg","M.jpg","0","1","0","",""
"","feedback","","html-keyboard-response","278","596871","0.0-1.0-384.0-0.0","0","0","80758","","null","","","null","42","","","","","","","","","","","","","","","",""
"","time_out","","html-keyboard-response","279","598875","0.0-1.0-386.0-0.0","0","0","80758","","null","","","null","42","","","","","","","","","","","","","","","",""
"","ITI","","html-keyboard-response","280","599879","0.0-1.0-387.0","0","0","80758","","null","","","null","42","","","","","","","","","","","","","","","NaN",""
"","S1","","html-keyboard-response","281","600033","0.0-1.0-389.0","0","0","80758","","null","","","null","43","","","","","","","","","","","","","","","",""
"","ISI","","html-keyboard-response","282","602036","0.0-1.0-390.0","0","0","80758","","null","","","null","43","NaN","","","","","","","","","","","","","","",""
"","S2","","html-keyboard-response","283","602189","0.0-1.0-391.0","0","0","80758","","null","","","null","43","","NaN","","","","","","","","","","","","","",""
"","response","","html-keyboard-response","284","603045","0.0-1.0-392.0-0.0","0","0","80758","","854","","","68","43","","","1","43","training","adjacent","CD","3","4","N.jpg","M.jpg","1","1","1","",""
"","feedback","","html-keyboard-response","285","604048","0.0-1.0-393.0-0.0","0","0","80758","","null","","","null","43","","","","","","","","","","","","","","","",""
"","ITI","","html-keyboard-response","286","605051","0.0-1.0-396.0","0","0","80758","","null","","","null","43","","","","","","","","","","","","","","","NaN",""
"","S1","","html-keyboard-response","287","605204","0.0-1.0-398.0","0","0","80758","","null","","","null","44","","","","","","","","","","","","","","","",""
"","ISI","","html-keyboard-response","288","607207","0.0-1.0-399.0","0","0","80758","","null","","","null","44","NaN","","","","","","","","","","","","","","",""
"","S2","","html-keyboard-response","289","607362","0.0-1.0-400.0","0","0","80758","","null","","","null","44","","NaN","","","","","","","","","","","","","",""
"","response","","html-keyboard-response","290","608011","0.0-1.0-401.0-0.0","0","0","80758","","649","","","68","44","","","1","44","training","adjacent","AB","1","2","R.jpg","Q.jpg","1","1","1","",""
"","feedback","","html-keyboard-response","291","609014","0.0-1.0-402.0-0.0","0","0","80758","","null","","","null","44","","","","","","","","","","","","","","","",""
"","ITI","","html-keyboard-response","292","610017","0.0-1.0-405.0","0","0","80758","","null","","","null","44","","","","","","","","","","","","","","","NaN",""
"","S1","","html-keyboard-response","293","610170","0.0-1.0-407.0","0","0","80758","","null","","","null","45","","","","","","","","","","","","","","","",""
"","ISI","","html-keyboard-response","294","612172","0.0-1.0-408.0","0","0","80758","","null","","","null","45","NaN","","","","","","","","","","","","","","",""
"","S2","","html-keyboard-response","295","612325","0.0-1.0-409.0","0","0","80758","","null","","","null","45","","NaN","","","","","","","","","","","","","",""
"","response","","html-keyboard-response","296","613334","0.0-1.0-410.0-0.0","0","0","80758","","1007","","","68","45","","","1","45","training","adjacent","ED","5","4","L.jpg","M.jpg","1","0","0","",""
"","feedback","","html-keyboard-response","297","614348","0.0-1.0-411.0-0.0","0","0","80758","","null","","","null","45","","","","","","","","","","","","","","","",""
"","time_out","","html-keyboard-response","298","616351","0.0-1.0-413.0-0.0","0","0","80758","","null","","","null","45","","","","","","","","","","","","","","","",""
"","ITI","","html-keyboard-response","299","617354","0.0-1.0-414.0","0","0","80758","","null","","","null","45","","","","","","","","","","","","","","","NaN",""
"","S1","","html-keyboard-response","300","617514","0.0-1.0-416.0","0","0","80758","","null","","","null","46","","","","","","","","","","","","","","","",""
"","ISI","","html-keyboard-response","301","619517","0.0-1.0-417.0","0","0","80758","","null","","","null","46","NaN","","","","","","","","","","","","","","",""
"","S2","","html-keyboard-response","302","619680","0.0-1.0-418.0","0","0","80758","","null","","","null","46","","NaN","","","","","","","","","","","","","",""
"","response","","html-keyboard-response","303","620181","0.0-1.0-419.0-0.0","0","0","80758","","499","","","75","46","","","1","46","training","adjacent","CB","3","2","N.jpg","Q.jpg","0","0","1","",""
"","feedback","","html-keyboard-response","304","621185","0.0-1.0-420.0-0.0","0","0","80758","","null","","","null","46","","","","","","","","","","","","","","","",""
"","ITI","","html-keyboard-response","305","622188","0.0-1.0-423.0","0","0","80758","","null","","","null","46","","","","","","","","","","","","","","","NaN",""
"","S1","","html-keyboard-response","306","622341","0.0-1.0-425.0","0","0","80758","","null","","","null","47","","","","","","","","","","","","","","","",""
"","ISI","","html-keyboard-response","307","624345","0.0-1.0-426.0","0","0","80758","","null","","","null","47","NaN","","","","","","","","","","","","","","",""
"","S2","","html-keyboard-response","308","624500","0.0-1.0-427.0","0","0","80758","","null","","","null","47","","NaN","","","","","","","","","","","","","",""
"","response","","html-keyboard-response","309","624976","0.0-1.0-428.0-0.0","0","0","80758","","474","","","75","47","","","1","47","training","adjacent","FE","6","5","O.jpg","L.jpg","0","0","1","",""
"","feedback","","html-keyboard-response","310","625979","0.0-1.0-429.0-0.0","0","0","80758","","null","","","null","47","","","","","","","","","","","","","","","",""
"","ITI","","html-keyboard-response","311","626982","0.0-1.0-432.0","0","0","80758","","null","","","null","47","","","","","","","","","","","","","","","NaN",""
"","block_over","","html-keyboard-response","312","632105","0.0-1.0-433.0-0.0","0","0","80758","","5118","","","32","47","","","","","","","","","","","","","","","",""
"","S1","","html-keyboard-response","313","632259","0.0-1.0-434.0","0","0","80758","","null","","","null","48","","","","","","","","","","","","","","","",""
"","ISI","","html-keyboard-response","314","634262","0.0-1.0-435.0","0","0","80758","","null","","","null","48","NaN","","","","","","","","","","","","","","",""
"","S2","","html-keyboard-response","315","634413","0.0-1.0-436.0","0","0","80758","","null","","","null","48","","NaN","","","","","","","","","","","","","",""
"","response","","html-keyboard-response","316","635312","0.0-1.0-437.0-0.0","0","0","80758","","896","","","68","48","","","2","48","training","adjacent","AB","1","2","R.jpg","Q.jpg","1","1","1","",""
"","feedback","","html-keyboard-response","317","636317","0.0-1.0-438.0-0.0","0","0","80758","","null","","","null","48","","","","","","","","","","","","","","","",""
"","ITI","","html-keyboard-response","318","637320","0.0-1.0-441.0","0","0","80758","","null","","","null","48","","","","","","","","","","","","","","","NaN",""
"","S1","","html-keyboard-response","319","637475","0.0-1.0-443.0","0","0","80758","","null","","","null","49","","","","","","","","","","","","","","","",""
"","ISI","","html-keyboard-response","320","639479","0.0-1.0-444.0","0","0","80758","","null","","","null","49","NaN","","","","","","","","","","","","","","",""
"","S2","","html-keyboard-response","321","639632","0.0-1.0-445.0","0","0","80758","","null","","","null","49","","NaN","","","","","","","","","","","","","",""
"","response","","html-keyboard-response","322","640863","0.0-1.0-446.0-0.0","0","0","80758","","1228","","","75","49","","","2","49","training","adjacent","DC","4","3","M.jpg","N.jpg","0","0","1","",""
"","feedback","","html-keyboard-response","323","641866","0.0-1.0-447.0-0.0","0","0","80758","","null","","","null","49","","","","","","","","","","","","","","","",""
"","ITI","","html-keyboard-response","324","642870","0.0-1.0-450.0","0","0","80758","","null","","","null","49","","","","","","","","","","","","","","","NaN",""
"","S1","","html-keyboard-response","325","643025","0.0-1.0-452.0","0","0","80758","","null","","","null","50","","","","","","","","","","","","","","","",""
"","ISI","","html-keyboard-response","326","645028","0.0-1.0-453.0","0","0","80758","","null","","","null","50","NaN","","","","","","","","","","","","","","",""
"","S2","","html-keyboard-response","327","645181","0.0-1.0-454.0","0","0","80758","","null","","","null","50","","NaN","","","","","","","","","","","","","",""
"","response","","html-keyboard-response","328","645467","0.0-1.0-455.0-0.0","0","0","80758","","285","","","68","50","","","2","50","training","adjacent","EF","5","6","L.jpg","O.jpg","1","1","1","",""
"","feedback","","html-keyboard-response","329","646472","0.0-1.0-456.0-0.0","0","0","80758","","null","","","null","50","","","","","","","","","","","","","","","",""
"","ITI","","html-keyboard-response","330","647476","0.0-1.0-459.0","0","0","80758","","null","","","null","50","","","","","","","","","","","","","","","NaN",""
"","S1","","html-keyboard-response","331","647630","0.0-1.0-461.0","0","0","80758","","null","","","null","51","","","","","","","","","","","","","","","",""
"","ISI","","html-keyboard-response","332","649634","0.0-1.0-462.0","0","0","80758","","null","","","null","51","NaN","","","","","","","","","","","","","","",""
"","S2","","html-keyboard-response","333","649787","0.0-1.0-463.0","0","0","80758","","null","","","null","51","","NaN","","","","","","","","","","","","","",""
"","response","","html-keyboard-response","334","650018","0.0-1.0-464.0-0.0","0","0","80758","","229","","","68","51","","","2","51","training","adjacent","AB","1","2","R.jpg","Q.jpg","1","1","1","",""
"","feedback","","html-keyboard-response","335","651020","0.0-1.0-465.0-0.0","0","0","80758","","null","","","null","51","","","","","","","","","","","","","","","",""
"","ITI","","html-keyboard-response","336","652040","0.0-1.0-468.0","0","0","80758","","null","","","null","51","","","","","","","","","","","","","","","NaN",""
"","S1","","html-keyboard-response","337","652195","0.0-1.0-470.0","0","0","80758","","null","","","null","52","","","","","","","","","","","","","","","",""
"","ISI","","html-keyboard-response","338","654198","0.0-1.0-471.0","0","0","80758","","null","","","null","52","NaN","","","","","","","","","","","","","","",""
"","S2","","html-keyboard-response","339","654351","0.0-1.0-472.0","0","0","80758","","null","","","null","52","","NaN","","","","","","","","","","","","","",""
"","response","","html-keyboard-response","340","654911","0.0-1.0-473.0-0.0","0","0","80758","","558","","","75","52","","","2","52","training","adjacent","ED","5","4","L.jpg","M.jpg","0","0","1","",""
"","feedback","","html-keyboard-response","341","655915","0.0-1.0-474.0-0.0","0","0","80758","","null","","","null","52","","","","","","","","","","","","","","","",""
"","ITI","","html-keyboard-response","342","656918","0.0-1.0-477.0","0","0","80758","","null","","","null","52","","","","","","","","","","","","","","","NaN",""
"","S1","","html-keyboard-response","343","657071","0.0-1.0-479.0","0","0","80758","","null","","","null","53","","","","","","","","","","","","","","","",""
"","ISI","","html-keyboard-response","344","659075","0.0-1.0-480.0","0","0","80758","","null","","","null","53","NaN","","","","","","","","","","","","","","",""
"","S2","","html-keyboard-response","345","659229","0.0-1.0-481.0","0","0","80758","","null","","","null","53","","NaN","","","","","","","","","","","","","",""
"","response","","html-keyboard-response","346","659579","0.0-1.0-482.0-0.0","0","0","80758","","347","","","68","53","","","2","53","training","adjacent","BC","2","3","Q.jpg","N.jpg","1","1","1","",""
"","feedback","","html-keyboard-response","347","660583","0.0-1.0-483.0-0.0","0","0","80758","","null","","","null","53","","","","","","","","","","","","","","","",""
"","ITI","","html-keyboard-response","348","661586","0.0-1.0-486.0","0","0","80758","","null","","","null","53","","","","","","","","","","","","","","","NaN",""
"","S1","","html-keyboard-response","349","661739","0.0-1.0-488.0","0","0","80758","","null","","","null","54","","","","","","","","","","","","","","","",""
"","ISI","","html-keyboard-response","350","663758","0.0-1.0-489.0","0","0","80758","","null","","","null","54","NaN","","","","","","","","","","","","","","",""
"","S2","","html-keyboard-response","351","663911","0.0-1.0-490.0","0","0","80758","","null","","","null","54","","NaN","","","","","","","","","","","","","",""
"","response","","html-keyboard-response","352","664546","0.0-1.0-491.0-0.0","0","0","80758","","634","","","68","54","","","2","54","training","adjacent","DE","4","5","M.jpg","L.jpg","1","1","1","",""
"","feedback","","html-keyboard-response","353","665549","0.0-1.0-492.0-0.0","0","0","80758","","null","","","null","54","","","","","","","","","","","","","","","",""
"","ITI","","html-keyboard-response","354","666553","0.0-1.0-495.0","0","0","80758","","null","","","null","54","","","","","","","","","","","","","","","NaN",""
"","S1","","html-keyboard-response","355","666706","0.0-1.0-497.0","0","0","80758","","null","","","null","55","","","","","","","","","","","","","","","",""
"","ISI","","html-keyboard-response","356","668707","0.0-1.0-498.0","0","0","80758","","null","","","null","55","NaN","","","","","","","","","","","","","","",""
"","S2","","html-keyboard-response","357","668861","0.0-1.0-499.0","0","0","80758","","null","","","null","55","","NaN","","","","","","","","","","","","","",""
"","response","","html-keyboard-response","358","669159","0.0-1.0-500.0-0.0","0","0","80758","","296","","","68","55","","","2","55","training","adjacent","BC","2","3","Q.jpg","N.jpg","1","1","1","",""
"","feedback","","html-keyboard-response","359","670163","0.0-1.0-501.0-0.0","0","0","80758","","null","","","null","55","","","","","","","","","","","","","","","",""
"","ITI","","html-keyboard-response","360","671166","0.0-1.0-504.0","0","0","80758","","null","","","null","55","","","","","","","","","","","","","","","NaN",""
"","S1","","html-keyboard-response","361","671320","0.0-1.0-506.0","0","0","80758","","null","","","null","56","","","","","","","","","","","","","","","",""
"","ISI","","html-keyboard-response","362","673323","0.0-1.0-507.0","0","0","80758","","null","","","null","56","NaN","","","","","","","","","","","","","","",""
"","S2","","html-keyboard-response","363","673477","0.0-1.0-508.0","0","0","80758","","null","","","null","56","","NaN","","","","","","","","","","","","","",""
"","response","","html-keyboard-response","364","674034","0.0-1.0-509.0-0.0","0","0","80758","","554","","","75","56","","","2","56","training","adjacent","CB","3","2","N.jpg","Q.jpg","0","0","1","",""
"","feedback","","html-keyboard-response","365","675039","0.0-1.0-510.0-0.0","0","0","80758","","null","","","null","56","","","","","","","","","","","","","","","",""
"","ITI","","html-keyboard-response","366","676043","0.0-1.0-513.0","0","0","80758","","null","","","null","56","","","","","","","","","","","","","","","NaN",""
"","S1","","html-keyboard-response","367","676196","0.0-1.0-515.0","0","0","80758","","null","","","null","57","","","","","","","","","","","","","","","",""
"","ISI","","html-keyboard-response","368","678198","0.0-1.0-516.0","0","0","80758","","null","","","null","57","NaN","","","","","","","","","","","","","","",""
"","S2","","html-keyboard-response","369","678352","0.0-1.0-517.0","0","0","80758","","null","","","null","57","","NaN","","","","","","","","","","","","","",""
"","response","","html-keyboard-response","370","678885","0.0-1.0-518.0-0.0","0","0","80758","","530","","","68","57","","","2","57","training","adjacent","FG","6","7","O.jpg","P.jpg","1","1","1","",""
"","feedback","","html-keyboard-response","371","679895","0.0-1.0-519.0-0.0","0","0","80758","","null","","","null","57","","","","","","","","","","","","","","","",""
"","ITI","","html-keyboard-response","372","680897","0.0-1.0-522.0","0","0","80758","","null","","","null","57","","","","","","","","","","","","","","","NaN",""
"","S1","","html-keyboard-response","373","681049","0.0-1.0-524.0","0","0","80758","","null","","","null","58","","","","","","","","","","","","","","","",""
"","ISI","","html-keyboard-response","374","683051","0.0-1.0-525.0","0","0","80758","","null","","","null","58","NaN","","","","","","","","","","","","","","",""
"","S2","","html-keyboard-response","375","683204","0.0-1.0-526.0","0","0","80758","","null","","","null","58","","NaN","","","","","","","","","","","","","",""
"","response","","html-keyboard-response","376","683771","0.0-1.0-527.0-0.0","0","0","80758","","565","","","68","58","","","2","58","training","adjacent","DE","4","5","M.jpg","L.jpg","1","1","1","",""
"","feedback","","html-keyboard-response","377","684776","0.0-1.0-528.0-0.0","0","0","80758","","null","","","null","58","","","","","","","","","","","","","","","",""
"","ITI","","html-keyboard-response","378","685780","0.0-1.0-531.0","0","0","80758","","null","","","null","58","","","","","","","","","","","","","","","NaN",""
"","S1","","html-keyboard-response","379","685934","0.0-1.0-533.0","0","0","80758","","null","","","null","59","","","","","","","","","","","","","","","",""
"","ISI","","html-keyboard-response","380","687938","0.0-1.0-534.0","0","0","80758","","null","","","null","59","NaN","","","","","","","","","","","","","","",""
"","S2","","html-keyboard-response","381","688092","0.0-1.0-535.0","0","0","80758","","null","","","null","59","","NaN","","","","","","","","","","","","","",""
"","response","","html-keyboard-response","382","688882","0.0-1.0-536.0-0.0","0","0","80758","","788","","","75","59","","","2","59","training","adjacent","DC","4","3","M.jpg","N.jpg","0","0","1","",""
"","feedback","","html-keyboard-response","383","689885","0.0-1.0-537.0-0.0","0","0","80758","","null","","","null","59","","","","","","","","","","","","","","","",""
"","ITI","","html-keyboard-response","384","690887","0.0-1.0-540.0","0","0","80758","","null","","","null","59","","","","","","","","","","","","","","","NaN",""
"","S1","","html-keyboard-response","385","691040","0.0-1.0-542.0","0","0","80758","","null","","","null","60","","","","","","","","","","","","","","","",""
"","ISI","","html-keyboard-response","386","693043","0.0-1.0-543.0","0","0","80758","","null","","","null","60","NaN","","","","","","","","","","","","","","",""
"","S2","","html-keyboard-response","387","693195","0.0-1.0-544.0","0","0","80758","","null","","","null","60","","NaN","","","","","","","","","","","","","",""
"","response","","html-keyboard-response","388","693759","0.0-1.0-545.0-0.0","0","0","80758","","562","","","75","60","","","2","60","training","adjacent","CD","3","4","N.jpg","M.jpg","0","1","0","",""
"","feedback","","html-keyboard-response","389","694763","0.0-1.0-546.0-0.0","0","0","80758","","null","","","null","60","","","","","","","","","","","","","","","",""
"","time_out","","html-keyboard-response","390","696766","0.0-1.0-548.0-0.0","0","0","80758","","null","","","null","60","","","","","","","","","","","","","","","",""
"","ITI","","html-keyboard-response","391","697770","0.0-1.0-549.0","0","0","80758","","null","","","null","60","","","","","","","","","","","","","","","NaN",""
"","S1","","html-keyboard-response","392","697927","0.0-1.0-551.0","0","0","80758","","null","","","null","61","","","","","","","","","","","","","","","",""
"","ISI","","html-keyboard-response","393","699930","0.0-1.0-552.0","0","0","80758","","null","","","null","61","NaN","","","","","","","","","","","","","","",""
"","S2","","html-keyboard-response","394","700083","0.0-1.0-553.0","0","0","80758","","null","","","null","61","","NaN","","","","","","","","","","","","","",""
"","response","","html-keyboard-response","395","700409","0.0-1.0-554.0-0.0","0","0","80758","","323","","","75","61","","","2","61","training","adjacent","BA","2","1","Q.jpg","R.jpg","0","0","1","",""
"","feedback","","html-keyboard-response","396","701413","0.0-1.0-555.0-0.0","0","0","80758","","null","","","null","61","","","","","","","","","","","","","","","",""
"","ITI","","html-keyboard-response","397","702416","0.0-1.0-558.0","0","0","80758","","null","","","null","61","","","","","","","","","","","","","","","NaN",""
"","S1","","html-keyboard-response","398","702570","0.0-1.0-560.0","0","0","80758","","null","","","null","62","","","","","","","","","","","","","","","",""
"","ISI","","html-keyboard-response","399","704572","0.0-1.0-561.0","0","0","80758","","null","","","null","62","NaN","","","","","","","","","","","","","","",""
"","S2","","html-keyboard-response","400","704726","0.0-1.0-562.0","0","0","80758","","null","","","null","62","","NaN","","","","","","","","","","","","","",""
"","response","","html-keyboard-response","401","705294","0.0-1.0-563.0-0.0","0","0","80758","","566","","","68","62","","","2","62","training","adjacent","FG","6","7","O.jpg","P.jpg","1","1","1","",""
"","feedback","","html-keyboard-response","402","706298","0.0-1.0-564.0-0.0","0","0","80758","","null","","","null","62","","","","","","","","","","","","","","","",""
"","ITI","","html-keyboard-response","403","707301","0.0-1.0-567.0","0","0","80758","","null","","","null","62","","","","","","","","","","","","","","","NaN",""
"","S1","","html-keyboard-response","404","707454","0.0-1.0-569.0","0","0","80758","","null","","","null","63","","","","","","","","","","","","","","","",""
"","ISI","","html-keyboard-response","405","709457","0.0-1.0-570.0","0","0","80758","","null","","","null","63","NaN","","","","","","","","","","","","","","",""
"","S2","","html-keyboard-response","406","709619","0.0-1.0-571.0","0","0","80758","","null","","","null","63","","NaN","","","","","","","","","","","","","",""
"","response","","html-keyboard-response","407","710593","0.0-1.0-572.0-0.0","0","0","80758","","970","","","68","63","","","2","63","training","adjacent","DE","4","5","M.jpg","L.jpg","1","1","1","",""
"","feedback","","html-keyboard-response","408","711598","0.0-1.0-573.0-0.0","0","0","80758","","null","","","null","63","","","","","","","","","","","","","","","",""
"","ITI","","html-keyboard-response","409","712601","0.0-1.0-576.0","0","0","80758","","null","","","null","63","","","","","","","","","","","","","","","NaN",""
"","S1","","html-keyboard-response","410","712753","0.0-1.0-578.0","0","0","80758","","null","","","null","64","","","","","","","","","","","","","","","",""
"","ISI","","html-keyboard-response","411","714756","0.0-1.0-579.0","0","0","80758","","null","","","null","64","NaN","","","","","","","","","","","","","","",""
"","S2","","html-keyboard-response","412","714911","0.0-1.0-580.0","0","0","80758","","null","","","null","64","","NaN","","","","","","","","","","","","","",""
"","response","","html-keyboard-response","413","715161","0.0-1.0-581.0-0.0","0","0","80758","","248","","","68","64","","","2","64","training","adjacent","AB","1","2","R.jpg","Q.jpg","1","1","1","",""
"","feedback","","html-keyboard-response","414","716164","0.0-1.0-582.0-0.0","0","0","80758","","null","","","null","64","","","","","","","","","","","","","","","",""
"","ITI","","html-keyboard-response","415","717166","0.0-1.0-585.0","0","0","80758","","null","","","null","64","","","","","","","","","","","","","","","NaN",""
"","S1","","html-keyboard-response","416","717319","0.0-1.0-587.0","0","0","80758","","null","","","null","65","","","","","","","","","","","","","","","",""
"","ISI","","html-keyboard-response","417","719322","0.0-1.0-588.0","0","0","80758","","null","","","null","65","NaN","","","","","","","","","","","","","","",""
"","S2","","html-keyboard-response","418","719478","0.0-1.0-589.0","0","0","80758","","null","","","null","65","","NaN","","","","","","","","","","","","","",""
"","response","","html-keyboard-response","419","720525","0.0-1.0-590.0-0.0","0","0","80758","","1044","","","68","65","","","2","65","training","adjacent","ED","5","4","L.jpg","M.jpg","1","0","0","",""
"","feedback","","html-keyboard-response","420","721527","0.0-1.0-591.0-0.0","0","0","80758","","null","","","null","65","","","","","","","","","","","","","","","",""
"","time_out","","html-keyboard-response","421","723530","0.0-1.0-593.0-0.0","0","0","80758","","null","","","null","65","","","","","","","","","","","","","","","",""
"","ITI","","html-keyboard-response","422","724532","0.0-1.0-594.0","0","0","80758","","null","","","null","65","","","","","","","","","","","","","","","NaN",""
"","S1","","html-keyboard-response","423","724685","0.0-1.0-596.0","0","0","80758","","null","","","null","66","","","","","","","","","","","","","","","",""
"","ISI","","html-keyboard-response","424","726688","0.0-1.0-597.0","0","0","80758","","null","","","null","66","NaN","","","","","","","","","","","","","","",""
"","S2","","html-keyboard-response","425","726843","0.0-1.0-598.0","0","0","80758","","null","","","null","66","","NaN","","","","","","","","","","","","","",""
"","response","","html-keyboard-response","426","727417","0.0-1.0-599.0-0.0","0","0","80758","","570","","","68","66","","","2","66","training","adjacent","FE","6","5","O.jpg","L.jpg","1","0","0","",""
"","feedback","","html-keyboard-response","427","728422","0.0-1.0-600.0-0.0","0","0","80758","","null","","","null","66","","","","","","","","","","","","","","","",""
"","time_out","","html-keyboard-response","428","730425","0.0-1.0-602.0-0.0","0","0","80758","","null","","","null","66","","","","","","","","","","","","","","","",""
"","ITI","","html-keyboard-response","429","731429","0.0-1.0-603.0","0","0","80758","","null","","","null","66","","","","","","","","","","","","","","","NaN",""
"","S1","","html-keyboard-response","430","731581","0.0-1.0-605.0","0","0","80758","","null","","","null","67","","","","","","","","","","","","","","","",""
"","ISI","","html-keyboard-response","431","733584","0.0-1.0-606.0","0","0","80758","","null","","","null","67","NaN","","","","","","","","","","","","","","",""
"","S2","","html-keyboard-response","432","733739","0.0-1.0-607.0","0","0","80758","","null","","","null","67","","NaN","","","","","","","","","","","","","",""
"","response","","html-keyboard-response","433","734110","0.0-1.0-608.0-0.0","0","0","80758","","367","","","75","67","","","2","67","training","adjacent","ED","5","4","L.jpg","M.jpg","0","0","1","",""
"","feedback","","html-keyboard-response","434","735114","0.0-1.0-609.0-0.0","0","0","80758","","null","","","null","67","","","","","","","","","","","","","","","",""
"","ITI","","html-keyboard-response","435","736122","0.0-1.0-612.0","0","0","80758","","null","","","null","67","","","","","","","","","","","","","","","NaN",""
"","S1","","html-keyboard-response","436","736275","0.0-1.0-614.0","0","0","80758","","null","","","null","68","","","","","","","","","","","","","","","",""
"","ISI","","html-keyboard-response","437","738281","0.0-1.0-615.0","0","0","80758","","null","","","null","68","NaN","","","","","","","","","","","","","","",""
"","S2","","html-keyboard-response","438","738434","0.0-1.0-616.0","0","0","80758","","null","","","null","68","","NaN","","","","","","","","","","","","","",""
"","response","","html-keyboard-response","439","739294","0.0-1.0-617.0-0.0","0","0","80758","","858","","","68","68","","","2","68","training","adjacent","FE","6","5","O.jpg","L.jpg","1","0","0","",""
"","feedback","","html-keyboard-response","440","740298","0.0-1.0-618.0-0.0","0","0","80758","","null","","","null","68","","","","","","","","","","","","","","","",""
"","time_out","","html-keyboard-response","441","742301","0.0-1.0-620.0-0.0","0","0","80758","","null","","","null","68","","","","","","","","","","","","","","","",""
"","ITI","","html-keyboard-response","442","743305","0.0-1.0-621.0","0","0","80758","","null","","","null","68","","","","","","","","","","","","","","","NaN",""
"","S1","","html-keyboard-response","443","743458","0.0-1.0-623.0","0","0","80758","","null","","","null","69","","","","","","","","","","","","","","","",""
"","ISI","","html-keyboard-response","444","745461","0.0-1.0-624.0","0","0","80758","","null","","","null","69","NaN","","","","","","","","","","","","","","",""
"","S2","","html-keyboard-response","445","745615","0.0-1.0-625.0","0","0","80758","","null","","","null","69","","NaN","","","","","","","","","","","","","",""
"","response","","html-keyboard-response","446","745880","0.0-1.0-626.0-0.0","0","0","80758","","262","","","68","69","","","2","69","training","adjacent","EF","5","6","L.jpg","O.jpg","1","1","1","",""
"","feedback","","html-keyboard-response","447","746884","0.0-1.0-627.0-0.0","0","0","80758","","null","","","null","69","","","","","","","","","","","","","","","",""
"","ITI","","html-keyboard-response","448","747888","0.0-1.0-630.0","0","0","80758","","null","","","null","69","","","","","","","","","","","","","","","NaN",""
"","S1","","html-keyboard-response","449","748042","0.0-1.0-632.0","0","0","80758","","null","","","null","70","","","","","","","","","","","","","","","",""
"","ISI","","html-keyboard-response","450","750046","0.0-1.0-633.0","0","0","80758","","null","","","null","70","NaN","","","","","","","","","","","","","","",""
"","S2","","html-keyboard-response","451","750199","0.0-1.0-634.0","0","0","80758","","null","","","null","70","","NaN","","","","","","","","","","","","","",""
"","response","","html-keyboard-response","452","751098","0.0-1.0-635.0-0.0","0","0","80758","","898","","","75","70","","","2","70","training","adjacent","GF","7","6","P.jpg","O.jpg","0","0","1","",""
"","feedback","","html-keyboard-response","453","752101","0.0-1.0-636.0-0.0","0","0","80758","","null","","","null","70","","","","","","","","","","","","","","","",""
"","ITI","","html-keyboard-response","454","753103","0.0-1.0-639.0","0","0","80758","","null","","","null","70","","","","","","","","","","","","","","","NaN",""
"","S1","","html-keyboard-response","455","753256","0.0-1.0-641.0","0","0","80758","","null","","","null","71","","","","","","","","","","","","","","","",""
"","ISI","","html-keyboard-response","456","755259","0.0-1.0-642.0","0","0","80758","","null","","","null","71","NaN","","","","","","","","","","","","","","",""
"","S2","","html-keyboard-response","457","755413","0.0-1.0-643.0","0","0","80758","","null","","","null","71","","NaN","","","","","","","","","","","","","",""
"","response","","html-keyboard-response","458","756110","0.0-1.0-644.0-0.0","0","0","80758","","696","","","75","71","","","2","71","training","adjacent","BA","2","1","Q.jpg","R.jpg","0","0","1","",""
"","feedback","","html-keyboard-response","459","757112","0.0-1.0-645.0-0.0","0","0","80758","","null","","","null","71","","","","","","","","","","","","","","","",""
"","ITI","","html-keyboard-response","460","758114","0.0-1.0-648.0","0","0","80758","","null","","","null","71","","","","","","","","","","","","","","","NaN",""
"","S1","","html-keyboard-response","461","758266","0.0-1.0-650.0","0","0","80758","","null","","","null","72","","","","","","","","","","","","","","","",""
"","ISI","","html-keyboard-response","462","760268","0.0-1.0-651.0","0","0","80758","","null","","","null","72","NaN","","","","","","","","","","","","","","",""
"","S2","","html-keyboard-response","463","760421","0.0-1.0-652.0","0","0","80758","","null","","","null","72","","NaN","","","","","","","","","","","","","",""
"","response","","html-keyboard-response","464","761190","0.0-1.0-653.0-0.0","0","0","80758","","766","","","68","72","","","2","72","training","adjacent","CD","3","4","N.jpg","M.jpg","1","1","1","",""
"","feedback","","html-keyboard-response","465","762194","0.0-1.0-654.0-0.0","0","0","80758","","null","","","null","72","","","","","","","","","","","","","","","",""
"","ITI","","html-keyboard-response","466","763203","0.0-1.0-657.0","0","0","80758","","null","","","null","72","","","","","","","","","","","","","","","NaN",""
"","S1","","html-keyboard-response","467","763358","0.0-1.0-659.0","0","0","80758","","null","","","null","73","","","","","","","","","","","","","","","",""
"","ISI","","html-keyboard-response","468","765361","0.0-1.0-660.0","0","0","80758","","null","","","null","73","NaN","","","","","","","","","","","","","","",""
"","S2","","html-keyboard-response","469","765515","0.0-1.0-661.0","0","0","80758","","null","","","null","73","","NaN","","","","","","","","","","","","","",""
"","response","","html-keyboard-response","470","766339","0.0-1.0-662.0-0.0","0","0","80758","","822","","","68","73","","","2","73","training","adjacent","FG","6","7","O.jpg","P.jpg","1","1","1","",""
"","feedback","","html-keyboard-response","471","767343","0.0-1.0-663.0-0.0","0","0","80758","","null","","","null","73","","","","","","","","","","","","","","","",""
"","ITI","","html-keyboard-response","472","768345","0.0-1.0-666.0","0","0","80758","","null","","","null","73","","","","","","","","","","","","","","","NaN",""
"","S1","","html-keyboard-response","473","768498","0.0-1.0-668.0","0","0","80758","","null","","","null","74","","","","","","","","","","","","","","","",""
"","ISI","","html-keyboard-response","474","770501","0.0-1.0-669.0","0","0","80758","","null","","","null","74","NaN","","","","","","","","","","","","","","",""
"","S2","","html-keyboard-response","475","770653","0.0-1.0-670.0","0","0","80758","","null","","","null","74","","NaN","","","","","","","","","","","","","",""
"","response","","html-keyboard-response","476","770863","0.0-1.0-671.0-0.0","0","0","80758","","207","","","75","74","","","2","74","training","adjacent","CB","3","2","N.jpg","Q.jpg","0","0","1","",""
"","feedback","","html-keyboard-response","477","771868","0.0-1.0-672.0-0.0","0","0","80758","","null","","","null","74","","","","","","","","","","","","","","","",""
"","ITI","","html-keyboard-response","478","772872","0.0-1.0-675.0","0","0","80758","","null","","","null","74","","","","","","","","","","","","","","","NaN",""
"","S1","","html-keyboard-response","479","773026","0.0-1.0-677.0","0","0","80758","","null","","","null","75","","","","","","","","","","","","","","","",""
"","ISI","","html-keyboard-response","480","775028","0.0-1.0-678.0","0","0","80758","","null","","","null","75","NaN","","","","","","","","","","","","","","",""
"","S2","","html-keyboard-response","481","775181","0.0-1.0-679.0","0","0","80758","","null","","","null","75","","NaN","","","","","","","","","","","","","",""
"","response","","html-keyboard-response","482","775721","0.0-1.0-680.0-0.0","0","0","80758","","536","","","75","75","","","2","75","training","adjacent","CB","3","2","N.jpg","Q.jpg","0","0","1","",""
"","feedback","","html-keyboard-response","483","776726","0.0-1.0-681.0-0.0","0","0","80758","","null","","","null","75","","","","","","","","","","","","","","","",""
"","ITI","","html-keyboard-response","484","777730","0.0-1.0-684.0","0","0","80758","","null","","","null","75","","","","","","","","","","","","","","","NaN",""
"","S1","","html-keyboard-response","485","777884","0.0-1.0-686.0","0","0","80758","","null","","","null","76","","","","","","","","","","","","","","","",""
"","ISI","","html-keyboard-response","486","779886","0.0-1.0-687.0","0","0","80758","","null","","","null","76","NaN","","","","","","","","","","","","","","",""
"","S2","","html-keyboard-response","487","780042","0.0-1.0-688.0","0","0","80758","","null","","","null","76","","NaN","","","","","","","","","","","","","",""
"","response","","html-keyboard-response","488","780629","0.0-1.0-689.0-0.0","0","0","80758","","585","","","75","76","","","2","76","training","adjacent","CB","3","2","N.jpg","Q.jpg","0","0","1","",""
"","feedback","","html-keyboard-response","489","781646","0.0-1.0-690.0-0.0","0","0","80758","","null","","","null","76","","","","","","","","","","","","","","","",""
"","ITI","","html-keyboard-response","490","782650","0.0-1.0-693.0","0","0","80758","","null","","","null","76","","","","","","","","","","","","","","","NaN",""
"","S1","","html-keyboard-response","491","782804","0.0-1.0-695.0","0","0","80758","","null","","","null","77","","","","","","","","","","","","","","","",""
"","ISI","","html-keyboard-response","492","784805","0.0-1.0-696.0","0","0","80758","","null","","","null","77","NaN","","","","","","","","","","","","","","",""
"","S2","","html-keyboard-response","493","784958","0.0-1.0-697.0","0","0","80758","","null","","","null","77","","NaN","","","","","","","","","","","","","",""
"","response","","html-keyboard-response","494","785975","0.0-1.0-698.0-0.0","0","0","80758","","1016","","","75","77","","","2","77","training","adjacent","ED","5","4","L.jpg","M.jpg","0","0","1","",""
"","feedback","","html-keyboard-response","495","786979","0.0-1.0-699.0-0.0","0","0","80758","","null","","","null","77","","","","","","","","","","","","","","","",""
"","ITI","","html-keyboard-response","496","787981","0.0-1.0-702.0","0","0","80758","","null","","","null","77","","","","","","","","","","","","","","","NaN",""
"","S1","","html-keyboard-response","497","788134","0.0-1.0-704.0","0","0","80758","","null","","","null","78","","","","","","","","","","","","","","","",""
"","ISI","","html-keyboard-response","498","790136","0.0-1.0-705.0","0","0","80758","","null","","","null","78","NaN","","","","","","","","","","","","","","",""
"","S2","","html-keyboard-response","499","790289","0.0-1.0-706.0","0","0","80758","","null","","","null","78","","NaN","","","","","","","","","","","","","",""
"","response","","html-keyboard-response","500","790493","0.0-1.0-707.0-0.0","0","0","80758","","203","","","75","78","","","2","78","training","adjacent","GF","7","6","P.jpg","O.jpg","0","0","1","",""
"","feedback","","html-keyboard-response","501","791498","0.0-1.0-708.0-0.0","0","0","80758","","null","","","null","78","","","","","","","","","","","","","","","",""
"","ITI","","html-keyboard-response","502","792500","0.0-1.0-711.0","0","0","80758","","null","","","null","78","","","","","","","","","","","","","","","NaN",""
"","S1","","html-keyboard-response","503","792653","0.0-1.0-713.0","0","0","80758","","null","","","null","79","","","","","","","","","","","","","","","",""
"","ISI","","html-keyboard-response","504","794654","0.0-1.0-714.0","0","0","80758","","null","","","null","79","NaN","","","","","","","","","","","","","","",""
"","S2","","html-keyboard-response","505","794808","0.0-1.0-715.0","0","0","80758","","null","","","null","79","","NaN","","","","","","","","","","","","","",""
"","response","","html-keyboard-response","506","796314","0.0-1.0-716.0-0.0","0","0","80758","","1506","","","75","79","","","2","79","training","adjacent","CD","3","4","N.jpg","M.jpg","0","1","0","",""
"","feedback","","html-keyboard-response","507","797318","0.0-1.0-717.0-0.0","0","0","80758","","null","","","null","79","","","","","","","","","","","","","","","",""
"","time_out","","html-keyboard-response","508","799321","0.0-1.0-719.0-0.0","0","0","80758","","null","","","null","79","","","","","","","","","","","","","","","",""
"","ITI","","html-keyboard-response","509","800324","0.0-1.0-720.0","0","0","80758","","null","","","null","79","","","","","","","","","","","","","","","NaN",""
"","S1","","html-keyboard-response","510","800477","0.0-1.0-722.0","0","0","80758","","null","","","null","80","","","","","","","","","","","","","","","",""
"","ISI","","html-keyboard-response","511","802479","0.0-1.0-723.0","0","0","80758","","null","","","null","80","NaN","","","","","","","","","","","","","","",""
"","S2","","html-keyboard-response","512","802631","0.0-1.0-724.0","0","0","80758","","null","","","null","80","","NaN","","","","","","","","","","","","","",""
"","response","","html-keyboard-response","513","802906","0.0-1.0-725.0-0.0","0","0","80758","","272","","","68","80","","","2","80","training","adjacent","GF","7","6","P.jpg","O.jpg","1","0","0","",""
"","feedback","","html-keyboard-response","514","803911","0.0-1.0-726.0-0.0","0","0","80758","","null","","","null","80","","","","","","","","","","","","","","","",""
"","time_out","","html-keyboard-response","515","805915","0.0-1.0-728.0-0.0","0","0","80758","","null","","","null","80","","","","","","","","","","","","","","","",""
"","ITI","","html-keyboard-response","516","806917","0.0-1.0-729.0","0","0","80758","","null","","","null","80","","","","","","","","","","","","","","","NaN",""
"","S1","","html-keyboard-response","517","807069","0.0-1.0-731.0","0","0","80758","","null","","","null","81","","","","","","","","","","","","","","","",""
"","ISI","","html-keyboard-response","518","809072","0.0-1.0-732.0","0","0","80758","","null","","","null","81","NaN","","","","","","","","","","","","","","",""
"","S2","","html-keyboard-response","519","809228","0.0-1.0-733.0","0","0","80758","","null","","","null","81","","NaN","","","","","","","","","","","","","",""
"","response","","html-keyboard-response","520","809980","0.0-1.0-734.0-0.0","0","0","80758","","750","","","68","81","","","2","81","training","adjacent","BC","2","3","Q.jpg","N.jpg","1","1","1","",""
"","feedback","","html-keyboard-response","521","810982","0.0-1.0-735.0-0.0","0","0","80758","","null","","","null","81","","","","","","","","","","","","","","","",""
"","ITI","","html-keyboard-response","522","811985","0.0-1.0-738.0","0","0","80758","","null","","","null","81","","","","","","","","","","","","","","","NaN",""
"","S1","","html-keyboard-response","523","812140","0.0-1.0-740.0","0","0","80758","","null","","","null","82","","","","","","","","","","","","","","","",""
"","ISI","","html-keyboard-response","524","814142","0.0-1.0-741.0","0","0","80758","","null","","","null","82","NaN","","","","","","","","","","","","","","",""
"","S2","","html-keyboard-response","525","814295","0.0-1.0-742.0","0","0","80758","","null","","","null","82","","NaN","","","","","","","","","","","","","",""
"","response","","html-keyboard-response","526","815398","0.0-1.0-743.0-0.0","0","0","80758","","1102","","","75","82","","","2","82","training","adjacent","FE","6","5","O.jpg","L.jpg","0","0","1","",""
"","feedback","","html-keyboard-response","527","816401","0.0-1.0-744.0-0.0","0","0","80758","","null","","","null","82","","","","","","","","","","","","","","","",""
"","ITI","","html-keyboard-response","528","817406","0.0-1.0-747.0","0","0","80758","","null","","","null","82","","","","","","","","","","","","","","","NaN",""
"","S1","","html-keyboard-response","529","817576","0.0-1.0-749.0","0","0","80758","","null","","","null","83","","","","","","","","","","","","","","","",""
"","ISI","","html-keyboard-response","530","819579","0.0-1.0-750.0","0","0","80758","","null","","","null","83","NaN","","","","","","","","","","","","","","",""
"","S2","","html-keyboard-response","531","819740","0.0-1.0-751.0","0","0","80758","","null","","","null","83","","NaN","","","","","","","","","","","","","",""
"","response","","html-keyboard-response","532","820148","0.0-1.0-752.0-0.0","0","0","80758","","406","","","75","83","","","2","83","training","adjacent","GF","7","6","P.jpg","O.jpg","0","0","1","",""
"","feedback","","html-keyboard-response","533","821152","0.0-1.0-753.0-0.0","0","0","80758","","null","","","null","83","","","","","","","","","","","","","","","",""
"","ITI","","html-keyboard-response","534","822155","0.0-1.0-756.0","0","0","80758","","null","","","null","83","","","","","","","","","","","","","","","NaN",""
"","S1","","html-keyboard-response","535","822309","0.0-1.0-758.0","0","0","80758","","null","","","null","84","","","","","","","","","","","","","","","",""
"","ISI","","html-keyboard-response","536","824312","0.0-1.0-759.0","0","0","80758","","null","","","null","84","NaN","","","","","","","","","","","","","","",""
"","S2","","html-keyboard-response","537","824464","0.0-1.0-760.0","0","0","80758","","null","","","null","84","","NaN","","","","","","","","","","","","","",""
"","response","","html-keyboard-response","538","825087","0.0-1.0-761.0-0.0","0","0","80758","","622","","","68","84","","","2","84","training","adjacent","FG","6","7","O.jpg","P.jpg","1","1","1","",""
"","feedback","","html-keyboard-response","539","826091","0.0-1.0-762.0-0.0","0","0","80758","","null","","","null","84","","","","","","","","","","","","","","","",""
"","ITI","","html-keyboard-response","540","827095","0.0-1.0-765.0","0","0","80758","","null","","","null","84","","","","","","","","","","","","","","","NaN",""
"","S1","","html-keyboard-response","541","827247","0.0-1.0-767.0","0","0","80758","","null","","","null","85","","","","","","","","","","","","","","","",""
"","ISI","","html-keyboard-response","542","829250","0.0-1.0-768.0","0","0","80758","","null","","","null","85","NaN","","","","","","","","","","","","","","",""
"","S2","","html-keyboard-response","543","829404","0.0-1.0-769.0","0","0","80758","","null","","","null","85","","NaN","","","","","","","","","","","","","",""
"","response","","html-keyboard-response","544","830075","0.0-1.0-770.0-0.0","0","0","80758","","669","","","75","85","","","2","85","training","adjacent","DC","4","3","M.jpg","N.jpg","0","0","1","",""
"","feedback","","html-keyboard-response","545","831079","0.0-1.0-771.0-0.0","0","0","80758","","null","","","null","85","","","","","","","","","","","","","","","",""
"","ITI","","html-keyboard-response","546","832082","0.0-1.0-774.0","0","0","80758","","null","","","null","85","","","","","","","","","","","","","","","NaN",""
"","S1","","html-keyboard-response","547","832235","0.0-1.0-776.0","0","0","80758","","null","","","null","86","","","","","","","","","","","","","","","",""
"","ISI","","html-keyboard-response","548","834238","0.0-1.0-777.0","0","0","80758","","null","","","null","86","NaN","","","","","","","","","","","","","","",""
"","S2","","html-keyboard-response","549","834392","0.0-1.0-778.0","0","0","80758","","null","","","null","86","","NaN","","","","","","","","","","","","","",""
"","response","","html-keyboard-response","550","834702","0.0-1.0-779.0-0.0","0","0","80758","","307","","","75","86","","","2","86","training","adjacent","BA","2","1","Q.jpg","R.jpg","0","0","1","",""
"","feedback","","html-keyboard-response","551","835706","0.0-1.0-780.0-0.0","0","0","80758","","null","","","null","86","","","","","","","","","","","","","","","",""
"","ITI","","html-keyboard-response","552","836710","0.0-1.0-783.0","0","0","80758","","null","","","null","86","","","","","","","","","","","","","","","NaN",""
"","S1","","html-keyboard-response","553","836863","0.0-1.0-785.0","0","0","80758","","null","","","null","87","","","","","","","","","","","","","","","",""
"","ISI","","html-keyboard-response","554","838866","0.0-1.0-786.0","0","0","80758","","null","","","null","87","NaN","","","","","","","","","","","","","","",""
"","S2","","html-keyboard-response","555","839020","0.0-1.0-787.0","0","0","80758","","null","","","null","87","","NaN","","","","","","","","","","","","","",""
"","response","","html-keyboard-response","556","839474","0.0-1.0-788.0-0.0","0","0","80758","","453","","","75","87","","","2","87","training","adjacent","BA","2","1","Q.jpg","R.jpg","0","0","1","",""
"","feedback","","html-keyboard-response","557","840478","0.0-1.0-789.0-0.0","0","0","80758","","null","","","null","87","","","","","","","","","","","","","","","",""
"","ITI","","html-keyboard-response","558","841481","0.0-1.0-792.0","0","0","80758","","null","","","null","87","","","","","","","","","","","","","","","NaN",""
"","S1","","html-keyboard-response","559","841635","0.0-1.0-794.0","0","0","80758","","null","","","null","88","","","","","","","","","","","","","","","",""
"","ISI","","html-keyboard-response","560","843637","0.0-1.0-795.0","0","0","80758","","null","","","null","88","NaN","","","","","","","","","","","","","","",""
"","S2","","html-keyboard-response","561","843790","0.0-1.0-796.0","0","0","80758","","null","","","null","88","","NaN","","","","","","","","","","","","","",""
"","response","","html-keyboard-response","562","844952","0.0-1.0-797.0-0.0","0","0","80758","","1160","","","68","88","","","2","88","training","adjacent","BC","2","3","Q.jpg","N.jpg","1","1","1","",""
"","feedback","","html-keyboard-response","563","845955","0.0-1.0-798.0-0.0","0","0","80758","","null","","","null","88","","","","","","","","","","","","","","","",""
"","ITI","","html-keyboard-response","564","846960","0.0-1.0-801.0","0","0","80758","","null","","","null","88","","","","","","","","","","","","","","","NaN",""
"","S1","","html-keyboard-response","565","847114","0.0-1.0-803.0","0","0","80758","","null","","","null","89","","","","","","","","","","","","","","","",""
"","ISI","","html-keyboard-response","566","849117","0.0-1.0-804.0","0","0","80758","","null","","","null","89","NaN","","","","","","","","","","","","","","",""
"","S2","","html-keyboard-response","567","849279","0.0-1.0-805.0","0","0","80758","","null","","","null","89","","NaN","","","","","","","","","","","","","",""
"","response","","html-keyboard-response","568","850273","0.0-1.0-806.0-0.0","0","0","80758","","992","","","68","89","","","2","89","training","adjacent","EF","5","6","L.jpg","O.jpg","1","1","1","",""
"","feedback","","html-keyboard-response","569","851278","0.0-1.0-807.0-0.0","0","0","80758","","null","","","null","89","","","","","","","","","","","","","","","",""
"","ITI","","html-keyboard-response","570","852281","0.0-1.0-810.0","0","0","80758","","null","","","null","89","","","","","","","","","","","","","","","NaN",""
"","S1","","html-keyboard-response","571","852435","0.0-1.0-812.0","0","0","80758","","null","","","null","90","","","","","","","","","","","","","","","",""
"","ISI","","html-keyboard-response","572","854438","0.0-1.0-813.0","0","0","80758","","null","","","null","90","NaN","","","","","","","","","","","","","","",""
"","S2","","html-keyboard-response","573","854592","0.0-1.0-814.0","0","0","80758","","null","","","null","90","","NaN","","","","","","","","","","","","","",""
"","response","","html-keyboard-response","574","854875","0.0-1.0-815.0-0.0","0","0","80758","","280","","","68","90","","","2","90","training","adjacent","AB","1","2","R.jpg","Q.jpg","1","1","1","",""
"","feedback","","html-keyboard-response","575","855880","0.0-1.0-816.0-0.0","0","0","80758","","null","","","null","90","","","","","","","","","","","","","","","",""
"","ITI","","html-keyboard-response","576","856884","0.0-1.0-819.0","0","0","80758","","null","","","null","90","","","","","","","","","","","","","","","NaN",""
"","S1","","html-keyboard-response","577","857037","0.0-1.0-821.0","0","0","80758","","null","","","null","91","","","","","","","","","","","","","","","",""
"","ISI","","html-keyboard-response","578","859041","0.0-1.0-822.0","0","0","80758","","null","","","null","91","NaN","","","","","","","","","","","","","","",""
