"success","ttype","start_time","trial_type","trial_index","time_elapsed","internal_node_id","warning","missed_checkup","PID","view_history","rt","responses","repeat_instructions","key_press","index","keypress_isi","keypress_S2","block","trial_num","phase","group_type","pair_type","S1_stim","S2_stim","S1_img","S2_img","S1_chosen","S1_higher","accuracy","keypress_iti","total_bonus_tally"
"true","full_screen","d08052022hr1603","fullscreen","0","18634","0.0-0.0","0","0","13441","","","","","","","","","","","","","","","","","","","","","",""
"","instructions","","instructions","1","183323","0.0-1.0-0.0-0.0","0","0","13441","[{""page_index"":0,""viewing_time"":10247},{""page_index"":1,""viewing_time"":26853},{""page_index"":2,""viewing_time"":91798},{""page_index"":1,""viewing_time"":28090},{""page_index"":2,""viewing_time"":1850},{""page_index"":3,""viewing_time"":5840}]","164679","","","","","","","","","","","","","","","","","","","",""
"","comprehension_check","","survey-multi-choice","2","249394","0.0-1.0-0.0-1.0","0","0","13441","","66053","{""Q0"":""True"",""Q1"":""K"",""Q2"":""Once the second image appears and while the screen 'MAKE A CHOICE' is shown"",""Q3"":""Green mark"",""Q4"":""either D or K""}","0","","","","","","","","","","","","","","","","","",""
"","start_exp","","html-keyboard-response","3","284759","0.0-1.0-1.0","0","0","13441","","35358","","","32","","","","","","","","","","","","","","","","",""
"","S1","","html-keyboard-response","4","285019","0.0-1.0-2.0","0","0","13441","","null","","","null","0","","","","","","","","","","","","","","","",""
"","ISI","","html-keyboard-response","5","287025","0.0-1.0-3.0","0","0","13441","","null","","","null","0","NaN","","","","","","","","","","","","","","",""
"","S2","","html-keyboard-response","6","287279","0.0-1.0-4.0","0","0","13441","","null","","","null","0","","NaN","","","","","","","","","","","","","",""
"","response","","html-keyboard-response","7","289028","0.0-1.0-5.0-0.0","0","0","13441","","1745","","","68","0","","","1","0","training","adjacent","ED","5","4","L.jpg","R.jpg","0","0","1","",""
"","feedback","","html-keyboard-response","8","290043","0.0-1.0-6.0-0.0","0","0","13441","","null","","","null","0","","","","","","","","","","","","","","","",""
"","ITI","","html-keyboard-response","9","291062","0.0-1.0-9.0","0","0","13441","","null","","","null","0","","","","","","","","","","","","","","","NaN",""
"","S1","","html-keyboard-response","10","291316","0.0-1.0-11.0","0","0","13441","","null","","","null","1","","","","","","","","","","","","","","","",""
"","ISI","","html-keyboard-response","11","293326","0.0-1.0-12.0","0","0","13441","","null","","","null","1","NaN","","","","","","","","","","","","","","",""
"","S2","","html-keyboard-response","12","293588","0.0-1.0-13.0","0","0","13441","","null","","","null","1","","NaN","","","","","","","","","","","","","",""
"","response","","html-keyboard-response","13","294707","0.0-1.0-14.0-0.0","0","0","13441","","1117","","","68","1","","","1","1","training","adjacent","ED","5","4","L.jpg","R.jpg","0","0","1","",""
"","feedback","","html-keyboard-response","14","295721","0.0-1.0-15.0-0.0","0","0","13441","","null","","","null","1","","","","","","","","","","","","","","","",""
"","ITI","","html-keyboard-response","15","296736","0.0-1.0-18.0","0","0","13441","","null","","","null","1","","","","","","","","","","","","","","","NaN",""
"","S1","","html-keyboard-response","16","297000","0.0-1.0-20.0","0","0","13441","","null","","","null","2","","","","","","","","","","","","","","","",""
"","ISI","","html-keyboard-response","17","299018","0.0-1.0-21.0","0","0","13441","","null","","","null","2","NaN","","","","","","","","","","","","","","",""
"","S2","","html-keyboard-response","18","299275","0.0-1.0-22.0","0","0","13441","","null","","","null","2","","NaN","","","","","","","","","","","","","",""
"","response","","html-keyboard-response","19","301031","0.0-1.0-23.0-0.0","0","0","13441","","null","","","null","2","","","1","2","training","adjacent","DE","4","5","R.jpg","L.jpg","NaN","1","0","",""
"","too_slow_prompt","","html-keyboard-response","20","302041","0.0-1.0-25.0-0.0","1","0","13441","","null","","","null","","","","","","","","","","","","","","","","",""
"","time_out","","html-keyboard-response","21","304047","0.0-1.0-26.0-0.0","0","0","13441","","null","","","null","2","","","","","","","","","","","","","","","",""
"","ITI","","html-keyboard-response","22","305063","0.0-1.0-27.0","0","0","13441","","null","","","null","2","","","","","","","","","","","","","","","NaN",""
"","S1","","html-keyboard-response","23","305321","0.0-1.0-29.0","0","0","13441","","null","","","null","3","","","","","","","","","","","","","","","",""
"","ISI","","html-keyboard-response","24","307331","0.0-1.0-30.0","0","0","13441","","null","","","null","3","NaN","","","","","","","","","","","","","","",""
"","S2","","html-keyboard-response","25","307593","0.0-1.0-31.0","0","0","13441","","null","","","null","3","","NaN","","","","","","","","","","","","","",""
"","response","","html-keyboard-response","26","308021","0.0-1.0-32.0-0.0","0","0","13441","","424","","","75","3","","","1","3","training","adjacent","DE","4","5","R.jpg","L.jpg","1","1","1","",""
"","feedback","","html-keyboard-response","27","309039","0.0-1.0-33.0-0.0","0","0","13441","","null","","","null","3","","","","","","","","","","","","","","","",""
"","ITI","","html-keyboard-response","28","310046","0.0-1.0-36.0","0","0","13441","","null","","","null","3","","","","","","","","","","","","","","","NaN",""
"","S1","","html-keyboard-response","29","310314","0.0-1.0-38.0","0","0","13441","","null","","","null","4","","","","","","","","","","","","","","","",""
"","ISI","","html-keyboard-response","30","312332","0.0-1.0-39.0","0","0","13441","","null","","","null","4","NaN","","","","","","","","","","","","","","",""
"","S2","","html-keyboard-response","31","312589","0.0-1.0-40.0","0","0","13441","","null","","","null","4","","NaN","","","","","","","","","","","","","",""
"","response","","html-keyboard-response","32","313339","0.0-1.0-41.0-0.0","0","0","13441","","748","","","68","4","","","1","4","training","adjacent","FG","6","7","P.jpg","Q.jpg","0","1","0","",""
"","feedback","","html-keyboard-response","33","314355","0.0-1.0-42.0-0.0","0","0","13441","","null","","","null","4","","","","","","","","","","","","","","","",""
"","time_out","","html-keyboard-response","34","316367","0.0-1.0-44.0-0.0","0","0","13441","","null","","","null","4","","","","","","","","","","","","","","","",""
"","ITI","","html-keyboard-response","35","317376","0.0-1.0-45.0","0","0","13441","","null","","","null","4","","","","","","","","","","","","","","","NaN",""
"","S1","","html-keyboard-response","36","317639","0.0-1.0-47.0","0","0","13441","","null","","","null","5","","","","","","","","","","","","","","","",""
"","ISI","","html-keyboard-response","37","319652","0.0-1.0-48.0","0","0","13441","","null","","","null","5","NaN","","","","","","","","","","","","","","",""
"","S2","","html-keyboard-response","38","319922","0.0-1.0-49.0","0","0","13441","","null","","","null","5","","NaN","","","","","","","","","","","","","",""
"","response","","html-keyboard-response","39","320809","0.0-1.0-50.0-0.0","0","0","13441","","885","","","75","5","","","1","5","training","adjacent","CB","3","2","M.jpg","O.jpg","1","0","0","",""
"","feedback","","html-keyboard-response","40","321822","0.0-1.0-51.0-0.0","0","0","13441","","null","","","null","5","","","","","","","","","","","","","","","",""
"","time_out","","html-keyboard-response","41","323830","0.0-1.0-53.0-0.0","0","0","13441","","null","","","null","5","","","","","","","","","","","","","","","",""
"","ITI","","html-keyboard-response","42","324832","0.0-1.0-54.0","0","0","13441","","null","","","null","5","","","","","","","","","","","","","","","NaN",""
"","S1","","html-keyboard-response","43","325104","0.0-1.0-56.0","0","0","13441","","null","","","null","6","","","","","","","","","","","","","","","",""
"","ISI","","html-keyboard-response","44","327112","0.0-1.0-57.0","0","0","13441","","null","","","null","6","NaN","","","","","","","","","","","","","","",""
"","S2","","html-keyboard-response","45","327371","0.0-1.0-58.0","0","0","13441","","null","","","null","6","","NaN","","","","","","","","","","","","","",""
"","response","","html-keyboard-response","46","327813","0.0-1.0-59.0-0.0","0","0","13441","","437","","","75","6","","","1","6","training","adjacent","DC","4","3","R.jpg","M.jpg","1","0","0","",""
"","feedback","","html-keyboard-response","47","328827","0.0-1.0-60.0-0.0","0","0","13441","","null","","","null","6","","","","","","","","","","","","","","","",""
"","time_out","","html-keyboard-response","48","330836","0.0-1.0-62.0-0.0","0","0","13441","","null","","","null","6","","","","","","","","","","","","","","","",""
"","ITI","","html-keyboard-response","49","331841","0.0-1.0-63.0","0","0","13441","","null","","","null","6","","","","","","","","","","","","","","","NaN",""
"","S1","","html-keyboard-response","50","332103","0.0-1.0-65.0","0","0","13441","","null","","","null","7","","","","","","","","","","","","","","","",""
"","ISI","","html-keyboard-response","51","334111","0.0-1.0-66.0","0","0","13441","","null","","","null","7","NaN","","","","","","","","","","","","","","",""
"","S2","","html-keyboard-response","52","334364","0.0-1.0-67.0","0","0","13441","","null","","","null","7","","NaN","","","","","","","","","","","","","",""
"","response","","html-keyboard-response","53","334853","0.0-1.0-68.0-0.0","0","0","13441","","486","","","75","7","","","1","7","training","adjacent","FE","6","5","P.jpg","L.jpg","1","0","0","",""
"","feedback","","html-keyboard-response","54","335857","0.0-1.0-69.0-0.0","0","0","13441","","null","","","null","7","","","","","","","","","","","","","","","",""
"","time_out","","html-keyboard-response","55","337871","0.0-1.0-71.0-0.0","0","0","13441","","null","","","null","7","","","","","","","","","","","","","","","",""
"","ITI","","html-keyboard-response","56","338883","0.0-1.0-72.0","0","0","13441","","null","","","null","7","","","","","","","","","","","","","","","NaN",""
"","S1","","html-keyboard-response","57","339155","0.0-1.0-74.0","0","0","13441","","null","","","null","8","","","","","","","","","","","","","","","",""
"","ISI","","html-keyboard-response","58","341176","0.0-1.0-75.0","0","0","13441","","null","","","null","8","NaN","","","","","","","","","","","","","","",""
"","S2","","html-keyboard-response","59","341438","0.0-1.0-76.0","0","0","13441","","null","","","null","8","","NaN","","","","","","","","","","","","","",""
"","response","","html-keyboard-response","60","342062","0.0-1.0-77.0-0.0","0","0","13441","","621","","","75","8","","","1","8","training","adjacent","BA","2","1","O.jpg","N.jpg","1","0","0","",""
"","feedback","","html-keyboard-response","61","343081","0.0-1.0-78.0-0.0","0","0","13441","","null","","","null","8","","","","","","","","","","","","","","","",""
"","time_out","","html-keyboard-response","62","345095","0.0-1.0-80.0-0.0","0","0","13441","","null","","","null","8","","","","","","","","","","","","","","","",""
"","ITI","","html-keyboard-response","63","346115","0.0-1.0-81.0","0","0","13441","","null","","","null","8","","","","","","","","","","","","","","","NaN",""
"","S1","","html-keyboard-response","64","346375","0.0-1.0-83.0","0","0","13441","","null","","","null","9","","","","","","","","","","","","","","","",""
"","ISI","","html-keyboard-response","65","348393","0.0-1.0-84.0","0","0","13441","","null","","","null","9","NaN","","","","","","","","","","","","","","",""
"","S2","","html-keyboard-response","66","348656","0.0-1.0-85.0","0","0","13441","","null","","","null","9","","NaN","","","","","","","","","","","","","",""
"","response","","html-keyboard-response","67","349370","0.0-1.0-86.0-0.0","0","0","13441","","712","","","75","9","","","1","9","training","adjacent","BA","2","1","O.jpg","N.jpg","1","0","0","",""
"","feedback","","html-keyboard-response","68","350389","0.0-1.0-87.0-0.0","0","0","13441","","null","","","null","9","","","","","","","","","","","","","","","",""
"","time_out","","html-keyboard-response","69","352397","0.0-1.0-89.0-0.0","0","0","13441","","null","","","null","9","","","","","","","","","","","","","","","",""
"","ITI","","html-keyboard-response","70","353408","0.0-1.0-90.0","0","0","13441","","null","","","null","9","","","","","","","","","","","","","","","NaN",""
"","S1","","html-keyboard-response","71","353668","0.0-1.0-92.0","0","0","13441","","null","","","null","10","","","","","","","","","","","","","","","",""
"","ISI","","html-keyboard-response","72","355680","0.0-1.0-93.0","0","0","13441","","null","","","null","10","NaN","","","","","","","","","","","","","","",""
"","S2","","html-keyboard-response","73","355940","0.0-1.0-94.0","0","0","13441","","null","","","null","10","","NaN","","","","","","","","","","","","","",""
"","response","","html-keyboard-response","74","356623","0.0-1.0-95.0-0.0","0","0","13441","","680","","","75","10","","","1","10","training","adjacent","GF","7","6","Q.jpg","P.jpg","1","0","0","",""
"","feedback","","html-keyboard-response","75","357635","0.0-1.0-96.0-0.0","0","0","13441","","null","","","null","10","","","","","","","","","","","","","","","",""
"","time_out","","html-keyboard-response","76","359639","0.0-1.0-98.0-0.0","0","0","13441","","null","","","null","10","","","","","","","","","","","","","","","",""
"","ITI","","html-keyboard-response","77","360646","0.0-1.0-99.0","0","0","13441","","null","","","null","10","","","","","","","","","","","","","","","NaN",""
"","S1","","html-keyboard-response","78","360910","0.0-1.0-101.0","0","0","13441","","null","","","null","11","","","","","","","","","","","","","","","",""
"","ISI","","html-keyboard-response","79","362919","0.0-1.0-102.0","0","0","13441","","null","","","null","11","NaN","","","","","","","","","","","","","","",""
"","S2","","html-keyboard-response","80","363189","0.0-1.0-103.0","0","0","13441","","null","","","null","11","","NaN","","","","","","","","","","","","","",""
"","response","","html-keyboard-response","81","363721","0.0-1.0-104.0-0.0","0","0","13441","","530","","","75","11","","","1","11","training","adjacent","CB","3","2","M.jpg","O.jpg","1","0","0","",""
"","feedback","","html-keyboard-response","82","364730","0.0-1.0-105.0-0.0","0","0","13441","","null","","","null","11","","","","","","","","","","","","","","","",""
"","time_out","","html-keyboard-response","83","366744","0.0-1.0-107.0-0.0","0","0","13441","","null","","","null","11","","","","","","","","","","","","","","","",""
"","ITI","","html-keyboard-response","84","367761","0.0-1.0-108.0","0","0","13441","","null","","","null","11","","","","","","","","","","","","","","","NaN",""
"","S1","","html-keyboard-response","85","368026","0.0-1.0-110.0","0","0","13441","","null","","","null","12","","","","","","","","","","","","","","","",""
"","ISI","","html-keyboard-response","86","370040","0.0-1.0-111.0","0","0","13441","","473","","","68","12","d","","","","","","","","","","","","","","",""
"","S2","","html-keyboard-response","87","370221","0.0-1.0-112.0","0","0","13441","","176","","","68","12","","d","1","12","training","adjacent","EF","5","6","L.jpg","P.jpg","0","1","0","",""
"","feedback","","html-keyboard-response","88","371229","0.0-1.0-114.0-0.0","0","0","13441","","null","","","null","12","","","","","","","","","","","","","","","",""
"","time_out","","html-keyboard-response","89","373232","0.0-1.0-116.0-0.0","0","0","13441","","null","","","null","12","","","","","","","","","","","","","","","",""
"","ITI","","html-keyboard-response","90","374258","0.0-1.0-117.0","0","0","13441","","null","","","null","12","","","","","","","","","","","","","","","NaN",""
"","S1","","html-keyboard-response","91","374525","0.0-1.0-119.0","0","0","13441","","null","","","null","13","","","","","","","","","","","","","","","",""
"","ISI","","html-keyboard-response","92","376533","0.0-1.0-120.0","0","0","13441","","null","","","null","13","NaN","","","","","","","","","","","","","","",""
"","S2","","html-keyboard-response","93","376787","0.0-1.0-121.0","0","0","13441","","null","","","null","13","","NaN","","","","","","","","","","","","","",""
"","response","","html-keyboard-response","94","377658","0.0-1.0-122.0-0.0","0","0","13441","","867","","","75","13","","","1","13","training","adjacent","CB","3","2","M.jpg","O.jpg","1","0","0","",""
"","feedback","","html-keyboard-response","95","378669","0.0-1.0-123.0-0.0","0","0","13441","","null","","","null","13","","","","","","","","","","","","","","","",""
"","time_out","","html-keyboard-response","96","380686","0.0-1.0-125.0-0.0","0","0","13441","","null","","","null","13","","","","","","","","","","","","","","","",""
"","ITI","","html-keyboard-response","97","381708","0.0-1.0-126.0","0","0","13441","","null","","","null","13","","","","","","","","","","","","","","","NaN",""
"","S1","","html-keyboard-response","98","381973","0.0-1.0-128.0","0","0","13441","","null","","","null","14","","","","","","","","","","","","","","","",""
"","ISI","","html-keyboard-response","99","383977","0.0-1.0-129.0","0","0","13441","","null","","","null","14","NaN","","","","","","","","","","","","","","",""
"","S2","","html-keyboard-response","100","384231","0.0-1.0-130.0","0","0","13441","","null","","","null","14","","NaN","","","","","","","","","","","","","",""
"","response","","html-keyboard-response","101","384838","0.0-1.0-131.0-0.0","0","0","13441","","597","","","75","14","","","1","14","training","adjacent","FE","6","5","P.jpg","L.jpg","1","0","0","",""
"","feedback","","html-keyboard-response","102","385849","0.0-1.0-132.0-0.0","0","0","13441","","null","","","null","14","","","","","","","","","","","","","","","",""
"","time_out","","html-keyboard-response","103","387866","0.0-1.0-134.0-0.0","0","0","13441","","null","","","null","14","","","","","","","","","","","","","","","",""
"","ITI","","html-keyboard-response","104","388880","0.0-1.0-135.0","0","0","13441","","null","","","null","14","","","","","","","","","","","","","","","NaN",""
"","S1","","html-keyboard-response","105","389146","0.0-1.0-137.0","0","0","13441","","null","","","null","15","","","","","","","","","","","","","","","",""
"","ISI","","html-keyboard-response","106","391160","0.0-1.0-138.0","0","0","13441","","null","","","null","15","NaN","","","","","","","","","","","","","","",""
"","S2","","html-keyboard-response","107","391428","0.0-1.0-139.0","0","0","13441","","null","","","null","15","","NaN","","","","","","","","","","","","","",""
"","response","","html-keyboard-response","108","391845","0.0-1.0-140.0-0.0","0","0","13441","","414","","","68","15","","","1","15","training","adjacent","AB","1","2","N.jpg","O.jpg","0","1","0","",""
"","feedback","","html-keyboard-response","109","392870","0.0-1.0-141.0-0.0","0","0","13441","","null","","","null","15","","","","","","","","","","","","","","","",""
"","time_out","","html-keyboard-response","110","394884","0.0-1.0-143.0-0.0","0","0","13441","","null","","","null","15","","","","","","","","","","","","","","","",""
"","ITI","","html-keyboard-response","111","395890","0.0-1.0-144.0","0","0","13441","","null","","","null","15","","","","","","","","","","","","","","","NaN",""
"","S1","","html-keyboard-response","112","396158","0.0-1.0-146.0","0","0","13441","","null","","","null","16","","","","","","","","","","","","","","","",""
"","ISI","","html-keyboard-response","113","398181","0.0-1.0-147.0","0","0","13441","","null","","","null","16","NaN","","","","","","","","","","","","","","",""
"","S2","","html-keyboard-response","114","398449","0.0-1.0-148.0","0","0","13441","","null","","","null","16","","NaN","","","","","","","","","","","","","",""
"","response","","html-keyboard-response","115","398949","0.0-1.0-149.0-0.0","0","0","13441","","497","","","75","16","","","1","16","training","adjacent","FE","6","5","P.jpg","L.jpg","1","0","0","",""
"","feedback","","html-keyboard-response","116","399962","0.0-1.0-150.0-0.0","0","0","13441","","null","","","null","16","","","","","","","","","","","","","","","",""
"","time_out","","html-keyboard-response","117","401970","0.0-1.0-152.0-0.0","0","0","13441","","null","","","null","16","","","","","","","","","","","","","","","",""
"","ITI","","html-keyboard-response","118","402994","0.0-1.0-153.0","0","0","13441","","null","","","null","16","","","","","","","","","","","","","","","NaN",""
"","S1","","html-keyboard-response","119","403254","0.0-1.0-155.0","0","0","13441","","null","","","null","17","","","","","","","","","","","","","","","",""
"","ISI","","html-keyboard-response","120","405285","0.0-1.0-156.0","0","0","13441","","null","","","null","17","NaN","","","","","","","","","","","","","","",""
"","S2","","html-keyboard-response","121","405544","0.0-1.0-157.0","0","0","13441","","null","","","null","17","","NaN","","","","","","","","","","","","","",""
"","response","","html-keyboard-response","122","406149","0.0-1.0-158.0-0.0","0","0","13441","","582","","","68","17","","","1","17","training","adjacent","DC","4","3","R.jpg","M.jpg","0","0","1","",""
"","feedback","","html-keyboard-response","123","407155","0.0-1.0-159.0-0.0","0","0","13441","","null","","","null","17","","","","","","","","","","","","","","","",""
"","ITI","","html-keyboard-response","124","408176","0.0-1.0-162.0","0","0","13441","","null","","","null","17","","","","","","","","","","","","","","","NaN",""
"","S1","","html-keyboard-response","125","408438","0.0-1.0-164.0","0","0","13441","","null","","","null","18","","","","","","","","","","","","","","","",""
"","ISI","","html-keyboard-response","126","410454","0.0-1.0-165.0","0","0","13441","","null","","","null","18","NaN","","","","","","","","","","","","","","",""
"","S2","","html-keyboard-response","127","410718","0.0-1.0-166.0","0","0","13441","","null","","","null","18","","NaN","","","","","","","","","","","","","",""
"","response","","html-keyboard-response","128","411703","0.0-1.0-167.0-0.0","0","0","13441","","977","","","68","18","","","1","18","training","adjacent","ED","5","4","L.jpg","R.jpg","0","0","1","",""
"","feedback","","html-keyboard-response","129","412720","0.0-1.0-168.0-0.0","0","0","13441","","null","","","null","18","","","","","","","","","","","","","","","",""
"","ITI","","html-keyboard-response","130","413728","0.0-1.0-171.0","0","0","13441","","null","","","null","18","","","","","","","","","","","","","","","NaN",""
"","S1","","html-keyboard-response","131","413994","0.0-1.0-173.0","0","0","13441","","null","","","null","19","","","","","","","","","","","","","","","",""
"","ISI","","html-keyboard-response","132","416006","0.0-1.0-174.0","0","0","13441","","null","","","null","19","NaN","","","","","","","","","","","","","","",""
"","S2","","html-keyboard-response","133","416277","0.0-1.0-175.0","0","0","13441","","null","","","null","19","","NaN","","","","","","","","","","","","","",""
"","response","","html-keyboard-response","134","418042","0.0-1.0-176.0-0.0","0","0","13441","","null","","","null","19","","","1","19","training","adjacent","DE","4","5","R.jpg","L.jpg","NaN","1","0","",""
"","too_slow_prompt","","html-keyboard-response","135","419058","0.0-1.0-178.0-0.0","1","0","13441","","null","","","null","","","","","","","","","","","","","","","","",""
"","time_out","","html-keyboard-response","136","421089","0.0-1.0-179.0-0.0","0","0","13441","","null","","","null","19","","","","","","","","","","","","","","","",""
"","ITI","","html-keyboard-response","137","422098","0.0-1.0-180.0","0","0","13441","","null","","","null","19","","","","","","","","","","","","","","","NaN",""
"","S1","","html-keyboard-response","138","422366","0.0-1.0-182.0","0","0","13441","","null","","","null","20","","","","","","","","","","","","","","","",""
"","ISI","","html-keyboard-response","139","424372","0.0-1.0-183.0","0","0","13441","","null","","","null","20","NaN","","","","","","","","","","","","","","",""
"","S2","","html-keyboard-response","140","424642","0.0-1.0-184.0","0","0","13441","","null","","","null","20","","NaN","","","","","","","","","","","","","",""
"","response","","html-keyboard-response","141","425206","0.0-1.0-185.0-0.0","0","0","13441","","562","","","75","20","","","1","20","training","adjacent","BC","2","3","O.jpg","M.jpg","1","1","1","",""
"","feedback","","html-keyboard-response","142","426221","0.0-1.0-186.0-0.0","0","0","13441","","null","","","null","20","","","","","","","","","","","","","","","",""
"","ITI","","html-keyboard-response","143","427231","0.0-1.0-189.0","0","0","13441","","null","","","null","20","","","","","","","","","","","","","","","NaN",""
"","S1","","html-keyboard-response","144","427499","0.0-1.0-191.0","0","0","13441","","null","","","null","21","","","","","","","","","","","","","","","",""
"","ISI","","html-keyboard-response","145","429510","0.0-1.0-192.0","0","0","13441","","null","","","null","21","NaN","","","","","","","","","","","","","","",""
"","S2","","html-keyboard-response","146","429778","0.0-1.0-193.0","0","0","13441","","null","","","null","21","","NaN","","","","","","","","","","","","","",""
"","response","","html-keyboard-response","147","430656","0.0-1.0-194.0-0.0","0","0","13441","","872","","","75","21","","","1","21","training","adjacent","BC","2","3","O.jpg","M.jpg","1","1","1","",""
"","feedback","","html-keyboard-response","148","431673","0.0-1.0-195.0-0.0","0","0","13441","","null","","","null","21","","","","","","","","","","","","","","","",""
"","ITI","","html-keyboard-response","149","432677","0.0-1.0-198.0","0","0","13441","","null","","","null","21","","","","","","","","","","","","","","","NaN",""
"","S1","","html-keyboard-response","150","432944","0.0-1.0-200.0","0","0","13441","","null","","","null","22","","","","","","","","","","","","","","","",""
"","ISI","","html-keyboard-response","151","434960","0.0-1.0-201.0","0","0","13441","","null","","","null","22","NaN","","","","","","","","","","","","","","",""
"","S2","","html-keyboard-response","152","435213","0.0-1.0-202.0","0","0","13441","","null","","","null","22","","NaN","","","","","","","","","","","","","",""
"","response","","html-keyboard-response","153","435899","0.0-1.0-203.0-0.0","0","0","13441","","679","","","68","22","","","1","22","training","adjacent","EF","5","6","L.jpg","P.jpg","0","1","0","",""
"","feedback","","html-keyboard-response","154","436912","0.0-1.0-204.0-0.0","0","0","13441","","null","","","null","22","","","","","","","","","","","","","","","",""
"","time_out","","html-keyboard-response","155","438929","0.0-1.0-206.0-0.0","0","0","13441","","null","","","null","22","","","","","","","","","","","","","","","",""
"","ITI","","html-keyboard-response","156","439937","0.0-1.0-207.0","0","0","13441","","null","","","null","22","","","","","","","","","","","","","","","NaN",""
"","S1","","html-keyboard-response","157","440199","0.0-1.0-209.0","0","0","13441","","null","","","null","23","","","","","","","","","","","","","","","",""
"","ISI","","html-keyboard-response","158","442208","0.0-1.0-210.0","0","0","13441","","null","","","null","23","NaN","","","","","","","","","","","","","","",""
"","S2","","html-keyboard-response","159","442474","0.0-1.0-211.0","0","0","13441","","null","","","null","23","","NaN","","","","","","","","","","","","","",""
"","response","","html-keyboard-response","160","442947","0.0-1.0-212.0-0.0","0","0","13441","","470","","","75","23","","","1","23","training","adjacent","DC","4","3","R.jpg","M.jpg","1","0","0","",""
"","feedback","","html-keyboard-response","161","443977","0.0-1.0-213.0-0.0","0","0","13441","","null","","","null","23","","","","","","","","","","","","","","","",""
"","time_out","","html-keyboard-response","162","445994","0.0-1.0-215.0-0.0","0","0","13441","","null","","","null","23","","","","","","","","","","","","","","","",""
"","ITI","","html-keyboard-response","163","446999","0.0-1.0-216.0","0","0","13441","","null","","","null","23","","","","","","","","","","","","","","","NaN",""
"","S1","","html-keyboard-response","164","447273","0.0-1.0-218.0","0","0","13441","","null","","","null","24","","","","","","","","","","","","","","","",""
"","ISI","","html-keyboard-response","165","449291","0.0-1.0-219.0","0","0","13441","","null","","","null","24","NaN","","","","","","","","","","","","","","",""
"","S2","","html-keyboard-response","166","449556","0.0-1.0-220.0","0","0","13441","","null","","","null","24","","NaN","","","","","","","","","","","","","",""
"","response","","html-keyboard-response","167","450239","0.0-1.0-221.0-0.0","0","0","13441","","674","","","75","24","","","1","24","training","adjacent","GF","7","6","Q.jpg","P.jpg","1","0","0","",""
"","feedback","","html-keyboard-response","168","451261","0.0-1.0-222.0-0.0","0","0","13441","","null","","","null","24","","","","","","","","","","","","","","","",""
"","time_out","","html-keyboard-response","169","453266","0.0-1.0-224.0-0.0","0","0","13441","","null","","","null","24","","","","","","","","","","","","","","","",""
"","ITI","","html-keyboard-response","170","454276","0.0-1.0-225.0","0","0","13441","","null","","","null","24","","","","","","","","","","","","","","","NaN",""
"","S1","","html-keyboard-response","171","454539","0.0-1.0-227.0","0","0","13441","","null","","","null","25","","","","","","","","","","","","","","","",""
"","ISI","","html-keyboard-response","172","456545","0.0-1.0-228.0","0","0","13441","","null","","","null","25","NaN","","","","","","","","","","","","","","",""
"","S2","","html-keyboard-response","173","456802","0.0-1.0-229.0","0","0","13441","","null","","","null","25","","NaN","","","","","","","","","","","","","",""
"","response","","html-keyboard-response","174","457524","0.0-1.0-230.0-0.0","0","0","13441","","717","","","75","25","","","1","25","training","adjacent","FG","6","7","P.jpg","Q.jpg","1","1","1","",""
"","feedback","","html-keyboard-response","175","458530","0.0-1.0-231.0-0.0","0","0","13441","","null","","","null","25","","","","","","","","","","","","","","","",""
"","ITI","","html-keyboard-response","176","459536","0.0-1.0-234.0","0","0","13441","","null","","","null","25","","","","","","","","","","","","","","","NaN",""
"","S1","","html-keyboard-response","177","459803","0.0-1.0-236.0","0","0","13441","","null","","","null","26","","","","","","","","","","","","","","","",""
"","ISI","","html-keyboard-response","178","461815","0.0-1.0-237.0","0","0","13441","","null","","","null","26","NaN","","","","","","","","","","","","","","",""
"","S2","","html-keyboard-response","179","462073","0.0-1.0-238.0","0","0","13441","","null","","","null","26","","NaN","","","","","","","","","","","","","",""
"","response","","html-keyboard-response","180","462452","0.0-1.0-239.0-0.0","0","0","13441","","376","","","75","26","","","1","26","training","adjacent","FE","6","5","P.jpg","L.jpg","1","0","0","",""
"","feedback","","html-keyboard-response","181","463467","0.0-1.0-240.0-0.0","0","0","13441","","null","","","null","26","","","","","","","","","","","","","","","",""
"","time_out","","html-keyboard-response","182","465475","0.0-1.0-242.0-0.0","0","0","13441","","null","","","null","26","","","","","","","","","","","","","","","",""
"","ITI","","html-keyboard-response","183","466482","0.0-1.0-243.0","0","0","13441","","null","","","null","26","","","","","","","","","","","","","","","NaN",""
"","S1","","html-keyboard-response","184","466764","0.0-1.0-245.0","0","0","13441","","null","","","null","27","","","","","","","","","","","","","","","",""
"","ISI","","html-keyboard-response","185","468768","0.0-1.0-246.0","0","0","13441","","null","","","null","27","NaN","","","","","","","","","","","","","","",""
"","S2","","html-keyboard-response","186","469030","0.0-1.0-247.0","0","0","13441","","null","","","null","27","","NaN","","","","","","","","","","","","","",""
"","response","","html-keyboard-response","187","469481","0.0-1.0-248.0-0.0","0","0","13441","","448","","","75","27","","","1","27","training","adjacent","BA","2","1","O.jpg","N.jpg","1","0","0","",""
"","feedback","","html-keyboard-response","188","470491","0.0-1.0-249.0-0.0","0","0","13441","","null","","","null","27","","","","","","","","","","","","","","","",""
"","time_out","","html-keyboard-response","189","472494","0.0-1.0-251.0-0.0","0","0","13441","","null","","","null","27","","","","","","","","","","","","","","","",""
"","ITI","","html-keyboard-response","190","473500","0.0-1.0-252.0","0","0","13441","","null","","","null","27","","","","","","","","","","","","","","","NaN",""
"","S1","","html-keyboard-response","191","473771","0.0-1.0-254.0","0","0","13441","","null","","","null","28","","","","","","","","","","","","","","","",""
"","ISI","","html-keyboard-response","192","475780","0.0-1.0-255.0","0","0","13441","","null","","","null","28","NaN","","","","","","","","","","","","","","",""
"","S2","","html-keyboard-response","193","476042","0.0-1.0-256.0","0","0","13441","","null","","","null","28","","NaN","","","","","","","","","","","","","",""
"","response","","html-keyboard-response","194","476835","0.0-1.0-257.0-0.0","0","0","13441","","787","","","68","28","","","1","28","training","adjacent","AB","1","2","N.jpg","O.jpg","0","1","0","",""
"","feedback","","html-keyboard-response","195","477850","0.0-1.0-258.0-0.0","0","0","13441","","null","","","null","28","","","","","","","","","","","","","","","",""
"","time_out","","html-keyboard-response","196","479859","0.0-1.0-260.0-0.0","0","0","13441","","null","","","null","28","","","","","","","","","","","","","","","",""
"","ITI","","html-keyboard-response","197","480883","0.0-1.0-261.0","0","0","13441","","null","","","null","28","","","","","","","","","","","","","","","NaN",""
"","S1","","html-keyboard-response","198","481144","0.0-1.0-263.0","0","0","13441","","null","","","null","29","","","","","","","","","","","","","","","",""
"","ISI","","html-keyboard-response","199","483159","0.0-1.0-264.0","0","0","13441","","null","","","null","29","NaN","","","","","","","","","","","","","","",""
"","S2","","html-keyboard-response","200","483431","0.0-1.0-265.0","0","0","13441","","null","","","null","29","","NaN","","","","","","","","","","","","","",""
"","response","","html-keyboard-response","201","483847","0.0-1.0-266.0-0.0","0","0","13441","","407","","","75","29","","","1","29","training","adjacent","BA","2","1","O.jpg","N.jpg","1","0","0","",""
"","feedback","","html-keyboard-response","202","484857","0.0-1.0-267.0-0.0","0","0","13441","","null","","","null","29","","","","","","","","","","","","","","","",""
"","time_out","","html-keyboard-response","203","486878","0.0-1.0-269.0-0.0","0","0","13441","","null","","","null","29","","","","","","","","","","","","","","","",""
"","ITI","","html-keyboard-response","204","487894","0.0-1.0-270.0","0","0","13441","","null","","","null","29","","","","","","","","","","","","","","","NaN",""
"","S1","","html-keyboard-response","205","488148","0.0-1.0-272.0","0","0","13441","","null","","","null","30","","","","","","","","","","","","","","","",""
"","ISI","","html-keyboard-response","206","490167","0.0-1.0-273.0","0","0","13441","","null","","","null","30","NaN","","","","","","","","","","","","","","",""
"","S2","","html-keyboard-response","207","490441","0.0-1.0-274.0","0","0","13441","","null","","","null","30","","NaN","","","","","","","","","","","","","",""
"","response","","html-keyboard-response","208","490977","0.0-1.0-275.0-0.0","0","0","13441","","533","","","75","30","","","1","30","training","adjacent","GF","7","6","Q.jpg","P.jpg","1","0","0","",""
"","feedback","","html-keyboard-response","209","492002","0.0-1.0-276.0-0.0","0","0","13441","","null","","","null","30","","","","","","","","","","","","","","","",""
"","time_out","","html-keyboard-response","210","494018","0.0-1.0-278.0-0.0","0","0","13441","","null","","","null","30","","","","","","","","","","","","","","","",""
"","ITI","","html-keyboard-response","211","495024","0.0-1.0-279.0","0","0","13441","","null","","","null","30","","","","","","","","","","","","","","","NaN",""
"","S1","","html-keyboard-response","212","495283","0.0-1.0-281.0","0","0","13441","","null","","","null","31","","","","","","","","","","","","","","","",""
"","ISI","","html-keyboard-response","213","497291","0.0-1.0-282.0","0","0","13441","","614","","","75","31","k","","","","","","","","","","","","","","",""
"","S2","","html-keyboard-response","214","497545","0.0-1.0-283.0","0","0","13441","","null","","","null","31","","NaN","","","","","","","","","","","","","",""
"","response","","html-keyboard-response","215","498409","0.0-1.0-284.0-0.0","0","0","13441","","857","","","75","31","","","1","31","training","adjacent","DC","4","3","R.jpg","M.jpg","1","0","0","",""
"","feedback","","html-keyboard-response","216","499420","0.0-1.0-285.0-0.0","0","0","13441","","null","","","null","31","","","","","","","","","","","","","","","",""
"","time_out","","html-keyboard-response","217","501434","0.0-1.0-287.0-0.0","0","0","13441","","null","","","null","31","","","","","","","","","","","","","","","",""
"","ITI","","html-keyboard-response","218","502444","0.0-1.0-288.0","0","0","13441","","null","","","null","31","","","","","","","","","","","","","","","NaN",""
"","S1","","html-keyboard-response","219","502708","0.0-1.0-290.0","0","0","13441","","null","","","null","32","","","","","","","","","","","","","","","",""
"","ISI","","html-keyboard-response","220","504717","0.0-1.0-291.0","0","0","13441","","null","","","null","32","NaN","","","","","","","","","","","","","","",""
"","S2","","html-keyboard-response","221","504981","0.0-1.0-292.0","0","0","13441","","null","","","null","32","","NaN","","","","","","","","","","","","","",""
"","response","","html-keyboard-response","222","505697","0.0-1.0-293.0-0.0","0","0","13441","","710","","","75","32","","","1","32","training","adjacent","BC","2","3","O.jpg","M.jpg","1","1","1","",""
"","feedback","","html-keyboard-response","223","506714","0.0-1.0-294.0-0.0","0","0","13441","","null","","","null","32","","","","","","","","","","","","","","","",""
"","ITI","","html-keyboard-response","224","507733","0.0-1.0-297.0","0","0","13441","","null","","","null","32","","","","","","","","","","","","","","","NaN",""
"","S1","","html-keyboard-response","225","508001","0.0-1.0-299.0","0","0","13441","","null","","","null","33","","","","","","","","","","","","","","","",""
"","ISI","","html-keyboard-response","226","510005","0.0-1.0-300.0","0","0","13441","","null","","","null","33","NaN","","","","","","","","","","","","","","",""
"","S2","","html-keyboard-response","227","510259","0.0-1.0-301.0","0","0","13441","","null","","","null","33","","NaN","","","","","","","","","","","","","",""
"","response","","html-keyboard-response","228","510661","0.0-1.0-302.0-0.0","0","0","13441","","399","","","75","33","","","1","33","training","adjacent","AB","1","2","N.jpg","O.jpg","1","1","1","",""
"","feedback","","html-keyboard-response","229","511670","0.0-1.0-303.0-0.0","0","0","13441","","null","","","null","33","","","","","","","","","","","","","","","",""
"","ITI","","html-keyboard-response","230","512673","0.0-1.0-306.0","0","0","13441","","null","","","null","33","","","","","","","","","","","","","","","NaN",""
"","S1","","html-keyboard-response","231","512934","0.0-1.0-308.0","0","0","13441","","null","","","null","34","","","","","","","","","","","","","","","",""
"","ISI","","html-keyboard-response","232","514941","0.0-1.0-309.0","0","0","13441","","null","","","null","34","NaN","","","","","","","","","","","","","","",""
"","S2","","html-keyboard-response","233","515205","0.0-1.0-310.0","0","0","13441","","null","","","null","34","","NaN","","","","","","","","","","","","","",""
"","response","","html-keyboard-response","234","516140","0.0-1.0-311.0-0.0","0","0","13441","","932","","","75","34","","","1","34","training","adjacent","FG","6","7","P.jpg","Q.jpg","1","1","1","",""
"","feedback","","html-keyboard-response","235","517144","0.0-1.0-312.0-0.0","0","0","13441","","null","","","null","34","","","","","","","","","","","","","","","",""
"","ITI","","html-keyboard-response","236","518155","0.0-1.0-315.0","0","0","13441","","null","","","null","34","","","","","","","","","","","","","","","NaN",""
"","S1","","html-keyboard-response","237","518419","0.0-1.0-317.0","0","0","13441","","null","","","null","35","","","","","","","","","","","","","","","",""
"","ISI","","html-keyboard-response","238","520422","0.0-1.0-318.0","0","0","13441","","null","","","null","35","NaN","","","","","","","","","","","","","","",""
"","S2","","html-keyboard-response","239","520676","0.0-1.0-319.0","0","0","13441","","null","","","null","35","","NaN","","","","","","","","","","","","","",""
"","response","","html-keyboard-response","240","521199","0.0-1.0-320.0-0.0","0","0","13441","","521","","","75","35","","","1","35","training","adjacent","DE","4","5","R.jpg","L.jpg","1","1","1","",""
"","feedback","","html-keyboard-response","241","522213","0.0-1.0-321.0-0.0","0","0","13441","","null","","","null","35","","","","","","","","","","","","","","","",""
"","ITI","","html-keyboard-response","242","523232","0.0-1.0-324.0","0","0","13441","","null","","","null","35","","","","","","","","","","","","","","","NaN",""
"","S1","","html-keyboard-response","243","523488","0.0-1.0-326.0","0","0","13441","","null","","","null","36","","","","","","","","","","","","","","","",""
"","ISI","","html-keyboard-response","244","525501","0.0-1.0-327.0","0","0","13441","","null","","","null","36","NaN","","","","","","","","","","","","","","",""
"","S2","","html-keyboard-response","245","525756","0.0-1.0-328.0","0","0","13441","","null","","","null","36","","NaN","","","","","","","","","","","","","",""
"","response","","html-keyboard-response","246","526699","0.0-1.0-329.0-0.0","0","0","13441","","942","","","75","36","","","1","36","training","adjacent","CB","3","2","M.jpg","O.jpg","1","0","0","",""
"","feedback","","html-keyboard-response","247","527711","0.0-1.0-330.0-0.0","0","0","13441","","null","","","null","36","","","","","","","","","","","","","","","",""
"","time_out","","html-keyboard-response","248","529717","0.0-1.0-332.0-0.0","0","0","13441","","null","","","null","36","","","","","","","","","","","","","","","",""
"","ITI","","html-keyboard-response","249","530744","0.0-1.0-333.0","0","0","13441","","null","","","null","36","","","","","","","","","","","","","","","NaN",""
"","S1","","html-keyboard-response","250","531006","0.0-1.0-335.0","0","0","13441","","null","","","null","37","","","","","","","","","","","","","","","",""
"","ISI","","html-keyboard-response","251","533014","0.0-1.0-336.0","0","0","13441","","571","","","75","37","k","","","","","","","","","","","","","","",""
"","S2","","html-keyboard-response","252","533271","0.0-1.0-337.0","0","0","13441","","null","","","null","37","","NaN","","","","","","","","","","","","","",""
"","response","","html-keyboard-response","253","534870","0.0-1.0-338.0-0.0","0","0","13441","","1589","","","75","37","","","1","37","training","adjacent","GF","7","6","Q.jpg","P.jpg","1","0","0","",""
"","feedback","","html-keyboard-response","254","535880","0.0-1.0-339.0-0.0","0","0","13441","","null","","","null","37","","","","","","","","","","","","","","","",""
"","time_out","","html-keyboard-response","255","537896","0.0-1.0-341.0-0.0","0","0","13441","","null","","","null","37","","","","","","","","","","","","","","","",""
"","ITI","","html-keyboard-response","256","538902","0.0-1.0-342.0","0","0","13441","","null","","","null","37","","","","","","","","","","","","","","","NaN",""
"","S1","","html-keyboard-response","257","539175","0.0-1.0-344.0","0","0","13441","","null","","","null","38","","","","","","","","","","","","","","","",""
"","ISI","","html-keyboard-response","258","541186","0.0-1.0-345.0","0","0","13441","","null","","","null","38","NaN","","","","","","","","","","","","","","",""
"","S2","","html-keyboard-response","259","541451","0.0-1.0-346.0","0","0","13441","","null","","","null","38","","NaN","","","","","","","","","","","","","",""
"","response","","html-keyboard-response","260","542271","0.0-1.0-347.0-0.0","0","0","13441","","816","","","75","38","","","1","38","training","adjacent","CD","3","4","M.jpg","R.jpg","1","1","1","",""
"","feedback","","html-keyboard-response","261","543275","0.0-1.0-348.0-0.0","0","0","13441","","null","","","null","38","","","","","","","","","","","","","","","",""
"","ITI","","html-keyboard-response","262","544285","0.0-1.0-351.0","0","0","13441","","null","","","null","38","","","","","","","","","","","","","","","NaN",""
"","S1","","html-keyboard-response","263","544550","0.0-1.0-353.0","0","0","13441","","null","","","null","39","","","","","","","","","","","","","","","",""
"","ISI","","html-keyboard-response","264","546561","0.0-1.0-354.0","0","0","13441","","null","","","null","39","NaN","","","","","","","","","","","","","","",""
"","S2","","html-keyboard-response","265","546829","0.0-1.0-355.0","0","0","13441","","null","","","null","39","","NaN","","","","","","","","","","","","","",""
"","response","","html-keyboard-response","266","547414","0.0-1.0-356.0-0.0","0","0","13441","","580","","","75","39","","","1","39","training","adjacent","EF","5","6","L.jpg","P.jpg","1","1","1","",""
"","feedback","","html-keyboard-response","267","548433","0.0-1.0-357.0-0.0","0","0","13441","","null","","","null","39","","","","","","","","","","","","","","","",""
"","ITI","","html-keyboard-response","268","549439","0.0-1.0-360.0","0","0","13441","","null","","","null","39","","","","","","","","","","","","","","","NaN",""
"","S1","","html-keyboard-response","269","549696","0.0-1.0-362.0","0","0","13441","","null","","","null","40","","","","","","","","","","","","","","","",""
"","ISI","","html-keyboard-response","270","551713","0.0-1.0-363.0","0","0","13441","","null","","","null","40","NaN","","","","","","","","","","","","","","",""
"","S2","","html-keyboard-response","271","551980","0.0-1.0-364.0","0","0","13441","","null","","","null","40","","NaN","","","","","","","","","","","","","",""
"","response","","html-keyboard-response","272","553274","0.0-1.0-365.0-0.0","0","0","13441","","1287","","","75","40","","","1","40","training","adjacent","EF","5","6","L.jpg","P.jpg","1","1","1","",""
"","feedback","","html-keyboard-response","273","554287","0.0-1.0-366.0-0.0","0","0","13441","","null","","","null","40","","","","","","","","","","","","","","","",""
"","ITI","","html-keyboard-response","274","555305","0.0-1.0-369.0","0","0","13441","","null","","","null","40","","","","","","","","","","","","","","","NaN",""
"","S1","","html-keyboard-response","275","555559","0.0-1.0-371.0","0","0","13441","","null","","","null","41","","","","","","","","","","","","","","","",""
"","ISI","","html-keyboard-response","276","557569","0.0-1.0-372.0","0","0","13441","","null","","","null","41","NaN","","","","","","","","","","","","","","",""
"","S2","","html-keyboard-response","277","557830","0.0-1.0-373.0","0","0","13441","","null","","","null","41","","NaN","","","","","","","","","","","","","",""
"","response","","html-keyboard-response","278","559108","0.0-1.0-374.0-0.0","0","0","13441","","1270","","","75","41","","","1","41","training","adjacent","ED","5","4","L.jpg","R.jpg","1","0","0","",""
"","feedback","","html-keyboard-response","279","560120","0.0-1.0-375.0-0.0","0","0","13441","","null","","","null","41","","","","","","","","","","","","","","","",""
"","time_out","","html-keyboard-response","280","562127","0.0-1.0-377.0-0.0","0","0","13441","","null","","","null","41","","","","","","","","","","","","","","","",""
"","ITI","","html-keyboard-response","281","563140","0.0-1.0-378.0","0","0","13441","","null","","","null","41","","","","","","","","","","","","","","","NaN",""
"","S1","","html-keyboard-response","282","563404","0.0-1.0-380.0","0","0","13441","","null","","","null","42","","","","","","","","","","","","","","","",""
"","ISI","","html-keyboard-response","283","565420","0.0-1.0-381.0","0","0","13441","","null","","","null","42","NaN","","","","","","","","","","","","","","",""
"","S2","","html-keyboard-response","284","565688","0.0-1.0-382.0","0","0","13441","","null","","","null","42","","NaN","","","","","","","","","","","","","",""
"","response","","html-keyboard-response","285","566416","0.0-1.0-383.0-0.0","0","0","13441","","725","","","75","42","","","1","42","training","adjacent","BC","2","3","O.jpg","M.jpg","1","1","1","",""
"","feedback","","html-keyboard-response","286","567425","0.0-1.0-384.0-0.0","0","0","13441","","null","","","null","42","","","","","","","","","","","","","","","",""
"","ITI","","html-keyboard-response","287","568444","0.0-1.0-387.0","0","0","13441","","null","","","null","42","","","","","","","","","","","","","","","NaN",""
"","S1","","html-keyboard-response","288","568699","0.0-1.0-389.0","0","0","13441","","null","","","null","43","","","","","","","","","","","","","","","",""
"","ISI","","html-keyboard-response","289","570715","0.0-1.0-390.0","0","0","13441","","null","","","null","43","NaN","","","","","","","","","","","","","","",""
"","S2","","html-keyboard-response","290","570977","0.0-1.0-391.0","0","0","13441","","null","","","null","43","","NaN","","","","","","","","","","","","","",""
"","response","","html-keyboard-response","291","571848","0.0-1.0-392.0-0.0","0","0","13441","","867","","","75","43","","","1","43","training","adjacent","CD","3","4","M.jpg","R.jpg","1","1","1","",""
"","feedback","","html-keyboard-response","292","572854","0.0-1.0-393.0-0.0","0","0","13441","","null","","","null","43","","","","","","","","","","","","","","","",""
"","ITI","","html-keyboard-response","293","573858","0.0-1.0-396.0","0","0","13441","","null","","","null","43","","","","","","","","","","","","","","","NaN",""
"","S1","","html-keyboard-response","294","574121","0.0-1.0-398.0","0","0","13441","","null","","","null","44","","","","","","","","","","","","","","","",""
"","ISI","","html-keyboard-response","295","576133","0.0-1.0-399.0","0","0","13441","","null","","","null","44","NaN","","","","","","","","","","","","","","",""
"","S2","","html-keyboard-response","296","576408","0.0-1.0-400.0","0","0","13441","","null","","","null","44","","NaN","","","","","","","","","","","","","",""
"","response","","html-keyboard-response","297","578167","0.0-1.0-401.0-0.0","0","0","13441","","null","","","null","44","","","1","44","training","adjacent","AB","1","2","N.jpg","O.jpg","NaN","1","0","",""
"","too_slow_prompt","","html-keyboard-response","298","579176","0.0-1.0-403.0-0.0","1","0","13441","","null","","","null","","","","","","","","","","","","","","","","",""
"","time_out","","html-keyboard-response","299","581182","0.0-1.0-404.0-0.0","0","0","13441","","null","","","null","44","","","","","","","","","","","","","","","",""
"","ITI","","html-keyboard-response","300","582188","0.0-1.0-405.0","0","0","13441","","null","","","null","44","","","","","","","","","","","","","","","NaN",""
"","S1","","html-keyboard-response","301","582444","0.0-1.0-407.0","0","0","13441","","null","","","null","45","","","","","","","","","","","","","","","",""
"","ISI","","html-keyboard-response","302","584469","0.0-1.0-408.0","0","0","13441","","null","","","null","45","NaN","","","","","","","","","","","","","","",""
"","S2","","html-keyboard-response","303","584729","0.0-1.0-409.0","0","0","13441","","null","","","null","45","","NaN","","","","","","","","","","","","","",""
"","response","","html-keyboard-response","304","585606","0.0-1.0-410.0-0.0","0","0","13441","","873","","","75","45","","","1","45","training","adjacent","FG","6","7","P.jpg","Q.jpg","1","1","1","",""
"","feedback","","html-keyboard-response","305","586613","0.0-1.0-411.0-0.0","0","0","13441","","null","","","null","45","","","","","","","","","","","","","","","",""
"","ITI","","html-keyboard-response","306","587630","0.0-1.0-414.0","0","0","13441","","null","","","null","45","","","","","","","","","","","","","","","NaN",""
"","S1","","html-keyboard-response","307","587897","0.0-1.0-416.0","0","0","13441","","null","","","null","46","","","","","","","","","","","","","","","",""
"","ISI","","html-keyboard-response","308","589902","0.0-1.0-417.0","0","0","13441","","null","","","null","46","NaN","","","","","","","","","","","","","","",""
"","S2","","html-keyboard-response","309","590158","0.0-1.0-418.0","0","0","13441","","null","","","null","46","","NaN","","","","","","","","","","","","","",""
"","response","","html-keyboard-response","310","590939","0.0-1.0-419.0-0.0","0","0","13441","","779","","","75","46","","","1","46","training","adjacent","CD","3","4","M.jpg","R.jpg","1","1","1","",""
"","feedback","","html-keyboard-response","311","591949","0.0-1.0-420.0-0.0","0","0","13441","","null","","","null","46","","","","","","","","","","","","","","","",""
"","ITI","","html-keyboard-response","312","592967","0.0-1.0-423.0","0","0","13441","","null","","","null","46","","","","","","","","","","","","","","","NaN",""
"","S1","","html-keyboard-response","313","593235","0.0-1.0-425.0","0","0","13441","","null","","","null","47","","","","","","","","","","","","","","","",""
"","ISI","","html-keyboard-response","314","595252","0.0-1.0-426.0","0","0","13441","","null","","","null","47","NaN","","","","","","","","","","","","","","",""
"","S2","","html-keyboard-response","315","595269","0.0-1.0-427.0","0","0","13441","","9","","","75","47","","k","1","47","training","adjacent","CD","3","4","M.jpg","R.jpg","1","1","1","",""
"","feedback","","html-keyboard-response","316","596280","0.0-1.0-429.0-0.0","0","0","13441","","null","","","null","47","","","","","","","","","","","","","","","",""
"","ITI","","html-keyboard-response","317","597287","0.0-1.0-432.0","0","0","13441","","null","","","null","47","","","","","","","","","","","","","","","NaN",""
"","block_over","","html-keyboard-response","318","734278","0.0-1.0-433.0-0.0","0","0","13441","","136981","","","32","47","","","","","","","","","","","","","","","",""
"","S1","","html-keyboard-response","319","734536","0.0-1.0-434.0","0","0","13441","","null","","","null","48","","","","","","","","","","","","","","","",""
"","ISI","","html-keyboard-response","320","736555","0.0-1.0-435.0","0","0","13441","","null","","","null","48","NaN","","","","","","","","","","","","","","",""
"","S2","","html-keyboard-response","321","736811","0.0-1.0-436.0","0","0","13441","","null","","","null","48","","NaN","","","","","","","","","","","","","",""
"","response","","html-keyboard-response","322","737359","0.0-1.0-437.0-0.0","0","0","13441","","540","","","75","48","","","2","48","training","adjacent","AB","1","2","N.jpg","O.jpg","1","1","1","",""
"","feedback","","html-keyboard-response","323","738377","0.0-1.0-438.0-0.0","0","0","13441","","null","","","null","48","","","","","","","","","","","","","","","",""
"","ITI","","html-keyboard-response","324","739380","0.0-1.0-441.0","0","0","13441","","null","","","null","48","","","","","","","","","","","","","","","NaN",""
"","S1","","html-keyboard-response","325","739644","0.0-1.0-443.0","0","0","13441","","null","","","null","49","","","","","","","","","","","","","","","",""
"","ISI","","html-keyboard-response","326","741660","0.0-1.0-444.0","0","0","13441","","null","","","null","49","NaN","","","","","","","","","","","","","","",""
"","S2","","html-keyboard-response","327","741921","0.0-1.0-445.0","0","0","13441","","null","","","null","49","","NaN","","","","","","","","","","","","","",""
"","response","","html-keyboard-response","328","742465","0.0-1.0-446.0-0.0","0","0","13441","","535","","","75","49","","","2","49","training","adjacent","EF","5","6","L.jpg","P.jpg","1","1","1","",""
"","feedback","","html-keyboard-response","329","743470","0.0-1.0-447.0-0.0","0","0","13441","","null","","","null","49","","","","","","","","","","","","","","","",""
"","ITI","","html-keyboard-response","330","744487","0.0-1.0-450.0","0","0","13441","","null","","","null","49","","","","","","","","","","","","","","","NaN",""
"","S1","","html-keyboard-response","331","744752","0.0-1.0-452.0","0","0","13441","","null","","","null","50","","","","","","","","","","","","","","","",""
"","ISI","","html-keyboard-response","332","746767","0.0-1.0-453.0","0","0","13441","","null","","","null","50","NaN","","","","","","","","","","","","","","",""
"","S2","","html-keyboard-response","333","747021","0.0-1.0-454.0","0","0","13441","","null","","","null","50","","NaN","","","","","","","","","","","","","",""
"","response","","html-keyboard-response","334","748121","0.0-1.0-455.0-0.0","0","0","13441","","1095","","","75","50","","","2","50","training","adjacent","GF","7","6","Q.jpg","P.jpg","1","0","0","",""
"","feedback","","html-keyboard-response","335","749140","0.0-1.0-456.0-0.0","0","0","13441","","null","","","null","50","","","","","","","","","","","","","","","",""
"","time_out","","html-keyboard-response","336","751155","0.0-1.0-458.0-0.0","0","0","13441","","null","","","null","50","","","","","","","","","","","","","","","",""
"","ITI","","html-keyboard-response","337","752163","0.0-1.0-459.0","0","0","13441","","null","","","null","50","","","","","","","","","","","","","","","NaN",""
"","S1","","html-keyboard-response","338","752426","0.0-1.0-461.0","0","0","13441","","null","","","null","51","","","","","","","","","","","","","","","",""
"","ISI","","html-keyboard-response","339","754440","0.0-1.0-462.0","0","0","13441","","null","","","null","51","NaN","","","","","","","","","","","","","","",""
"","S2","","html-keyboard-response","340","754699","0.0-1.0-463.0","0","0","13441","","null","","","null","51","","NaN","","","","","","","","","","","","","",""
"","response","","html-keyboard-response","341","755159","0.0-1.0-464.0-0.0","0","0","13441","","457","","","75","51","","","2","51","training","adjacent","FG","6","7","P.jpg","Q.jpg","1","1","1","",""
"","feedback","","html-keyboard-response","342","756171","0.0-1.0-465.0-0.0","0","0","13441","","null","","","null","51","","","","","","","","","","","","","","","",""
"","ITI","","html-keyboard-response","343","757183","0.0-1.0-468.0","0","0","13441","","null","","","null","51","","","","","","","","","","","","","","","NaN",""
"","S1","","html-keyboard-response","344","757437","0.0-1.0-470.0","0","0","13441","","null","","","null","52","","","","","","","","","","","","","","","",""
"","ISI","","html-keyboard-response","345","759442","0.0-1.0-471.0","0","0","13441","","null","","","null","52","NaN","","","","","","","","","","","","","","",""
"","S2","","html-keyboard-response","346","759695","0.0-1.0-472.0","0","0","13441","","null","","","null","52","","NaN","","","","","","","","","","","","","",""
"","response","","html-keyboard-response","347","761459","0.0-1.0-473.0-0.0","0","0","13441","","null","","","null","52","","","2","52","training","adjacent","AB","1","2","N.jpg","O.jpg","NaN","1","0","",""
"","too_slow_prompt","","html-keyboard-response","348","762473","0.0-1.0-475.0-0.0","1","0","13441","","null","","","null","","","","","","","","","","","","","","","","",""
"","time_out","","html-keyboard-response","349","764485","0.0-1.0-476.0-0.0","0","0","13441","","null","","","null","52","","","","","","","","","","","","","","","",""
"","ITI","","html-keyboard-response","350","765488","0.0-1.0-477.0","0","0","13441","","null","","","null","52","","","","","","","","","","","","","","","NaN",""
"","S1","","html-keyboard-response","351","765743","0.0-1.0-479.0","0","0","13441","","null","","","null","53","","","","","","","","","","","","","","","",""
"","ISI","","html-keyboard-response","352","767748","0.0-1.0-480.0","0","0","13441","","null","","","null","53","NaN","","","","","","","","","","","","","","",""
"","S2","","html-keyboard-response","353","768018","0.0-1.0-481.0","0","0","13441","","null","","","null","53","","NaN","","","","","","","","","","","","","",""
"","response","","html-keyboard-response","354","769441","0.0-1.0-482.0-0.0","0","0","13441","","1418","","","75","53","","","2","53","training","adjacent","FG","6","7","P.jpg","Q.jpg","1","1","1","",""
"","feedback","","html-keyboard-response","355","770455","0.0-1.0-483.0-0.0","0","0","13441","","null","","","null","53","","","","","","","","","","","","","","","",""
"","ITI","","html-keyboard-response","356","771473","0.0-1.0-486.0","0","0","13441","","null","","","null","53","","","","","","","","","","","","","","","NaN",""
"","S1","","html-keyboard-response","357","771742","0.0-1.0-488.0","0","0","13441","","null","","","null","54","","","","","","","","","","","","","","","",""
"","ISI","","html-keyboard-response","358","773748","0.0-1.0-489.0","0","0","13441","","null","","","null","54","NaN","","","","","","","","","","","","","","",""
"","S2","","html-keyboard-response","359","774010","0.0-1.0-490.0","0","0","13441","","null","","","null","54","","NaN","","","","","","","","","","","","","",""
"","response","","html-keyboard-response","360","775191","0.0-1.0-491.0-0.0","0","0","13441","","1177","","","75","54","","","2","54","training","adjacent","CD","3","4","M.jpg","R.jpg","1","1","1","",""
"","feedback","","html-keyboard-response","361","776207","0.0-1.0-492.0-0.0","0","0","13441","","null","","","null","54","","","","","","","","","","","","","","","",""
"","ITI","","html-keyboard-response","362","777224","0.0-1.0-495.0","0","0","13441","","null","","","null","54","","","","","","","","","","","","","","","NaN",""
"","S1","","html-keyboard-response","363","777478","0.0-1.0-497.0","0","0","13441","","null","","","null","55","","","","","","","","","","","","","","","",""
"","ISI","","html-keyboard-response","364","779485","0.0-1.0-498.0","0","0","13441","","1800","","","75","55","k","","","","","","","","","","","","","","",""
"","S2","","html-keyboard-response","365","779738","0.0-1.0-499.0","0","0","13441","","null","","","null","55","","NaN","","","","","","","","","","","","","",""
"","response","","html-keyboard-response","366","780522","0.0-1.0-500.0-0.0","0","0","13441","","783","","","75","55","","","2","55","training","adjacent","CD","3","4","M.jpg","R.jpg","1","1","1","",""
"","feedback","","html-keyboard-response","367","781529","0.0-1.0-501.0-0.0","0","0","13441","","null","","","null","55","","","","","","","","","","","","","","","",""
"","ITI","","html-keyboard-response","368","782541","0.0-1.0-504.0","0","0","13441","","null","","","null","55","","","","","","","","","","","","","","","NaN",""
"","S1","","html-keyboard-response","369","782806","0.0-1.0-506.0","0","0","13441","","null","","","null","56","","","","","","","","","","","","","","","",""
"","ISI","","html-keyboard-response","370","784818","0.0-1.0-507.0","0","0","13441","","null","","","null","56","NaN","","","","","","","","","","","","","","",""
"","S2","","html-keyboard-response","371","785084","0.0-1.0-508.0","0","0","13441","","null","","","null","56","","NaN","","","","","","","","","","","","","",""
"","response","","html-keyboard-response","372","786843","0.0-1.0-509.0-0.0","0","0","13441","","null","","","null","56","","","2","56","training","adjacent","DC","4","3","R.jpg","M.jpg","NaN","0","0","",""
"","too_slow_prompt","","html-keyboard-response","373","787859","0.0-1.0-511.0-0.0","1","0","13441","","null","","","null","","","","","","","","","","","","","","","","",""
"","time_out","","html-keyboard-response","374","789872","0.0-1.0-512.0-0.0","0","0","13441","","null","","","null","56","","","","","","","","","","","","","","","",""
"","ITI","","html-keyboard-response","375","790887","0.0-1.0-513.0","0","0","13441","","null","","","null","56","","","","","","","","","","","","","","","NaN",""
"","S1","","html-keyboard-response","376","791160","0.0-1.0-515.0","0","0","13441","","null","","","null","57","","","","","","","","","","","","","","","",""
"","ISI","","html-keyboard-response","377","793176","0.0-1.0-516.0","0","0","13441","","null","","","null","57","NaN","","","","","","","","","","","","","","",""
"","S2","","html-keyboard-response","378","793433","0.0-1.0-517.0","0","0","13441","","null","","","null","57","","NaN","","","","","","","","","","","","","",""
"","response","","html-keyboard-response","379","794259","0.0-1.0-518.0-0.0","0","0","13441","","822","","","75","57","","","2","57","training","adjacent","BA","2","1","O.jpg","N.jpg","1","0","0","",""
"","feedback","","html-keyboard-response","380","795278","0.0-1.0-519.0-0.0","0","0","13441","","null","","","null","57","","","","","","","","","","","","","","","",""
"","time_out","","html-keyboard-response","381","797287","0.0-1.0-521.0-0.0","0","0","13441","","null","","","null","57","","","","","","","","","","","","","","","",""
"","ITI","","html-keyboard-response","382","798289","0.0-1.0-522.0","0","0","13441","","null","","","null","57","","","","","","","","","","","","","","","NaN",""
"","S1","","html-keyboard-response","383","798555","0.0-1.0-524.0","0","0","13441","","null","","","null","58","","","","","","","","","","","","","","","",""
"","ISI","","html-keyboard-response","384","800573","0.0-1.0-525.0","0","0","13441","","null","","","null","58","NaN","","","","","","","","","","","","","","",""
"","S2","","html-keyboard-response","385","800841","0.0-1.0-526.0","0","0","13441","","null","","","null","58","","NaN","","","","","","","","","","","","","",""
"","response","","html-keyboard-response","386","802068","0.0-1.0-527.0-0.0","0","0","13441","","1224","","","75","58","","","2","58","training","adjacent","EF","5","6","L.jpg","P.jpg","1","1","1","",""
"","feedback","","html-keyboard-response","387","803083","0.0-1.0-528.0-0.0","0","0","13441","","null","","","null","58","","","","","","","","","","","","","","","",""
"","ITI","","html-keyboard-response","388","804100","0.0-1.0-531.0","0","0","13441","","null","","","null","58","","","","","","","","","","","","","","","NaN",""
"","S1","","html-keyboard-response","389","804354","0.0-1.0-533.0","0","0","13441","","null","","","null","59","","","","","","","","","","","","","","","",""
"","ISI","","html-keyboard-response","390","806368","0.0-1.0-534.0","0","0","13441","","null","","","null","59","NaN","","","","","","","","","","","","","","",""
"","S2","","html-keyboard-response","391","806632","0.0-1.0-535.0","0","0","13441","","null","","","null","59","","NaN","","","","","","","","","","","","","",""
"","response","","html-keyboard-response","392","807083","0.0-1.0-536.0-0.0","0","0","13441","","446","","","75","59","","","2","59","training","adjacent","FE","6","5","P.jpg","L.jpg","1","0","0","",""
"","feedback","","html-keyboard-response","393","808097","0.0-1.0-537.0-0.0","0","0","13441","","null","","","null","59","","","","","","","","","","","","","","","",""
"","time_out","","html-keyboard-response","394","810117","0.0-1.0-539.0-0.0","0","0","13441","","null","","","null","59","","","","","","","","","","","","","","","",""
"","ITI","","html-keyboard-response","395","811135","0.0-1.0-540.0","0","0","13441","","null","","","null","59","","","","","","","","","","","","","","","NaN",""
"","S1","","html-keyboard-response","396","811398","0.0-1.0-542.0","0","0","13441","","null","","","null","60","","","","","","","","","","","","","","","",""
"","ISI","","html-keyboard-response","397","813408","0.0-1.0-543.0","0","0","13441","","719","","","75","60","k","","","","","","","","","","","","","","",""
"","S2","","html-keyboard-response","398","813670","0.0-1.0-544.0","0","0","13441","","null","","","null","60","","NaN","","","","","","","","","","","","","",""
"","response","","html-keyboard-response","399","814129","0.0-1.0-545.0-0.0","0","0","13441","","457","","","75","60","","","2","60","training","adjacent","DE","4","5","R.jpg","L.jpg","1","1","1","",""
"","feedback","","html-keyboard-response","400","815144","0.0-1.0-546.0-0.0","0","0","13441","","null","","","null","60","","","","","","","","","","","","","","","",""
"","ITI","","html-keyboard-response","401","816148","0.0-1.0-549.0","0","0","13441","","null","","","null","60","","","","","","","","","","","","","","","NaN",""
"","S1","","html-keyboard-response","402","816418","0.0-1.0-551.0","0","0","13441","","null","","","null","61","","","","","","","","","","","","","","","",""
"","ISI","","html-keyboard-response","403","818430","0.0-1.0-552.0","0","0","13441","","null","","","null","61","NaN","","","","","","","","","","","","","","",""
"","S2","","html-keyboard-response","404","818692","0.0-1.0-553.0","0","0","13441","","null","","","null","61","","NaN","","","","","","","","","","","","","",""
"","response","","html-keyboard-response","405","820466","0.0-1.0-554.0-0.0","0","0","13441","","null","","","null","61","","","2","61","training","adjacent","FG","6","7","P.jpg","Q.jpg","NaN","1","0","",""
"","too_slow_prompt","","html-keyboard-response","406","821471","0.0-1.0-556.0-0.0","1","0","13441","","null","","","null","","","","","","","","","","","","","","","","",""
"","time_out","","html-keyboard-response","407","823478","0.0-1.0-557.0-0.0","0","0","13441","","null","","","null","61","","","","","","","","","","","","","","","",""
"","ITI","","html-keyboard-response","408","824497","0.0-1.0-558.0","0","0","13441","","null","","","null","61","","","","","","","","","","","","","","","NaN",""
"","S1","","html-keyboard-response","409","824758","0.0-1.0-560.0","0","0","13441","","null","","","null","62","","","","","","","","","","","","","","","",""
"","ISI","","html-keyboard-response","410","826764","0.0-1.0-561.0","0","0","13441","","null","","","null","62","NaN","","","","","","","","","","","","","","",""
"","S2","","html-keyboard-response","411","827024","0.0-1.0-562.0","0","0","13441","","null","","","null","62","","NaN","","","","","","","","","","","","","",""
"","response","","html-keyboard-response","412","827972","0.0-1.0-563.0-0.0","0","0","13441","","944","","","75","62","","","2","62","training","adjacent","BC","2","3","O.jpg","M.jpg","1","1","1","",""
"","feedback","","html-keyboard-response","413","828983","0.0-1.0-564.0-0.0","0","0","13441","","null","","","null","62","","","","","","","","","","","","","","","",""
"","ITI","","html-keyboard-response","414","830011","0.0-1.0-567.0","0","0","13441","","null","","","null","62","","","","","","","","","","","","","","","NaN",""
"","S1","","html-keyboard-response","415","830271","0.0-1.0-569.0","0","0","13441","","null","","","null","63","","","","","","","","","","","","","","","",""
"","ISI","","html-keyboard-response","416","832280","0.0-1.0-570.0","0","0","13441","","null","","","null","63","NaN","","","","","","","","","","","","","","",""
"","S2","","html-keyboard-response","417","832537","0.0-1.0-571.0","0","0","13441","","null","","","null","63","","NaN","","","","","","","","","","","","","",""
"","response","","html-keyboard-response","418","833020","0.0-1.0-572.0-0.0","0","0","13441","","480","","","75","63","","","2","63","training","adjacent","CB","3","2","M.jpg","O.jpg","1","0","0","",""
"","feedback","","html-keyboard-response","419","834029","0.0-1.0-573.0-0.0","0","0","13441","","null","","","null","63","","","","","","","","","","","","","","","",""
"","time_out","","html-keyboard-response","420","836037","0.0-1.0-575.0-0.0","0","0","13441","","null","","","null","63","","","","","","","","","","","","","","","",""
"","ITI","","html-keyboard-response","421","837039","0.0-1.0-576.0","0","0","13441","","null","","","null","63","","","","","","","","","","","","","","","NaN",""
"","S1","","html-keyboard-response","422","837303","0.0-1.0-578.0","0","0","13441","","null","","","null","64","","","","","","","","","","","","","","","",""
"","ISI","","html-keyboard-response","423","839314","0.0-1.0-579.0","0","0","13441","","null","","","null","64","NaN","","","","","","","","","","","","","","",""
"","S2","","html-keyboard-response","424","839581","0.0-1.0-580.0","0","0","13441","","null","","","null","64","","NaN","","","","","","","","","","","","","",""
"","response","","html-keyboard-response","425","840091","0.0-1.0-581.0-0.0","0","0","13441","","485","","","75","64","","","2","64","training","adjacent","BC","2","3","O.jpg","M.jpg","1","1","1","",""
"","feedback","","html-keyboard-response","426","841106","0.0-1.0-582.0-0.0","0","0","13441","","null","","","null","64","","","","","","","","","","","","","","","",""
"","ITI","","html-keyboard-response","427","842123","0.0-1.0-585.0","0","0","13441","","null","","","null","64","","","","","","","","","","","","","","","NaN",""
"","S1","","html-keyboard-response","428","842377","0.0-1.0-587.0","0","0","13441","","null","","","null","65","","","","","","","","","","","","","","","",""
"","ISI","","html-keyboard-response","429","844396","0.0-1.0-588.0","0","0","13441","","null","","","null","65","NaN","","","","","","","","","","","","","","",""
"","S2","","html-keyboard-response","430","844665","0.0-1.0-589.0","0","0","13441","","null","","","null","65","","NaN","","","","","","","","","","","","","",""
"","response","","html-keyboard-response","431","845489","0.0-1.0-590.0-0.0","0","0","13441","","821","","","75","65","","","2","65","training","adjacent","GF","7","6","Q.jpg","P.jpg","1","0","0","",""
"","feedback","","html-keyboard-response","432","846502","0.0-1.0-591.0-0.0","0","0","13441","","null","","","null","65","","","","","","","","","","","","","","","",""
"","time_out","","html-keyboard-response","433","848515","0.0-1.0-593.0-0.0","0","0","13441","","null","","","null","65","","","","","","","","","","","","","","","",""
"","ITI","","html-keyboard-response","434","849532","0.0-1.0-594.0","0","0","13441","","null","","","null","65","","","","","","","","","","","","","","","NaN",""
"","S1","","html-keyboard-response","435","849802","0.0-1.0-596.0","0","0","13441","","null","","","null","66","","","","","","","","","","","","","","","",""
"","ISI","","html-keyboard-response","436","851805","0.0-1.0-597.0","0","0","13441","","null","","","null","66","NaN","","","","","","","","","","","","","","",""
"","S2","","html-keyboard-response","437","852067","0.0-1.0-598.0","0","0","13441","","null","","","null","66","","NaN","","","","","","","","","","","","","",""
"","response","","html-keyboard-response","438","852867","0.0-1.0-599.0-0.0","0","0","13441","","789","","","75","66","","","2","66","training","adjacent","CB","3","2","M.jpg","O.jpg","1","0","0","",""
"","feedback","","html-keyboard-response","439","853890","0.0-1.0-600.0-0.0","0","0","13441","","null","","","null","66","","","","","","","","","","","","","","","",""
"","time_out","","html-keyboard-response","440","855901","0.0-1.0-602.0-0.0","0","0","13441","","null","","","null","66","","","","","","","","","","","","","","","",""
"","ITI","","html-keyboard-response","441","856918","0.0-1.0-603.0","0","0","13441","","null","","","null","66","","","","","","","","","","","","","","","NaN",""
"","S1","","html-keyboard-response","442","857172","0.0-1.0-605.0","0","0","13441","","null","","","null","67","","","","","","","","","","","","","","","",""
"","ISI","","html-keyboard-response","443","859179","0.0-1.0-606.0","0","0","13441","","null","","","null","67","NaN","","","","","","","","","","","","","","",""
"","S2","","html-keyboard-response","444","859441","0.0-1.0-607.0","0","0","13441","","null","","","null","67","","NaN","","","","","","","","","","","","","",""
"","response","","html-keyboard-response","445","860225","0.0-1.0-608.0-0.0","0","0","13441","","780","","","75","67","","","2","67","training","adjacent","ED","5","4","L.jpg","R.jpg","1","0","0","",""
"","feedback","","html-keyboard-response","446","861238","0.0-1.0-609.0-0.0","0","0","13441","","null","","","null","67","","","","","","","","","","","","","","","",""
"","time_out","","html-keyboard-response","447","863256","0.0-1.0-611.0-0.0","0","0","13441","","null","","","null","67","","","","","","","","","","","","","","","",""
"","ITI","","html-keyboard-response","448","864275","0.0-1.0-612.0","0","0","13441","","null","","","null","67","","","","","","","","","","","","","","","NaN",""
"","S1","","html-keyboard-response","449","864539","0.0-1.0-614.0","0","0","13441","","null","","","null","68","","","","","","","","","","","","","","","",""
"","ISI","","html-keyboard-response","450","866547","0.0-1.0-615.0","0","0","13441","","1807","","","75","68","k","","","","","","","","","","","","","","",""
"","S2","","html-keyboard-response","451","866806","0.0-1.0-616.0","0","0","13441","","null","","","null","68","","NaN","","","","","","","","","","","","","",""
"","response","","html-keyboard-response","452","867698","0.0-1.0-617.0-0.0","0","0","13441","","891","","","75","68","","","2","68","training","adjacent","AB","1","2","N.jpg","O.jpg","1","1","1","",""
"","feedback","","html-keyboard-response","453","868730","0.0-1.0-618.0-0.0","0","0","13441","","null","","","null","68","","","","","","","","","","","","","","","",""
"","ITI","","html-keyboard-response","454","869748","0.0-1.0-621.0","0","0","13441","","null","","","null","68","","","","","","","","","","","","","","","NaN",""
"","S1","","html-keyboard-response","455","870002","0.0-1.0-623.0","0","0","13441","","null","","","null","69","","","","","","","","","","","","","","","",""
"","ISI","","html-keyboard-response","456","872020","0.0-1.0-624.0","0","0","13441","","null","","","null","69","NaN","","","","","","","","","","","","","","",""
"","S2","","html-keyboard-response","457","872289","0.0-1.0-625.0","0","0","13441","","null","","","null","69","","NaN","","","","","","","","","","","","","",""
"","response","","html-keyboard-response","458","873837","0.0-1.0-626.0-0.0","0","0","13441","","1545","","","75","69","","","2","69","training","adjacent","FG","6","7","P.jpg","Q.jpg","1","1","1","",""
"","feedback","","html-keyboard-response","459","874849","0.0-1.0-627.0-0.0","0","0","13441","","null","","","null","69","","","","","","","","","","","","","","","",""
"","ITI","","html-keyboard-response","460","875860","0.0-1.0-630.0","0","0","13441","","null","","","null","69","","","","","","","","","","","","","","","NaN",""
"","S1","","html-keyboard-response","461","876132","0.0-1.0-632.0","0","0","13441","","null","","","null","70","","","","","","","","","","","","","","","",""
"","ISI","","html-keyboard-response","462","878152","0.0-1.0-633.0","0","0","13441","","null","","","null","70","NaN","","","","","","","","","","","","","","",""
"","S2","","html-keyboard-response","463","878421","0.0-1.0-634.0","0","0","13441","","null","","","null","70","","NaN","","","","","","","","","","","","","",""
"","response","","html-keyboard-response","464","880181","0.0-1.0-635.0-0.0","0","0","13441","","null","","","null","70","","","2","70","training","adjacent","FE","6","5","P.jpg","L.jpg","NaN","0","0","",""
"","too_slow_prompt","","html-keyboard-response","465","881206","0.0-1.0-637.0-0.0","1","0","13441","","null","","","null","","","","","","","","","","","","","","","","",""
"","time_out","","html-keyboard-response","466","883223","0.0-1.0-638.0-0.0","0","0","13441","","null","","","null","70","","","","","","","","","","","","","","","",""
"","ITI","","html-keyboard-response","467","884234","0.0-1.0-639.0","0","0","13441","","null","","","null","70","","","","","","","","","","","","","","","NaN",""
"","S1","","html-keyboard-response","468","884490","0.0-1.0-641.0","0","0","13441","","null","","","null","71","","","","","","","","","","","","","","","",""
"","ISI","","html-keyboard-response","469","886497","0.0-1.0-642.0","0","0","13441","","null","","","null","71","NaN","","","","","","","","","","","","","","",""
"","S2","","html-keyboard-response","470","886767","0.0-1.0-643.0","0","0","13441","","null","","","null","71","","NaN","","","","","","","","","","","","","",""
"","response","","html-keyboard-response","471","887709","0.0-1.0-644.0-0.0","0","0","13441","","938","","","75","71","","","2","71","training","adjacent","ED","5","4","L.jpg","R.jpg","1","0","0","",""
"","feedback","","html-keyboard-response","472","888720","0.0-1.0-645.0-0.0","0","0","13441","","null","","","null","71","","","","","","","","","","","","","","","",""
"","time_out","","html-keyboard-response","473","890732","0.0-1.0-647.0-0.0","0","0","13441","","null","","","null","71","","","","","","","","","","","","","","","",""
"","ITI","","html-keyboard-response","474","891743","0.0-1.0-648.0","0","0","13441","","null","","","null","71","","","","","","","","","","","","","","","NaN",""
"","S1","","html-keyboard-response","475","892016","0.0-1.0-650.0","0","0","13441","","null","","","null","72","","","","","","","","","","","","","","","",""
"","ISI","","html-keyboard-response","476","894025","0.0-1.0-651.0","0","0","13441","","null","","","null","72","NaN","","","","","","","","","","","","","","",""
"","S2","","html-keyboard-response","477","894280","0.0-1.0-652.0","0","0","13441","","null","","","null","72","","NaN","","","","","","","","","","","","","",""
"","response","","html-keyboard-response","478","895631","0.0-1.0-653.0-0.0","0","0","13441","","1348","","","75","72","","","2","72","training","adjacent","AB","1","2","N.jpg","O.jpg","1","1","1","",""
"","feedback","","html-keyboard-response","479","896649","0.0-1.0-654.0-0.0","0","0","13441","","null","","","null","72","","","","","","","","","","","","","","","",""
"","ITI","","html-keyboard-response","480","897667","0.0-1.0-657.0","0","0","13441","","null","","","null","72","","","","","","","","","","","","","","","NaN",""
"","S1","","html-keyboard-response","481","897921","0.0-1.0-659.0","0","0","13441","","null","","","null","73","","","","","","","","","","","","","","","",""
"","ISI","","html-keyboard-response","482","899944","0.0-1.0-660.0","0","0","13441","","null","","","null","73","NaN","","","","","","","","","","","","","","",""
"","S2","","html-keyboard-response","483","900208","0.0-1.0-661.0","0","0","13441","","null","","","null","73","","NaN","","","","","","","","","","","","","",""
"","response","","html-keyboard-response","484","901652","0.0-1.0-662.0-0.0","0","0","13441","","1440","","","75","73","","","2","73","training","adjacent","DC","4","3","R.jpg","M.jpg","1","0","0","",""
"","feedback","","html-keyboard-response","485","902677","0.0-1.0-663.0-0.0","0","0","13441","","null","","","null","73","","","","","","","","","","","","","","","",""
"","time_out","","html-keyboard-response","486","904686","0.0-1.0-665.0-0.0","0","0","13441","","null","","","null","73","","","","","","","","","","","","","","","",""
"","ITI","","html-keyboard-response","487","905705","0.0-1.0-666.0","0","0","13441","","null","","","null","73","","","","","","","","","","","","","","","NaN",""
"","S1","","html-keyboard-response","488","905981","0.0-1.0-668.0","0","0","13441","","null","","","null","74","","","","","","","","","","","","","","","",""
"","ISI","","html-keyboard-response","489","907987","0.0-1.0-669.0","0","0","13441","","null","","","null","74","NaN","","","","","","","","","","","","","","",""
"","S2","","html-keyboard-response","490","908242","0.0-1.0-670.0","0","0","13441","","null","","","null","74","","NaN","","","","","","","","","","","","","",""
"","response","","html-keyboard-response","491","909761","0.0-1.0-671.0-0.0","0","0","13441","","1515","","","75","74","","","2","74","training","adjacent","DC","4","3","R.jpg","M.jpg","1","0","0","",""
"","feedback","","html-keyboard-response","492","910767","0.0-1.0-672.0-0.0","0","0","13441","","null","","","null","74","","","","","","","","","","","","","","","",""
"","time_out","","html-keyboard-response","493","912780","0.0-1.0-674.0-0.0","0","0","13441","","null","","","null","74","","","","","","","","","","","","","","","",""
"","ITI","","html-keyboard-response","494","913788","0.0-1.0-675.0","0","0","13441","","null","","","null","74","","","","","","","","","","","","","","","NaN",""
"","S1","","html-keyboard-response","495","914053","0.0-1.0-677.0","0","0","13441","","null","","","null","75","","","","","","","","","","","","","","","",""
"","ISI","","html-keyboard-response","496","916058","0.0-1.0-678.0","0","0","13441","","null","","","null","75","NaN","","","","","","","","","","","","","","",""
"","S2","","html-keyboard-response","497","916311","0.0-1.0-679.0","0","0","13441","","null","","","null","75","","NaN","","","","","","","","","","","","","",""
"","response","","html-keyboard-response","498","917500","0.0-1.0-680.0-0.0","0","0","13441","","1185","","","75","75","","","2","75","training","adjacent","BA","2","1","O.jpg","N.jpg","1","0","0","",""
"","feedback","","html-keyboard-response","499","918503","0.0-1.0-681.0-0.0","0","0","13441","","null","","","null","75","","","","","","","","","","","","","","","",""
"","time_out","","html-keyboard-response","500","920520","0.0-1.0-683.0-0.0","0","0","13441","","null","","","null","75","","","","","","","","","","","","","","","",""
"","ITI","","html-keyboard-response","501","921535","0.0-1.0-684.0","0","0","13441","","null","","","null","75","","","","","","","","","","","","","","","NaN",""
"","S1","","html-keyboard-response","502","921805","0.0-1.0-686.0","0","0","13441","","null","","","null","76","","","","","","","","","","","","","","","",""
"","ISI","","html-keyboard-response","503","923815","0.0-1.0-687.0","0","0","13441","","null","","","null","76","NaN","","","","","","","","","","","","","","",""
"","S2","","html-keyboard-response","504","924079","0.0-1.0-688.0","0","0","13441","","null","","","null","76","","NaN","","","","","","","","","","","","","",""
"","response","","html-keyboard-response","505","924747","0.0-1.0-689.0-0.0","0","0","13441","","666","","","75","76","","","2","76","training","adjacent","ED","5","4","L.jpg","R.jpg","1","0","0","",""
"","feedback","","html-keyboard-response","506","925767","0.0-1.0-690.0-0.0","0","0","13441","","null","","","null","76","","","","","","","","","","","","","","","",""
"","time_out","","html-keyboard-response","507","927776","0.0-1.0-692.0-0.0","0","0","13441","","null","","","null","76","","","","","","","","","","","","","","","",""
"","ITI","","html-keyboard-response","508","928790","0.0-1.0-693.0","0","0","13441","","null","","","null","76","","","","","","","","","","","","","","","NaN",""
"","S1","","html-keyboard-response","509","929046","0.0-1.0-695.0","0","0","13441","","null","","","null","77","","","","","","","","","","","","","","","",""
"","ISI","","html-keyboard-response","510","931059","0.0-1.0-696.0","0","0","13441","","null","","","null","77","NaN","","","","","","","","","","","","","","",""
"","S2","","html-keyboard-response","511","931325","0.0-1.0-697.0","0","0","13441","","null","","","null","77","","NaN","","","","","","","","","","","","","",""
"","response","","html-keyboard-response","512","932056","0.0-1.0-698.0-0.0","0","0","13441","","727","","","75","77","","","2","77","training","adjacent","BA","2","1","O.jpg","N.jpg","1","0","0","",""
"","feedback","","html-keyboard-response","513","933066","0.0-1.0-699.0-0.0","0","0","13441","","null","","","null","77","","","","","","","","","","","","","","","",""
"","time_out","","html-keyboard-response","514","935077","0.0-1.0-701.0-0.0","0","0","13441","","null","","","null","77","","","","","","","","","","","","","","","",""
"","ITI","","html-keyboard-response","515","936095","0.0-1.0-702.0","0","0","13441","","null","","","null","77","","","","","","","","","","","","","","","NaN",""
"","S1","","html-keyboard-response","516","936355","0.0-1.0-704.0","0","0","13441","","null","","","null","78","","","","","","","","","","","","","","","",""
"","ISI","","html-keyboard-response","517","938372","0.0-1.0-705.0","0","0","13441","","null","","","null","78","NaN","","","","","","","","","","","","","","",""
"","S2","","html-keyboard-response","518","938645","0.0-1.0-706.0","0","0","13441","","null","","","null","78","","NaN","","","","","","","","","","","","","",""
"","response","","html-keyboard-response","519","939426","0.0-1.0-707.0-0.0","0","0","13441","","778","","","75","78","","","2","78","training","adjacent","CD","3","4","M.jpg","R.jpg","1","1","1","",""
"","feedback","","html-keyboard-response","520","940433","0.0-1.0-708.0-0.0","0","0","13441","","null","","","null","78","","","","","","","","","","","","","","","",""
"","ITI","","html-keyboard-response","521","941452","0.0-1.0-711.0","0","0","13441","","null","","","null","78","","","","","","","","","","","","","","","NaN",""
"","S1","","html-keyboard-response","522","941706","0.0-1.0-713.0","0","0","13441","","null","","","null","79","","","","","","","","","","","","","","","",""
"","ISI","","html-keyboard-response","523","943720","0.0-1.0-714.0","0","0","13441","","null","","","null","79","NaN","","","","","","","","","","","","","","",""
"","S2","","html-keyboard-response","524","943982","0.0-1.0-715.0","0","0","13441","","null","","","null","79","","NaN","","","","","","","","","","","","","",""
"","response","","html-keyboard-response","525","945726","0.0-1.0-716.0-0.0","0","0","13441","","1741","","","75","79","","","2","79","training","adjacent","CB","3","2","M.jpg","O.jpg","1","0","0","",""
"","feedback","","html-keyboard-response","526","946750","0.0-1.0-717.0-0.0","0","0","13441","","null","","","null","79","","","","","","","","","","","","","","","",""
"","time_out","","html-keyboard-response","527","948757","0.0-1.0-719.0-0.0","0","0","13441","","null","","","null","79","","","","","","","","","","","","","","","",""
"","ITI","","html-keyboard-response","528","949778","0.0-1.0-720.0","0","0","13441","","null","","","null","79","","","","","","","","","","","","","","","NaN",""
"","S1","","html-keyboard-response","529","950037","0.0-1.0-722.0","0","0","13441","","null","","","null","80","","","","","","","","","","","","","","","",""
"","ISI","","html-keyboard-response","530","952043","0.0-1.0-723.0","0","0","13441","","754","","","75","80","k","","","","","","","","","","","","","","",""
"","S2","","html-keyboard-response","531","952295","0.0-1.0-724.0","0","0","13441","","null","","","null","80","","NaN","","","","","","","","","","","","","",""
"","response","","html-keyboard-response","532","953039","0.0-1.0-725.0-0.0","0","0","13441","","737","","","75","80","","","2","80","training","adjacent","GF","7","6","Q.jpg","P.jpg","1","0","0","",""
"","feedback","","html-keyboard-response","533","954043","0.0-1.0-726.0-0.0","0","0","13441","","null","","","null","80","","","","","","","","","","","","","","","",""
"","time_out","","html-keyboard-response","534","956060","0.0-1.0-728.0-0.0","0","0","13441","","null","","","null","80","","","","","","","","","","","","","","","",""
"","ITI","","html-keyboard-response","535","957075","0.0-1.0-729.0","0","0","13441","","null","","","null","80","","","","","","","","","","","","","","","NaN",""
"","S1","","html-keyboard-response","536","957336","0.0-1.0-731.0","0","0","13441","","null","","","null","81","","","","","","","","","","","","","","","",""
"","ISI","","html-keyboard-response","537","959346","0.0-1.0-732.0","0","0","13441","","null","","","null","81","NaN","","","","","","","","","","","","","","",""
"","S2","","html-keyboard-response","538","959615","0.0-1.0-733.0","0","0","13441","","null","","","null","81","","NaN","","","","","","","","","","","","","",""
"","response","","html-keyboard-response","539","960559","0.0-1.0-734.0-0.0","0","0","13441","","940","","","75","81","","","2","81","training","adjacent","GF","7","6","Q.jpg","P.jpg","1","0","0","",""
"","feedback","","html-keyboard-response","540","961566","0.0-1.0-735.0-0.0","0","0","13441","","null","","","null","81","","","","","","","","","","","","","","","",""
"","time_out","","html-keyboard-response","541","963573","0.0-1.0-737.0-0.0","0","0","13441","","null","","","null","81","","","","","","","","","","","","","","","",""
"","ITI","","html-keyboard-response","542","964592","0.0-1.0-738.0","0","0","13441","","null","","","null","81","","","","","","","","","","","","","","","NaN",""
"","S1","","html-keyboard-response","543","964860","0.0-1.0-740.0","0","0","13441","","null","","","null","82","","","","","","","","","","","","","","","",""
"","ISI","","html-keyboard-response","544","966864","0.0-1.0-741.0","0","0","13441","","null","","","null","82","NaN","","","","","","","","","","","","","","",""
"","S2","","html-keyboard-response","545","967118","0.0-1.0-742.0","0","0","13441","","null","","","null","82","","NaN","","","","","","","","","","","","","",""
"","response","","html-keyboard-response","546","967920","0.0-1.0-743.0-0.0","0","0","13441","","801","","","75","82","","","2","82","training","adjacent","BC","2","3","O.jpg","M.jpg","1","1","1","",""
"","feedback","","html-keyboard-response","547","968927","0.0-1.0-744.0-0.0","0","0","13441","","null","","","null","82","","","","","","","","","","","","","","","",""
"","ITI","","html-keyboard-response","548","969957","0.0-1.0-747.0","0","0","13441","","null","","","null","82","","","","","","","","","","","","","","","NaN",""
"","S1","","html-keyboard-response","549","970224","0.0-1.0-749.0","0","0","13441","","null","","","null","83","","","","","","","","","","","","","","","",""
"","ISI","","html-keyboard-response","550","972237","0.0-1.0-750.0","0","0","13441","","null","","","null","83","NaN","","","","","","","","","","","","","","",""
"","S2","","html-keyboard-response","551","972494","0.0-1.0-751.0","0","0","13441","","null","","","null","83","","NaN","","","","","","","","","","","","","",""
"","response","","html-keyboard-response","552","973253","0.0-1.0-752.0-0.0","0","0","13441","","756","","","75","83","","","2","83","training","adjacent","CD","3","4","M.jpg","R.jpg","1","1","1","",""
"","feedback","","html-keyboard-response","553","974274","0.0-1.0-753.0-0.0","0","0","13441","","null","","","null","83","","","","","","","","","","","","","","","",""
"","ITI","","html-keyboard-response","554","975291","0.0-1.0-756.0","0","0","13441","","null","","","null","83","","","","","","","","","","","","","","","NaN",""
"","S1","","html-keyboard-response","555","975550","0.0-1.0-758.0","0","0","13441","","null","","","null","84","","","","","","","","","","","","","","","",""
"","ISI","","html-keyboard-response","556","977561","0.0-1.0-759.0","0","0","13441","","null","","","null","84","NaN","","","","","","","","","","","","","","",""
"","S2","","html-keyboard-response","557","977816","0.0-1.0-760.0","0","0","13441","","null","","","null","84","","NaN","","","","","","","","","","","","","",""
"","response","","html-keyboard-response","558","979594","0.0-1.0-761.0-0.0","0","0","13441","","null","","","null","84","","","2","84","training","adjacent","FE","6","5","P.jpg","L.jpg","NaN","0","0","",""
"","too_slow_prompt","","html-keyboard-response","559","980612","0.0-1.0-763.0-0.0","1","0","13441","","null","","","null","","","","","","","","","","","","","","","","",""
"","time_out","","html-keyboard-response","560","982617","0.0-1.0-764.0-0.0","0","0","13441","","null","","","null","84","","","","","","","","","","","","","","","",""
"","ITI","","html-keyboard-response","561","983631","0.0-1.0-765.0","0","0","13441","","null","","","null","84","","","","","","","","","","","","","","","NaN",""
"","S1","","html-keyboard-response","562","983896","0.0-1.0-767.0","0","0","13441","","null","","","null","85","","","","","","","","","","","","","","","",""
"","ISI","","html-keyboard-response","563","985900","0.0-1.0-768.0","0","0","13441","","null","","","null","85","NaN","","","","","","","","","","","","","","",""
"","S2","","html-keyboard-response","564","986158","0.0-1.0-769.0","0","0","13441","","null","","","null","85","","NaN","","","","","","","","","","","","","",""
"","response","","html-keyboard-response","565","986914","0.0-1.0-770.0-0.0","0","0","13441","","753","","","75","85","","","2","85","training","adjacent","ED","5","4","L.jpg","R.jpg","1","0","0","",""
"","feedback","","html-keyboard-response","566","987926","0.0-1.0-771.0-0.0","0","0","13441","","null","","","null","85","","","","","","","","","","","","","","","",""
"","time_out","","html-keyboard-response","567","989939","0.0-1.0-773.0-0.0","0","0","13441","","null","","","null","85","","","","","","","","","","","","","","","",""
"","ITI","","html-keyboard-response","568","990945","0.0-1.0-774.0","0","0","13441","","null","","","null","85","","","","","","","","","","","","","","","NaN",""
"","S1","","html-keyboard-response","569","991208","0.0-1.0-776.0","0","0","13441","","null","","","null","86","","","","","","","","","","","","","","","",""
"","ISI","","html-keyboard-response","570","993229","0.0-1.0-777.0","0","0","13441","","null","","","null","86","NaN","","","","","","","","","","","","","","",""
"","S2","","html-keyboard-response","571","993496","0.0-1.0-778.0","0","0","13441","","null","","","null","86","","NaN","","","","","","","","","","","","","",""
"","response","","html-keyboard-response","572","994795","0.0-1.0-779.0-0.0","0","0","13441","","1296","","","75","86","","","2","86","training","adjacent","DE","4","5","R.jpg","L.jpg","1","1","1","",""
"","feedback","","html-keyboard-response","573","995809","0.0-1.0-780.0-0.0","0","0","13441","","null","","","null","86","","","","","","","","","","","","","","","",""
"","ITI","","html-keyboard-response","574","996823","0.0-1.0-783.0","0","0","13441","","null","","","null","86","","","","","","","","","","","","","","","NaN",""
"","S1","","html-keyboard-response","575","997092","0.0-1.0-785.0","0","0","13441","","null","","","null","87","","","","","","","","","","","","","","","",""
"","ISI","","html-keyboard-response","576","999116","0.0-1.0-786.0","0","0","13441","","null","","","null","87","NaN","","","","","","","","","","","","","","",""
"","S2","","html-keyboard-response","577","999377","0.0-1.0-787.0","0","0","13441","","null","","","null","87","","NaN","","","","","","","","","","","","","",""
"","response","","html-keyboard-response","578","1000545","0.0-1.0-788.0-0.0","0","0","13441","","1163","","","68","87","","","2","87","training","adjacent","FE","6","5","P.jpg","L.jpg","0","0","1","",""
"","feedback","","html-keyboard-response","579","1001557","0.0-1.0-789.0-0.0","0","0","13441","","null","","","null","87","","","","","","","","","","","","","","","",""
"","ITI","","html-keyboard-response","580","1002571","0.0-1.0-792.0","0","0","13441","","null","","","null","87","","","","","","","","","","","","","","","NaN",""
"","S1","","html-keyboard-response","581","1002834","0.0-1.0-794.0","0","0","13441","","null","","","null","88","","","","","","","","","","","","","","","",""
