"success","ttype","start_time","trial_type","trial_index","time_elapsed","internal_node_id","warning","missed_checkup","PID","view_history","rt","responses","repeat_instructions","key_press","index","keypress_isi","keypress_S2","block","trial_num","phase","group_type","pair_type","S1_stim","S2_stim","S1_img","S2_img","S1_chosen","S1_higher","accuracy","keypress_iti","total_bonus_tally"
"true","full_screen","d03072023hr1744","fullscreen","0","20833","0.0-0.0","0","0","59701","","","","","","","","","","","","","","","","","","","","","",""
"","instructions","","instructions","1","95244","0.0-1.0-0.0-0.0","0","0","59701","[{""page_index"":0,""viewing_time"":5843},{""page_index"":1,""viewing_time"":52035},{""page_index"":2,""viewing_time"":14167},{""page_index"":3,""viewing_time"":2362}]","74408","","","","","","","","","","","","","","","","","","","",""
"","comprehension_check","","survey-multi-choice","2","114788","0.0-1.0-0.0-1.0","0","0","59701","","19540","{""Q0"":""True"",""Q1"":""K"",""Q2"":""Only when the screen 'MAKE A CHOICE' is shown"",""Q3"":""Green mark"",""Q4"":""either D or K""}","1","","","","","","","","","","","","","","","","","",""
"","missed_instruction_checkup","","html-keyboard-response","3","118209","0.0-1.0-0.0-2.0-0.0","0","1","59701","","3417","","","32","","","","","","","","","","","","","","","","",""
"","instructions","","instructions","4","153253","0.0-1.0-0.1-0.1","0","0","59701","[{""page_index"":0,""viewing_time"":4054},{""page_index"":1,""viewing_time"":14016},{""page_index"":2,""viewing_time"":12068},{""page_index"":3,""viewing_time"":4904}]","35042","","","","","","","","","","","","","","","","","","","",""
"","comprehension_check","","survey-multi-choice","5","189456","0.0-1.0-0.1-1.1","0","0","59701","","36200","{""Q0"":""True"",""Q1"":""K"",""Q2"":""Once the second image appears and while the screen 'MAKE A CHOICE' is shown"",""Q3"":""Green mark"",""Q4"":""either D or K""}","0","","","","","","","","","","","","","","","","","",""
"","start_exp","","html-keyboard-response","6","192602","0.0-1.0-1.0","0","0","59701","","3143","","","32","","","","","","","","","","","","","","","","",""
"","S1","","html-keyboard-response","7","192856","0.0-1.0-2.0","0","0","59701","","null","","","null","0","","","","","","","","","","","","","","","",""
"","ISI","","html-keyboard-response","8","193860","0.0-1.0-3.0","0","0","59701","","null","","","null","0","NaN","","","","","","","","","","","","","","",""
"","S2","","html-keyboard-response","9","194114","0.0-1.0-4.0","0","0","59701","","null","","","null","0","","NaN","","","","","","","","","","","","","",""
"","response","","html-keyboard-response","10","195868","0.0-1.0-5.0-0.0","0","0","59701","","null","","","null","0","","","1","0","training","adjacent","FG","6","7","L.jpg","Q.jpg","NaN","1","0","",""
"","too_slow_prompt","","html-keyboard-response","11","196872","0.0-1.0-7.0-0.0","1","0","59701","","null","","","null","","","","","","","","","","","","","","","","",""
"","time_out","","html-keyboard-response","12","198877","0.0-1.0-8.0-0.0","0","0","59701","","null","","","null","0","","","","","","","","","","","","","","","",""
"","ITI","","html-keyboard-response","13","199880","0.0-1.0-9.0","0","0","59701","","null","","","null","0","","","","","","","","","","","","","","","NaN",""
"","S1","","html-keyboard-response","14","200134","0.0-1.0-11.0","0","0","59701","","null","","","null","1","","","","","","","","","","","","","","","",""
"","ISI","","html-keyboard-response","15","201138","0.0-1.0-12.0","0","0","59701","","null","","","null","1","NaN","","","","","","","","","","","","","","",""
"","S2","","html-keyboard-response","16","201393","0.0-1.0-13.0","0","0","59701","","null","","","null","1","","NaN","","","","","","","","","","","","","",""
"","response","","html-keyboard-response","17","201695","0.0-1.0-14.0-0.0","0","0","59701","","299","","","75","1","","","1","1","training","adjacent","FE","6","5","L.jpg","P.jpg","1","0","0","",""
"","feedback","","html-keyboard-response","18","202699","0.0-1.0-15.0-0.0","0","0","59701","","null","","","null","1","","","","","","","","","","","","","","","",""
"","time_out","","html-keyboard-response","19","204703","0.0-1.0-17.0-0.0","0","0","59701","","null","","","null","1","","","","","","","","","","","","","","","",""
"","ITI","","html-keyboard-response","20","205706","0.0-1.0-18.0","0","0","59701","","null","","","null","1","","","","","","","","","","","","","","","NaN",""
"","S1","","html-keyboard-response","21","205973","0.0-1.0-20.0","0","0","59701","","null","","","null","2","","","","","","","","","","","","","","","",""
"","ISI","","html-keyboard-response","22","206977","0.0-1.0-21.0","0","0","59701","","null","","","null","2","NaN","","","","","","","","","","","","","","",""
"","S2","","html-keyboard-response","23","207231","0.0-1.0-22.0","0","0","59701","","null","","","null","2","","NaN","","","","","","","","","","","","","",""
"","response","","html-keyboard-response","24","207784","0.0-1.0-23.0-0.0","0","0","59701","","552","","","68","2","","","1","2","training","adjacent","AB","1","2","N.jpg","R.jpg","0","1","0","",""
"","feedback","","html-keyboard-response","25","208798","0.0-1.0-24.0-0.0","0","0","59701","","null","","","null","2","","","","","","","","","","","","","","","",""
"","time_out","","html-keyboard-response","26","210802","0.0-1.0-26.0-0.0","0","0","59701","","null","","","null","2","","","","","","","","","","","","","","","",""
"","ITI","","html-keyboard-response","27","211806","0.0-1.0-27.0","0","0","59701","","null","","","null","2","","","","","","","","","","","","","","","NaN",""
"","S1","","html-keyboard-response","28","212060","0.0-1.0-29.0","0","0","59701","","null","","","null","3","","","","","","","","","","","","","","","",""
"","ISI","","html-keyboard-response","29","213070","0.0-1.0-30.0","0","0","59701","","null","","","null","3","NaN","","","","","","","","","","","","","","",""
"","S2","","html-keyboard-response","30","213324","0.0-1.0-31.0","0","0","59701","","null","","","null","3","","NaN","","","","","","","","","","","","","",""
"","response","","html-keyboard-response","31","213793","0.0-1.0-32.0-0.0","0","0","59701","","468","","","75","3","","","1","3","training","adjacent","ED","5","4","P.jpg","O.jpg","1","0","0","",""
"","feedback","","html-keyboard-response","32","214797","0.0-1.0-33.0-0.0","0","0","59701","","null","","","null","3","","","","","","","","","","","","","","","",""
"","time_out","","html-keyboard-response","33","216800","0.0-1.0-35.0-0.0","0","0","59701","","null","","","null","3","","","","","","","","","","","","","","","",""
"","ITI","","html-keyboard-response","34","217805","0.0-1.0-36.0","0","0","59701","","null","","","null","3","","","","","","","","","","","","","","","NaN",""
"","S1","","html-keyboard-response","35","218059","0.0-1.0-38.0","0","0","59701","","null","","","null","4","","","","","","","","","","","","","","","",""
"","ISI","","html-keyboard-response","36","219077","0.0-1.0-39.0","0","0","59701","","null","","","null","4","NaN","","","","","","","","","","","","","","",""
"","S2","","html-keyboard-response","37","219332","0.0-1.0-40.0","0","0","59701","","null","","","null","4","","NaN","","","","","","","","","","","","","",""
"","response","","html-keyboard-response","38","219711","0.0-1.0-41.0-0.0","0","0","59701","","377","","","68","4","","","1","4","training","adjacent","EF","5","6","P.jpg","L.jpg","0","1","0","",""
"","feedback","","html-keyboard-response","39","220714","0.0-1.0-42.0-0.0","0","0","59701","","null","","","null","4","","","","","","","","","","","","","","","",""
"","time_out","","html-keyboard-response","40","222717","0.0-1.0-44.0-0.0","0","0","59701","","null","","","null","4","","","","","","","","","","","","","","","",""
"","ITI","","html-keyboard-response","41","223721","0.0-1.0-45.0","0","0","59701","","null","","","null","4","","","","","","","","","","","","","","","NaN",""
"","S1","","html-keyboard-response","42","223974","0.0-1.0-47.0","0","0","59701","","null","","","null","5","","","","","","","","","","","","","","","",""
"","ISI","","html-keyboard-response","43","224977","0.0-1.0-48.0","0","0","59701","","null","","","null","5","NaN","","","","","","","","","","","","","","",""
"","S2","","html-keyboard-response","44","225231","0.0-1.0-49.0","0","0","59701","","null","","","null","5","","NaN","","","","","","","","","","","","","",""
"","response","","html-keyboard-response","45","226192","0.0-1.0-50.0-0.0","0","0","59701","","959","","","75","5","","","1","5","training","adjacent","FG","6","7","L.jpg","Q.jpg","1","1","1","",""
"","feedback","","html-keyboard-response","46","227195","0.0-1.0-51.0-0.0","0","0","59701","","null","","","null","5","","","","","","","","","","","","","","","",""
"","ITI","","html-keyboard-response","47","228198","0.0-1.0-54.0","0","0","59701","","null","","","null","5","","","","","","","","","","","","","","","NaN",""
"","S1","","html-keyboard-response","48","228453","0.0-1.0-56.0","0","0","59701","","null","","","null","6","","","","","","","","","","","","","","","",""
"","ISI","","html-keyboard-response","49","229458","0.0-1.0-57.0","0","0","59701","","null","","","null","6","NaN","","","","","","","","","","","","","","",""
"","S2","","html-keyboard-response","50","229712","0.0-1.0-58.0","0","0","59701","","null","","","null","6","","NaN","","","","","","","","","","","","","",""
"","response","","html-keyboard-response","51","230614","0.0-1.0-59.0-0.0","0","0","59701","","900","","","68","6","","","1","6","training","adjacent","GF","7","6","Q.jpg","L.jpg","0","0","1","",""
"","feedback","","html-keyboard-response","52","231617","0.0-1.0-60.0-0.0","0","0","59701","","null","","","null","6","","","","","","","","","","","","","","","",""
"","ITI","","html-keyboard-response","53","232620","0.0-1.0-63.0","0","0","59701","","null","","","null","6","","","","","","","","","","","","","","","NaN",""
"","S1","","html-keyboard-response","54","232875","0.0-1.0-65.0","0","0","59701","","null","","","null","7","","","","","","","","","","","","","","","",""
"","ISI","","html-keyboard-response","55","233878","0.0-1.0-66.0","0","0","59701","","null","","","null","7","NaN","","","","","","","","","","","","","","",""
"","S2","","html-keyboard-response","56","234133","0.0-1.0-67.0","0","0","59701","","null","","","null","7","","NaN","","","","","","","","","","","","","",""
"","response","","html-keyboard-response","57","234713","0.0-1.0-68.0-0.0","0","0","59701","","577","","","75","7","","","1","7","training","adjacent","EF","5","6","P.jpg","L.jpg","1","1","1","",""
"","feedback","","html-keyboard-response","58","235716","0.0-1.0-69.0-0.0","0","0","59701","","null","","","null","7","","","","","","","","","","","","","","","",""
"","ITI","","html-keyboard-response","59","236720","0.0-1.0-72.0","0","0","59701","","null","","","null","7","","","","","","","","","","","","","","","NaN",""
"","S1","","html-keyboard-response","60","236974","0.0-1.0-74.0","0","0","59701","","null","","","null","8","","","","","","","","","","","","","","","",""
"","ISI","","html-keyboard-response","61","237976","0.0-1.0-75.0","0","0","59701","","null","","","null","8","NaN","","","","","","","","","","","","","","",""
"","S2","","html-keyboard-response","62","238237","0.0-1.0-76.0","0","0","59701","","null","","","null","8","","NaN","","","","","","","","","","","","","",""
"","response","","html-keyboard-response","63","238736","0.0-1.0-77.0-0.0","0","0","59701","","497","","","68","8","","","1","8","training","adjacent","DC","4","3","O.jpg","M.jpg","0","0","1","",""
"","feedback","","html-keyboard-response","64","239738","0.0-1.0-78.0-0.0","0","0","59701","","null","","","null","8","","","","","","","","","","","","","","","",""
"","ITI","","html-keyboard-response","65","240742","0.0-1.0-81.0","0","0","59701","","null","","","null","8","","","","","","","","","","","","","","","NaN",""
"","S1","","html-keyboard-response","66","240998","0.0-1.0-83.0","0","0","59701","","null","","","null","9","","","","","","","","","","","","","","","",""
"","ISI","","html-keyboard-response","67","242003","0.0-1.0-84.0","0","0","59701","","null","","","null","9","NaN","","","","","","","","","","","","","","",""
"","S2","","html-keyboard-response","68","242258","0.0-1.0-85.0","0","0","59701","","null","","","null","9","","NaN","","","","","","","","","","","","","",""
"","response","","html-keyboard-response","69","242604","0.0-1.0-86.0-0.0","0","0","59701","","343","","","75","9","","","1","9","training","adjacent","BC","2","3","R.jpg","M.jpg","1","1","1","",""
"","feedback","","html-keyboard-response","70","243608","0.0-1.0-87.0-0.0","0","0","59701","","null","","","null","9","","","","","","","","","","","","","","","",""
"","ITI","","html-keyboard-response","71","244611","0.0-1.0-90.0","0","0","59701","","null","","","null","9","","","","","","","","","","","","","","","NaN",""
"","S1","","html-keyboard-response","72","244865","0.0-1.0-92.0","0","0","59701","","null","","","null","10","","","","","","","","","","","","","","","",""
"","ISI","","html-keyboard-response","73","245869","0.0-1.0-93.0","0","0","59701","","null","","","null","10","NaN","","","","","","","","","","","","","","",""
"","S2","","html-keyboard-response","74","246125","0.0-1.0-94.0","0","0","59701","","null","","","null","10","","NaN","","","","","","","","","","","","","",""
"","response","","html-keyboard-response","75","246564","0.0-1.0-95.0-0.0","0","0","59701","","435","","","68","10","","","1","10","training","adjacent","DE","4","5","O.jpg","P.jpg","0","1","0","",""
"","feedback","","html-keyboard-response","76","247568","0.0-1.0-96.0-0.0","0","0","59701","","null","","","null","10","","","","","","","","","","","","","","","",""
"","time_out","","html-keyboard-response","77","249574","0.0-1.0-98.0-0.0","0","0","59701","","null","","","null","10","","","","","","","","","","","","","","","",""
"","ITI","","html-keyboard-response","78","250578","0.0-1.0-99.0","0","0","59701","","null","","","null","10","","","","","","","","","","","","","","","NaN",""
"","S1","","html-keyboard-response","79","250833","0.0-1.0-101.0","0","0","59701","","null","","","null","11","","","","","","","","","","","","","","","",""
"","ISI","","html-keyboard-response","80","251837","0.0-1.0-102.0","0","0","59701","","null","","","null","11","NaN","","","","","","","","","","","","","","",""
"","S2","","html-keyboard-response","81","252090","0.0-1.0-103.0","0","0","59701","","null","","","null","11","","NaN","","","","","","","","","","","","","",""
"","response","","html-keyboard-response","82","252349","0.0-1.0-104.0-0.0","0","0","59701","","257","","","68","11","","","1","11","training","adjacent","FE","6","5","L.jpg","P.jpg","0","0","1","",""
"","feedback","","html-keyboard-response","83","253353","0.0-1.0-105.0-0.0","0","0","59701","","null","","","null","11","","","","","","","","","","","","","","","",""
"","ITI","","html-keyboard-response","84","254357","0.0-1.0-108.0","0","0","59701","","null","","","null","11","","","","","","","","","","","","","","","NaN",""
"","S1","","html-keyboard-response","85","254611","0.0-1.0-110.0","0","0","59701","","null","","","null","12","","","","","","","","","","","","","","","",""
"","ISI","","html-keyboard-response","86","255614","0.0-1.0-111.0","0","0","59701","","null","","","null","12","NaN","","","","","","","","","","","","","","",""
"","S2","","html-keyboard-response","87","255876","0.0-1.0-112.0","0","0","59701","","null","","","null","12","","NaN","","","","","","","","","","","","","",""
"","response","","html-keyboard-response","88","256267","0.0-1.0-113.0-0.0","0","0","59701","","388","","","75","12","","","1","12","training","adjacent","GF","7","6","Q.jpg","L.jpg","1","0","0","",""
"","feedback","","html-keyboard-response","89","257270","0.0-1.0-114.0-0.0","0","0","59701","","null","","","null","12","","","","","","","","","","","","","","","",""
"","time_out","","html-keyboard-response","90","259274","0.0-1.0-116.0-0.0","0","0","59701","","null","","","null","12","","","","","","","","","","","","","","","",""
"","ITI","","html-keyboard-response","91","260277","0.0-1.0-117.0","0","0","59701","","null","","","null","12","","","","","","","","","","","","","","","NaN",""
"","S1","","html-keyboard-response","92","260531","0.0-1.0-119.0","0","0","59701","","null","","","null","13","","","","","","","","","","","","","","","",""
"","ISI","","html-keyboard-response","93","261536","0.0-1.0-120.0","0","0","59701","","null","","","null","13","NaN","","","","","","","","","","","","","","",""
"","S2","","html-keyboard-response","94","261790","0.0-1.0-121.0","0","0","59701","","null","","","null","13","","NaN","","","","","","","","","","","","","",""
"","response","","html-keyboard-response","95","262263","0.0-1.0-122.0-0.0","0","0","59701","","471","","","68","13","","","1","13","training","adjacent","CD","3","4","M.jpg","O.jpg","0","1","0","",""
"","feedback","","html-keyboard-response","96","263267","0.0-1.0-123.0-0.0","0","0","59701","","null","","","null","13","","","","","","","","","","","","","","","",""
"","time_out","","html-keyboard-response","97","265274","0.0-1.0-125.0-0.0","0","0","59701","","null","","","null","13","","","","","","","","","","","","","","","",""
"","ITI","","html-keyboard-response","98","266278","0.0-1.0-126.0","0","0","59701","","null","","","null","13","","","","","","","","","","","","","","","NaN",""
"","S1","","html-keyboard-response","99","266531","0.0-1.0-128.0","0","0","59701","","null","","","null","14","","","","","","","","","","","","","","","",""
"","ISI","","html-keyboard-response","100","267534","0.0-1.0-129.0","0","0","59701","","null","","","null","14","NaN","","","","","","","","","","","","","","",""
"","S2","","html-keyboard-response","101","267787","0.0-1.0-130.0","0","0","59701","","null","","","null","14","","NaN","","","","","","","","","","","","","",""
"","response","","html-keyboard-response","102","268221","0.0-1.0-131.0-0.0","0","0","59701","","431","","","75","14","","","1","14","training","adjacent","DC","4","3","O.jpg","M.jpg","1","0","0","",""
"","feedback","","html-keyboard-response","103","269224","0.0-1.0-132.0-0.0","0","0","59701","","null","","","null","14","","","","","","","","","","","","","","","",""
"","time_out","","html-keyboard-response","104","271226","0.0-1.0-134.0-0.0","0","0","59701","","null","","","null","14","","","","","","","","","","","","","","","",""
"","ITI","","html-keyboard-response","105","272231","0.0-1.0-135.0","0","0","59701","","null","","","null","14","","","","","","","","","","","","","","","NaN",""
"","S1","","html-keyboard-response","106","272484","0.0-1.0-137.0","0","0","59701","","null","","","null","15","","","","","","","","","","","","","","","",""
"","ISI","","html-keyboard-response","107","273488","0.0-1.0-138.0","0","0","59701","","null","","","null","15","NaN","","","","","","","","","","","","","","",""
"","S2","","html-keyboard-response","108","273743","0.0-1.0-139.0","0","0","59701","","null","","","null","15","","NaN","","","","","","","","","","","","","",""
"","response","","html-keyboard-response","109","274787","0.0-1.0-140.0-0.0","0","0","59701","","1042","","","75","15","","","1","15","training","adjacent","DE","4","5","O.jpg","P.jpg","1","1","1","",""
"","feedback","","html-keyboard-response","110","275789","0.0-1.0-141.0-0.0","0","0","59701","","null","","","null","15","","","","","","","","","","","","","","","",""
"","ITI","","html-keyboard-response","111","276794","0.0-1.0-144.0","0","0","59701","","null","","","null","15","","","","","","","","","","","","","","","NaN",""
"","S1","","html-keyboard-response","112","277048","0.0-1.0-146.0","0","0","59701","","null","","","null","16","","","","","","","","","","","","","","","",""
"","ISI","","html-keyboard-response","113","278051","0.0-1.0-147.0","0","0","59701","","null","","","null","16","NaN","","","","","","","","","","","","","","",""
"","S2","","html-keyboard-response","114","278305","0.0-1.0-148.0","0","0","59701","","null","","","null","16","","NaN","","","","","","","","","","","","","",""
"","response","","html-keyboard-response","115","278680","0.0-1.0-149.0-0.0","0","0","59701","","374","","","68","16","","","1","16","training","adjacent","FE","6","5","L.jpg","P.jpg","0","0","1","",""
"","feedback","","html-keyboard-response","116","279683","0.0-1.0-150.0-0.0","0","0","59701","","null","","","null","16","","","","","","","","","","","","","","","",""
"","ITI","","html-keyboard-response","117","280687","0.0-1.0-153.0","0","0","59701","","null","","","null","16","","","","","","","","","","","","","","","NaN",""
"","S1","","html-keyboard-response","118","280941","0.0-1.0-155.0","0","0","59701","","null","","","null","17","","","","","","","","","","","","","","","",""
"","ISI","","html-keyboard-response","119","281949","0.0-1.0-156.0","0","0","59701","","null","","","null","17","NaN","","","","","","","","","","","","","","",""
"","S2","","html-keyboard-response","120","282204","0.0-1.0-157.0","0","0","59701","","null","","","null","17","","NaN","","","","","","","","","","","","","",""
"","response","","html-keyboard-response","121","282465","0.0-1.0-158.0-0.0","0","0","59701","","260","","","75","17","","","1","17","training","adjacent","DE","4","5","O.jpg","P.jpg","1","1","1","",""
"","feedback","","html-keyboard-response","122","283469","0.0-1.0-159.0-0.0","0","0","59701","","null","","","null","17","","","","","","","","","","","","","","","",""
"","ITI","","html-keyboard-response","123","284472","0.0-1.0-162.0","0","0","59701","","null","","","null","17","","","","","","","","","","","","","","","NaN",""
"","S1","","html-keyboard-response","124","284726","0.0-1.0-164.0","0","0","59701","","null","","","null","18","","","","","","","","","","","","","","","",""
"","ISI","","html-keyboard-response","125","285729","0.0-1.0-165.0","0","0","59701","","null","","","null","18","NaN","","","","","","","","","","","","","","",""
"","S2","","html-keyboard-response","126","285984","0.0-1.0-166.0","0","0","59701","","null","","","null","18","","NaN","","","","","","","","","","","","","",""
"","response","","html-keyboard-response","127","286413","0.0-1.0-167.0-0.0","0","0","59701","","426","","","68","18","","","1","18","training","adjacent","AB","1","2","N.jpg","R.jpg","0","1","0","",""
"","feedback","","html-keyboard-response","128","287419","0.0-1.0-168.0-0.0","0","0","59701","","null","","","null","18","","","","","","","","","","","","","","","",""
"","time_out","","html-keyboard-response","129","289425","0.0-1.0-170.0-0.0","0","0","59701","","null","","","null","18","","","","","","","","","","","","","","","",""
"","ITI","","html-keyboard-response","130","290428","0.0-1.0-171.0","0","0","59701","","null","","","null","18","","","","","","","","","","","","","","","NaN",""
"","S1","","html-keyboard-response","131","290683","0.0-1.0-173.0","0","0","59701","","null","","","null","19","","","","","","","","","","","","","","","",""
"","ISI","","html-keyboard-response","132","291685","0.0-1.0-174.0","0","0","59701","","null","","","null","19","NaN","","","","","","","","","","","","","","",""
"","S2","","html-keyboard-response","133","291938","0.0-1.0-175.0","0","0","59701","","null","","","null","19","","NaN","","","","","","","","","","","","","",""
"","response","","html-keyboard-response","134","292382","0.0-1.0-176.0-0.0","0","0","59701","","441","","","68","19","","","1","19","training","adjacent","CB","3","2","M.jpg","R.jpg","0","0","1","",""
"","feedback","","html-keyboard-response","135","293387","0.0-1.0-177.0-0.0","0","0","59701","","null","","","null","19","","","","","","","","","","","","","","","",""
"","ITI","","html-keyboard-response","136","294392","0.0-1.0-180.0","0","0","59701","","null","","","null","19","","","","","","","","","","","","","","","NaN",""
"","S1","","html-keyboard-response","137","294646","0.0-1.0-182.0","0","0","59701","","null","","","null","20","","","","","","","","","","","","","","","",""
"","ISI","","html-keyboard-response","138","295649","0.0-1.0-183.0","0","0","59701","","null","","","null","20","NaN","","","","","","","","","","","","","","",""
"","S2","","html-keyboard-response","139","295902","0.0-1.0-184.0","0","0","59701","","null","","","null","20","","NaN","","","","","","","","","","","","","",""
"","response","","html-keyboard-response","140","296216","0.0-1.0-185.0-0.0","0","0","59701","","311","","","68","20","","","1","20","training","adjacent","BC","2","3","R.jpg","M.jpg","0","1","0","",""
"","feedback","","html-keyboard-response","141","297220","0.0-1.0-186.0-0.0","0","0","59701","","null","","","null","20","","","","","","","","","","","","","","","",""
"","time_out","","html-keyboard-response","142","299225","0.0-1.0-188.0-0.0","0","0","59701","","null","","","null","20","","","","","","","","","","","","","","","",""
"","ITI","","html-keyboard-response","143","300229","0.0-1.0-189.0","0","0","59701","","null","","","null","20","","","","","","","","","","","","","","","NaN",""
"","S1","","html-keyboard-response","144","300482","0.0-1.0-191.0","0","0","59701","","null","","","null","21","","","","","","","","","","","","","","","",""
"","ISI","","html-keyboard-response","145","301486","0.0-1.0-192.0","0","0","59701","","null","","","null","21","NaN","","","","","","","","","","","","","","",""
"","S2","","html-keyboard-response","146","301741","0.0-1.0-193.0","0","0","59701","","null","","","null","21","","NaN","","","","","","","","","","","","","",""
"","response","","html-keyboard-response","147","301926","0.0-1.0-194.0-0.0","0","0","59701","","183","","","75","21","","","1","21","training","adjacent","GF","7","6","Q.jpg","L.jpg","1","0","0","",""
"","feedback","","html-keyboard-response","148","302930","0.0-1.0-195.0-0.0","0","0","59701","","null","","","null","21","","","","","","","","","","","","","","","",""
"","time_out","","html-keyboard-response","149","304935","0.0-1.0-197.0-0.0","0","0","59701","","null","","","null","21","","","","","","","","","","","","","","","",""
"","ITI","","html-keyboard-response","150","305939","0.0-1.0-198.0","0","0","59701","","null","","","null","21","","","","","","","","","","","","","","","NaN",""
"","S1","","html-keyboard-response","151","306195","0.0-1.0-200.0","0","0","59701","","null","","","null","22","","","","","","","","","","","","","","","",""
"","ISI","","html-keyboard-response","152","307199","0.0-1.0-201.0","0","0","59701","","null","","","null","22","NaN","","","","","","","","","","","","","","",""
"","S2","","html-keyboard-response","153","307454","0.0-1.0-202.0","0","0","59701","","null","","","null","22","","NaN","","","","","","","","","","","","","",""
"","response","","html-keyboard-response","154","307991","0.0-1.0-203.0-0.0","0","0","59701","","534","","","68","22","","","1","22","training","adjacent","CD","3","4","M.jpg","O.jpg","0","1","0","",""
"","feedback","","html-keyboard-response","155","308996","0.0-1.0-204.0-0.0","0","0","59701","","null","","","null","22","","","","","","","","","","","","","","","",""
"","time_out","","html-keyboard-response","156","311000","0.0-1.0-206.0-0.0","0","0","59701","","null","","","null","22","","","","","","","","","","","","","","","",""
"","ITI","","html-keyboard-response","157","312004","0.0-1.0-207.0","0","0","59701","","null","","","null","22","","","","","","","","","","","","","","","NaN",""
"","S1","","html-keyboard-response","158","312257","0.0-1.0-209.0","0","0","59701","","null","","","null","23","","","","","","","","","","","","","","","",""
"","ISI","","html-keyboard-response","159","313260","0.0-1.0-210.0","0","0","59701","","null","","","null","23","NaN","","","","","","","","","","","","","","",""
"","S2","","html-keyboard-response","160","313512","0.0-1.0-211.0","0","0","59701","","null","","","null","23","","NaN","","","","","","","","","","","","","",""
"","response","","html-keyboard-response","161","313936","0.0-1.0-212.0-0.0","0","0","59701","","422","","","75","23","","","1","23","training","adjacent","DE","4","5","O.jpg","P.jpg","1","1","1","",""
"","feedback","","html-keyboard-response","162","314939","0.0-1.0-213.0-0.0","0","0","59701","","null","","","null","23","","","","","","","","","","","","","","","",""
"","ITI","","html-keyboard-response","163","315943","0.0-1.0-216.0","0","0","59701","","null","","","null","23","","","","","","","","","","","","","","","NaN",""
"","S1","","html-keyboard-response","164","316198","0.0-1.0-218.0","0","0","59701","","null","","","null","24","","","","","","","","","","","","","","","",""
"","ISI","","html-keyboard-response","165","317202","0.0-1.0-219.0","0","0","59701","","null","","","null","24","NaN","","","","","","","","","","","","","","",""
"","S2","","html-keyboard-response","166","317456","0.0-1.0-220.0","0","0","59701","","null","","","null","24","","NaN","","","","","","","","","","","","","",""
"","response","","html-keyboard-response","167","317909","0.0-1.0-221.0-0.0","0","0","59701","","451","","","68","24","","","1","24","training","adjacent","CD","3","4","M.jpg","O.jpg","0","1","0","",""
"","feedback","","html-keyboard-response","168","318913","0.0-1.0-222.0-0.0","0","0","59701","","null","","","null","24","","","","","","","","","","","","","","","",""
"","time_out","","html-keyboard-response","169","320916","0.0-1.0-224.0-0.0","0","0","59701","","null","","","null","24","","","","","","","","","","","","","","","",""
"","ITI","","html-keyboard-response","170","321931","0.0-1.0-225.0","0","0","59701","","null","","","null","24","","","","","","","","","","","","","","","NaN",""
"","S1","","html-keyboard-response","171","322184","0.0-1.0-227.0","0","0","59701","","null","","","null","25","","","","","","","","","","","","","","","",""
"","ISI","","html-keyboard-response","172","323189","0.0-1.0-228.0","0","0","59701","","null","","","null","25","NaN","","","","","","","","","","","","","","",""
"","S2","","html-keyboard-response","173","323443","0.0-1.0-229.0","0","0","59701","","null","","","null","25","","NaN","","","","","","","","","","","","","",""
"","response","","html-keyboard-response","174","323778","0.0-1.0-230.0-0.0","0","0","59701","","332","","","75","25","","","1","25","training","adjacent","AB","1","2","N.jpg","R.jpg","1","1","1","",""
"","feedback","","html-keyboard-response","175","324782","0.0-1.0-231.0-0.0","0","0","59701","","null","","","null","25","","","","","","","","","","","","","","","",""
"","ITI","","html-keyboard-response","176","325787","0.0-1.0-234.0","0","0","59701","","null","","","null","25","","","","","","","","","","","","","","","NaN",""
"","S1","","html-keyboard-response","177","326041","0.0-1.0-236.0","0","0","59701","","null","","","null","26","","","","","","","","","","","","","","","",""
"","ISI","","html-keyboard-response","178","327044","0.0-1.0-237.0","0","0","59701","","null","","","null","26","NaN","","","","","","","","","","","","","","",""
"","S2","","html-keyboard-response","179","327298","0.0-1.0-238.0","0","0","59701","","null","","","null","26","","NaN","","","","","","","","","","","","","",""
"","response","","html-keyboard-response","180","327610","0.0-1.0-239.0-0.0","0","0","59701","","311","","","68","26","","","1","26","training","adjacent","FG","6","7","L.jpg","Q.jpg","0","1","0","",""
"","feedback","","html-keyboard-response","181","328613","0.0-1.0-240.0-0.0","0","0","59701","","null","","","null","26","","","","","","","","","","","","","","","",""
"","time_out","","html-keyboard-response","182","330615","0.0-1.0-242.0-0.0","0","0","59701","","null","","","null","26","","","","","","","","","","","","","","","",""
"","ITI","","html-keyboard-response","183","331618","0.0-1.0-243.0","0","0","59701","","null","","","null","26","","","","","","","","","","","","","","","NaN",""
"","S1","","html-keyboard-response","184","331871","0.0-1.0-245.0","0","0","59701","","null","","","null","27","","","","","","","","","","","","","","","",""
"","ISI","","html-keyboard-response","185","332875","0.0-1.0-246.0","0","0","59701","","null","","","null","27","NaN","","","","","","","","","","","","","","",""
"","S2","","html-keyboard-response","186","333128","0.0-1.0-247.0","0","0","59701","","null","","","null","27","","NaN","","","","","","","","","","","","","",""
"","response","","html-keyboard-response","187","333439","0.0-1.0-248.0-0.0","0","0","59701","","308","","","75","27","","","1","27","training","adjacent","FE","6","5","L.jpg","P.jpg","1","0","0","",""
"","feedback","","html-keyboard-response","188","334443","0.0-1.0-249.0-0.0","0","0","59701","","null","","","null","27","","","","","","","","","","","","","","","",""
"","time_out","","html-keyboard-response","189","336447","0.0-1.0-251.0-0.0","0","0","59701","","null","","","null","27","","","","","","","","","","","","","","","",""
"","ITI","","html-keyboard-response","190","337451","0.0-1.0-252.0","0","0","59701","","null","","","null","27","","","","","","","","","","","","","","","NaN",""
"","S1","","html-keyboard-response","191","337705","0.0-1.0-254.0","0","0","59701","","null","","","null","28","","","","","","","","","","","","","","","",""
"","ISI","","html-keyboard-response","192","338709","0.0-1.0-255.0","0","0","59701","","null","","","null","28","NaN","","","","","","","","","","","","","","",""
"","S2","","html-keyboard-response","193","338963","0.0-1.0-256.0","0","0","59701","","null","","","null","28","","NaN","","","","","","","","","","","","","",""
"","response","","html-keyboard-response","194","339719","0.0-1.0-257.0-0.0","0","0","59701","","754","","","75","28","","","1","28","training","adjacent","ED","5","4","P.jpg","O.jpg","1","0","0","",""
"","feedback","","html-keyboard-response","195","340722","0.0-1.0-258.0-0.0","0","0","59701","","null","","","null","28","","","","","","","","","","","","","","","",""
"","time_out","","html-keyboard-response","196","342726","0.0-1.0-260.0-0.0","0","0","59701","","null","","","null","28","","","","","","","","","","","","","","","",""
"","ITI","","html-keyboard-response","197","343729","0.0-1.0-261.0","0","0","59701","","null","","","null","28","","","","","","","","","","","","","","","NaN",""
"","S1","","html-keyboard-response","198","343982","0.0-1.0-263.0","0","0","59701","","null","","","null","29","","","","","","","","","","","","","","","",""
"","ISI","","html-keyboard-response","199","344985","0.0-1.0-264.0","0","0","59701","","null","","","null","29","NaN","","","","","","","","","","","","","","",""
"","S2","","html-keyboard-response","200","345238","0.0-1.0-265.0","0","0","59701","","null","","","null","29","","NaN","","","","","","","","","","","","","",""
"","response","","html-keyboard-response","201","345936","0.0-1.0-266.0-0.0","0","0","59701","","695","","","68","29","","","1","29","training","adjacent","CB","3","2","M.jpg","R.jpg","0","0","1","",""
"","feedback","","html-keyboard-response","202","346941","0.0-1.0-267.0-0.0","0","0","59701","","null","","","null","29","","","","","","","","","","","","","","","",""
"","ITI","","html-keyboard-response","203","347944","0.0-1.0-270.0","0","0","59701","","null","","","null","29","","","","","","","","","","","","","","","NaN",""
"","S1","","html-keyboard-response","204","348197","0.0-1.0-272.0","0","0","59701","","null","","","null","30","","","","","","","","","","","","","","","",""
"","ISI","","html-keyboard-response","205","349200","0.0-1.0-273.0","0","0","59701","","null","","","null","30","NaN","","","","","","","","","","","","","","",""
"","S2","","html-keyboard-response","206","349455","0.0-1.0-274.0","0","0","59701","","null","","","null","30","","NaN","","","","","","","","","","","","","",""
"","response","","html-keyboard-response","207","350466","0.0-1.0-275.0-0.0","0","0","59701","","1010","","","75","30","","","1","30","training","adjacent","GF","7","6","Q.jpg","L.jpg","1","0","0","",""
"","feedback","","html-keyboard-response","208","351472","0.0-1.0-276.0-0.0","0","0","59701","","null","","","null","30","","","","","","","","","","","","","","","",""
"","time_out","","html-keyboard-response","209","353477","0.0-1.0-278.0-0.0","0","0","59701","","null","","","null","30","","","","","","","","","","","","","","","",""
"","ITI","","html-keyboard-response","210","354479","0.0-1.0-279.0","0","0","59701","","null","","","null","30","","","","","","","","","","","","","","","NaN",""
"","S1","","html-keyboard-response","211","354734","0.0-1.0-281.0","0","0","59701","","null","","","null","31","","","","","","","","","","","","","","","",""
"","ISI","","html-keyboard-response","212","355736","0.0-1.0-282.0","0","0","59701","","null","","","null","31","NaN","","","","","","","","","","","","","","",""
"","S2","","html-keyboard-response","213","355989","0.0-1.0-283.0","0","0","59701","","null","","","null","31","","NaN","","","","","","","","","","","","","",""
"","response","","html-keyboard-response","214","356413","0.0-1.0-284.0-0.0","0","0","59701","","421","","","75","31","","","1","31","training","adjacent","AB","1","2","N.jpg","R.jpg","1","1","1","",""
"","feedback","","html-keyboard-response","215","357417","0.0-1.0-285.0-0.0","0","0","59701","","null","","","null","31","","","","","","","","","","","","","","","",""
"","ITI","","html-keyboard-response","216","358422","0.0-1.0-288.0","0","0","59701","","null","","","null","31","","","","","","","","","","","","","","","NaN",""
"","S1","","html-keyboard-response","217","358676","0.0-1.0-290.0","0","0","59701","","null","","","null","32","","","","","","","","","","","","","","","",""
"","ISI","","html-keyboard-response","218","359679","0.0-1.0-291.0","0","0","59701","","null","","","null","32","NaN","","","","","","","","","","","","","","",""
"","S2","","html-keyboard-response","219","359932","0.0-1.0-292.0","0","0","59701","","null","","","null","32","","NaN","","","","","","","","","","","","","",""
"","response","","html-keyboard-response","220","360363","0.0-1.0-293.0-0.0","0","0","59701","","429","","","68","32","","","1","32","training","adjacent","EF","5","6","P.jpg","L.jpg","0","1","0","",""
"","feedback","","html-keyboard-response","221","361368","0.0-1.0-294.0-0.0","0","0","59701","","null","","","null","32","","","","","","","","","","","","","","","",""
"","time_out","","html-keyboard-response","222","363372","0.0-1.0-296.0-0.0","0","0","59701","","null","","","null","32","","","","","","","","","","","","","","","",""
"","ITI","","html-keyboard-response","223","364377","0.0-1.0-297.0","0","0","59701","","null","","","null","32","","","","","","","","","","","","","","","NaN",""
"","S1","","html-keyboard-response","224","364634","0.0-1.0-299.0","0","0","59701","","null","","","null","33","","","","","","","","","","","","","","","",""
"","ISI","","html-keyboard-response","225","365637","0.0-1.0-300.0","0","0","59701","","null","","","null","33","NaN","","","","","","","","","","","","","","",""
"","S2","","html-keyboard-response","226","365892","0.0-1.0-301.0","0","0","59701","","null","","","null","33","","NaN","","","","","","","","","","","","","",""
"","response","","html-keyboard-response","227","366497","0.0-1.0-302.0-0.0","0","0","59701","","604","","","75","33","","","1","33","training","adjacent","ED","5","4","P.jpg","O.jpg","1","0","0","",""
"","feedback","","html-keyboard-response","228","367503","0.0-1.0-303.0-0.0","0","0","59701","","null","","","null","33","","","","","","","","","","","","","","","",""
"","time_out","","html-keyboard-response","229","369506","0.0-1.0-305.0-0.0","0","0","59701","","null","","","null","33","","","","","","","","","","","","","","","",""
"","ITI","","html-keyboard-response","230","370511","0.0-1.0-306.0","0","0","59701","","null","","","null","33","","","","","","","","","","","","","","","NaN",""
"","S1","","html-keyboard-response","231","370764","0.0-1.0-308.0","0","0","59701","","null","","","null","34","","","","","","","","","","","","","","","",""
"","ISI","","html-keyboard-response","232","371768","0.0-1.0-309.0","0","0","59701","","null","","","null","34","NaN","","","","","","","","","","","","","","",""
"","S2","","html-keyboard-response","233","372024","0.0-1.0-310.0","0","0","59701","","null","","","null","34","","NaN","","","","","","","","","","","","","",""
"","response","","html-keyboard-response","234","372807","0.0-1.0-311.0-0.0","0","0","59701","","781","","","68","34","","","1","34","training","adjacent","BC","2","3","R.jpg","M.jpg","0","1","0","",""
"","feedback","","html-keyboard-response","235","373810","0.0-1.0-312.0-0.0","0","0","59701","","null","","","null","34","","","","","","","","","","","","","","","",""
"","time_out","","html-keyboard-response","236","375814","0.0-1.0-314.0-0.0","0","0","59701","","null","","","null","34","","","","","","","","","","","","","","","",""
"","ITI","","html-keyboard-response","237","376818","0.0-1.0-315.0","0","0","59701","","null","","","null","34","","","","","","","","","","","","","","","NaN",""
"","S1","","html-keyboard-response","238","377071","0.0-1.0-317.0","0","0","59701","","null","","","null","35","","","","","","","","","","","","","","","",""
"","ISI","","html-keyboard-response","239","378075","0.0-1.0-318.0","0","0","59701","","null","","","null","35","NaN","","","","","","","","","","","","","","",""
"","S2","","html-keyboard-response","240","378329","0.0-1.0-319.0","0","0","59701","","null","","","null","35","","NaN","","","","","","","","","","","","","",""
"","response","","html-keyboard-response","241","378615","0.0-1.0-320.0-0.0","0","0","59701","","284","","","75","35","","","1","35","training","adjacent","EF","5","6","P.jpg","L.jpg","1","1","1","",""
"","feedback","","html-keyboard-response","242","379618","0.0-1.0-321.0-0.0","0","0","59701","","null","","","null","35","","","","","","","","","","","","","","","",""
"","ITI","","html-keyboard-response","243","380621","0.0-1.0-324.0","0","0","59701","","null","","","null","35","","","","","","","","","","","","","","","NaN",""
"","S1","","html-keyboard-response","244","380874","0.0-1.0-326.0","0","0","59701","","null","","","null","36","","","","","","","","","","","","","","","",""
"","ISI","","html-keyboard-response","245","381878","0.0-1.0-327.0","0","0","59701","","null","","","null","36","NaN","","","","","","","","","","","","","","",""
"","S2","","html-keyboard-response","246","382132","0.0-1.0-328.0","0","0","59701","","null","","","null","36","","NaN","","","","","","","","","","","","","",""
"","response","","html-keyboard-response","247","382404","0.0-1.0-329.0-0.0","0","0","59701","","270","","","68","36","","","1","36","training","adjacent","DC","4","3","O.jpg","M.jpg","0","0","1","",""
"","feedback","","html-keyboard-response","248","383409","0.0-1.0-330.0-0.0","0","0","59701","","null","","","null","36","","","","","","","","","","","","","","","",""
"","ITI","","html-keyboard-response","249","384412","0.0-1.0-333.0","0","0","59701","","null","","","null","36","","","","","","","","","","","","","","","NaN",""
"","S1","","html-keyboard-response","250","384666","0.0-1.0-335.0","0","0","59701","","null","","","null","37","","","","","","","","","","","","","","","",""
"","ISI","","html-keyboard-response","251","385671","0.0-1.0-336.0","0","0","59701","","null","","","null","37","NaN","","","","","","","","","","","","","","",""
"","S2","","html-keyboard-response","252","385924","0.0-1.0-337.0","0","0","59701","","null","","","null","37","","NaN","","","","","","","","","","","","","",""
"","response","","html-keyboard-response","253","386476","0.0-1.0-338.0-0.0","0","0","59701","","550","","","68","37","","","1","37","training","adjacent","BA","2","1","R.jpg","N.jpg","0","0","1","",""
"","feedback","","html-keyboard-response","254","387481","0.0-1.0-339.0-0.0","0","0","59701","","null","","","null","37","","","","","","","","","","","","","","","",""
"","ITI","","html-keyboard-response","255","388484","0.0-1.0-342.0","0","0","59701","","null","","","null","37","","","","","","","","","","","","","","","NaN",""
"","S1","","html-keyboard-response","256","388737","0.0-1.0-344.0","0","0","59701","","null","","","null","38","","","","","","","","","","","","","","","",""
"","ISI","","html-keyboard-response","257","389740","0.0-1.0-345.0","0","0","59701","","null","","","null","38","NaN","","","","","","","","","","","","","","",""
"","S2","","html-keyboard-response","258","389993","0.0-1.0-346.0","0","0","59701","","null","","","null","38","","NaN","","","","","","","","","","","","","",""
"","response","","html-keyboard-response","259","390427","0.0-1.0-347.0-0.0","0","0","59701","","431","","","68","38","","","1","38","training","adjacent","BA","2","1","R.jpg","N.jpg","0","0","1","",""
"","feedback","","html-keyboard-response","260","391432","0.0-1.0-348.0-0.0","0","0","59701","","null","","","null","38","","","","","","","","","","","","","","","",""
"","ITI","","html-keyboard-response","261","392436","0.0-1.0-351.0","0","0","59701","","null","","","null","38","","","","","","","","","","","","","","","NaN",""
"","S1","","html-keyboard-response","262","392697","0.0-1.0-353.0","0","0","59701","","null","","","null","39","","","","","","","","","","","","","","","",""
"","ISI","","html-keyboard-response","263","393702","0.0-1.0-354.0","0","0","59701","","null","","","null","39","NaN","","","","","","","","","","","","","","",""
"","S2","","html-keyboard-response","264","393957","0.0-1.0-355.0","0","0","59701","","null","","","null","39","","NaN","","","","","","","","","","","","","",""
"","response","","html-keyboard-response","265","394436","0.0-1.0-356.0-0.0","0","0","59701","","477","","","68","39","","","1","39","training","adjacent","CB","3","2","M.jpg","R.jpg","0","0","1","",""
"","feedback","","html-keyboard-response","266","395441","0.0-1.0-357.0-0.0","0","0","59701","","null","","","null","39","","","","","","","","","","","","","","","",""
"","ITI","","html-keyboard-response","267","396445","0.0-1.0-360.0","0","0","59701","","null","","","null","39","","","","","","","","","","","","","","","NaN",""
"","S1","","html-keyboard-response","268","396705","0.0-1.0-362.0","0","0","59701","","null","","","null","40","","","","","","","","","","","","","","","",""
"","ISI","","html-keyboard-response","269","397708","0.0-1.0-363.0","0","0","59701","","null","","","null","40","NaN","","","","","","","","","","","","","","",""
"","S2","","html-keyboard-response","270","397962","0.0-1.0-364.0","0","0","59701","","null","","","null","40","","NaN","","","","","","","","","","","","","",""
"","response","","html-keyboard-response","271","398479","0.0-1.0-365.0-0.0","0","0","59701","","514","","","68","40","","","1","40","training","adjacent","CD","3","4","M.jpg","O.jpg","0","1","0","",""
"","feedback","","html-keyboard-response","272","399484","0.0-1.0-366.0-0.0","0","0","59701","","null","","","null","40","","","","","","","","","","","","","","","",""
"","time_out","","html-keyboard-response","273","401489","0.0-1.0-368.0-0.0","0","0","59701","","null","","","null","40","","","","","","","","","","","","","","","",""
"","ITI","","html-keyboard-response","274","402492","0.0-1.0-369.0","0","0","59701","","null","","","null","40","","","","","","","","","","","","","","","NaN",""
"","S1","","html-keyboard-response","275","402746","0.0-1.0-371.0","0","0","59701","","null","","","null","41","","","","","","","","","","","","","","","",""
"","ISI","","html-keyboard-response","276","403748","0.0-1.0-372.0","0","0","59701","","null","","","null","41","NaN","","","","","","","","","","","","","","",""
"","S2","","html-keyboard-response","277","404002","0.0-1.0-373.0","0","0","59701","","null","","","null","41","","NaN","","","","","","","","","","","","","",""
"","response","","html-keyboard-response","278","404483","0.0-1.0-374.0-0.0","0","0","59701","","480","","","75","41","","","1","41","training","adjacent","BC","2","3","R.jpg","M.jpg","1","1","1","",""
"","feedback","","html-keyboard-response","279","405487","0.0-1.0-375.0-0.0","0","0","59701","","null","","","null","41","","","","","","","","","","","","","","","",""
"","ITI","","html-keyboard-response","280","406492","0.0-1.0-378.0","0","0","59701","","null","","","null","41","","","","","","","","","","","","","","","NaN",""
"","S1","","html-keyboard-response","281","406746","0.0-1.0-380.0","0","0","59701","","null","","","null","42","","","","","","","","","","","","","","","",""
"","ISI","","html-keyboard-response","282","407749","0.0-1.0-381.0","0","0","59701","","null","","","null","42","NaN","","","","","","","","","","","","","","",""
"","S2","","html-keyboard-response","283","408002","0.0-1.0-382.0","0","0","59701","","null","","","null","42","","NaN","","","","","","","","","","","","","",""
"","response","","html-keyboard-response","284","408409","0.0-1.0-383.0-0.0","0","0","59701","","404","","","75","42","","","1","42","training","adjacent","ED","5","4","P.jpg","O.jpg","1","0","0","",""
"","feedback","","html-keyboard-response","285","409413","0.0-1.0-384.0-0.0","0","0","59701","","null","","","null","42","","","","","","","","","","","","","","","",""
"","time_out","","html-keyboard-response","286","411419","0.0-1.0-386.0-0.0","0","0","59701","","null","","","null","42","","","","","","","","","","","","","","","",""
"","ITI","","html-keyboard-response","287","412423","0.0-1.0-387.0","0","0","59701","","null","","","null","42","","","","","","","","","","","","","","","NaN",""
"","S1","","html-keyboard-response","288","412678","0.0-1.0-389.0","0","0","59701","","null","","","null","43","","","","","","","","","","","","","","","",""
"","ISI","","html-keyboard-response","289","413681","0.0-1.0-390.0","0","0","59701","","null","","","null","43","NaN","","","","","","","","","","","","","","",""
"","S2","","html-keyboard-response","290","413934","0.0-1.0-391.0","0","0","59701","","null","","","null","43","","NaN","","","","","","","","","","","","","",""
"","response","","html-keyboard-response","291","414725","0.0-1.0-392.0-0.0","0","0","59701","","789","","","68","43","","","1","43","training","adjacent","BA","2","1","R.jpg","N.jpg","0","0","1","",""
"","feedback","","html-keyboard-response","292","415741","0.0-1.0-393.0-0.0","0","0","59701","","null","","","null","43","","","","","","","","","","","","","","","",""
"","ITI","","html-keyboard-response","293","416744","0.0-1.0-396.0","0","0","59701","","null","","","null","43","","","","","","","","","","","","","","","NaN",""
"","S1","","html-keyboard-response","294","416998","0.0-1.0-398.0","0","0","59701","","null","","","null","44","","","","","","","","","","","","","","","",""
"","ISI","","html-keyboard-response","295","418002","0.0-1.0-399.0","0","0","59701","","null","","","null","44","NaN","","","","","","","","","","","","","","",""
"","S2","","html-keyboard-response","296","418258","0.0-1.0-400.0","0","0","59701","","null","","","null","44","","NaN","","","","","","","","","","","","","",""
"","response","","html-keyboard-response","297","419106","0.0-1.0-401.0-0.0","0","0","59701","","845","","","68","44","","","1","44","training","adjacent","BA","2","1","R.jpg","N.jpg","0","0","1","",""
"","feedback","","html-keyboard-response","298","420109","0.0-1.0-402.0-0.0","0","0","59701","","null","","","null","44","","","","","","","","","","","","","","","",""
"","ITI","","html-keyboard-response","299","421114","0.0-1.0-405.0","0","0","59701","","null","","","null","44","","","","","","","","","","","","","","","NaN",""
"","S1","","html-keyboard-response","300","421374","0.0-1.0-407.0","0","0","59701","","null","","","null","45","","","","","","","","","","","","","","","",""
"","ISI","","html-keyboard-response","301","422378","0.0-1.0-408.0","0","0","59701","","null","","","null","45","NaN","","","","","","","","","","","","","","",""
"","S2","","html-keyboard-response","302","422632","0.0-1.0-409.0","0","0","59701","","null","","","null","45","","NaN","","","","","","","","","","","","","",""
"","response","","html-keyboard-response","303","423103","0.0-1.0-410.0-0.0","0","0","59701","","468","","","75","45","","","1","45","training","adjacent","FG","6","7","L.jpg","Q.jpg","1","1","1","",""
"","feedback","","html-keyboard-response","304","424107","0.0-1.0-411.0-0.0","0","0","59701","","null","","","null","45","","","","","","","","","","","","","","","",""
"","ITI","","html-keyboard-response","305","425111","0.0-1.0-414.0","0","0","59701","","null","","","null","45","","","","","","","","","","","","","","","NaN",""
"","S1","","html-keyboard-response","306","425365","0.0-1.0-416.0","0","0","59701","","null","","","null","46","","","","","","","","","","","","","","","",""
"","ISI","","html-keyboard-response","307","426369","0.0-1.0-417.0","0","0","59701","","null","","","null","46","NaN","","","","","","","","","","","","","","",""
"","S2","","html-keyboard-response","308","426623","0.0-1.0-418.0","0","0","59701","","null","","","null","46","","NaN","","","","","","","","","","","","","",""
"","response","","html-keyboard-response","309","427382","0.0-1.0-419.0-0.0","0","0","59701","","756","","","75","46","","","1","46","training","adjacent","DC","4","3","O.jpg","M.jpg","1","0","0","",""
"","feedback","","html-keyboard-response","310","428385","0.0-1.0-420.0-0.0","0","0","59701","","null","","","null","46","","","","","","","","","","","","","","","",""
"","time_out","","html-keyboard-response","311","430390","0.0-1.0-422.0-0.0","0","0","59701","","null","","","null","46","","","","","","","","","","","","","","","",""
"","ITI","","html-keyboard-response","312","431395","0.0-1.0-423.0","0","0","59701","","null","","","null","46","","","","","","","","","","","","","","","NaN",""
"","S1","","html-keyboard-response","313","431648","0.0-1.0-425.0","0","0","59701","","null","","","null","47","","","","","","","","","","","","","","","",""
"","ISI","","html-keyboard-response","314","432652","0.0-1.0-426.0","0","0","59701","","null","","","null","47","NaN","","","","","","","","","","","","","","",""
"","S2","","html-keyboard-response","315","432905","0.0-1.0-427.0","0","0","59701","","null","","","null","47","","NaN","","","","","","","","","","","","","",""
"","response","","html-keyboard-response","316","433469","0.0-1.0-428.0-0.0","0","0","59701","","562","","","68","47","","","1","47","training","adjacent","CB","3","2","M.jpg","R.jpg","0","0","1","",""
"","feedback","","html-keyboard-response","317","434474","0.0-1.0-429.0-0.0","0","0","59701","","null","","","null","47","","","","","","","","","","","","","","","",""
"","ITI","","html-keyboard-response","318","435479","0.0-1.0-432.0","0","0","59701","","null","","","null","47","","","","","","","","","","","","","","","NaN",""
"","block_over","","html-keyboard-response","319","440346","0.0-1.0-433.0-0.0","0","0","59701","","4864","","","32","47","","","","","","","","","","","","","","","",""
"","S1","","html-keyboard-response","320","440598","0.0-1.0-434.0","0","0","59701","","null","","","null","48","","","","","","","","","","","","","","","",""
"","ISI","","html-keyboard-response","321","441601","0.0-1.0-435.0","0","0","59701","","null","","","null","48","NaN","","","","","","","","","","","","","","",""
"","S2","","html-keyboard-response","322","441855","0.0-1.0-436.0","0","0","59701","","null","","","null","48","","NaN","","","","","","","","","","","","","",""
"","response","","html-keyboard-response","323","442963","0.0-1.0-437.0-0.0","0","0","59701","","1105","","","68","48","","","2","48","training","adjacent","BA","2","1","R.jpg","N.jpg","0","0","1","",""
"","feedback","","html-keyboard-response","324","443968","0.0-1.0-438.0-0.0","0","0","59701","","null","","","null","48","","","","","","","","","","","","","","","",""
"","ITI","","html-keyboard-response","325","444972","0.0-1.0-441.0","0","0","59701","","null","","","null","48","","","","","","","","","","","","","","","NaN",""
"","S1","","html-keyboard-response","326","445226","0.0-1.0-443.0","0","0","59701","","null","","","null","49","","","","","","","","","","","","","","","",""
"","ISI","","html-keyboard-response","327","446229","0.0-1.0-444.0","0","0","59701","","null","","","null","49","NaN","","","","","","","","","","","","","","",""
"","S2","","html-keyboard-response","328","446483","0.0-1.0-445.0","0","0","59701","","null","","","null","49","","NaN","","","","","","","","","","","","","",""
"","response","","html-keyboard-response","329","446769","0.0-1.0-446.0-0.0","0","0","59701","","283","","","68","49","","","2","49","training","adjacent","DC","4","3","O.jpg","M.jpg","0","0","1","",""
"","feedback","","html-keyboard-response","330","447773","0.0-1.0-447.0-0.0","0","0","59701","","null","","","null","49","","","","","","","","","","","","","","","",""
"","ITI","","html-keyboard-response","331","448775","0.0-1.0-450.0","0","0","59701","","null","","","null","49","","","","","","","","","","","","","","","NaN",""
"","S1","","html-keyboard-response","332","449030","0.0-1.0-452.0","0","0","59701","","null","","","null","50","","","","","","","","","","","","","","","",""
"","ISI","","html-keyboard-response","333","450034","0.0-1.0-453.0","0","0","59701","","null","","","null","50","NaN","","","","","","","","","","","","","","",""
"","S2","","html-keyboard-response","334","450287","0.0-1.0-454.0","0","0","59701","","null","","","null","50","","NaN","","","","","","","","","","","","","",""
"","response","","html-keyboard-response","335","450641","0.0-1.0-455.0-0.0","0","0","59701","","352","","","75","50","","","2","50","training","adjacent","DE","4","5","O.jpg","P.jpg","1","1","1","",""
"","feedback","","html-keyboard-response","336","451645","0.0-1.0-456.0-0.0","0","0","59701","","null","","","null","50","","","","","","","","","","","","","","","",""
"","ITI","","html-keyboard-response","337","452649","0.0-1.0-459.0","0","0","59701","","null","","","null","50","","","","","","","","","","","","","","","NaN",""
"","S1","","html-keyboard-response","338","452903","0.0-1.0-461.0","0","0","59701","","null","","","null","51","","","","","","","","","","","","","","","",""
"","ISI","","html-keyboard-response","339","453906","0.0-1.0-462.0","0","0","59701","","null","","","null","51","NaN","","","","","","","","","","","","","","",""
"","S2","","html-keyboard-response","340","454172","0.0-1.0-463.0","0","0","59701","","null","","","null","51","","NaN","","","","","","","","","","","","","",""
"","response","","html-keyboard-response","341","454675","0.0-1.0-464.0-0.0","0","0","59701","","501","","","68","51","","","2","51","training","adjacent","FE","6","5","L.jpg","P.jpg","0","0","1","",""
"","feedback","","html-keyboard-response","342","455679","0.0-1.0-465.0-0.0","0","0","59701","","null","","","null","51","","","","","","","","","","","","","","","",""
"","ITI","","html-keyboard-response","343","456683","0.0-1.0-468.0","0","0","59701","","null","","","null","51","","","","","","","","","","","","","","","NaN",""
"","S1","","html-keyboard-response","344","456937","0.0-1.0-470.0","0","0","59701","","null","","","null","52","","","","","","","","","","","","","","","",""
"","ISI","","html-keyboard-response","345","457941","0.0-1.0-471.0","0","0","59701","","null","","","null","52","NaN","","","","","","","","","","","","","","",""
"","S2","","html-keyboard-response","346","458194","0.0-1.0-472.0","0","0","59701","","null","","","null","52","","NaN","","","","","","","","","","","","","",""
"","response","","html-keyboard-response","347","458690","0.0-1.0-473.0-0.0","0","0","59701","","493","","","68","52","","","2","52","training","adjacent","FE","6","5","L.jpg","P.jpg","0","0","1","",""
"","feedback","","html-keyboard-response","348","459694","0.0-1.0-474.0-0.0","0","0","59701","","null","","","null","52","","","","","","","","","","","","","","","",""
"","ITI","","html-keyboard-response","349","460698","0.0-1.0-477.0","0","0","59701","","null","","","null","52","","","","","","","","","","","","","","","NaN",""
"","S1","","html-keyboard-response","350","460952","0.0-1.0-479.0","0","0","59701","","null","","","null","53","","","","","","","","","","","","","","","",""
"","ISI","","html-keyboard-response","351","461956","0.0-1.0-480.0","0","0","59701","","null","","","null","53","NaN","","","","","","","","","","","","","","",""
"","S2","","html-keyboard-response","352","462211","0.0-1.0-481.0","0","0","59701","","null","","","null","53","","NaN","","","","","","","","","","","","","",""
"","response","","html-keyboard-response","353","462696","0.0-1.0-482.0-0.0","0","0","59701","","483","","","68","53","","","2","53","training","adjacent","BA","2","1","R.jpg","N.jpg","0","0","1","",""
"","feedback","","html-keyboard-response","354","463699","0.0-1.0-483.0-0.0","0","0","59701","","null","","","null","53","","","","","","","","","","","","","","","",""
"","ITI","","html-keyboard-response","355","464703","0.0-1.0-486.0","0","0","59701","","null","","","null","53","","","","","","","","","","","","","","","NaN",""
"","S1","","html-keyboard-response","356","464957","0.0-1.0-488.0","0","0","59701","","null","","","null","54","","","","","","","","","","","","","","","",""
"","ISI","","html-keyboard-response","357","465960","0.0-1.0-489.0","0","0","59701","","null","","","null","54","NaN","","","","","","","","","","","","","","",""
"","S2","","html-keyboard-response","358","466214","0.0-1.0-490.0","0","0","59701","","null","","","null","54","","NaN","","","","","","","","","","","","","",""
"","response","","html-keyboard-response","359","466499","0.0-1.0-491.0-0.0","0","0","59701","","282","","","75","54","","","2","54","training","adjacent","FG","6","7","L.jpg","Q.jpg","1","1","1","",""
"","feedback","","html-keyboard-response","360","467504","0.0-1.0-492.0-0.0","0","0","59701","","null","","","null","54","","","","","","","","","","","","","","","",""
"","ITI","","html-keyboard-response","361","468507","0.0-1.0-495.0","0","0","59701","","null","","","null","54","","","","","","","","","","","","","","","NaN",""
"","S1","","html-keyboard-response","362","468761","0.0-1.0-497.0","0","0","59701","","null","","","null","55","","","","","","","","","","","","","","","",""
"","ISI","","html-keyboard-response","363","469765","0.0-1.0-498.0","0","0","59701","","null","","","null","55","NaN","","","","","","","","","","","","","","",""
"","S2","","html-keyboard-response","364","470026","0.0-1.0-499.0","0","0","59701","","null","","","null","55","","NaN","","","","","","","","","","","","","",""
"","response","","html-keyboard-response","365","470658","0.0-1.0-500.0-0.0","0","0","59701","","629","","","68","55","","","2","55","training","adjacent","FE","6","5","L.jpg","P.jpg","0","0","1","",""
"","feedback","","html-keyboard-response","366","471665","0.0-1.0-501.0-0.0","0","0","59701","","null","","","null","55","","","","","","","","","","","","","","","",""
"","ITI","","html-keyboard-response","367","472669","0.0-1.0-504.0","0","0","59701","","null","","","null","55","","","","","","","","","","","","","","","NaN",""
"","S1","","html-keyboard-response","368","472923","0.0-1.0-506.0","0","0","59701","","null","","","null","56","","","","","","","","","","","","","","","",""
"","ISI","","html-keyboard-response","369","473926","0.0-1.0-507.0","0","0","59701","","null","","","null","56","NaN","","","","","","","","","","","","","","",""
"","S2","","html-keyboard-response","370","474180","0.0-1.0-508.0","0","0","59701","","null","","","null","56","","NaN","","","","","","","","","","","","","",""
"","response","","html-keyboard-response","371","474673","0.0-1.0-509.0-0.0","0","0","59701","","490","","","68","56","","","2","56","training","adjacent","GF","7","6","Q.jpg","L.jpg","0","0","1","",""
"","feedback","","html-keyboard-response","372","475676","0.0-1.0-510.0-0.0","0","0","59701","","null","","","null","56","","","","","","","","","","","","","","","",""
"","ITI","","html-keyboard-response","373","476678","0.0-1.0-513.0","0","0","59701","","null","","","null","56","","","","","","","","","","","","","","","NaN",""
"","S1","","html-keyboard-response","374","476931","0.0-1.0-515.0","0","0","59701","","null","","","null","57","","","","","","","","","","","","","","","",""
"","ISI","","html-keyboard-response","375","477935","0.0-1.0-516.0","0","0","59701","","null","","","null","57","NaN","","","","","","","","","","","","","","",""
"","S2","","html-keyboard-response","376","478204","0.0-1.0-517.0","0","0","59701","","null","","","null","57","","NaN","","","","","","","","","","","","","",""
"","response","","html-keyboard-response","377","478629","0.0-1.0-518.0-0.0","0","0","59701","","422","","","68","57","","","2","57","training","adjacent","BA","2","1","R.jpg","N.jpg","0","0","1","",""
"","feedback","","html-keyboard-response","378","479633","0.0-1.0-519.0-0.0","0","0","59701","","null","","","null","57","","","","","","","","","","","","","","","",""
"","ITI","","html-keyboard-response","379","480637","0.0-1.0-522.0","0","0","59701","","null","","","null","57","","","","","","","","","","","","","","","NaN",""
"","S1","","html-keyboard-response","380","480890","0.0-1.0-524.0","0","0","59701","","null","","","null","58","","","","","","","","","","","","","","","",""
"","ISI","","html-keyboard-response","381","481894","0.0-1.0-525.0","0","0","59701","","null","","","null","58","NaN","","","","","","","","","","","","","","",""
"","S2","","html-keyboard-response","382","482148","0.0-1.0-526.0","0","0","59701","","null","","","null","58","","NaN","","","","","","","","","","","","","",""
"","response","","html-keyboard-response","383","482521","0.0-1.0-527.0-0.0","0","0","59701","","370","","","75","58","","","2","58","training","adjacent","FG","6","7","L.jpg","Q.jpg","1","1","1","",""
"","feedback","","html-keyboard-response","384","483526","0.0-1.0-528.0-0.0","0","0","59701","","null","","","null","58","","","","","","","","","","","","","","","",""
"","ITI","","html-keyboard-response","385","484529","0.0-1.0-531.0","0","0","59701","","null","","","null","58","","","","","","","","","","","","","","","NaN",""
"","S1","","html-keyboard-response","386","484784","0.0-1.0-533.0","0","0","59701","","null","","","null","59","","","","","","","","","","","","","","","",""
"","ISI","","html-keyboard-response","387","485788","0.0-1.0-534.0","0","0","59701","","null","","","null","59","NaN","","","","","","","","","","","","","","",""
"","S2","","html-keyboard-response","388","486040","0.0-1.0-535.0","0","0","59701","","null","","","null","59","","NaN","","","","","","","","","","","","","",""
"","response","","html-keyboard-response","389","486320","0.0-1.0-536.0-0.0","0","0","59701","","277","","","68","59","","","2","59","training","adjacent","GF","7","6","Q.jpg","L.jpg","0","0","1","",""
"","feedback","","html-keyboard-response","390","487324","0.0-1.0-537.0-0.0","0","0","59701","","null","","","null","59","","","","","","","","","","","","","","","",""
"","ITI","","html-keyboard-response","391","488327","0.0-1.0-540.0","0","0","59701","","null","","","null","59","","","","","","","","","","","","","","","NaN",""
"","S1","","html-keyboard-response","392","488580","0.0-1.0-542.0","0","0","59701","","null","","","null","60","","","","","","","","","","","","","","","",""
"","ISI","","html-keyboard-response","393","489583","0.0-1.0-543.0","0","0","59701","","null","","","null","60","NaN","","","","","","","","","","","","","","",""
"","S2","","html-keyboard-response","394","489837","0.0-1.0-544.0","0","0","59701","","null","","","null","60","","NaN","","","","","","","","","","","","","",""
"","response","","html-keyboard-response","395","490252","0.0-1.0-545.0-0.0","0","0","59701","","412","","","75","60","","","2","60","training","adjacent","CD","3","4","M.jpg","O.jpg","1","1","1","",""
"","feedback","","html-keyboard-response","396","491255","0.0-1.0-546.0-0.0","0","0","59701","","null","","","null","60","","","","","","","","","","","","","","","",""
"","ITI","","html-keyboard-response","397","492259","0.0-1.0-549.0","0","0","59701","","null","","","null","60","","","","","","","","","","","","","","","NaN",""
"","S1","","html-keyboard-response","398","492513","0.0-1.0-551.0","0","0","59701","","null","","","null","61","","","","","","","","","","","","","","","",""
"","ISI","","html-keyboard-response","399","493516","0.0-1.0-552.0","0","0","59701","","null","","","null","61","NaN","","","","","","","","","","","","","","",""
"","S2","","html-keyboard-response","400","493775","0.0-1.0-553.0","0","0","59701","","null","","","null","61","","NaN","","","","","","","","","","","","","",""
"","response","","html-keyboard-response","401","494118","0.0-1.0-554.0-0.0","0","0","59701","","340","","","68","61","","","2","61","training","adjacent","GF","7","6","Q.jpg","L.jpg","0","0","1","",""
"","feedback","","html-keyboard-response","402","495122","0.0-1.0-555.0-0.0","0","0","59701","","null","","","null","61","","","","","","","","","","","","","","","",""
"","ITI","","html-keyboard-response","403","496126","0.0-1.0-558.0","0","0","59701","","null","","","null","61","","","","","","","","","","","","","","","NaN",""
"","S1","","html-keyboard-response","404","496383","0.0-1.0-560.0","0","0","59701","","null","","","null","62","","","","","","","","","","","","","","","",""
"","ISI","","html-keyboard-response","405","497388","0.0-1.0-561.0","0","0","59701","","null","","","null","62","NaN","","","","","","","","","","","","","","",""
"","S2","","html-keyboard-response","406","497642","0.0-1.0-562.0","0","0","59701","","null","","","null","62","","NaN","","","","","","","","","","","","","",""
"","response","","html-keyboard-response","407","498437","0.0-1.0-563.0-0.0","0","0","59701","","794","","","75","62","","","2","62","training","adjacent","FG","6","7","L.jpg","Q.jpg","1","1","1","",""
"","feedback","","html-keyboard-response","408","499442","0.0-1.0-564.0-0.0","0","0","59701","","null","","","null","62","","","","","","","","","","","","","","","",""
"","ITI","","html-keyboard-response","409","500446","0.0-1.0-567.0","0","0","59701","","null","","","null","62","","","","","","","","","","","","","","","NaN",""
"","S1","","html-keyboard-response","410","500700","0.0-1.0-569.0","0","0","59701","","null","","","null","63","","","","","","","","","","","","","","","",""
"","ISI","","html-keyboard-response","411","501702","0.0-1.0-570.0","0","0","59701","","null","","","null","63","NaN","","","","","","","","","","","","","","",""
"","S2","","html-keyboard-response","412","501956","0.0-1.0-571.0","0","0","59701","","null","","","null","63","","NaN","","","","","","","","","","","","","",""
"","response","","html-keyboard-response","413","502396","0.0-1.0-572.0-0.0","0","0","59701","","438","","","75","63","","","2","63","training","adjacent","AB","1","2","N.jpg","R.jpg","1","1","1","",""
"","feedback","","html-keyboard-response","414","503401","0.0-1.0-573.0-0.0","0","0","59701","","null","","","null","63","","","","","","","","","","","","","","","",""
"","ITI","","html-keyboard-response","415","504404","0.0-1.0-576.0","0","0","59701","","null","","","null","63","","","","","","","","","","","","","","","NaN",""
"","S1","","html-keyboard-response","416","504658","0.0-1.0-578.0","0","0","59701","","null","","","null","64","","","","","","","","","","","","","","","",""
"","ISI","","html-keyboard-response","417","505660","0.0-1.0-579.0","0","0","59701","","null","","","null","64","NaN","","","","","","","","","","","","","","",""
"","S2","","html-keyboard-response","418","505914","0.0-1.0-580.0","0","0","59701","","null","","","null","64","","NaN","","","","","","","","","","","","","",""
"","response","","html-keyboard-response","419","506790","0.0-1.0-581.0-0.0","0","0","59701","","873","","","68","64","","","2","64","training","adjacent","EF","5","6","P.jpg","L.jpg","0","1","0","",""
"","feedback","","html-keyboard-response","420","507803","0.0-1.0-582.0-0.0","0","0","59701","","null","","","null","64","","","","","","","","","","","","","","","",""
"","time_out","","html-keyboard-response","421","509806","0.0-1.0-584.0-0.0","0","0","59701","","null","","","null","64","","","","","","","","","","","","","","","",""
"","ITI","","html-keyboard-response","422","510809","0.0-1.0-585.0","0","0","59701","","null","","","null","64","","","","","","","","","","","","","","","NaN",""
"","S1","","html-keyboard-response","423","511063","0.0-1.0-587.0","0","0","59701","","null","","","null","65","","","","","","","","","","","","","","","",""
"","ISI","","html-keyboard-response","424","512066","0.0-1.0-588.0","0","0","59701","","null","","","null","65","NaN","","","","","","","","","","","","","","",""
"","S2","","html-keyboard-response","425","512329","0.0-1.0-589.0","0","0","59701","","null","","","null","65","","NaN","","","","","","","","","","","","","",""
"","response","","html-keyboard-response","426","512809","0.0-1.0-590.0-0.0","0","0","59701","","477","","","75","65","","","2","65","training","adjacent","ED","5","4","P.jpg","O.jpg","1","0","0","",""
"","feedback","","html-keyboard-response","427","513812","0.0-1.0-591.0-0.0","0","0","59701","","null","","","null","65","","","","","","","","","","","","","","","",""
"","time_out","","html-keyboard-response","428","515816","0.0-1.0-593.0-0.0","0","0","59701","","null","","","null","65","","","","","","","","","","","","","","","",""
"","ITI","","html-keyboard-response","429","516819","0.0-1.0-594.0","0","0","59701","","null","","","null","65","","","","","","","","","","","","","","","NaN",""
"","S1","","html-keyboard-response","430","517072","0.0-1.0-596.0","0","0","59701","","null","","","null","66","","","","","","","","","","","","","","","",""
"","ISI","","html-keyboard-response","431","518075","0.0-1.0-597.0","0","0","59701","","null","","","null","66","NaN","","","","","","","","","","","","","","",""
"","S2","","html-keyboard-response","432","518329","0.0-1.0-598.0","0","0","59701","","null","","","null","66","","NaN","","","","","","","","","","","","","",""
"","response","","html-keyboard-response","433","518654","0.0-1.0-599.0-0.0","0","0","59701","","323","","","75","66","","","2","66","training","adjacent","AB","1","2","N.jpg","R.jpg","1","1","1","",""
"","feedback","","html-keyboard-response","434","519657","0.0-1.0-600.0-0.0","0","0","59701","","null","","","null","66","","","","","","","","","","","","","","","",""
"","ITI","","html-keyboard-response","435","520661","0.0-1.0-603.0","0","0","59701","","null","","","null","66","","","","","","","","","","","","","","","NaN",""
"","S1","","html-keyboard-response","436","520914","0.0-1.0-605.0","0","0","59701","","null","","","null","67","","","","","","","","","","","","","","","",""
"","ISI","","html-keyboard-response","437","521919","0.0-1.0-606.0","0","0","59701","","null","","","null","67","NaN","","","","","","","","","","","","","","",""
"","S2","","html-keyboard-response","438","522174","0.0-1.0-607.0","0","0","59701","","null","","","null","67","","NaN","","","","","","","","","","","","","",""
"","response","","html-keyboard-response","439","522543","0.0-1.0-608.0-0.0","0","0","59701","","368","","","68","67","","","2","67","training","adjacent","DE","4","5","O.jpg","P.jpg","0","1","0","",""
"","feedback","","html-keyboard-response","440","523547","0.0-1.0-609.0-0.0","0","0","59701","","null","","","null","67","","","","","","","","","","","","","","","",""
"","time_out","","html-keyboard-response","441","525552","0.0-1.0-611.0-0.0","0","0","59701","","null","","","null","67","","","","","","","","","","","","","","","",""
"","ITI","","html-keyboard-response","442","526556","0.0-1.0-612.0","0","0","59701","","null","","","null","67","","","","","","","","","","","","","","","NaN",""
"","S1","","html-keyboard-response","443","526809","0.0-1.0-614.0","0","0","59701","","null","","","null","68","","","","","","","","","","","","","","","",""
"","ISI","","html-keyboard-response","444","527812","0.0-1.0-615.0","0","0","59701","","null","","","null","68","NaN","","","","","","","","","","","","","","",""
"","S2","","html-keyboard-response","445","528065","0.0-1.0-616.0","0","0","59701","","null","","","null","68","","NaN","","","","","","","","","","","","","",""
"","response","","html-keyboard-response","446","528484","0.0-1.0-617.0-0.0","0","0","59701","","417","","","68","68","","","2","68","training","adjacent","GF","7","6","Q.jpg","L.jpg","0","0","1","",""
"","feedback","","html-keyboard-response","447","529486","0.0-1.0-618.0-0.0","0","0","59701","","null","","","null","68","","","","","","","","","","","","","","","",""
"","ITI","","html-keyboard-response","448","530501","0.0-1.0-621.0","0","0","59701","","null","","","null","68","","","","","","","","","","","","","","","NaN",""
"","S1","","html-keyboard-response","449","530754","0.0-1.0-623.0","0","0","59701","","null","","","null","69","","","","","","","","","","","","","","","",""
"","ISI","","html-keyboard-response","450","531757","0.0-1.0-624.0","0","0","59701","","null","","","null","69","NaN","","","","","","","","","","","","","","",""
"","S2","","html-keyboard-response","451","532012","0.0-1.0-625.0","0","0","59701","","null","","","null","69","","NaN","","","","","","","","","","","","","",""
"","response","","html-keyboard-response","452","532383","0.0-1.0-626.0-0.0","0","0","59701","","369","","","68","69","","","2","69","training","adjacent","BC","2","3","R.jpg","M.jpg","0","1","0","",""
"","feedback","","html-keyboard-response","453","533388","0.0-1.0-627.0-0.0","0","0","59701","","null","","","null","69","","","","","","","","","","","","","","","",""
"","time_out","","html-keyboard-response","454","535394","0.0-1.0-629.0-0.0","0","0","59701","","null","","","null","69","","","","","","","","","","","","","","","",""
"","ITI","","html-keyboard-response","455","536397","0.0-1.0-630.0","0","0","59701","","null","","","null","69","","","","","","","","","","","","","","","NaN",""
"","S1","","html-keyboard-response","456","536652","0.0-1.0-632.0","0","0","59701","","null","","","null","70","","","","","","","","","","","","","","","",""
"","ISI","","html-keyboard-response","457","537655","0.0-1.0-633.0","0","0","59701","","null","","","null","70","NaN","","","","","","","","","","","","","","",""
"","S2","","html-keyboard-response","458","537909","0.0-1.0-634.0","0","0","59701","","null","","","null","70","","NaN","","","","","","","","","","","","","",""
"","response","","html-keyboard-response","459","539152","0.0-1.0-635.0-0.0","0","0","59701","","1241","","","68","70","","","2","70","training","adjacent","CD","3","4","M.jpg","O.jpg","0","1","0","",""
"","feedback","","html-keyboard-response","460","540156","0.0-1.0-636.0-0.0","0","0","59701","","null","","","null","70","","","","","","","","","","","","","","","",""
"","time_out","","html-keyboard-response","461","542161","0.0-1.0-638.0-0.0","0","0","59701","","null","","","null","70","","","","","","","","","","","","","","","",""
"","ITI","","html-keyboard-response","462","543165","0.0-1.0-639.0","0","0","59701","","null","","","null","70","","","","","","","","","","","","","","","NaN",""
"","S1","","html-keyboard-response","463","543419","0.0-1.0-641.0","0","0","59701","","null","","","null","71","","","","","","","","","","","","","","","",""
"","ISI","","html-keyboard-response","464","544422","0.0-1.0-642.0","0","0","59701","","null","","","null","71","NaN","","","","","","","","","","","","","","",""
"","S2","","html-keyboard-response","465","544676","0.0-1.0-643.0","0","0","59701","","null","","","null","71","","NaN","","","","","","","","","","","","","",""
"","response","","html-keyboard-response","466","544891","0.0-1.0-644.0-0.0","0","0","59701","","212","","","75","71","","","2","71","training","adjacent","AB","1","2","N.jpg","R.jpg","1","1","1","",""
"","feedback","","html-keyboard-response","467","545895","0.0-1.0-645.0-0.0","0","0","59701","","null","","","null","71","","","","","","","","","","","","","","","",""
"","ITI","","html-keyboard-response","468","546898","0.0-1.0-648.0","0","0","59701","","null","","","null","71","","","","","","","","","","","","","","","NaN",""
"","S1","","html-keyboard-response","469","547153","0.0-1.0-650.0","0","0","59701","","null","","","null","72","","","","","","","","","","","","","","","",""
"","ISI","","html-keyboard-response","470","548156","0.0-1.0-651.0","0","0","59701","","null","","","null","72","NaN","","","","","","","","","","","","","","",""
"","S2","","html-keyboard-response","471","548422","0.0-1.0-652.0","0","0","59701","","null","","","null","72","","NaN","","","","","","","","","","","","","",""
"","response","","html-keyboard-response","472","548922","0.0-1.0-653.0-0.0","0","0","59701","","498","","","68","72","","","2","72","training","adjacent","BC","2","3","R.jpg","M.jpg","0","1","0","",""
"","feedback","","html-keyboard-response","473","549926","0.0-1.0-654.0-0.0","0","0","59701","","null","","","null","72","","","","","","","","","","","","","","","",""
"","time_out","","html-keyboard-response","474","551930","0.0-1.0-656.0-0.0","0","0","59701","","null","","","null","72","","","","","","","","","","","","","","","",""
"","ITI","","html-keyboard-response","475","552942","0.0-1.0-657.0","0","0","59701","","null","","","null","72","","","","","","","","","","","","","","","NaN",""
"","S1","","html-keyboard-response","476","553195","0.0-1.0-659.0","0","0","59701","","null","","","null","73","","","","","","","","","","","","","","","",""
"","ISI","","html-keyboard-response","477","554199","0.0-1.0-660.0","0","0","59701","","null","","","null","73","NaN","","","","","","","","","","","","","","",""
"","S2","","html-keyboard-response","478","554454","0.0-1.0-661.0","0","0","59701","","null","","","null","73","","NaN","","","","","","","","","","","","","",""
"","response","","html-keyboard-response","479","555330","0.0-1.0-662.0-0.0","0","0","59701","","873","","","68","73","","","2","73","training","adjacent","FE","6","5","L.jpg","P.jpg","0","0","1","",""
"","feedback","","html-keyboard-response","480","556334","0.0-1.0-663.0-0.0","0","0","59701","","null","","","null","73","","","","","","","","","","","","","","","",""
"","ITI","","html-keyboard-response","481","557338","0.0-1.0-666.0","0","0","59701","","null","","","null","73","","","","","","","","","","","","","","","NaN",""
"","S1","","html-keyboard-response","482","557592","0.0-1.0-668.0","0","0","59701","","null","","","null","74","","","","","","","","","","","","","","","",""
"","ISI","","html-keyboard-response","483","558596","0.0-1.0-669.0","0","0","59701","","null","","","null","74","NaN","","","","","","","","","","","","","","",""
"","S2","","html-keyboard-response","484","558850","0.0-1.0-670.0","0","0","59701","","null","","","null","74","","NaN","","","","","","","","","","","","","",""
"","response","","html-keyboard-response","485","559313","0.0-1.0-671.0-0.0","0","0","59701","","461","","","75","74","","","2","74","training","adjacent","ED","5","4","P.jpg","O.jpg","1","0","0","",""
"","feedback","","html-keyboard-response","486","560318","0.0-1.0-672.0-0.0","0","0","59701","","null","","","null","74","","","","","","","","","","","","","","","",""
"","time_out","","html-keyboard-response","487","562321","0.0-1.0-674.0-0.0","0","0","59701","","null","","","null","74","","","","","","","","","","","","","","","",""
"","ITI","","html-keyboard-response","488","563325","0.0-1.0-675.0","0","0","59701","","null","","","null","74","","","","","","","","","","","","","","","NaN",""
"","S1","","html-keyboard-response","489","563590","0.0-1.0-677.0","0","0","59701","","null","","","null","75","","","","","","","","","","","","","","","",""
"","ISI","","html-keyboard-response","490","564600","0.0-1.0-678.0","0","0","59701","","null","","","null","75","NaN","","","","","","","","","","","","","","",""
"","S2","","html-keyboard-response","491","564854","0.0-1.0-679.0","0","0","59701","","null","","","null","75","","NaN","","","","","","","","","","","","","",""
"","response","","html-keyboard-response","492","565601","0.0-1.0-680.0-0.0","0","0","59701","","745","","","75","75","","","2","75","training","adjacent","ED","5","4","P.jpg","O.jpg","1","0","0","",""
"","feedback","","html-keyboard-response","493","566607","0.0-1.0-681.0-0.0","0","0","59701","","null","","","null","75","","","","","","","","","","","","","","","",""
"","time_out","","html-keyboard-response","494","568610","0.0-1.0-683.0-0.0","0","0","59701","","null","","","null","75","","","","","","","","","","","","","","","",""
"","ITI","","html-keyboard-response","495","569613","0.0-1.0-684.0","0","0","59701","","null","","","null","75","","","","","","","","","","","","","","","NaN",""
"","S1","","html-keyboard-response","496","569867","0.0-1.0-686.0","0","0","59701","","null","","","null","76","","","","","","","","","","","","","","","",""
"","ISI","","html-keyboard-response","497","570871","0.0-1.0-687.0","0","0","59701","","null","","","null","76","NaN","","","","","","","","","","","","","","",""
"","S2","","html-keyboard-response","498","571124","0.0-1.0-688.0","0","0","59701","","null","","","null","76","","NaN","","","","","","","","","","","","","",""
"","response","","html-keyboard-response","499","571727","0.0-1.0-689.0-0.0","0","0","59701","","601","","","75","76","","","2","76","training","adjacent","DE","4","5","O.jpg","P.jpg","1","1","1","",""
"","feedback","","html-keyboard-response","500","572731","0.0-1.0-690.0-0.0","0","0","59701","","null","","","null","76","","","","","","","","","","","","","","","",""
"","ITI","","html-keyboard-response","501","573737","0.0-1.0-693.0","0","0","59701","","null","","","null","76","","","","","","","","","","","","","","","NaN",""
"","S1","","html-keyboard-response","502","573992","0.0-1.0-695.0","0","0","59701","","null","","","null","77","","","","","","","","","","","","","","","",""
"","ISI","","html-keyboard-response","503","574995","0.0-1.0-696.0","0","0","59701","","null","","","null","77","NaN","","","","","","","","","","","","","","",""
"","S2","","html-keyboard-response","504","575248","0.0-1.0-697.0","0","0","59701","","null","","","null","77","","NaN","","","","","","","","","","","","","",""
"","response","","html-keyboard-response","505","575600","0.0-1.0-698.0-0.0","0","0","59701","","350","","","68","77","","","2","77","training","adjacent","ED","5","4","P.jpg","O.jpg","0","0","1","",""
"","feedback","","html-keyboard-response","506","576608","0.0-1.0-699.0-0.0","0","0","59701","","null","","","null","77","","","","","","","","","","","","","","","",""
"","ITI","","html-keyboard-response","507","577613","0.0-1.0-702.0","0","0","59701","","null","","","null","77","","","","","","","","","","","","","","","NaN",""
"","S1","","html-keyboard-response","508","577867","0.0-1.0-704.0","0","0","59701","","null","","","null","78","","","","","","","","","","","","","","","",""
"","ISI","","html-keyboard-response","509","578871","0.0-1.0-705.0","0","0","59701","","null","","","null","78","NaN","","","","","","","","","","","","","","",""
"","S2","","html-keyboard-response","510","579124","0.0-1.0-706.0","0","0","59701","","null","","","null","78","","NaN","","","","","","","","","","","","","",""
"","response","","html-keyboard-response","511","579655","0.0-1.0-707.0-0.0","0","0","59701","","530","","","68","78","","","2","78","training","adjacent","BA","2","1","R.jpg","N.jpg","0","0","1","",""
"","feedback","","html-keyboard-response","512","580659","0.0-1.0-708.0-0.0","0","0","59701","","null","","","null","78","","","","","","","","","","","","","","","",""
"","ITI","","html-keyboard-response","513","581663","0.0-1.0-711.0","0","0","59701","","null","","","null","78","","","","","","","","","","","","","","","NaN",""
"","S1","","html-keyboard-response","514","581918","0.0-1.0-713.0","0","0","59701","","null","","","null","79","","","","","","","","","","","","","","","",""
"","ISI","","html-keyboard-response","515","582922","0.0-1.0-714.0","0","0","59701","","null","","","null","79","NaN","","","","","","","","","","","","","","",""
"","S2","","html-keyboard-response","516","583176","0.0-1.0-715.0","0","0","59701","","null","","","null","79","","NaN","","","","","","","","","","","","","",""
"","response","","html-keyboard-response","517","583635","0.0-1.0-716.0-0.0","0","0","59701","","456","","","75","79","","","2","79","training","adjacent","CB","3","2","M.jpg","R.jpg","1","0","0","",""
"","feedback","","html-keyboard-response","518","584640","0.0-1.0-717.0-0.0","0","0","59701","","null","","","null","79","","","","","","","","","","","","","","","",""
"","time_out","","html-keyboard-response","519","586645","0.0-1.0-719.0-0.0","0","0","59701","","null","","","null","79","","","","","","","","","","","","","","","",""
"","ITI","","html-keyboard-response","520","587650","0.0-1.0-720.0","0","0","59701","","null","","","null","79","","","","","","","","","","","","","","","NaN",""
"","S1","","html-keyboard-response","521","587904","0.0-1.0-722.0","0","0","59701","","null","","","null","80","","","","","","","","","","","","","","","",""
"","ISI","","html-keyboard-response","522","588911","0.0-1.0-723.0","0","0","59701","","null","","","null","80","NaN","","","","","","","","","","","","","","",""
"","S2","","html-keyboard-response","523","589165","0.0-1.0-724.0","0","0","59701","","null","","","null","80","","NaN","","","","","","","","","","","","","",""
"","response","","html-keyboard-response","524","589624","0.0-1.0-725.0-0.0","0","0","59701","","458","","","75","80","","","2","80","training","adjacent","FG","6","7","L.jpg","Q.jpg","1","1","1","",""
"","feedback","","html-keyboard-response","525","590628","0.0-1.0-726.0-0.0","0","0","59701","","null","","","null","80","","","","","","","","","","","","","","","",""
"","ITI","","html-keyboard-response","526","591633","0.0-1.0-729.0","0","0","59701","","null","","","null","80","","","","","","","","","","","","","","","NaN",""
"","S1","","html-keyboard-response","527","591892","0.0-1.0-731.0","0","0","59701","","null","","","null","81","","","","","","","","","","","","","","","",""
"","ISI","","html-keyboard-response","528","592895","0.0-1.0-732.0","0","0","59701","","null","","","null","81","NaN","","","","","","","","","","","","","","",""
"","S2","","html-keyboard-response","529","593148","0.0-1.0-733.0","0","0","59701","","null","","","null","81","","NaN","","","","","","","","","","","","","",""
"","response","","html-keyboard-response","530","593553","0.0-1.0-734.0-0.0","0","0","59701","","403","","","75","81","","","2","81","training","adjacent","CB","3","2","M.jpg","R.jpg","1","0","0","",""
"","feedback","","html-keyboard-response","531","594556","0.0-1.0-735.0-0.0","0","0","59701","","null","","","null","81","","","","","","","","","","","","","","","",""
"","time_out","","html-keyboard-response","532","596561","0.0-1.0-737.0-0.0","0","0","59701","","null","","","null","81","","","","","","","","","","","","","","","",""
"","ITI","","html-keyboard-response","533","597565","0.0-1.0-738.0","0","0","59701","","null","","","null","81","","","","","","","","","","","","","","","NaN",""
"","S1","","html-keyboard-response","534","597819","0.0-1.0-740.0","0","0","59701","","null","","","null","82","","","","","","","","","","","","","","","",""
"","ISI","","html-keyboard-response","535","598829","0.0-1.0-741.0","0","0","59701","","null","","","null","82","NaN","","","","","","","","","","","","","","",""
"","S2","","html-keyboard-response","536","599082","0.0-1.0-742.0","0","0","59701","","null","","","null","82","","NaN","","","","","","","","","","","","","",""
"","response","","html-keyboard-response","537","599621","0.0-1.0-743.0-0.0","0","0","59701","","536","","","75","82","","","2","82","training","adjacent","CD","3","4","M.jpg","O.jpg","1","1","1","",""
"","feedback","","html-keyboard-response","538","600625","0.0-1.0-744.0-0.0","0","0","59701","","null","","","null","82","","","","","","","","","","","","","","","",""
"","ITI","","html-keyboard-response","539","601629","0.0-1.0-747.0","0","0","59701","","null","","","null","82","","","","","","","","","","","","","","","NaN",""
"","S1","","html-keyboard-response","540","601885","0.0-1.0-749.0","0","0","59701","","null","","","null","83","","","","","","","","","","","","","","","",""
"","ISI","","html-keyboard-response","541","602889","0.0-1.0-750.0","0","0","59701","","null","","","null","83","NaN","","","","","","","","","","","","","","",""
"","S2","","html-keyboard-response","542","603142","0.0-1.0-751.0","0","0","59701","","null","","","null","83","","NaN","","","","","","","","","","","","","",""
"","response","","html-keyboard-response","543","603946","0.0-1.0-752.0-0.0","0","0","59701","","802","","","75","83","","","2","83","training","adjacent","DC","4","3","O.jpg","M.jpg","1","0","0","",""
"","feedback","","html-keyboard-response","544","604950","0.0-1.0-753.0-0.0","0","0","59701","","null","","","null","83","","","","","","","","","","","","","","","",""
"","time_out","","html-keyboard-response","545","606954","0.0-1.0-755.0-0.0","0","0","59701","","null","","","null","83","","","","","","","","","","","","","","","",""
"","ITI","","html-keyboard-response","546","607957","0.0-1.0-756.0","0","0","59701","","null","","","null","83","","","","","","","","","","","","","","","NaN",""
"","S1","","html-keyboard-response","547","608211","0.0-1.0-758.0","0","0","59701","","null","","","null","84","","","","","","","","","","","","","","","",""
"","ISI","","html-keyboard-response","548","609215","0.0-1.0-759.0","0","0","59701","","null","","","null","84","NaN","","","","","","","","","","","","","","",""
"","S2","","html-keyboard-response","549","609469","0.0-1.0-760.0","0","0","59701","","null","","","null","84","","NaN","","","","","","","","","","","","","",""
"","response","","html-keyboard-response","550","609754","0.0-1.0-761.0-0.0","0","0","59701","","282","","","75","84","","","2","84","training","adjacent","AB","1","2","N.jpg","R.jpg","1","1","1","",""
"","feedback","","html-keyboard-response","551","610757","0.0-1.0-762.0-0.0","0","0","59701","","null","","","null","84","","","","","","","","","","","","","","","",""
"","ITI","","html-keyboard-response","552","611762","0.0-1.0-765.0","0","0","59701","","null","","","null","84","","","","","","","","","","","","","","","NaN",""
"","S1","","html-keyboard-response","553","612016","0.0-1.0-767.0","0","0","59701","","null","","","null","85","","","","","","","","","","","","","","","",""
"","ISI","","html-keyboard-response","554","613019","0.0-1.0-768.0","0","0","59701","","null","","","null","85","NaN","","","","","","","","","","","","","","",""
"","S2","","html-keyboard-response","555","613273","0.0-1.0-769.0","0","0","59701","","null","","","null","85","","NaN","","","","","","","","","","","","","",""
"","response","","html-keyboard-response","556","613540","0.0-1.0-770.0-0.0","0","0","59701","","264","","","68","85","","","2","85","training","adjacent","BC","2","3","R.jpg","M.jpg","0","1","0","",""
"","feedback","","html-keyboard-response","557","614560","0.0-1.0-771.0-0.0","0","0","59701","","null","","","null","85","","","","","","","","","","","","","","","",""
"","time_out","","html-keyboard-response","558","616563","0.0-1.0-773.0-0.0","0","0","59701","","null","","","null","85","","","","","","","","","","","","","","","",""
"","ITI","","html-keyboard-response","559","617566","0.0-1.0-774.0","0","0","59701","","null","","","null","85","","","","","","","","","","","","","","","NaN",""
"","S1","","html-keyboard-response","560","617819","0.0-1.0-776.0","0","0","59701","","null","","","null","86","","","","","","","","","","","","","","","",""
"","ISI","","html-keyboard-response","561","618823","0.0-1.0-777.0","0","0","59701","","null","","","null","86","NaN","","","","","","","","","","","","","","",""
"","S2","","html-keyboard-response","562","619077","0.0-1.0-778.0","0","0","59701","","null","","","null","86","","NaN","","","","","","","","","","","","","",""
"","response","","html-keyboard-response","563","619562","0.0-1.0-779.0-0.0","0","0","59701","","482","","","75","86","","","2","86","training","adjacent","CB","3","2","M.jpg","R.jpg","1","0","0","",""
"","feedback","","html-keyboard-response","564","620566","0.0-1.0-780.0-0.0","0","0","59701","","null","","","null","86","","","","","","","","","","","","","","","",""
"","time_out","","html-keyboard-response","565","622570","0.0-1.0-782.0-0.0","0","0","59701","","null","","","null","86","","","","","","","","","","","","","","","",""
"","ITI","","html-keyboard-response","566","623580","0.0-1.0-783.0","0","0","59701","","null","","","null","86","","","","","","","","","","","","","","","NaN",""
"","S1","","html-keyboard-response","567","623834","0.0-1.0-785.0","0","0","59701","","null","","","null","87","","","","","","","","","","","","","","","",""
"","ISI","","html-keyboard-response","568","624837","0.0-1.0-786.0","0","0","59701","","null","","","null","87","NaN","","","","","","","","","","","","","","",""
"","S2","","html-keyboard-response","569","625094","0.0-1.0-787.0","0","0","59701","","null","","","null","87","","NaN","","","","","","","","","","","","","",""
"","response","","html-keyboard-response","570","625479","0.0-1.0-788.0-0.0","0","0","59701","","382","","","68","87","","","2","87","training","adjacent","CB","3","2","M.jpg","R.jpg","0","0","1","",""
"","feedback","","html-keyboard-response","571","626483","0.0-1.0-789.0-0.0","0","0","59701","","null","","","null","87","","","","","","","","","","","","","","","",""
"","ITI","","html-keyboard-response","572","627492","0.0-1.0-792.0","0","0","59701","","null","","","null","87","","","","","","","","","","","","","","","NaN",""
"","S1","","html-keyboard-response","573","627746","0.0-1.0-794.0","0","0","59701","","null","","","null","88","","","","","","","","","","","","","","","",""
"","ISI","","html-keyboard-response","574","628750","0.0-1.0-795.0","0","0","59701","","null","","","null","88","NaN","","","","","","","","","","","","","","",""
"","S2","","html-keyboard-response","575","629004","0.0-1.0-796.0","0","0","59701","","null","","","null","88","","NaN","","","","","","","","","","","","","",""
"","response","","html-keyboard-response","576","629327","0.0-1.0-797.0-0.0","0","0","59701","","320","","","68","88","","","2","88","training","adjacent","DC","4","3","O.jpg","M.jpg","0","0","1","",""
"","feedback","","html-keyboard-response","577","630330","0.0-1.0-798.0-0.0","0","0","59701","","null","","","null","88","","","","","","","","","","","","","","","",""
"","ITI","","html-keyboard-response","578","631334","0.0-1.0-801.0","0","0","59701","","null","","","null","88","","","","","","","","","","","","","","","NaN",""
"","S1","","html-keyboard-response","579","631588","0.0-1.0-803.0","0","0","59701","","null","","","null","89","","","","","","","","","","","","","","","",""
"","ISI","","html-keyboard-response","580","632591","0.0-1.0-804.0","0","0","59701","","null","","","null","89","NaN","","","","","","","","","","","","","","",""
