"success","ttype","start_time","trial_type","trial_index","time_elapsed","internal_node_id","warning","missed_checkup","PID","view_history","rt","responses","repeat_instructions","key_press","index","keypress_isi","keypress_S2","block","trial_num","phase","group_type","pair_type","S1_stim","S2_stim","S1_img","S2_img","S1_chosen","S1_higher","accuracy","keypress_iti","total_bonus_tally"
"true","full_screen","d08012022hr1537","fullscreen","0","54148","0.0-0.0","0","0","35959","","","","","","","","","","","","","","","","","","","","","",""
"","instructions","","instructions","1","180614","0.0-1.0-0.0-0.0","0","0","35959","[{""page_index"":0,""viewing_time"":5689},{""page_index"":1,""viewing_time"":5449},{""page_index"":2,""viewing_time"":65517},{""page_index"":3,""viewing_time"":49809}]","126464","","","","","","","","","","","","","","","","","","","",""
"","comprehension_check","","survey-multi-choice","2","196535","0.0-1.0-0.0-1.0","0","0","35959","","15918","{""Q0"":""True"",""Q1"":""D"",""Q2"":""When you see the prompt 'MAKE A CHOICE' after the second image was presented"",""Q3"":""Green mark"",""Q4"":""either D or K""}","1","","","","","","","","","","","","","","","","","",""
"","missed_instruction_checkup","","html-keyboard-response","3","197944","0.0-1.0-0.0-2.0-0.0","0","1","35959","","1405","","","32","","","","","","","","","","","","","","","","",""
"","instructions","","instructions","4","211874","0.0-1.0-0.1-0.1","0","0","35959","[{""page_index"":0,""viewing_time"":4269},{""page_index"":1,""viewing_time"":8381},{""page_index"":2,""viewing_time"":718},{""page_index"":3,""viewing_time"":560}]","13928","","","","","","","","","","","","","","","","","","","",""
"","comprehension_check","","survey-multi-choice","5","221832","0.0-1.0-0.1-1.1","0","0","35959","","9954","{""Q0"":""True"",""Q1"":""K"",""Q2"":""When you see the prompt 'MAKE A CHOICE' after the second image was presented"",""Q3"":""Green mark"",""Q4"":""either D or K""}","0","","","","","","","","","","","","","","","","","",""
"","start_exp","","html-keyboard-response","6","361092","0.0-1.0-1.0","0","0","35959","","139258","","","32","","","","","","","","","","","","","","","","",""
"","S1","","html-keyboard-response","7","361345","0.0-1.0-2.0","0","0","35959","","null","","","null","0","","","","","","","","","","","","","","","",""
"","ISI","","html-keyboard-response","8","363348","0.0-1.0-3.0","0","0","35959","","null","","","null","0","NaN","","","","","","","","","","","","","","",""
"","S2","","html-keyboard-response","9","363601","0.0-1.0-4.0","0","0","35959","","null","","","null","0","","NaN","","","","","","","","","","","","","",""
"","response","","html-keyboard-response","10","364202","0.0-1.0-5.0","0","0","35959","","600","","","75","0","","","1","0","training","adjacent","BC","2","3","Q.jpg","L.jpg","1","1","1","",""
"","feedback","","html-keyboard-response","11","365204","0.0-1.0-6.0-0.0","0","0","35959","","null","","","null","0","","","","","","","","","","","","","","","",""
"","ITI","","html-keyboard-response","12","366207","0.0-1.0-9.0","0","0","35959","","null","","","null","0","","","","","","","","","","","","","","","NaN",""
"","S1","","html-keyboard-response","13","366460","0.0-1.0-11.0","0","0","35959","","null","","","null","1","","","","","","","","","","","","","","","",""
"","ISI","","html-keyboard-response","14","368462","0.0-1.0-12.0","0","0","35959","","null","","","null","1","NaN","","","","","","","","","","","","","","",""
"","S2","","html-keyboard-response","15","368714","0.0-1.0-13.0","0","0","35959","","null","","","null","1","","NaN","","","","","","","","","","","","","",""
"","response","","html-keyboard-response","16","368959","0.0-1.0-14.0","0","0","35959","","243","","","68","1","","","1","1","training","adjacent","FE","6","5","M.jpg","N.jpg","0","0","1","",""
"","feedback","","html-keyboard-response","17","369962","0.0-1.0-15.0-0.0","0","0","35959","","null","","","null","1","","","","","","","","","","","","","","","",""
"","ITI","","html-keyboard-response","18","370964","0.0-1.0-18.0","0","0","35959","","null","","","null","1","","","","","","","","","","","","","","","NaN",""
"","S1","","html-keyboard-response","19","371216","0.0-1.0-20.0","0","0","35959","","null","","","null","2","","","","","","","","","","","","","","","",""
"","ISI","","html-keyboard-response","20","373218","0.0-1.0-21.0","0","0","35959","","null","","","null","2","NaN","","","","","","","","","","","","","","",""
"","S2","","html-keyboard-response","21","373470","0.0-1.0-22.0","0","0","35959","","null","","","null","2","","NaN","","","","","","","","","","","","","",""
"","response","","html-keyboard-response","22","373595","0.0-1.0-23.0","0","0","35959","","123","","","75","2","","","1","2","training","adjacent","BC","2","3","Q.jpg","L.jpg","1","1","1","",""
"","feedback","","html-keyboard-response","23","374597","0.0-1.0-24.0-0.0","0","0","35959","","null","","","null","2","","","","","","","","","","","","","","","",""
"","ITI","","html-keyboard-response","24","375599","0.0-1.0-27.0","0","0","35959","","null","","","null","2","","","","","","","","","","","","","","","NaN",""
"","S1","","html-keyboard-response","25","375853","0.0-1.0-29.0","0","0","35959","","null","","","null","3","","","","","","","","","","","","","","","",""
"","ISI","","html-keyboard-response","26","377855","0.0-1.0-30.0","0","0","35959","","null","","","null","3","NaN","","","","","","","","","","","","","","",""
"","S2","","html-keyboard-response","27","378108","0.0-1.0-31.0","0","0","35959","","null","","","null","3","","NaN","","","","","","","","","","","","","",""
"","response","","html-keyboard-response","28","380110","0.0-1.0-32.0","0","0","35959","","null","","","null","3","","","1","3","training","adjacent","AB","1","2","O.jpg","Q.jpg","NaN","1","0","",""
"","too_slow_prompt","","html-keyboard-response","29","381112","0.0-1.0-34.0-0.0","1","0","35959","","null","","","null","","","","","","","","","","","","","","","","",""
"","time_out","","html-keyboard-response","30","383115","0.0-1.0-35.0-0.0","0","0","35959","","null","","","null","3","","","","","","","","","","","","","","","",""
"","ITI","","html-keyboard-response","31","384118","0.0-1.0-36.0","0","0","35959","","null","","","null","3","","","","","","","","","","","","","","","NaN",""
"","S1","","html-keyboard-response","32","384370","0.0-1.0-38.0","0","0","35959","","null","","","null","4","","","","","","","","","","","","","","","",""
"","ISI","","html-keyboard-response","33","386372","0.0-1.0-39.0","0","0","35959","","null","","","null","4","NaN","","","","","","","","","","","","","","",""
"","S2","","html-keyboard-response","34","386624","0.0-1.0-40.0","0","0","35959","","null","","","null","4","","NaN","","","","","","","","","","","","","",""
"","response","","html-keyboard-response","35","386875","0.0-1.0-41.0","0","0","35959","","249","","","68","4","","","1","4","training","adjacent","FG","6","7","M.jpg","R.jpg","0","1","0","",""
"","feedback","","html-keyboard-response","36","387877","0.0-1.0-42.0-0.0","0","0","35959","","null","","","null","4","","","","","","","","","","","","","","","",""
"","time_out","","html-keyboard-response","37","389879","0.0-1.0-44.0-0.0","0","0","35959","","null","","","null","4","","","","","","","","","","","","","","","",""
"","ITI","","html-keyboard-response","38","390881","0.0-1.0-45.0","0","0","35959","","null","","","null","4","","","","","","","","","","","","","","","NaN",""
"","S1","","html-keyboard-response","39","391134","0.0-1.0-47.0","0","0","35959","","null","","","null","5","","","","","","","","","","","","","","","",""
"","ISI","","html-keyboard-response","40","393137","0.0-1.0-48.0","0","0","35959","","null","","","null","5","NaN","","","","","","","","","","","","","","",""
"","S2","","html-keyboard-response","41","393389","0.0-1.0-49.0","0","0","35959","","null","","","null","5","","NaN","","","","","","","","","","","","","",""
"","response","","html-keyboard-response","42","393646","0.0-1.0-50.0","0","0","35959","","255","","","75","5","","","1","5","training","adjacent","DC","4","3","P.jpg","L.jpg","1","0","0","",""
"","feedback","","html-keyboard-response","43","394648","0.0-1.0-51.0-0.0","0","0","35959","","null","","","null","5","","","","","","","","","","","","","","","",""
"","time_out","","html-keyboard-response","44","396650","0.0-1.0-53.0-0.0","0","0","35959","","null","","","null","5","","","","","","","","","","","","","","","",""
"","ITI","","html-keyboard-response","45","397653","0.0-1.0-54.0","0","0","35959","","null","","","null","5","","","","","","","","","","","","","","","NaN",""
"","S1","","html-keyboard-response","46","397905","0.0-1.0-56.0","0","0","35959","","null","","","null","6","","","","","","","","","","","","","","","",""
"","ISI","","html-keyboard-response","47","399906","0.0-1.0-57.0","0","0","35959","","528","","","68","6","d","","","","","","","","","","","","","","",""
"","S2","","html-keyboard-response","48","400160","0.0-1.0-58.0","0","0","35959","","null","","","null","6","","NaN","","","","","","","","","","","","","",""
"","response","","html-keyboard-response","49","400705","0.0-1.0-59.0","0","0","35959","","545","","","75","6","","","1","6","training","adjacent","DE","4","5","P.jpg","N.jpg","1","1","1","",""
"","feedback","","html-keyboard-response","50","401707","0.0-1.0-60.0-0.0","0","0","35959","","null","","","null","6","","","","","","","","","","","","","","","",""
"","ITI","","html-keyboard-response","51","402709","0.0-1.0-63.0","0","0","35959","","null","","","null","6","","","","","","","","","","","","","","","NaN",""
"","S1","","html-keyboard-response","52","402962","0.0-1.0-65.0","0","0","35959","","null","","","null","7","","","","","","","","","","","","","","","",""
"","ISI","","html-keyboard-response","53","404964","0.0-1.0-66.0","0","0","35959","","null","","","null","7","NaN","","","","","","","","","","","","","","",""
"","S2","","html-keyboard-response","54","405215","0.0-1.0-67.0","0","0","35959","","null","","","null","7","","NaN","","","","","","","","","","","","","",""
"","response","","html-keyboard-response","55","406275","0.0-1.0-68.0","0","0","35959","","1058","","","68","7","","","1","7","training","adjacent","DE","4","5","P.jpg","N.jpg","0","1","0","",""
"","feedback","","html-keyboard-response","56","407278","0.0-1.0-69.0-0.0","0","0","35959","","null","","","null","7","","","","","","","","","","","","","","","",""
"","time_out","","html-keyboard-response","57","409279","0.0-1.0-71.0-0.0","0","0","35959","","null","","","null","7","","","","","","","","","","","","","","","",""
"","ITI","","html-keyboard-response","58","410282","0.0-1.0-72.0","0","0","35959","","null","","","null","7","","","","","","","","","","","","","","","NaN",""
"","S1","","html-keyboard-response","59","410535","0.0-1.0-74.0","0","0","35959","","null","","","null","8","","","","","","","","","","","","","","","",""
"","ISI","","html-keyboard-response","60","412538","0.0-1.0-75.0","0","0","35959","","null","","","null","8","NaN","","","","","","","","","","","","","","",""
"","S2","","html-keyboard-response","61","412789","0.0-1.0-76.0","0","0","35959","","null","","","null","8","","NaN","","","","","","","","","","","","","",""
"","response","","html-keyboard-response","62","413649","0.0-1.0-77.0","0","0","35959","","857","","","75","8","","","1","8","training","adjacent","CD","3","4","L.jpg","P.jpg","1","1","1","",""
"","feedback","","html-keyboard-response","63","414652","0.0-1.0-78.0-0.0","0","0","35959","","null","","","null","8","","","","","","","","","","","","","","","",""
"","ITI","","html-keyboard-response","64","415654","0.0-1.0-81.0","0","0","35959","","null","","","null","8","","","","","","","","","","","","","","","NaN",""
"","S1","","html-keyboard-response","65","415906","0.0-1.0-83.0","0","0","35959","","null","","","null","9","","","","","","","","","","","","","","","",""
"","ISI","","html-keyboard-response","66","417908","0.0-1.0-84.0","0","0","35959","","null","","","null","9","NaN","","","","","","","","","","","","","","",""
"","S2","","html-keyboard-response","67","418161","0.0-1.0-85.0","0","0","35959","","null","","","null","9","","NaN","","","","","","","","","","","","","",""
"","response","","html-keyboard-response","68","418848","0.0-1.0-86.0","0","0","35959","","686","","","75","9","","","1","9","training","adjacent","AB","1","2","O.jpg","Q.jpg","1","1","1","",""
"","feedback","","html-keyboard-response","69","419850","0.0-1.0-87.0-0.0","0","0","35959","","null","","","null","9","","","","","","","","","","","","","","","",""
"","ITI","","html-keyboard-response","70","420851","0.0-1.0-90.0","0","0","35959","","null","","","null","9","","","","","","","","","","","","","","","NaN",""
"","S1","","html-keyboard-response","71","421103","0.0-1.0-92.0","0","0","35959","","null","","","null","10","","","","","","","","","","","","","","","",""
"","ISI","","html-keyboard-response","72","423105","0.0-1.0-93.0","0","0","35959","","null","","","null","10","NaN","","","","","","","","","","","","","","",""
"","S2","","html-keyboard-response","73","423358","0.0-1.0-94.0","0","0","35959","","null","","","null","10","","NaN","","","","","","","","","","","","","",""
"","response","","html-keyboard-response","74","424170","0.0-1.0-95.0","0","0","35959","","811","","","68","10","","","1","10","training","adjacent","BC","2","3","Q.jpg","L.jpg","0","1","0","",""
"","feedback","","html-keyboard-response","75","425172","0.0-1.0-96.0-0.0","0","0","35959","","null","","","null","10","","","","","","","","","","","","","","","",""
"","time_out","","html-keyboard-response","76","427175","0.0-1.0-98.0-0.0","0","0","35959","","null","","","null","10","","","","","","","","","","","","","","","",""
"","ITI","","html-keyboard-response","77","428178","0.0-1.0-99.0","0","0","35959","","null","","","null","10","","","","","","","","","","","","","","","NaN",""
"","S1","","html-keyboard-response","78","428430","0.0-1.0-101.0","0","0","35959","","null","","","null","11","","","","","","","","","","","","","","","",""
"","ISI","","html-keyboard-response","79","430431","0.0-1.0-102.0","0","0","35959","","null","","","null","11","NaN","","","","","","","","","","","","","","",""
"","S2","","html-keyboard-response","80","430683","0.0-1.0-103.0","0","0","35959","","null","","","null","11","","NaN","","","","","","","","","","","","","",""
"","response","","html-keyboard-response","81","430751","0.0-1.0-104.0","0","0","35959","","67","","","75","11","","","1","11","training","adjacent","FG","6","7","M.jpg","R.jpg","1","1","1","",""
"","feedback","","html-keyboard-response","82","431754","0.0-1.0-105.0-0.0","0","0","35959","","null","","","null","11","","","","","","","","","","","","","","","",""
"","ITI","","html-keyboard-response","83","432755","0.0-1.0-108.0","0","0","35959","","null","","","null","11","","","","","","","","","","","","","","","NaN",""
"","S1","","html-keyboard-response","84","433007","0.0-1.0-110.0","0","0","35959","","null","","","null","12","","","","","","","","","","","","","","","",""
"","ISI","","html-keyboard-response","85","435009","0.0-1.0-111.0","0","0","35959","","null","","","null","12","NaN","","","","","","","","","","","","","","",""
"","S2","","html-keyboard-response","86","435261","0.0-1.0-112.0","0","0","35959","","null","","","null","12","","NaN","","","","","","","","","","","","","",""
"","response","","html-keyboard-response","87","435358","0.0-1.0-113.0","0","0","35959","","95","","","75","12","","","1","12","training","adjacent","ED","5","4","N.jpg","P.jpg","1","0","0","",""
"","feedback","","html-keyboard-response","88","436360","0.0-1.0-114.0-0.0","0","0","35959","","null","","","null","12","","","","","","","","","","","","","","","",""
"","time_out","","html-keyboard-response","89","438362","0.0-1.0-116.0-0.0","0","0","35959","","null","","","null","12","","","","","","","","","","","","","","","",""
"","ITI","","html-keyboard-response","90","439365","0.0-1.0-117.0","0","0","35959","","null","","","null","12","","","","","","","","","","","","","","","NaN",""
"","S1","","html-keyboard-response","91","439619","0.0-1.0-119.0","0","0","35959","","null","","","null","13","","","","","","","","","","","","","","","",""
"","ISI","","html-keyboard-response","92","441622","0.0-1.0-120.0","0","0","35959","","null","","","null","13","NaN","","","","","","","","","","","","","","",""
"","S2","","html-keyboard-response","93","441876","0.0-1.0-121.0","0","0","35959","","null","","","null","13","","NaN","","","","","","","","","","","","","",""
"","response","","html-keyboard-response","94","442352","0.0-1.0-122.0","0","0","35959","","475","","","68","13","","","1","13","training","adjacent","ED","5","4","N.jpg","P.jpg","0","0","1","",""
"","feedback","","html-keyboard-response","95","443354","0.0-1.0-123.0-0.0","0","0","35959","","null","","","null","13","","","","","","","","","","","","","","","",""
"","ITI","","html-keyboard-response","96","444356","0.0-1.0-126.0","0","0","35959","","null","","","null","13","","","","","","","","","","","","","","","NaN",""
"","S1","","html-keyboard-response","97","444609","0.0-1.0-128.0","0","0","35959","","null","","","null","14","","","","","","","","","","","","","","","",""
"","ISI","","html-keyboard-response","98","446610","0.0-1.0-129.0","0","0","35959","","null","","","null","14","NaN","","","","","","","","","","","","","","",""
"","S2","","html-keyboard-response","99","446862","0.0-1.0-130.0","0","0","35959","","null","","","null","14","","NaN","","","","","","","","","","","","","",""
"","response","","html-keyboard-response","100","447710","0.0-1.0-131.0","0","0","35959","","847","","","75","14","","","1","14","training","adjacent","CB","3","2","L.jpg","Q.jpg","1","0","0","",""
"","feedback","","html-keyboard-response","101","448712","0.0-1.0-132.0-0.0","0","0","35959","","null","","","null","14","","","","","","","","","","","","","","","",""
"","time_out","","html-keyboard-response","102","450713","0.0-1.0-134.0-0.0","0","0","35959","","null","","","null","14","","","","","","","","","","","","","","","",""
"","ITI","","html-keyboard-response","103","451715","0.0-1.0-135.0","0","0","35959","","null","","","null","14","","","","","","","","","","","","","","","NaN",""
"","S1","","html-keyboard-response","104","451967","0.0-1.0-137.0","0","0","35959","","null","","","null","15","","","","","","","","","","","","","","","",""
"","ISI","","html-keyboard-response","105","453969","0.0-1.0-138.0","0","0","35959","","null","","","null","15","NaN","","","","","","","","","","","","","","",""
"","S2","","html-keyboard-response","106","454222","0.0-1.0-139.0","0","0","35959","","null","","","null","15","","NaN","","","","","","","","","","","","","",""
"","response","","html-keyboard-response","107","455201","0.0-1.0-140.0","0","0","35959","","977","","","68","15","","","1","15","training","adjacent","BA","2","1","Q.jpg","O.jpg","0","0","1","",""
"","feedback","","html-keyboard-response","108","456203","0.0-1.0-141.0-0.0","0","0","35959","","null","","","null","15","","","","","","","","","","","","","","","",""
"","ITI","","html-keyboard-response","109","457206","0.0-1.0-144.0","0","0","35959","","null","","","null","15","","","","","","","","","","","","","","","NaN",""
"","S1","","html-keyboard-response","110","457457","0.0-1.0-146.0","0","0","35959","","null","","","null","16","","","","","","","","","","","","","","","",""
"","ISI","","html-keyboard-response","111","459460","0.0-1.0-147.0","0","0","35959","","null","","","null","16","NaN","","","","","","","","","","","","","","",""
"","S2","","html-keyboard-response","112","459712","0.0-1.0-148.0","0","0","35959","","null","","","null","16","","NaN","","","","","","","","","","","","","",""
"","response","","html-keyboard-response","113","460116","0.0-1.0-149.0","0","0","35959","","403","","","68","16","","","1","16","training","adjacent","BA","2","1","Q.jpg","O.jpg","0","0","1","",""
"","feedback","","html-keyboard-response","114","461118","0.0-1.0-150.0-0.0","0","0","35959","","null","","","null","16","","","","","","","","","","","","","","","",""
"","ITI","","html-keyboard-response","115","462121","0.0-1.0-153.0","0","0","35959","","null","","","null","16","","","","","","","","","","","","","","","NaN",""
"","S1","","html-keyboard-response","116","462373","0.0-1.0-155.0","0","0","35959","","null","","","null","17","","","","","","","","","","","","","","","",""
"","ISI","","html-keyboard-response","117","464374","0.0-1.0-156.0","0","0","35959","","null","","","null","17","NaN","","","","","","","","","","","","","","",""
"","S2","","html-keyboard-response","118","464627","0.0-1.0-157.0","0","0","35959","","null","","","null","17","","NaN","","","","","","","","","","","","","",""
"","response","","html-keyboard-response","119","464907","0.0-1.0-158.0","0","0","35959","","279","","","75","17","","","1","17","training","adjacent","FE","6","5","M.jpg","N.jpg","1","0","0","",""
"","feedback","","html-keyboard-response","120","465909","0.0-1.0-159.0-0.0","0","0","35959","","null","","","null","17","","","","","","","","","","","","","","","",""
"","time_out","","html-keyboard-response","121","467913","0.0-1.0-161.0-0.0","0","0","35959","","null","","","null","17","","","","","","","","","","","","","","","",""
"","ITI","","html-keyboard-response","122","468921","0.0-1.0-162.0","0","0","35959","","null","","","null","17","","","","","","","","","","","","","","","NaN",""
"","S1","","html-keyboard-response","123","469173","0.0-1.0-164.0","0","0","35959","","null","","","null","18","","","","","","","","","","","","","","","",""
"","ISI","","html-keyboard-response","124","471175","0.0-1.0-165.0","0","0","35959","","315","","","68","18","d","","","","","","","","","","","","","","",""
"","S2","","html-keyboard-response","125","471428","0.0-1.0-166.0","0","0","35959","","null","","","null","18","","NaN","","","","","","","","","","","","","",""
"","response","","html-keyboard-response","126","473430","0.0-1.0-167.0","0","0","35959","","null","","","null","18","","","1","18","training","adjacent","CD","3","4","L.jpg","P.jpg","NaN","1","0","",""
"","too_slow_prompt","","html-keyboard-response","127","474432","0.0-1.0-169.0-0.0","1","0","35959","","null","","","null","","","","","","","","","","","","","","","","",""
"","time_out","","html-keyboard-response","128","476434","0.0-1.0-170.0-0.0","0","0","35959","","null","","","null","18","","","","","","","","","","","","","","","",""
"","ITI","","html-keyboard-response","129","477435","0.0-1.0-171.0","0","0","35959","","null","","","null","18","","","","","","","","","","","","","","","NaN",""
"","S1","","html-keyboard-response","130","477688","0.0-1.0-173.0","0","0","35959","","null","","","null","19","","","","","","","","","","","","","","","",""
"","ISI","","html-keyboard-response","131","479692","0.0-1.0-174.0","0","0","35959","","null","","","null","19","NaN","","","","","","","","","","","","","","",""
"","S2","","html-keyboard-response","132","479944","0.0-1.0-175.0","0","0","35959","","null","","","null","19","","NaN","","","","","","","","","","","","","",""
"","response","","html-keyboard-response","133","480447","0.0-1.0-176.0","0","0","35959","","501","","","75","19","","","1","19","training","adjacent","BA","2","1","Q.jpg","O.jpg","1","0","0","",""
"","feedback","","html-keyboard-response","134","481449","0.0-1.0-177.0-0.0","0","0","35959","","null","","","null","19","","","","","","","","","","","","","","","",""
"","time_out","","html-keyboard-response","135","483452","0.0-1.0-179.0-0.0","0","0","35959","","null","","","null","19","","","","","","","","","","","","","","","",""
"","ITI","","html-keyboard-response","136","484454","0.0-1.0-180.0","0","0","35959","","null","","","null","19","","","","","","","","","","","","","","","NaN",""
"","S1","","html-keyboard-response","137","484706","0.0-1.0-182.0","0","0","35959","","null","","","null","20","","","","","","","","","","","","","","","",""
"","ISI","","html-keyboard-response","138","486708","0.0-1.0-183.0","0","0","35959","","null","","","null","20","NaN","","","","","","","","","","","","","","",""
"","S2","","html-keyboard-response","139","486960","0.0-1.0-184.0","0","0","35959","","null","","","null","20","","NaN","","","","","","","","","","","","","",""
"","response","","html-keyboard-response","140","487417","0.0-1.0-185.0","0","0","35959","","456","","","75","20","","","1","20","training","adjacent","CB","3","2","L.jpg","Q.jpg","1","0","0","",""
"","feedback","","html-keyboard-response","141","488419","0.0-1.0-186.0-0.0","0","0","35959","","null","","","null","20","","","","","","","","","","","","","","","",""
"","time_out","","html-keyboard-response","142","490421","0.0-1.0-188.0-0.0","0","0","35959","","null","","","null","20","","","","","","","","","","","","","","","",""
"","ITI","","html-keyboard-response","143","491423","0.0-1.0-189.0","0","0","35959","","null","","","null","20","","","","","","","","","","","","","","","NaN",""
"","S1","","html-keyboard-response","144","491676","0.0-1.0-191.0","0","0","35959","","null","","","null","21","","","","","","","","","","","","","","","",""
"","ISI","","html-keyboard-response","145","493678","0.0-1.0-192.0","0","0","35959","","null","","","null","21","NaN","","","","","","","","","","","","","","",""
"","S2","","html-keyboard-response","146","493931","0.0-1.0-193.0","0","0","35959","","null","","","null","21","","NaN","","","","","","","","","","","","","",""
"","response","","html-keyboard-response","147","494556","0.0-1.0-194.0","0","0","35959","","623","","","68","21","","","1","21","training","adjacent","AB","1","2","O.jpg","Q.jpg","0","1","0","",""
"","feedback","","html-keyboard-response","148","495558","0.0-1.0-195.0-0.0","0","0","35959","","null","","","null","21","","","","","","","","","","","","","","","",""
"","time_out","","html-keyboard-response","149","497561","0.0-1.0-197.0-0.0","0","0","35959","","null","","","null","21","","","","","","","","","","","","","","","",""
"","ITI","","html-keyboard-response","150","498563","0.0-1.0-198.0","0","0","35959","","null","","","null","21","","","","","","","","","","","","","","","NaN",""
"","S1","","html-keyboard-response","151","498815","0.0-1.0-200.0","0","0","35959","","null","","","null","22","","","","","","","","","","","","","","","",""
"","ISI","","html-keyboard-response","152","500816","0.0-1.0-201.0","0","0","35959","","null","","","null","22","NaN","","","","","","","","","","","","","","",""
"","S2","","html-keyboard-response","153","501069","0.0-1.0-202.0","0","0","35959","","null","","","null","22","","NaN","","","","","","","","","","","","","",""
"","response","","html-keyboard-response","154","501813","0.0-1.0-203.0","0","0","35959","","743","","","68","22","","","1","22","training","adjacent","FE","6","5","M.jpg","N.jpg","0","0","1","",""
"","feedback","","html-keyboard-response","155","502816","0.0-1.0-204.0-0.0","0","0","35959","","null","","","null","22","","","","","","","","","","","","","","","",""
"","ITI","","html-keyboard-response","156","503820","0.0-1.0-207.0","0","0","35959","","null","","","null","22","","","","","","","","","","","","","","","NaN",""
"","S1","","html-keyboard-response","157","504072","0.0-1.0-209.0","0","0","35959","","null","","","null","23","","","","","","","","","","","","","","","",""
"","ISI","","html-keyboard-response","158","506075","0.0-1.0-210.0","0","0","35959","","null","","","null","23","NaN","","","","","","","","","","","","","","",""
"","S2","","html-keyboard-response","159","506326","0.0-1.0-211.0","0","0","35959","","null","","","null","23","","NaN","","","","","","","","","","","","","",""
"","response","","html-keyboard-response","160","506838","0.0-1.0-212.0","0","0","35959","","510","","","75","23","","","1","23","training","adjacent","FG","6","7","M.jpg","R.jpg","1","1","1","",""
"","feedback","","html-keyboard-response","161","507840","0.0-1.0-213.0-0.0","0","0","35959","","null","","","null","23","","","","","","","","","","","","","","","",""
"","ITI","","html-keyboard-response","162","508843","0.0-1.0-216.0","0","0","35959","","null","","","null","23","","","","","","","","","","","","","","","NaN",""
"","S1","","html-keyboard-response","163","509095","0.0-1.0-218.0","0","0","35959","","null","","","null","24","","","","","","","","","","","","","","","",""
"","ISI","","html-keyboard-response","164","511097","0.0-1.0-219.0","0","0","35959","","null","","","null","24","NaN","","","","","","","","","","","","","","",""
"","S2","","html-keyboard-response","165","511349","0.0-1.0-220.0","0","0","35959","","null","","","null","24","","NaN","","","","","","","","","","","","","",""
"","response","","html-keyboard-response","166","511867","0.0-1.0-221.0","0","0","35959","","517","","","68","24","","","1","24","training","adjacent","FE","6","5","M.jpg","N.jpg","0","0","1","",""
"","feedback","","html-keyboard-response","167","512870","0.0-1.0-222.0-0.0","0","0","35959","","null","","","null","24","","","","","","","","","","","","","","","",""
"","ITI","","html-keyboard-response","168","513871","0.0-1.0-225.0","0","0","35959","","null","","","null","24","","","","","","","","","","","","","","","NaN",""
"","S1","","html-keyboard-response","169","514125","0.0-1.0-227.0","0","0","35959","","null","","","null","25","","","","","","","","","","","","","","","",""
"","ISI","","html-keyboard-response","170","516128","0.0-1.0-228.0","0","0","35959","","null","","","null","25","NaN","","","","","","","","","","","","","","",""
"","S2","","html-keyboard-response","171","516382","0.0-1.0-229.0","0","0","35959","","null","","","null","25","","NaN","","","","","","","","","","","","","",""
"","response","","html-keyboard-response","172","516795","0.0-1.0-230.0","0","0","35959","","412","","","75","25","","","1","25","training","adjacent","CB","3","2","L.jpg","Q.jpg","1","0","0","",""
"","feedback","","html-keyboard-response","173","517798","0.0-1.0-231.0-0.0","0","0","35959","","null","","","null","25","","","","","","","","","","","","","","","",""
"","time_out","","html-keyboard-response","174","519801","0.0-1.0-233.0-0.0","0","0","35959","","null","","","null","25","","","","","","","","","","","","","","","",""
"","ITI","","html-keyboard-response","175","520803","0.0-1.0-234.0","0","0","35959","","null","","","null","25","","","","","","","","","","","","","","","NaN",""
"","S1","","html-keyboard-response","176","521055","0.0-1.0-236.0","0","0","35959","","null","","","null","26","","","","","","","","","","","","","","","",""
"","ISI","","html-keyboard-response","177","523058","0.0-1.0-237.0","0","0","35959","","118","","","68","26","d","","","","","","","","","","","","","","",""
"","S2","","html-keyboard-response","178","523310","0.0-1.0-238.0","0","0","35959","","null","","","null","26","","NaN","","","","","","","","","","","","","",""
"","response","","html-keyboard-response","179","523796","0.0-1.0-239.0","0","0","35959","","485","","","75","26","","","1","26","training","adjacent","CD","3","4","L.jpg","P.jpg","1","1","1","",""
"","feedback","","html-keyboard-response","180","524799","0.0-1.0-240.0-0.0","0","0","35959","","null","","","null","26","","","","","","","","","","","","","","","",""
"","ITI","","html-keyboard-response","181","525801","0.0-1.0-243.0","0","0","35959","","null","","","null","26","","","","","","","","","","","","","","","NaN",""
"","S1","","html-keyboard-response","182","526053","0.0-1.0-245.0","0","0","35959","","null","","","null","27","","","","","","","","","","","","","","","",""
"","ISI","","html-keyboard-response","183","528056","0.0-1.0-246.0","0","0","35959","","null","","","null","27","NaN","","","","","","","","","","","","","","",""
"","S2","","html-keyboard-response","184","528309","0.0-1.0-247.0","0","0","35959","","null","","","null","27","","NaN","","","","","","","","","","","","","",""
"","response","","html-keyboard-response","185","528425","0.0-1.0-248.0","0","0","35959","","115","","","68","27","","","1","27","training","adjacent","DC","4","3","P.jpg","L.jpg","0","0","1","",""
"","feedback","","html-keyboard-response","186","529428","0.0-1.0-249.0-0.0","0","0","35959","","null","","","null","27","","","","","","","","","","","","","","","",""
"","ITI","","html-keyboard-response","187","530430","0.0-1.0-252.0","0","0","35959","","null","","","null","27","","","","","","","","","","","","","","","NaN",""
"","S1","","html-keyboard-response","188","530683","0.0-1.0-254.0","0","0","35959","","null","","","null","28","","","","","","","","","","","","","","","",""
"","ISI","","html-keyboard-response","189","532685","0.0-1.0-255.0","0","0","35959","","null","","","null","28","NaN","","","","","","","","","","","","","","",""
"","S2","","html-keyboard-response","190","532938","0.0-1.0-256.0","0","0","35959","","null","","","null","28","","NaN","","","","","","","","","","","","","",""
"","response","","html-keyboard-response","191","532956","0.0-1.0-257.0","0","0","35959","","18","","","75","28","","","1","28","training","adjacent","EF","5","6","N.jpg","M.jpg","1","1","1","",""
"","feedback","","html-keyboard-response","192","533958","0.0-1.0-258.0-0.0","0","0","35959","","null","","","null","28","","","","","","","","","","","","","","","",""
"","ITI","","html-keyboard-response","193","534960","0.0-1.0-261.0","0","0","35959","","null","","","null","28","","","","","","","","","","","","","","","NaN",""
"","S1","","html-keyboard-response","194","535212","0.0-1.0-263.0","0","0","35959","","null","","","null","29","","","","","","","","","","","","","","","",""
"","ISI","","html-keyboard-response","195","537215","0.0-1.0-264.0","0","0","35959","","null","","","null","29","NaN","","","","","","","","","","","","","","",""
"","S2","","html-keyboard-response","196","537467","0.0-1.0-265.0","0","0","35959","","null","","","null","29","","NaN","","","","","","","","","","","","","",""
"","response","","html-keyboard-response","197","537949","0.0-1.0-266.0","0","0","35959","","481","","","75","29","","","1","29","training","adjacent","DC","4","3","P.jpg","L.jpg","1","0","0","",""
"","feedback","","html-keyboard-response","198","538951","0.0-1.0-267.0-0.0","0","0","35959","","null","","","null","29","","","","","","","","","","","","","","","",""
"","time_out","","html-keyboard-response","199","540954","0.0-1.0-269.0-0.0","0","0","35959","","null","","","null","29","","","","","","","","","","","","","","","",""
"","ITI","","html-keyboard-response","200","541957","0.0-1.0-270.0","0","0","35959","","null","","","null","29","","","","","","","","","","","","","","","NaN",""
"","S1","","html-keyboard-response","201","542209","0.0-1.0-272.0","0","0","35959","","null","","","null","30","","","","","","","","","","","","","","","",""
"","ISI","","html-keyboard-response","202","544210","0.0-1.0-273.0","0","0","35959","","null","","","null","30","NaN","","","","","","","","","","","","","","",""
"","S2","","html-keyboard-response","203","544463","0.0-1.0-274.0","0","0","35959","","null","","","null","30","","NaN","","","","","","","","","","","","","",""
"","response","","html-keyboard-response","204","544659","0.0-1.0-275.0","0","0","35959","","195","","","68","30","","","1","30","training","adjacent","CB","3","2","L.jpg","Q.jpg","0","0","1","",""
"","feedback","","html-keyboard-response","205","545662","0.0-1.0-276.0-0.0","0","0","35959","","null","","","null","30","","","","","","","","","","","","","","","",""
"","ITI","","html-keyboard-response","206","546664","0.0-1.0-279.0","0","0","35959","","null","","","null","30","","","","","","","","","","","","","","","NaN",""
"","S1","","html-keyboard-response","207","546917","0.0-1.0-281.0","0","0","35959","","null","","","null","31","","","","","","","","","","","","","","","",""
"","ISI","","html-keyboard-response","208","548919","0.0-1.0-282.0","0","0","35959","","null","","","null","31","NaN","","","","","","","","","","","","","","",""
"","S2","","html-keyboard-response","209","549172","0.0-1.0-283.0","0","0","35959","","null","","","null","31","","NaN","","","","","","","","","","","","","",""
"","response","","html-keyboard-response","210","549615","0.0-1.0-284.0","0","0","35959","","441","","","68","31","","","1","31","training","adjacent","ED","5","4","N.jpg","P.jpg","0","0","1","",""
"","feedback","","html-keyboard-response","211","550617","0.0-1.0-285.0-0.0","0","0","35959","","null","","","null","31","","","","","","","","","","","","","","","",""
"","ITI","","html-keyboard-response","212","551619","0.0-1.0-288.0","0","0","35959","","null","","","null","31","","","","","","","","","","","","","","","NaN",""
"","S1","","html-keyboard-response","213","551871","0.0-1.0-290.0","0","0","35959","","null","","","null","32","","","","","","","","","","","","","","","",""
"","ISI","","html-keyboard-response","214","553874","0.0-1.0-291.0","0","0","35959","","null","","","null","32","NaN","","","","","","","","","","","","","","",""
"","S2","","html-keyboard-response","215","554126","0.0-1.0-292.0","0","0","35959","","null","","","null","32","","NaN","","","","","","","","","","","","","",""
"","response","","html-keyboard-response","216","554617","0.0-1.0-293.0","0","0","35959","","489","","","75","32","","","1","32","training","adjacent","GF","7","6","R.jpg","M.jpg","1","0","0","",""
"","feedback","","html-keyboard-response","217","555620","0.0-1.0-294.0-0.0","0","0","35959","","null","","","null","32","","","","","","","","","","","","","","","",""
"","time_out","","html-keyboard-response","218","557622","0.0-1.0-296.0-0.0","0","0","35959","","null","","","null","32","","","","","","","","","","","","","","","",""
"","ITI","","html-keyboard-response","219","558625","0.0-1.0-297.0","0","0","35959","","117","","","68","32","","","","","","","","","","","","","","","d",""
"","S1","","html-keyboard-response","220","558877","0.0-1.0-299.0","0","0","35959","","null","","","null","33","","","","","","","","","","","","","","","",""
"","ISI","","html-keyboard-response","221","560880","0.0-1.0-300.0","0","0","35959","","119","","","68","33","d","","","","","","","","","","","","","","",""
"","S2","","html-keyboard-response","222","561133","0.0-1.0-301.0","0","0","35959","","null","","","null","33","","NaN","","","","","","","","","","","","","",""
"","response","","html-keyboard-response","223","561246","0.0-1.0-302.0","0","0","35959","","111","","","68","33","","","1","33","training","adjacent","EF","5","6","N.jpg","M.jpg","0","1","0","",""
"","feedback","","html-keyboard-response","224","562248","0.0-1.0-303.0-0.0","0","0","35959","","null","","","null","33","","","","","","","","","","","","","","","",""
"","time_out","","html-keyboard-response","225","564250","0.0-1.0-305.0-0.0","0","0","35959","","null","","","null","33","","","","","","","","","","","","","","","",""
"","ITI","","html-keyboard-response","226","565253","0.0-1.0-306.0","0","0","35959","","null","","","null","33","","","","","","","","","","","","","","","NaN",""
"","S1","","html-keyboard-response","227","565505","0.0-1.0-308.0","0","0","35959","","null","","","null","34","","","","","","","","","","","","","","","",""
"","ISI","","html-keyboard-response","228","567506","0.0-1.0-309.0","0","0","35959","","586","","","75","34","k","","","","","","","","","","","","","","",""
"","S2","","html-keyboard-response","229","567759","0.0-1.0-310.0","0","0","35959","","null","","","null","34","","NaN","","","","","","","","","","","","","",""
"","response","","html-keyboard-response","230","568300","0.0-1.0-311.0","0","0","35959","","540","","","75","34","","","1","34","training","adjacent","EF","5","6","N.jpg","M.jpg","1","1","1","",""
"","feedback","","html-keyboard-response","231","569302","0.0-1.0-312.0-0.0","0","0","35959","","null","","","null","34","","","","","","","","","","","","","","","",""
"","ITI","","html-keyboard-response","232","570304","0.0-1.0-315.0","0","0","35959","","null","","","null","34","","","","","","","","","","","","","","","NaN",""
"","S1","","html-keyboard-response","233","570556","0.0-1.0-317.0","0","0","35959","","null","","","null","35","","","","","","","","","","","","","","","",""
"","ISI","","html-keyboard-response","234","572559","0.0-1.0-318.0","0","0","35959","","null","","","null","35","NaN","","","","","","","","","","","","","","",""
"","S2","","html-keyboard-response","235","572810","0.0-1.0-319.0","0","0","35959","","213","","","68","35","","d","","","","","","","","","","","","","",""
"","response","","html-keyboard-response","236","573569","0.0-1.0-320.0","0","0","35959","","757","","","75","35","","","1","35","training","adjacent","DE","4","5","P.jpg","N.jpg","1","1","1","",""
"","feedback","","html-keyboard-response","237","574571","0.0-1.0-321.0-0.0","0","0","35959","","null","","","null","35","","","","","","","","","","","","","","","",""
"","ITI","","html-keyboard-response","238","575573","0.0-1.0-324.0","0","0","35959","","null","","","null","35","","","","","","","","","","","","","","","NaN",""
"","S1","","html-keyboard-response","239","575825","0.0-1.0-326.0","0","0","35959","","null","","","null","36","","","","","","","","","","","","","","","",""
"","ISI","","html-keyboard-response","240","577828","0.0-1.0-327.0","0","0","35959","","null","","","null","36","NaN","","","","","","","","","","","","","","",""
"","S2","","html-keyboard-response","241","578079","0.0-1.0-328.0","0","0","35959","","null","","","null","36","","NaN","","","","","","","","","","","","","",""
"","response","","html-keyboard-response","242","579841","0.0-1.0-329.0","0","0","35959","","1760","","","75","36","","","1","36","training","adjacent","DC","4","3","P.jpg","L.jpg","1","0","0","",""
"","feedback","","html-keyboard-response","243","580843","0.0-1.0-330.0-0.0","0","0","35959","","null","","","null","36","","","","","","","","","","","","","","","",""
"","time_out","","html-keyboard-response","244","582845","0.0-1.0-332.0-0.0","0","0","35959","","null","","","null","36","","","","","","","","","","","","","","","",""
"","ITI","","html-keyboard-response","245","583848","0.0-1.0-333.0","0","0","35959","","null","","","null","36","","","","","","","","","","","","","","","NaN",""
"","S1","","html-keyboard-response","246","584101","0.0-1.0-335.0","0","0","35959","","null","","","null","37","","","","","","","","","","","","","","","",""
"","ISI","","html-keyboard-response","247","586103","0.0-1.0-336.0","0","0","35959","","163","","","68","37","d","","","","","","","","","","","","","","",""
"","S2","","html-keyboard-response","248","586356","0.0-1.0-337.0","0","0","35959","","null","","","null","37","","NaN","","","","","","","","","","","","","",""
"","response","","html-keyboard-response","249","586381","0.0-1.0-338.0","0","0","35959","","24","","","68","37","","","1","37","training","adjacent","GF","7","6","R.jpg","M.jpg","0","0","1","",""
"","feedback","","html-keyboard-response","250","587384","0.0-1.0-339.0-0.0","0","0","35959","","null","","","null","37","","","","","","","","","","","","","","","",""
"","ITI","","html-keyboard-response","251","588386","0.0-1.0-342.0","0","0","35959","","null","","","null","37","","","","","","","","","","","","","","","NaN",""
"","S1","","html-keyboard-response","252","588638","0.0-1.0-344.0","0","0","35959","","null","","","null","38","","","","","","","","","","","","","","","",""
"","ISI","","html-keyboard-response","253","590640","0.0-1.0-345.0","0","0","35959","","null","","","null","38","NaN","","","","","","","","","","","","","","",""
"","S2","","html-keyboard-response","254","590893","0.0-1.0-346.0","0","0","35959","","null","","","null","38","","NaN","","","","","","","","","","","","","",""
"","response","","html-keyboard-response","255","591106","0.0-1.0-347.0","0","0","35959","","212","","","68","38","","","1","38","training","adjacent","GF","7","6","R.jpg","M.jpg","0","0","1","",""
"","feedback","","html-keyboard-response","256","592109","0.0-1.0-348.0-0.0","0","0","35959","","null","","","null","38","","","","","","","","","","","","","","","",""
"","ITI","","html-keyboard-response","257","593111","0.0-1.0-351.0","0","0","35959","","null","","","null","38","","","","","","","","","","","","","","","NaN",""
"","S1","","html-keyboard-response","258","593363","0.0-1.0-353.0","0","0","35959","","null","","","null","39","","","","","","","","","","","","","","","",""
"","ISI","","html-keyboard-response","259","595366","0.0-1.0-354.0","0","0","35959","","null","","","null","39","NaN","","","","","","","","","","","","","","",""
"","S2","","html-keyboard-response","260","595619","0.0-1.0-355.0","0","0","35959","","null","","","null","39","","NaN","","","","","","","","","","","","","",""
"","response","","html-keyboard-response","261","595968","0.0-1.0-356.0","0","0","35959","","348","","","68","39","","","1","39","training","adjacent","EF","5","6","N.jpg","M.jpg","0","1","0","",""
"","feedback","","html-keyboard-response","262","596971","0.0-1.0-357.0-0.0","0","0","35959","","null","","","null","39","","","","","","","","","","","","","","","",""
"","time_out","","html-keyboard-response","263","598975","0.0-1.0-359.0-0.0","0","0","35959","","null","","","null","39","","","","","","","","","","","","","","","",""
"","ITI","","html-keyboard-response","264","599977","0.0-1.0-360.0","0","0","35959","","null","","","null","39","","","","","","","","","","","","","","","NaN",""
"","S1","","html-keyboard-response","265","600230","0.0-1.0-362.0","0","0","35959","","null","","","null","40","","","","","","","","","","","","","","","",""
"","ISI","","html-keyboard-response","266","602232","0.0-1.0-363.0","0","0","35959","","null","","","null","40","NaN","","","","","","","","","","","","","","",""
"","S2","","html-keyboard-response","267","602485","0.0-1.0-364.0","0","0","35959","","null","","","null","40","","NaN","","","","","","","","","","","","","",""
"","response","","html-keyboard-response","268","602827","0.0-1.0-365.0","0","0","35959","","341","","","75","40","","","1","40","training","adjacent","DE","4","5","P.jpg","N.jpg","1","1","1","",""
"","feedback","","html-keyboard-response","269","603830","0.0-1.0-366.0-0.0","0","0","35959","","null","","","null","40","","","","","","","","","","","","","","","",""
"","ITI","","html-keyboard-response","270","604833","0.0-1.0-369.0","0","0","35959","","null","","","null","40","","","","","","","","","","","","","","","NaN",""
"","S1","","html-keyboard-response","271","605085","0.0-1.0-371.0","0","0","35959","","null","","","null","41","","","","","","","","","","","","","","","",""
"","ISI","","html-keyboard-response","272","607087","0.0-1.0-372.0","0","0","35959","","null","","","null","41","NaN","","","","","","","","","","","","","","",""
"","S2","","html-keyboard-response","273","607339","0.0-1.0-373.0","0","0","35959","","null","","","null","41","","NaN","","","","","","","","","","","","","",""
"","response","","html-keyboard-response","274","607781","0.0-1.0-374.0","0","0","35959","","439","","","75","41","","","1","41","training","adjacent","CD","3","4","L.jpg","P.jpg","1","1","1","",""
"","feedback","","html-keyboard-response","275","608783","0.0-1.0-375.0-0.0","0","0","35959","","null","","","null","41","","","","","","","","","","","","","","","",""
"","ITI","","html-keyboard-response","276","609785","0.0-1.0-378.0","0","0","35959","","null","","","null","41","","","","","","","","","","","","","","","NaN",""
"","S1","","html-keyboard-response","277","610038","0.0-1.0-380.0","0","0","35959","","null","","","null","42","","","","","","","","","","","","","","","",""
"","ISI","","html-keyboard-response","278","612040","0.0-1.0-381.0","0","0","35959","","null","","","null","42","NaN","","","","","","","","","","","","","","",""
"","S2","","html-keyboard-response","279","612293","0.0-1.0-382.0","0","0","35959","","null","","","null","42","","NaN","","","","","","","","","","","","","",""
"","response","","html-keyboard-response","280","613248","0.0-1.0-383.0","0","0","35959","","953","","","68","42","","","1","42","training","adjacent","ED","5","4","N.jpg","P.jpg","0","0","1","",""
"","feedback","","html-keyboard-response","281","614250","0.0-1.0-384.0-0.0","0","0","35959","","null","","","null","42","","","","","","","","","","","","","","","",""
"","ITI","","html-keyboard-response","282","615253","0.0-1.0-387.0","0","0","35959","","null","","","null","42","","","","","","","","","","","","","","","NaN",""
"","S1","","html-keyboard-response","283","615505","0.0-1.0-389.0","0","0","35959","","null","","","null","43","","","","","","","","","","","","","","","",""
"","ISI","","html-keyboard-response","284","617508","0.0-1.0-390.0","0","0","35959","","null","","","null","43","NaN","","","","","","","","","","","","","","",""
"","S2","","html-keyboard-response","285","617760","0.0-1.0-391.0","0","0","35959","","null","","","null","43","","NaN","","","","","","","","","","","","","",""
"","response","","html-keyboard-response","286","618045","0.0-1.0-392.0","0","0","35959","","283","","","68","43","","","1","43","training","adjacent","GF","7","6","R.jpg","M.jpg","0","0","1","",""
"","feedback","","html-keyboard-response","287","619048","0.0-1.0-393.0-0.0","0","0","35959","","null","","","null","43","","","","","","","","","","","","","","","",""
"","ITI","","html-keyboard-response","288","620050","0.0-1.0-396.0","0","0","35959","","null","","","null","43","","","","","","","","","","","","","","","NaN",""
"","S1","","html-keyboard-response","289","620303","0.0-1.0-398.0","0","0","35959","","null","","","null","44","","","","","","","","","","","","","","","",""
"","ISI","","html-keyboard-response","290","622305","0.0-1.0-399.0","0","0","35959","","null","","","null","44","NaN","","","","","","","","","","","","","","",""
"","S2","","html-keyboard-response","291","622557","0.0-1.0-400.0","0","0","35959","","null","","","null","44","","NaN","","","","","","","","","","","","","",""
"","response","","html-keyboard-response","292","622958","0.0-1.0-401.0","0","0","35959","","398","","","75","44","","","1","44","training","adjacent","BA","2","1","Q.jpg","O.jpg","1","0","0","",""
"","feedback","","html-keyboard-response","293","623960","0.0-1.0-402.0-0.0","0","0","35959","","null","","","null","44","","","","","","","","","","","","","","","",""
"","time_out","","html-keyboard-response","294","625962","0.0-1.0-404.0-0.0","0","0","35959","","null","","","null","44","","","","","","","","","","","","","","","",""
"","ITI","","html-keyboard-response","295","626964","0.0-1.0-405.0","0","0","35959","","730","","","68","44","","","","","","","","","","","","","","","d",""
"","S1","","html-keyboard-response","296","627218","0.0-1.0-407.0","0","0","35959","","null","","","null","45","","","","","","","","","","","","","","","",""
"","ISI","","html-keyboard-response","297","629220","0.0-1.0-408.0","0","0","35959","","null","","","null","45","NaN","","","","","","","","","","","","","","",""
"","S2","","html-keyboard-response","298","629473","0.0-1.0-409.0","0","0","35959","","null","","","null","45","","NaN","","","","","","","","","","","","","",""
"","response","","html-keyboard-response","299","630520","0.0-1.0-410.0","0","0","35959","","1046","","","68","45","","","1","45","training","adjacent","BC","2","3","Q.jpg","L.jpg","0","1","0","",""
"","feedback","","html-keyboard-response","300","631522","0.0-1.0-411.0-0.0","0","0","35959","","null","","","null","45","","","","","","","","","","","","","","","",""
"","time_out","","html-keyboard-response","301","633524","0.0-1.0-413.0-0.0","0","0","35959","","null","","","null","45","","","","","","","","","","","","","","","",""
"","ITI","","html-keyboard-response","302","634527","0.0-1.0-414.0","0","0","35959","","null","","","null","45","","","","","","","","","","","","","","","NaN",""
"","S1","","html-keyboard-response","303","634779","0.0-1.0-416.0","0","0","35959","","null","","","null","46","","","","","","","","","","","","","","","",""
"","ISI","","html-keyboard-response","304","636781","0.0-1.0-417.0","0","0","35959","","null","","","null","46","NaN","","","","","","","","","","","","","","",""
"","S2","","html-keyboard-response","305","637034","0.0-1.0-418.0","0","0","35959","","null","","","null","46","","NaN","","","","","","","","","","","","","",""
"","response","","html-keyboard-response","306","637796","0.0-1.0-419.0","0","0","35959","","762","","","68","46","","","1","46","training","adjacent","FG","6","7","M.jpg","R.jpg","0","1","0","",""
"","feedback","","html-keyboard-response","307","638798","0.0-1.0-420.0-0.0","0","0","35959","","null","","","null","46","","","","","","","","","","","","","","","",""
"","time_out","","html-keyboard-response","308","640800","0.0-1.0-422.0-0.0","0","0","35959","","null","","","null","46","","","","","","","","","","","","","","","",""
"","ITI","","html-keyboard-response","309","641802","0.0-1.0-423.0","0","0","35959","","null","","","null","46","","","","","","","","","","","","","","","NaN",""
"","S1","","html-keyboard-response","310","642055","0.0-1.0-425.0","0","0","35959","","null","","","null","47","","","","","","","","","","","","","","","",""
"","ISI","","html-keyboard-response","311","644057","0.0-1.0-426.0","0","0","35959","","null","","","null","47","NaN","","","","","","","","","","","","","","",""
"","S2","","html-keyboard-response","312","644310","0.0-1.0-427.0","0","0","35959","","null","","","null","47","","NaN","","","","","","","","","","","","","",""
"","response","","html-keyboard-response","313","644821","0.0-1.0-428.0","0","0","35959","","510","","","75","47","","","1","47","training","adjacent","AB","1","2","O.jpg","Q.jpg","1","1","1","",""
"","feedback","","html-keyboard-response","314","645823","0.0-1.0-429.0-0.0","0","0","35959","","null","","","null","47","","","","","","","","","","","","","","","",""
"","ITI","","html-keyboard-response","315","646826","0.0-1.0-432.0","0","0","35959","","null","","","null","47","","","","","","","","","","","","","","","NaN",""
"","block_over","","html-keyboard-response","316","845157","0.0-1.0-433.0-0.0","0","0","35959","","198330","","","32","47","","","","","","","","","","","","","","","",""
"","S1","","html-keyboard-response","317","845411","0.0-1.0-434.0","0","0","35959","","null","","","null","48","","","","","","","","","","","","","","","",""
"","ISI","","html-keyboard-response","318","847413","0.0-1.0-435.0","0","0","35959","","null","","","null","48","NaN","","","","","","","","","","","","","","",""
"","S2","","html-keyboard-response","319","847666","0.0-1.0-436.0","0","0","35959","","null","","","null","48","","NaN","","","","","","","","","","","","","",""
"","response","","html-keyboard-response","320","848216","0.0-1.0-437.0","0","0","35959","","550","","","75","48","","","2","48","training","adjacent","AB","1","2","O.jpg","Q.jpg","1","1","1","",""
"","feedback","","html-keyboard-response","321","849220","0.0-1.0-438.0-0.0","0","0","35959","","null","","","null","48","","","","","","","","","","","","","","","",""
"","ITI","","html-keyboard-response","322","850222","0.0-1.0-441.0","0","0","35959","","null","","","null","48","","","","","","","","","","","","","","","NaN",""
"","S1","","html-keyboard-response","323","850474","0.0-1.0-443.0","0","0","35959","","null","","","null","49","","","","","","","","","","","","","","","",""
"","ISI","","html-keyboard-response","324","852476","0.0-1.0-444.0","0","0","35959","","null","","","null","49","NaN","","","","","","","","","","","","","","",""
"","S2","","html-keyboard-response","325","852728","0.0-1.0-445.0","0","0","35959","","null","","","null","49","","NaN","","","","","","","","","","","","","",""
"","response","","html-keyboard-response","326","853210","0.0-1.0-446.0","0","0","35959","","480","","","68","49","","","2","49","training","adjacent","FE","6","5","M.jpg","N.jpg","0","0","1","",""
"","feedback","","html-keyboard-response","327","854213","0.0-1.0-447.0-0.0","0","0","35959","","null","","","null","49","","","","","","","","","","","","","","","",""
"","ITI","","html-keyboard-response","328","855215","0.0-1.0-450.0","0","0","35959","","null","","","null","49","","","","","","","","","","","","","","","NaN",""
"","S1","","html-keyboard-response","329","855467","0.0-1.0-452.0","0","0","35959","","null","","","null","50","","","","","","","","","","","","","","","",""
"","ISI","","html-keyboard-response","330","857470","0.0-1.0-453.0","0","0","35959","","null","","","null","50","NaN","","","","","","","","","","","","","","",""
"","S2","","html-keyboard-response","331","857723","0.0-1.0-454.0","0","0","35959","","null","","","null","50","","NaN","","","","","","","","","","","","","",""
"","response","","html-keyboard-response","332","858093","0.0-1.0-455.0","0","0","35959","","368","","","75","50","","","2","50","training","adjacent","GF","7","6","R.jpg","M.jpg","1","0","0","",""
"","feedback","","html-keyboard-response","333","859095","0.0-1.0-456.0-0.0","0","0","35959","","null","","","null","50","","","","","","","","","","","","","","","",""
"","time_out","","html-keyboard-response","334","861097","0.0-1.0-458.0-0.0","0","0","35959","","null","","","null","50","","","","","","","","","","","","","","","",""
"","ITI","","html-keyboard-response","335","862099","0.0-1.0-459.0","0","0","35959","","null","","","null","50","","","","","","","","","","","","","","","NaN",""
"","S1","","html-keyboard-response","336","862351","0.0-1.0-461.0","0","0","35959","","null","","","null","51","","","","","","","","","","","","","","","",""
"","ISI","","html-keyboard-response","337","864353","0.0-1.0-462.0","0","0","35959","","1870","","","68","51","d","","","","","","","","","","","","","","",""
"","S2","","html-keyboard-response","338","864605","0.0-1.0-463.0","0","0","35959","","null","","","null","51","","NaN","","","","","","","","","","","","","",""
"","response","","html-keyboard-response","339","864785","0.0-1.0-464.0","0","0","35959","","178","","","68","51","","","2","51","training","adjacent","AB","1","2","O.jpg","Q.jpg","0","1","0","",""
"","feedback","","html-keyboard-response","340","865787","0.0-1.0-465.0-0.0","0","0","35959","","null","","","null","51","","","","","","","","","","","","","","","",""
"","time_out","","html-keyboard-response","341","867789","0.0-1.0-467.0-0.0","0","0","35959","","null","","","null","51","","","","","","","","","","","","","","","",""
"","ITI","","html-keyboard-response","342","868790","0.0-1.0-468.0","0","0","35959","","null","","","null","51","","","","","","","","","","","","","","","NaN",""
"","S1","","html-keyboard-response","343","869042","0.0-1.0-470.0","0","0","35959","","null","","","null","52","","","","","","","","","","","","","","","",""
"","ISI","","html-keyboard-response","344","871044","0.0-1.0-471.0","0","0","35959","","1955","","","75","52","k","","","","","","","","","","","","","","",""
"","S2","","html-keyboard-response","345","871298","0.0-1.0-472.0","0","0","35959","","null","","","null","52","","NaN","","","","","","","","","","","","","",""
"","response","","html-keyboard-response","346","871847","0.0-1.0-473.0","0","0","35959","","548","","","75","52","","","2","52","training","adjacent","CD","3","4","L.jpg","P.jpg","1","1","1","",""
"","feedback","","html-keyboard-response","347","872849","0.0-1.0-474.0-0.0","0","0","35959","","null","","","null","52","","","","","","","","","","","","","","","",""
"","ITI","","html-keyboard-response","348","873852","0.0-1.0-477.0","0","0","35959","","null","","","null","52","","","","","","","","","","","","","","","NaN",""
"","S1","","html-keyboard-response","349","874104","0.0-1.0-479.0","0","0","35959","","null","","","null","53","","","","","","","","","","","","","","","",""
"","ISI","","html-keyboard-response","350","876106","0.0-1.0-480.0","0","0","35959","","null","","","null","53","NaN","","","","","","","","","","","","","","",""
"","S2","","html-keyboard-response","351","876359","0.0-1.0-481.0","0","0","35959","","null","","","null","53","","NaN","","","","","","","","","","","","","",""
"","response","","html-keyboard-response","352","877068","0.0-1.0-482.0","0","0","35959","","707","","","68","53","","","2","53","training","adjacent","CB","3","2","L.jpg","Q.jpg","0","0","1","",""
"","feedback","","html-keyboard-response","353","878070","0.0-1.0-483.0-0.0","0","0","35959","","null","","","null","53","","","","","","","","","","","","","","","",""
"","ITI","","html-keyboard-response","354","879073","0.0-1.0-486.0","0","0","35959","","null","","","null","53","","","","","","","","","","","","","","","NaN",""
"","S1","","html-keyboard-response","355","879326","0.0-1.0-488.0","0","0","35959","","null","","","null","54","","","","","","","","","","","","","","","",""
"","ISI","","html-keyboard-response","356","881328","0.0-1.0-489.0","0","0","35959","","null","","","null","54","NaN","","","","","","","","","","","","","","",""
"","S2","","html-keyboard-response","357","881580","0.0-1.0-490.0","0","0","35959","","null","","","null","54","","NaN","","","","","","","","","","","","","",""
"","response","","html-keyboard-response","358","882473","0.0-1.0-491.0","0","0","35959","","890","","","68","54","","","2","54","training","adjacent","DE","4","5","P.jpg","N.jpg","0","1","0","",""
"","feedback","","html-keyboard-response","359","883477","0.0-1.0-492.0-0.0","0","0","35959","","null","","","null","54","","","","","","","","","","","","","","","",""
"","time_out","","html-keyboard-response","360","885481","0.0-1.0-494.0-0.0","0","0","35959","","null","","","null","54","","","","","","","","","","","","","","","",""
"","ITI","","html-keyboard-response","361","886484","0.0-1.0-495.0","0","0","35959","","946","","","75","54","","","","","","","","","","","","","","","k",""
"","S1","","html-keyboard-response","362","886738","0.0-1.0-497.0","0","0","35959","","null","","","null","55","","","","","","","","","","","","","","","",""
"","ISI","","html-keyboard-response","363","888742","0.0-1.0-498.0","0","0","35959","","null","","","null","55","NaN","","","","","","","","","","","","","","",""
"","S2","","html-keyboard-response","364","888995","0.0-1.0-499.0","0","0","35959","","94","","","75","55","","k","","","","","","","","","","","","","",""
"","response","","html-keyboard-response","365","889287","0.0-1.0-500.0","0","0","35959","","290","","","75","55","","","2","55","training","adjacent","BA","2","1","Q.jpg","O.jpg","1","0","0","",""
"","feedback","","html-keyboard-response","366","890289","0.0-1.0-501.0-0.0","0","0","35959","","null","","","null","55","","","","","","","","","","","","","","","",""
"","time_out","","html-keyboard-response","367","892292","0.0-1.0-503.0-0.0","0","0","35959","","null","","","null","55","","","","","","","","","","","","","","","",""
"","ITI","","html-keyboard-response","368","893294","0.0-1.0-504.0","0","0","35959","","null","","","null","55","","","","","","","","","","","","","","","NaN",""
"","S1","","html-keyboard-response","369","893547","0.0-1.0-506.0","0","0","35959","","null","","","null","56","","","","","","","","","","","","","","","",""
"","ISI","","html-keyboard-response","370","895549","0.0-1.0-507.0","0","0","35959","","null","","","null","56","NaN","","","","","","","","","","","","","","",""
"","S2","","html-keyboard-response","371","895801","0.0-1.0-508.0","0","0","35959","","null","","","null","56","","NaN","","","","","","","","","","","","","",""
"","response","","html-keyboard-response","372","895928","0.0-1.0-509.0","0","0","35959","","126","","","68","56","","","2","56","training","adjacent","FE","6","5","M.jpg","N.jpg","0","0","1","",""
"","feedback","","html-keyboard-response","373","896930","0.0-1.0-510.0-0.0","0","0","35959","","null","","","null","56","","","","","","","","","","","","","","","",""
"","ITI","","html-keyboard-response","374","897933","0.0-1.0-513.0","0","0","35959","","null","","","null","56","","","","","","","","","","","","","","","NaN",""
"","S1","","html-keyboard-response","375","898186","0.0-1.0-515.0","0","0","35959","","null","","","null","57","","","","","","","","","","","","","","","",""
"","ISI","","html-keyboard-response","376","900188","0.0-1.0-516.0","0","0","35959","","null","","","null","57","NaN","","","","","","","","","","","","","","",""
"","S2","","html-keyboard-response","377","900441","0.0-1.0-517.0","0","0","35959","","null","","","null","57","","NaN","","","","","","","","","","","","","",""
"","response","","html-keyboard-response","378","901811","0.0-1.0-518.0","0","0","35959","","1369","","","75","57","","","2","57","training","adjacent","BC","2","3","Q.jpg","L.jpg","1","1","1","",""
"","feedback","","html-keyboard-response","379","902814","0.0-1.0-519.0-0.0","0","0","35959","","null","","","null","57","","","","","","","","","","","","","","","",""
"","ITI","","html-keyboard-response","380","903816","0.0-1.0-522.0","0","0","35959","","null","","","null","57","","","","","","","","","","","","","","","NaN",""
"","S1","","html-keyboard-response","381","904069","0.0-1.0-524.0","0","0","35959","","null","","","null","58","","","","","","","","","","","","","","","",""
"","ISI","","html-keyboard-response","382","906072","0.0-1.0-525.0","0","0","35959","","null","","","null","58","NaN","","","","","","","","","","","","","","",""
"","S2","","html-keyboard-response","383","906324","0.0-1.0-526.0","0","0","35959","","null","","","null","58","","NaN","","","","","","","","","","","","","",""
"","response","","html-keyboard-response","384","906823","0.0-1.0-527.0","0","0","35959","","497","","","68","58","","","2","58","training","adjacent","FG","6","7","M.jpg","R.jpg","0","1","0","",""
"","feedback","","html-keyboard-response","385","907826","0.0-1.0-528.0-0.0","0","0","35959","","null","","","null","58","","","","","","","","","","","","","","","",""
"","time_out","","html-keyboard-response","386","909829","0.0-1.0-530.0-0.0","0","0","35959","","null","","","null","58","","","","","","","","","","","","","","","",""
"","ITI","","html-keyboard-response","387","910831","0.0-1.0-531.0","0","0","35959","","609","","","75","58","","","","","","","","","","","","","","","k",""
"","S1","","html-keyboard-response","388","911085","0.0-1.0-533.0","0","0","35959","","null","","","null","59","","","","","","","","","","","","","","","",""
"","ISI","","html-keyboard-response","389","913087","0.0-1.0-534.0","0","0","35959","","null","","","null","59","NaN","","","","","","","","","","","","","","",""
"","S2","","html-keyboard-response","390","913340","0.0-1.0-535.0","0","0","35959","","null","","","null","59","","NaN","","","","","","","","","","","","","",""
"","response","","html-keyboard-response","391","914655","0.0-1.0-536.0","0","0","35959","","1314","","","75","59","","","2","59","training","adjacent","DC","4","3","P.jpg","L.jpg","1","0","0","",""
"","feedback","","html-keyboard-response","392","915658","0.0-1.0-537.0-0.0","0","0","35959","","null","","","null","59","","","","","","","","","","","","","","","",""
"","time_out","","html-keyboard-response","393","917660","0.0-1.0-539.0-0.0","0","0","35959","","null","","","null","59","","","","","","","","","","","","","","","",""
"","ITI","","html-keyboard-response","394","918663","0.0-1.0-540.0","0","0","35959","","null","","","null","59","","","","","","","","","","","","","","","NaN",""
"","S1","","html-keyboard-response","395","918916","0.0-1.0-542.0","0","0","35959","","null","","","null","60","","","","","","","","","","","","","","","",""
"","ISI","","html-keyboard-response","396","920918","0.0-1.0-543.0","0","0","35959","","1238","","","68","60","d","","","","","","","","","","","","","","",""
"","S2","","html-keyboard-response","397","921170","0.0-1.0-544.0","0","0","35959","","null","","","null","60","","NaN","","","","","","","","","","","","","",""
"","response","","html-keyboard-response","398","922402","0.0-1.0-545.0","0","0","35959","","1231","","","75","60","","","2","60","training","adjacent","AB","1","2","O.jpg","Q.jpg","1","1","1","",""
"","feedback","","html-keyboard-response","399","923405","0.0-1.0-546.0-0.0","0","0","35959","","null","","","null","60","","","","","","","","","","","","","","","",""
"","ITI","","html-keyboard-response","400","924407","0.0-1.0-549.0","0","0","35959","","null","","","null","60","","","","","","","","","","","","","","","NaN",""
"","S1","","html-keyboard-response","401","924660","0.0-1.0-551.0","0","0","35959","","null","","","null","61","","","","","","","","","","","","","","","",""
"","ISI","","html-keyboard-response","402","926662","0.0-1.0-552.0","0","0","35959","","null","","","null","61","NaN","","","","","","","","","","","","","","",""
"","S2","","html-keyboard-response","403","926914","0.0-1.0-553.0","0","0","35959","","null","","","null","61","","NaN","","","","","","","","","","","","","",""
"","response","","html-keyboard-response","404","927525","0.0-1.0-554.0","0","0","35959","","609","","","68","61","","","2","61","training","adjacent","AB","1","2","O.jpg","Q.jpg","0","1","0","",""
"","feedback","","html-keyboard-response","405","928527","0.0-1.0-555.0-0.0","0","0","35959","","null","","","null","61","","","","","","","","","","","","","","","",""
"","time_out","","html-keyboard-response","406","930530","0.0-1.0-557.0-0.0","0","0","35959","","null","","","null","61","","","","","","","","","","","","","","","",""
"","ITI","","html-keyboard-response","407","931532","0.0-1.0-558.0","0","0","35959","","null","","","null","61","","","","","","","","","","","","","","","NaN",""
"","S1","","html-keyboard-response","408","931786","0.0-1.0-560.0","0","0","35959","","null","","","null","62","","","","","","","","","","","","","","","",""
"","ISI","","html-keyboard-response","409","933788","0.0-1.0-561.0","0","0","35959","","null","","","null","62","NaN","","","","","","","","","","","","","","",""
"","S2","","html-keyboard-response","410","934040","0.0-1.0-562.0","0","0","35959","","null","","","null","62","","NaN","","","","","","","","","","","","","",""
"","response","","html-keyboard-response","411","934453","0.0-1.0-563.0","0","0","35959","","412","","","75","62","","","2","62","training","adjacent","CD","3","4","L.jpg","P.jpg","1","1","1","",""
"","feedback","","html-keyboard-response","412","935455","0.0-1.0-564.0-0.0","0","0","35959","","null","","","null","62","","","","","","","","","","","","","","","",""
"","ITI","","html-keyboard-response","413","936457","0.0-1.0-567.0","0","0","35959","","null","","","null","62","","","","","","","","","","","","","","","NaN",""
"","S1","","html-keyboard-response","414","936709","0.0-1.0-569.0","0","0","35959","","null","","","null","63","","","","","","","","","","","","","","","",""
"","ISI","","html-keyboard-response","415","938712","0.0-1.0-570.0","0","0","35959","","null","","","null","63","NaN","","","","","","","","","","","","","","",""
"","S2","","html-keyboard-response","416","938964","0.0-1.0-571.0","0","0","35959","","null","","","null","63","","NaN","","","","","","","","","","","","","",""
"","response","","html-keyboard-response","417","939908","0.0-1.0-572.0","0","0","35959","","944","","","68","63","","","2","63","training","adjacent","CB","3","2","L.jpg","Q.jpg","0","0","1","",""
"","feedback","","html-keyboard-response","418","940911","0.0-1.0-573.0-0.0","0","0","35959","","null","","","null","63","","","","","","","","","","","","","","","",""
"","ITI","","html-keyboard-response","419","941913","0.0-1.0-576.0","0","0","35959","","null","","","null","63","","","","","","","","","","","","","","","NaN",""
"","S1","","html-keyboard-response","420","942165","0.0-1.0-578.0","0","0","35959","","null","","","null","64","","","","","","","","","","","","","","","",""
"","ISI","","html-keyboard-response","421","944167","0.0-1.0-579.0","0","0","35959","","null","","","null","64","NaN","","","","","","","","","","","","","","",""
"","S2","","html-keyboard-response","422","944419","0.0-1.0-580.0","0","0","35959","","null","","","null","64","","NaN","","","","","","","","","","","","","",""
"","response","","html-keyboard-response","423","944613","0.0-1.0-581.0","0","0","35959","","193","","","75","64","","","2","64","training","adjacent","BC","2","3","Q.jpg","L.jpg","1","1","1","",""
"","feedback","","html-keyboard-response","424","945616","0.0-1.0-582.0-0.0","0","0","35959","","null","","","null","64","","","","","","","","","","","","","","","",""
"","ITI","","html-keyboard-response","425","946619","0.0-1.0-585.0","0","0","35959","","null","","","null","64","","","","","","","","","","","","","","","NaN",""
"","S1","","html-keyboard-response","426","946871","0.0-1.0-587.0","0","0","35959","","null","","","null","65","","","","","","","","","","","","","","","",""
"","ISI","","html-keyboard-response","427","948873","0.0-1.0-588.0","0","0","35959","","null","","","null","65","NaN","","","","","","","","","","","","","","",""
"","S2","","html-keyboard-response","428","949125","0.0-1.0-589.0","0","0","35959","","null","","","null","65","","NaN","","","","","","","","","","","","","",""
"","response","","html-keyboard-response","429","949678","0.0-1.0-590.0","0","0","35959","","552","","","68","65","","","2","65","training","adjacent","GF","7","6","R.jpg","M.jpg","0","0","1","",""
"","feedback","","html-keyboard-response","430","950681","0.0-1.0-591.0-0.0","0","0","35959","","null","","","null","65","","","","","","","","","","","","","","","",""
"","ITI","","html-keyboard-response","431","951684","0.0-1.0-594.0","0","0","35959","","null","","","null","65","","","","","","","","","","","","","","","NaN",""
"","S1","","html-keyboard-response","432","951936","0.0-1.0-596.0","0","0","35959","","null","","","null","66","","","","","","","","","","","","","","","",""
"","ISI","","html-keyboard-response","433","953938","0.0-1.0-597.0","0","0","35959","","null","","","null","66","NaN","","","","","","","","","","","","","","",""
"","S2","","html-keyboard-response","434","954191","0.0-1.0-598.0","0","0","35959","","null","","","null","66","","NaN","","","","","","","","","","","","","",""
"","response","","html-keyboard-response","435","954547","0.0-1.0-599.0","0","0","35959","","354","","","75","66","","","2","66","training","adjacent","DE","4","5","P.jpg","N.jpg","1","1","1","",""
"","feedback","","html-keyboard-response","436","955550","0.0-1.0-600.0-0.0","0","0","35959","","null","","","null","66","","","","","","","","","","","","","","","",""
"","ITI","","html-keyboard-response","437","956552","0.0-1.0-603.0","0","0","35959","","null","","","null","66","","","","","","","","","","","","","","","NaN",""
"","S1","","html-keyboard-response","438","956804","0.0-1.0-605.0","0","0","35959","","null","","","null","67","","","","","","","","","","","","","","","",""
"","ISI","","html-keyboard-response","439","958806","0.0-1.0-606.0","0","0","35959","","null","","","null","67","NaN","","","","","","","","","","","","","","",""
"","S2","","html-keyboard-response","440","959059","0.0-1.0-607.0","0","0","35959","","null","","","null","67","","NaN","","","","","","","","","","","","","",""
"","response","","html-keyboard-response","441","960847","0.0-1.0-608.0","0","0","35959","","1786","","","68","67","","","2","67","training","adjacent","EF","5","6","N.jpg","M.jpg","0","1","0","",""
"","feedback","","html-keyboard-response","442","961849","0.0-1.0-609.0-0.0","0","0","35959","","null","","","null","67","","","","","","","","","","","","","","","",""
"","time_out","","html-keyboard-response","443","963853","0.0-1.0-611.0-0.0","0","0","35959","","null","","","null","67","","","","","","","","","","","","","","","",""
"","ITI","","html-keyboard-response","444","964855","0.0-1.0-612.0","0","0","35959","","null","","","null","67","","","","","","","","","","","","","","","NaN",""
"","S1","","html-keyboard-response","445","965107","0.0-1.0-614.0","0","0","35959","","null","","","null","68","","","","","","","","","","","","","","","",""
"","ISI","","html-keyboard-response","446","967109","0.0-1.0-615.0","0","0","35959","","null","","","null","68","NaN","","","","","","","","","","","","","","",""
"","S2","","html-keyboard-response","447","967362","0.0-1.0-616.0","0","0","35959","","null","","","null","68","","NaN","","","","","","","","","","","","","",""
"","response","","html-keyboard-response","448","967927","0.0-1.0-617.0","0","0","35959","","563","","","68","68","","","2","68","training","adjacent","BA","2","1","Q.jpg","O.jpg","0","0","1","",""
"","feedback","","html-keyboard-response","449","968929","0.0-1.0-618.0-0.0","0","0","35959","","null","","","null","68","","","","","","","","","","","","","","","",""
"","ITI","","html-keyboard-response","450","969931","0.0-1.0-621.0","0","0","35959","","null","","","null","68","","","","","","","","","","","","","","","NaN",""
"","S1","","html-keyboard-response","451","970183","0.0-1.0-623.0","0","0","35959","","null","","","null","69","","","","","","","","","","","","","","","",""
"","ISI","","html-keyboard-response","452","972186","0.0-1.0-624.0","0","0","35959","","null","","","null","69","NaN","","","","","","","","","","","","","","",""
"","S2","","html-keyboard-response","453","972438","0.0-1.0-625.0","0","0","35959","","null","","","null","69","","NaN","","","","","","","","","","","","","",""
"","response","","html-keyboard-response","454","972775","0.0-1.0-626.0","0","0","35959","","335","","","68","69","","","2","69","training","adjacent","CB","3","2","L.jpg","Q.jpg","0","0","1","",""
"","feedback","","html-keyboard-response","455","973777","0.0-1.0-627.0-0.0","0","0","35959","","null","","","null","69","","","","","","","","","","","","","","","",""
"","ITI","","html-keyboard-response","456","974780","0.0-1.0-630.0","0","0","35959","","null","","","null","69","","","","","","","","","","","","","","","NaN",""
"","S1","","html-keyboard-response","457","975033","0.0-1.0-632.0","0","0","35959","","null","","","null","70","","","","","","","","","","","","","","","",""
"","ISI","","html-keyboard-response","458","977035","0.0-1.0-633.0","0","0","35959","","null","","","null","70","NaN","","","","","","","","","","","","","","",""
"","S2","","html-keyboard-response","459","977288","0.0-1.0-634.0","0","0","35959","","null","","","null","70","","NaN","","","","","","","","","","","","","",""
"","response","","html-keyboard-response","460","977572","0.0-1.0-635.0","0","0","35959","","282","","","75","70","","","2","70","training","adjacent","DE","4","5","P.jpg","N.jpg","1","1","1","",""
"","feedback","","html-keyboard-response","461","978574","0.0-1.0-636.0-0.0","0","0","35959","","null","","","null","70","","","","","","","","","","","","","","","",""
"","ITI","","html-keyboard-response","462","979576","0.0-1.0-639.0","0","0","35959","","null","","","null","70","","","","","","","","","","","","","","","NaN",""
"","S1","","html-keyboard-response","463","979829","0.0-1.0-641.0","0","0","35959","","null","","","null","71","","","","","","","","","","","","","","","",""
"","ISI","","html-keyboard-response","464","981832","0.0-1.0-642.0","0","0","35959","","null","","","null","71","NaN","","","","","","","","","","","","","","",""
"","S2","","html-keyboard-response","465","982084","0.0-1.0-643.0","0","0","35959","","null","","","null","71","","NaN","","","","","","","","","","","","","",""
"","response","","html-keyboard-response","466","982368","0.0-1.0-644.0","0","0","35959","","282","","","75","71","","","2","71","training","adjacent","EF","5","6","N.jpg","M.jpg","1","1","1","",""
"","feedback","","html-keyboard-response","467","983370","0.0-1.0-645.0-0.0","0","0","35959","","null","","","null","71","","","","","","","","","","","","","","","",""
"","ITI","","html-keyboard-response","468","984372","0.0-1.0-648.0","0","0","35959","","null","","","null","71","","","","","","","","","","","","","","","NaN",""
"","S1","","html-keyboard-response","469","984624","0.0-1.0-650.0","0","0","35959","","null","","","null","72","","","","","","","","","","","","","","","",""
"","ISI","","html-keyboard-response","470","986628","0.0-1.0-651.0","0","0","35959","","null","","","null","72","NaN","","","","","","","","","","","","","","",""
"","S2","","html-keyboard-response","471","986880","0.0-1.0-652.0","0","0","35959","","null","","","null","72","","NaN","","","","","","","","","","","","","",""
"","response","","html-keyboard-response","472","986968","0.0-1.0-653.0","0","0","35959","","87","","","75","72","","","2","72","training","adjacent","ED","5","4","N.jpg","P.jpg","1","0","0","",""
"","feedback","","html-keyboard-response","473","987971","0.0-1.0-654.0-0.0","0","0","35959","","null","","","null","72","","","","","","","","","","","","","","","",""
"","time_out","","html-keyboard-response","474","989974","0.0-1.0-656.0-0.0","0","0","35959","","null","","","null","72","","","","","","","","","","","","","","","",""
"","ITI","","html-keyboard-response","475","990976","0.0-1.0-657.0","0","0","35959","","null","","","null","72","","","","","","","","","","","","","","","NaN",""
"","S1","","html-keyboard-response","476","991228","0.0-1.0-659.0","0","0","35959","","null","","","null","73","","","","","","","","","","","","","","","",""
"","ISI","","html-keyboard-response","477","993229","0.0-1.0-660.0","0","0","35959","","null","","","null","73","NaN","","","","","","","","","","","","","","",""
"","S2","","html-keyboard-response","478","993481","0.0-1.0-661.0","0","0","35959","","null","","","null","73","","NaN","","","","","","","","","","","","","",""
"","response","","html-keyboard-response","479","993711","0.0-1.0-662.0","0","0","35959","","228","","","68","73","","","2","73","training","adjacent","ED","5","4","N.jpg","P.jpg","0","0","1","",""
"","feedback","","html-keyboard-response","480","994714","0.0-1.0-663.0-0.0","0","0","35959","","null","","","null","73","","","","","","","","","","","","","","","",""
"","ITI","","html-keyboard-response","481","995716","0.0-1.0-666.0","0","0","35959","","null","","","null","73","","","","","","","","","","","","","","","NaN",""
"","S1","","html-keyboard-response","482","995969","0.0-1.0-668.0","0","0","35959","","null","","","null","74","","","","","","","","","","","","","","","",""
"","ISI","","html-keyboard-response","483","997971","0.0-1.0-669.0","0","0","35959","","null","","","null","74","NaN","","","","","","","","","","","","","","",""
"","S2","","html-keyboard-response","484","998223","0.0-1.0-670.0","0","0","35959","","null","","","null","74","","NaN","","","","","","","","","","","","","",""
"","response","","html-keyboard-response","485","998534","0.0-1.0-671.0","0","0","35959","","310","","","75","74","","","2","74","training","adjacent","GF","7","6","R.jpg","M.jpg","1","0","0","",""
"","feedback","","html-keyboard-response","486","999536","0.0-1.0-672.0-0.0","0","0","35959","","null","","","null","74","","","","","","","","","","","","","","","",""
"","time_out","","html-keyboard-response","487","1001538","0.0-1.0-674.0-0.0","0","0","35959","","null","","","null","74","","","","","","","","","","","","","","","",""
"","ITI","","html-keyboard-response","488","1002542","0.0-1.0-675.0","0","0","35959","","null","","","null","74","","","","","","","","","","","","","","","NaN",""
"","S1","","html-keyboard-response","489","1002795","0.0-1.0-677.0","0","0","35959","","null","","","null","75","","","","","","","","","","","","","","","",""
"","ISI","","html-keyboard-response","490","1004797","0.0-1.0-678.0","0","0","35959","","null","","","null","75","NaN","","","","","","","","","","","","","","",""
"","S2","","html-keyboard-response","491","1005048","0.0-1.0-679.0","0","0","35959","","null","","","null","75","","NaN","","","","","","","","","","","","","",""
"","response","","html-keyboard-response","492","1005363","0.0-1.0-680.0","0","0","35959","","313","","","75","75","","","2","75","training","adjacent","CD","3","4","L.jpg","P.jpg","1","1","1","",""
"","feedback","","html-keyboard-response","493","1006366","0.0-1.0-681.0-0.0","0","0","35959","","null","","","null","75","","","","","","","","","","","","","","","",""
"","ITI","","html-keyboard-response","494","1007369","0.0-1.0-684.0","0","0","35959","","null","","","null","75","","","","","","","","","","","","","","","NaN",""
"","S1","","html-keyboard-response","495","1007622","0.0-1.0-686.0","0","0","35959","","null","","","null","76","","","","","","","","","","","","","","","",""
"","ISI","","html-keyboard-response","496","1009624","0.0-1.0-687.0","0","0","35959","","null","","","null","76","NaN","","","","","","","","","","","","","","",""
"","S2","","html-keyboard-response","497","1009877","0.0-1.0-688.0","0","0","35959","","null","","","null","76","","NaN","","","","","","","","","","","","","",""
"","response","","html-keyboard-response","498","1010053","0.0-1.0-689.0","0","0","35959","","175","","","75","76","","","2","76","training","adjacent","DC","4","3","P.jpg","L.jpg","1","0","0","",""
"","feedback","","html-keyboard-response","499","1011059","0.0-1.0-690.0-0.0","0","0","35959","","null","","","null","76","","","","","","","","","","","","","","","",""
"","time_out","","html-keyboard-response","500","1013061","0.0-1.0-692.0-0.0","0","0","35959","","null","","","null","76","","","","","","","","","","","","","","","",""
"","ITI","","html-keyboard-response","501","1014064","0.0-1.0-693.0","0","0","35959","","null","","","null","76","","","","","","","","","","","","","","","NaN",""
"","S1","","html-keyboard-response","502","1014317","0.0-1.0-695.0","0","0","35959","","null","","","null","77","","","","","","","","","","","","","","","",""
"","ISI","","html-keyboard-response","503","1016320","0.0-1.0-696.0","0","0","35959","","null","","","null","77","NaN","","","","","","","","","","","","","","",""
"","S2","","html-keyboard-response","504","1016573","0.0-1.0-697.0","0","0","35959","","null","","","null","77","","NaN","","","","","","","","","","","","","",""
"","response","","html-keyboard-response","505","1016805","0.0-1.0-698.0","0","0","35959","","230","","","75","77","","","2","77","training","adjacent","BC","2","3","Q.jpg","L.jpg","1","1","1","",""
"","feedback","","html-keyboard-response","506","1017808","0.0-1.0-699.0-0.0","0","0","35959","","null","","","null","77","","","","","","","","","","","","","","","",""
"","ITI","","html-keyboard-response","507","1018812","0.0-1.0-702.0","0","0","35959","","null","","","null","77","","","","","","","","","","","","","","","NaN",""
"","S1","","html-keyboard-response","508","1019064","0.0-1.0-704.0","0","0","35959","","null","","","null","78","","","","","","","","","","","","","","","",""
"","ISI","","html-keyboard-response","509","1021067","0.0-1.0-705.0","0","0","35959","","null","","","null","78","NaN","","","","","","","","","","","","","","",""
"","S2","","html-keyboard-response","510","1021319","0.0-1.0-706.0","0","0","35959","","null","","","null","78","","NaN","","","","","","","","","","","","","",""
"","response","","html-keyboard-response","511","1021744","0.0-1.0-707.0","0","0","35959","","423","","","75","78","","","2","78","training","adjacent","BC","2","3","Q.jpg","L.jpg","1","1","1","",""
"","feedback","","html-keyboard-response","512","1022746","0.0-1.0-708.0-0.0","0","0","35959","","null","","","null","78","","","","","","","","","","","","","","","",""
"","ITI","","html-keyboard-response","513","1023748","0.0-1.0-711.0","0","0","35959","","null","","","null","78","","","","","","","","","","","","","","","NaN",""
"","S1","","html-keyboard-response","514","1024002","0.0-1.0-713.0","0","0","35959","","null","","","null","79","","","","","","","","","","","","","","","",""
"","ISI","","html-keyboard-response","515","1026003","0.0-1.0-714.0","0","0","35959","","null","","","null","79","NaN","","","","","","","","","","","","","","",""
"","S2","","html-keyboard-response","516","1026256","0.0-1.0-715.0","0","0","35959","","null","","","null","79","","NaN","","","","","","","","","","","","","",""
"","response","","html-keyboard-response","517","1026382","0.0-1.0-716.0","0","0","35959","","125","","","75","79","","","2","79","training","adjacent","BA","2","1","Q.jpg","O.jpg","1","0","0","",""
"","feedback","","html-keyboard-response","518","1027385","0.0-1.0-717.0-0.0","0","0","35959","","null","","","null","79","","","","","","","","","","","","","","","",""
"","time_out","","html-keyboard-response","519","1029388","0.0-1.0-719.0-0.0","0","0","35959","","null","","","null","79","","","","","","","","","","","","","","","",""
"","ITI","","html-keyboard-response","520","1030390","0.0-1.0-720.0","0","0","35959","","null","","","null","79","","","","","","","","","","","","","","","NaN",""
"","S1","","html-keyboard-response","521","1030642","0.0-1.0-722.0","0","0","35959","","null","","","null","80","","","","","","","","","","","","","","","",""
"","ISI","","html-keyboard-response","522","1032644","0.0-1.0-723.0","0","0","35959","","null","","","null","80","NaN","","","","","","","","","","","","","","",""
"","S2","","html-keyboard-response","523","1032898","0.0-1.0-724.0","0","0","35959","","null","","","null","80","","NaN","","","","","","","","","","","","","",""
"","response","","html-keyboard-response","524","1033048","0.0-1.0-725.0","0","0","35959","","149","","","75","80","","","2","80","training","adjacent","DC","4","3","P.jpg","L.jpg","1","0","0","",""
"","feedback","","html-keyboard-response","525","1034051","0.0-1.0-726.0-0.0","0","0","35959","","null","","","null","80","","","","","","","","","","","","","","","",""
"","time_out","","html-keyboard-response","526","1036053","0.0-1.0-728.0-0.0","0","0","35959","","null","","","null","80","","","","","","","","","","","","","","","",""
"","ITI","","html-keyboard-response","527","1037054","0.0-1.0-729.0","0","0","35959","","null","","","null","80","","","","","","","","","","","","","","","NaN",""
"","S1","","html-keyboard-response","528","1037308","0.0-1.0-731.0","0","0","35959","","null","","","null","81","","","","","","","","","","","","","","","",""
"","ISI","","html-keyboard-response","529","1039310","0.0-1.0-732.0","0","0","35959","","null","","","null","81","NaN","","","","","","","","","","","","","","",""
"","S2","","html-keyboard-response","530","1039562","0.0-1.0-733.0","0","0","35959","","null","","","null","81","","NaN","","","","","","","","","","","","","",""
"","response","","html-keyboard-response","531","1040153","0.0-1.0-734.0","0","0","35959","","589","","","75","81","","","2","81","training","adjacent","DC","4","3","P.jpg","L.jpg","1","0","0","",""
"","feedback","","html-keyboard-response","532","1041155","0.0-1.0-735.0-0.0","0","0","35959","","null","","","null","81","","","","","","","","","","","","","","","",""
"","time_out","","html-keyboard-response","533","1043158","0.0-1.0-737.0-0.0","0","0","35959","","null","","","null","81","","","","","","","","","","","","","","","",""
"","ITI","","html-keyboard-response","534","1044160","0.0-1.0-738.0","0","0","35959","","null","","","null","81","","","","","","","","","","","","","","","NaN",""
"","S1","","html-keyboard-response","535","1044412","0.0-1.0-740.0","0","0","35959","","null","","","null","82","","","","","","","","","","","","","","","",""
"","ISI","","html-keyboard-response","536","1046415","0.0-1.0-741.0","0","0","35959","","102","","","68","82","d","","","","","","","","","","","","","","",""
"","S2","","html-keyboard-response","537","1046668","0.0-1.0-742.0","0","0","35959","","null","","","null","82","","NaN","","","","","","","","","","","","","",""
"","response","","html-keyboard-response","538","1047016","0.0-1.0-743.0","0","0","35959","","347","","","68","82","","","2","82","training","adjacent","FG","6","7","M.jpg","R.jpg","0","1","0","",""
"","feedback","","html-keyboard-response","539","1048019","0.0-1.0-744.0-0.0","0","0","35959","","null","","","null","82","","","","","","","","","","","","","","","",""
"","time_out","","html-keyboard-response","540","1050022","0.0-1.0-746.0-0.0","0","0","35959","","null","","","null","82","","","","","","","","","","","","","","","",""
"","ITI","","html-keyboard-response","541","1051025","0.0-1.0-747.0","0","0","35959","","null","","","null","82","","","","","","","","","","","","","","","NaN",""
"","S1","","html-keyboard-response","542","1051278","0.0-1.0-749.0","0","0","35959","","null","","","null","83","","","","","","","","","","","","","","","",""
"","ISI","","html-keyboard-response","543","1053281","0.0-1.0-750.0","0","0","35959","","null","","","null","83","NaN","","","","","","","","","","","","","","",""
"","S2","","html-keyboard-response","544","1053534","0.0-1.0-751.0","0","0","35959","","null","","","null","83","","NaN","","","","","","","","","","","","","",""
"","response","","html-keyboard-response","545","1053656","0.0-1.0-752.0","0","0","35959","","121","","","75","83","","","2","83","training","adjacent","EF","5","6","N.jpg","M.jpg","1","1","1","",""
"","feedback","","html-keyboard-response","546","1054658","0.0-1.0-753.0-0.0","0","0","35959","","null","","","null","83","","","","","","","","","","","","","","","",""
"","ITI","","html-keyboard-response","547","1055660","0.0-1.0-756.0","0","0","35959","","null","","","null","83","","","","","","","","","","","","","","","NaN",""
"","S1","","html-keyboard-response","548","1055912","0.0-1.0-758.0","0","0","35959","","null","","","null","84","","","","","","","","","","","","","","","",""
"","ISI","","html-keyboard-response","549","1057915","0.0-1.0-759.0","0","0","35959","","null","","","null","84","NaN","","","","","","","","","","","","","","",""
"","S2","","html-keyboard-response","550","1058168","0.0-1.0-760.0","0","0","35959","","null","","","null","84","","NaN","","","","","","","","","","","","","",""
"","response","","html-keyboard-response","551","1058743","0.0-1.0-761.0","0","0","35959","","574","","","68","84","","","2","84","training","adjacent","FE","6","5","M.jpg","N.jpg","0","0","1","",""
"","feedback","","html-keyboard-response","552","1059745","0.0-1.0-762.0-0.0","0","0","35959","","null","","","null","84","","","","","","","","","","","","","","","",""
"","ITI","","html-keyboard-response","553","1060747","0.0-1.0-765.0","0","0","35959","","null","","","null","84","","","","","","","","","","","","","","","NaN",""
"","S1","","html-keyboard-response","554","1061000","0.0-1.0-767.0","0","0","35959","","null","","","null","85","","","","","","","","","","","","","","","",""
"","ISI","","html-keyboard-response","555","1063002","0.0-1.0-768.0","0","0","35959","","null","","","null","85","NaN","","","","","","","","","","","","","","",""
"","S2","","html-keyboard-response","556","1063255","0.0-1.0-769.0","0","0","35959","","null","","","null","85","","NaN","","","","","","","","","","","","","",""
"","response","","html-keyboard-response","557","1063874","0.0-1.0-770.0","0","0","35959","","618","","","75","85","","","2","85","training","adjacent","FE","6","5","M.jpg","N.jpg","1","0","0","",""
"","feedback","","html-keyboard-response","558","1064876","0.0-1.0-771.0-0.0","0","0","35959","","null","","","null","85","","","","","","","","","","","","","","","",""
"","time_out","","html-keyboard-response","559","1066879","0.0-1.0-773.0-0.0","0","0","35959","","null","","","null","85","","","","","","","","","","","","","","","",""
"","ITI","","html-keyboard-response","560","1067881","0.0-1.0-774.0","0","0","35959","","null","","","null","85","","","","","","","","","","","","","","","NaN",""
"","S1","","html-keyboard-response","561","1068133","0.0-1.0-776.0","0","0","35959","","null","","","null","86","","","","","","","","","","","","","","","",""
"","ISI","","html-keyboard-response","562","1070136","0.0-1.0-777.0","0","0","35959","","1976","","","68","86","d","","","","","","","","","","","","","","",""
"","S2","","html-keyboard-response","563","1070388","0.0-1.0-778.0","0","0","35959","","null","","","null","86","","NaN","","","","","","","","","","","","","",""
"","response","","html-keyboard-response","564","1071238","0.0-1.0-779.0","0","0","35959","","847","","","68","86","","","2","86","training","adjacent","GF","7","6","R.jpg","M.jpg","0","0","1","",""
"","feedback","","html-keyboard-response","565","1072241","0.0-1.0-780.0-0.0","0","0","35959","","null","","","null","86","","","","","","","","","","","","","","","",""
"","ITI","","html-keyboard-response","566","1073244","0.0-1.0-783.0","0","0","35959","","null","","","null","86","","","","","","","","","","","","","","","NaN",""
"","S1","","html-keyboard-response","567","1073497","0.0-1.0-785.0","0","0","35959","","null","","","null","87","","","","","","","","","","","","","","","",""
"","ISI","","html-keyboard-response","568","1075499","0.0-1.0-786.0","0","0","35959","","null","","","null","87","NaN","","","","","","","","","","","","","","",""
"","S2","","html-keyboard-response","569","1075750","0.0-1.0-787.0","0","0","35959","","null","","","null","87","","NaN","","","","","","","","","","","","","",""
"","response","","html-keyboard-response","570","1076292","0.0-1.0-788.0","0","0","35959","","541","","","68","87","","","2","87","training","adjacent","CB","3","2","L.jpg","Q.jpg","0","0","1","",""
"","feedback","","html-keyboard-response","571","1077295","0.0-1.0-789.0-0.0","0","0","35959","","null","","","null","87","","","","","","","","","","","","","","","",""
"","ITI","","html-keyboard-response","572","1078297","0.0-1.0-792.0","0","0","35959","","null","","","null","87","","","","","","","","","","","","","","","NaN",""
"","S1","","html-keyboard-response","573","1078550","0.0-1.0-794.0","0","0","35959","","null","","","null","88","","","","","","","","","","","","","","","",""
"","ISI","","html-keyboard-response","574","1080552","0.0-1.0-795.0","0","0","35959","","null","","","null","88","NaN","","","","","","","","","","","","","","",""
"","S2","","html-keyboard-response","575","1080804","0.0-1.0-796.0","0","0","35959","","null","","","null","88","","NaN","","","","","","","","","","","","","",""
"","response","","html-keyboard-response","576","1081438","0.0-1.0-797.0","0","0","35959","","634","","","75","88","","","2","88","training","adjacent","DE","4","5","P.jpg","N.jpg","1","1","1","",""
"","feedback","","html-keyboard-response","577","1082440","0.0-1.0-798.0-0.0","0","0","35959","","null","","","null","88","","","","","","","","","","","","","","","",""
"","ITI","","html-keyboard-response","578","1083442","0.0-1.0-801.0","0","0","35959","","null","","","null","88","","","","","","","","","","","","","","","NaN",""
"","S1","","html-keyboard-response","579","1083694","0.0-1.0-803.0","0","0","35959","","null","","","null","89","","","","","","","","","","","","","","","",""
"","ISI","","html-keyboard-response","580","1085695","0.0-1.0-804.0","0","0","35959","","null","","","null","89","NaN","","","","","","","","","","","","","","",""
"","S2","","html-keyboard-response","581","1085947","0.0-1.0-805.0","0","0","35959","","null","","","null","89","","NaN","","","","","","","","","","","","","",""
"","response","","html-keyboard-response","582","1086884","0.0-1.0-806.0","0","0","35959","","936","","","68","89","","","2","89","training","adjacent","FG","6","7","M.jpg","R.jpg","0","1","0","",""
