"success","ttype","start_time","trial_type","trial_index","time_elapsed","internal_node_id","warning","missed_checkup","PID","view_history","rt","responses","repeat_instructions","key_press","index","keypress_isi","keypress_S2","block","trial_num","phase","group_type","pair_type","S1_stim","S2_stim","S1_img","S2_img","S1_chosen","S1_higher","accuracy","keypress_iti","total_bonus_tally"
"true","full_screen","d08052022hr1516","fullscreen","0","3518","0.0-0.0","0","0","72112","","","","","","","","","","","","","","","","","","","","","",""
"","instructions","","instructions","1","41771","0.0-1.0-0.0-0.0","0","0","72112","[{""page_index"":0,""viewing_time"":16369},{""page_index"":1,""viewing_time"":12213},{""page_index"":2,""viewing_time"":8603},{""page_index"":3,""viewing_time"":1067}]","38252","","","","","","","","","","","","","","","","","","","",""
"","comprehension_check","","survey-multi-choice","2","64520","0.0-1.0-0.0-1.0","0","0","72112","","22745","{""Q0"":""True"",""Q1"":""D"",""Q2"":""Once the second image appears and while the screen 'MAKE A CHOICE' is shown"",""Q3"":""Green mark"",""Q4"":""either D or K""}","0","","","","","","","","","","","","","","","","","",""
"","start_exp","","html-keyboard-response","3","66687","0.0-1.0-1.0","0","0","72112","","2165","","","32","","","","","","","","","","","","","","","","",""
"","S1","","html-keyboard-response","4","66940","0.0-1.0-2.0","0","0","72112","","null","","","null","0","","","","","","","","","","","","","","","",""
"","ISI","","html-keyboard-response","5","68944","0.0-1.0-3.0","0","0","72112","","null","","","null","0","NaN","","","","","","","","","","","","","","",""
"","S2","","html-keyboard-response","6","69198","0.0-1.0-4.0","0","0","72112","","null","","","null","0","","NaN","","","","","","","","","","","","","",""
"","response","","html-keyboard-response","7","70767","0.0-1.0-5.0-0.0","0","0","72112","","1566","","","68","0","","","1","0","training","adjacent","BA","2","1","R.jpg","P.jpg","1","0","0","",""
"","feedback","","html-keyboard-response","8","71775","0.0-1.0-6.0-0.0","0","0","72112","","null","","","null","0","","","","","","","","","","","","","","","",""
"","time_out","","html-keyboard-response","9","73778","0.0-1.0-8.0-0.0","0","0","72112","","null","","","null","0","","","","","","","","","","","","","","","",""
"","ITI","","html-keyboard-response","10","74781","0.0-1.0-9.0","0","0","72112","","null","","","null","0","","","","","","","","","","","","","","","NaN",""
"","S1","","html-keyboard-response","11","75034","0.0-1.0-11.0","0","0","72112","","null","","","null","1","","","","","","","","","","","","","","","",""
"","ISI","","html-keyboard-response","12","77037","0.0-1.0-12.0","0","0","72112","","null","","","null","1","NaN","","","","","","","","","","","","","","",""
"","S2","","html-keyboard-response","13","77300","0.0-1.0-13.0","0","0","72112","","null","","","null","1","","NaN","","","","","","","","","","","","","",""
"","response","","html-keyboard-response","14","79053","0.0-1.0-14.0-0.0","0","0","72112","","null","","","null","1","","","1","1","training","adjacent","CB","3","2","N.jpg","R.jpg","NaN","0","0","",""
"","too_slow_prompt","","html-keyboard-response","15","80067","0.0-1.0-16.0-0.0","1","0","72112","","null","","","null","","","","","","","","","","","","","","","","",""
"","time_out","","html-keyboard-response","16","82070","0.0-1.0-17.0-0.0","0","0","72112","","null","","","null","1","","","","","","","","","","","","","","","",""
"","ITI","","html-keyboard-response","17","83074","0.0-1.0-18.0","0","0","72112","","null","","","null","1","","","","","","","","","","","","","","","NaN",""
"","S1","","html-keyboard-response","18","83328","0.0-1.0-20.0","0","0","72112","","null","","","null","2","","","","","","","","","","","","","","","",""
"","ISI","","html-keyboard-response","19","85331","0.0-1.0-21.0","0","0","72112","","null","","","null","2","NaN","","","","","","","","","","","","","","",""
"","S2","","html-keyboard-response","20","85584","0.0-1.0-22.0","0","0","72112","","null","","","null","2","","NaN","","","","","","","","","","","","","",""
"","response","","html-keyboard-response","21","86402","0.0-1.0-23.0-0.0","0","0","72112","","816","","","68","2","","","1","2","training","adjacent","EF","5","6","O.jpg","M.jpg","1","1","1","",""
"","feedback","","html-keyboard-response","22","87404","0.0-1.0-24.0-0.0","0","0","72112","","null","","","null","2","","","","","","","","","","","","","","","",""
"","ITI","","html-keyboard-response","23","88407","0.0-1.0-27.0","0","0","72112","","null","","","null","2","","","","","","","","","","","","","","","NaN",""
"","S1","","html-keyboard-response","24","88660","0.0-1.0-29.0","0","0","72112","","null","","","null","3","","","","","","","","","","","","","","","",""
"","ISI","","html-keyboard-response","25","90664","0.0-1.0-30.0","0","0","72112","","null","","","null","3","NaN","","","","","","","","","","","","","","",""
"","S2","","html-keyboard-response","26","90917","0.0-1.0-31.0","0","0","72112","","null","","","null","3","","NaN","","","","","","","","","","","","","",""
"","response","","html-keyboard-response","27","91775","0.0-1.0-32.0-0.0","0","0","72112","","855","","","68","3","","","1","3","training","adjacent","GF","7","6","Q.jpg","M.jpg","1","0","0","",""
"","feedback","","html-keyboard-response","28","92786","0.0-1.0-33.0-0.0","0","0","72112","","null","","","null","3","","","","","","","","","","","","","","","",""
"","time_out","","html-keyboard-response","29","94788","0.0-1.0-35.0-0.0","0","0","72112","","null","","","null","3","","","","","","","","","","","","","","","",""
"","ITI","","html-keyboard-response","30","95792","0.0-1.0-36.0","0","0","72112","","null","","","null","3","","","","","","","","","","","","","","","NaN",""
"","S1","","html-keyboard-response","31","96046","0.0-1.0-38.0","0","0","72112","","null","","","null","4","","","","","","","","","","","","","","","",""
"","ISI","","html-keyboard-response","32","98053","0.0-1.0-39.0","0","0","72112","","null","","","null","4","NaN","","","","","","","","","","","","","","",""
"","S2","","html-keyboard-response","33","98306","0.0-1.0-40.0","0","0","72112","","null","","","null","4","","NaN","","","","","","","","","","","","","",""
"","response","","html-keyboard-response","34","98577","0.0-1.0-41.0-0.0","0","0","72112","","268","","","68","4","","","1","4","training","adjacent","CD","3","4","N.jpg","L.jpg","1","1","1","",""
"","feedback","","html-keyboard-response","35","99581","0.0-1.0-42.0-0.0","0","0","72112","","null","","","null","4","","","","","","","","","","","","","","","",""
"","ITI","","html-keyboard-response","36","100583","0.0-1.0-45.0","0","0","72112","","null","","","null","4","","","","","","","","","","","","","","","NaN",""
"","S1","","html-keyboard-response","37","100837","0.0-1.0-47.0","0","0","72112","","null","","","null","5","","","","","","","","","","","","","","","",""
"","ISI","","html-keyboard-response","38","102839","0.0-1.0-48.0","0","0","72112","","null","","","null","5","NaN","","","","","","","","","","","","","","",""
"","S2","","html-keyboard-response","39","103092","0.0-1.0-49.0","0","0","72112","","null","","","null","5","","NaN","","","","","","","","","","","","","",""
"","response","","html-keyboard-response","40","103443","0.0-1.0-50.0-0.0","0","0","72112","","349","","","75","5","","","1","5","training","adjacent","ED","5","4","O.jpg","L.jpg","0","0","1","",""
"","feedback","","html-keyboard-response","41","104446","0.0-1.0-51.0-0.0","0","0","72112","","null","","","null","5","","","","","","","","","","","","","","","",""
"","ITI","","html-keyboard-response","42","105448","0.0-1.0-54.0","0","0","72112","","null","","","null","5","","","","","","","","","","","","","","","NaN",""
"","S1","","html-keyboard-response","43","105701","0.0-1.0-56.0","0","0","72112","","null","","","null","6","","","","","","","","","","","","","","","",""
"","ISI","","html-keyboard-response","44","107703","0.0-1.0-57.0","0","0","72112","","null","","","null","6","NaN","","","","","","","","","","","","","","",""
"","S2","","html-keyboard-response","45","107957","0.0-1.0-58.0","0","0","72112","","null","","","null","6","","NaN","","","","","","","","","","","","","",""
"","response","","html-keyboard-response","46","108893","0.0-1.0-59.0-0.0","0","0","72112","","935","","","68","6","","","1","6","training","adjacent","DE","4","5","L.jpg","O.jpg","1","1","1","",""
"","feedback","","html-keyboard-response","47","109895","0.0-1.0-60.0-0.0","0","0","72112","","null","","","null","6","","","","","","","","","","","","","","","",""
"","ITI","","html-keyboard-response","48","110898","0.0-1.0-63.0","0","0","72112","","null","","","null","6","","","","","","","","","","","","","","","NaN",""
"","S1","","html-keyboard-response","49","111152","0.0-1.0-65.0","0","0","72112","","null","","","null","7","","","","","","","","","","","","","","","",""
"","ISI","","html-keyboard-response","50","113155","0.0-1.0-66.0","0","0","72112","","null","","","null","7","NaN","","","","","","","","","","","","","","",""
"","S2","","html-keyboard-response","51","113408","0.0-1.0-67.0","0","0","72112","","null","","","null","7","","NaN","","","","","","","","","","","","","",""
"","response","","html-keyboard-response","52","113645","0.0-1.0-68.0-0.0","0","0","72112","","236","","","75","7","","","1","7","training","adjacent","GF","7","6","Q.jpg","M.jpg","0","0","1","",""
"","feedback","","html-keyboard-response","53","114650","0.0-1.0-69.0-0.0","0","0","72112","","null","","","null","7","","","","","","","","","","","","","","","",""
"","ITI","","html-keyboard-response","54","115653","0.0-1.0-72.0","0","0","72112","","null","","","null","7","","","","","","","","","","","","","","","NaN",""
"","S1","","html-keyboard-response","55","115906","0.0-1.0-74.0","0","0","72112","","null","","","null","8","","","","","","","","","","","","","","","",""
"","ISI","","html-keyboard-response","56","117909","0.0-1.0-75.0","0","0","72112","","null","","","null","8","NaN","","","","","","","","","","","","","","",""
"","S2","","html-keyboard-response","57","118163","0.0-1.0-76.0","0","0","72112","","null","","","null","8","","NaN","","","","","","","","","","","","","",""
"","response","","html-keyboard-response","58","118565","0.0-1.0-77.0-0.0","0","0","72112","","399","","","68","8","","","1","8","training","adjacent","CD","3","4","N.jpg","L.jpg","1","1","1","",""
"","feedback","","html-keyboard-response","59","119568","0.0-1.0-78.0-0.0","0","0","72112","","null","","","null","8","","","","","","","","","","","","","","","",""
"","ITI","","html-keyboard-response","60","120572","0.0-1.0-81.0","0","0","72112","","null","","","null","8","","","","","","","","","","","","","","","NaN",""
"","S1","","html-keyboard-response","61","120825","0.0-1.0-83.0","0","0","72112","","null","","","null","9","","","","","","","","","","","","","","","",""
"","ISI","","html-keyboard-response","62","122828","0.0-1.0-84.0","0","0","72112","","null","","","null","9","NaN","","","","","","","","","","","","","","",""
"","S2","","html-keyboard-response","63","123082","0.0-1.0-85.0","0","0","72112","","null","","","null","9","","NaN","","","","","","","","","","","","","",""
"","response","","html-keyboard-response","64","123119","0.0-1.0-86.0-0.0","0","0","72112","","34","","","75","9","","","1","9","training","adjacent","EF","5","6","O.jpg","M.jpg","0","1","0","",""
"","feedback","","html-keyboard-response","65","124122","0.0-1.0-87.0-0.0","0","0","72112","","null","","","null","9","","","","","","","","","","","","","","","",""
"","time_out","","html-keyboard-response","66","126126","0.0-1.0-89.0-0.0","0","0","72112","","null","","","null","9","","","","","","","","","","","","","","","",""
"","ITI","","html-keyboard-response","67","127129","0.0-1.0-90.0","0","0","72112","","null","","","null","9","","","","","","","","","","","","","","","NaN",""
"","S1","","html-keyboard-response","68","127383","0.0-1.0-92.0","0","0","72112","","null","","","null","10","","","","","","","","","","","","","","","",""
"","ISI","","html-keyboard-response","69","129385","0.0-1.0-93.0","0","0","72112","","null","","","null","10","NaN","","","","","","","","","","","","","","",""
"","S2","","html-keyboard-response","70","129640","0.0-1.0-94.0","0","0","72112","","null","","","null","10","","NaN","","","","","","","","","","","","","",""
"","response","","html-keyboard-response","71","130453","0.0-1.0-95.0-0.0","0","0","72112","","810","","","68","10","","","1","10","training","adjacent","BC","2","3","R.jpg","N.jpg","1","1","1","",""
"","feedback","","html-keyboard-response","72","131457","0.0-1.0-96.0-0.0","0","0","72112","","null","","","null","10","","","","","","","","","","","","","","","",""
"","ITI","","html-keyboard-response","73","132460","0.0-1.0-99.0","0","0","72112","","null","","","null","10","","","","","","","","","","","","","","","NaN",""
"","S1","","html-keyboard-response","74","132714","0.0-1.0-101.0","0","0","72112","","null","","","null","11","","","","","","","","","","","","","","","",""
"","ISI","","html-keyboard-response","75","134717","0.0-1.0-102.0","0","0","72112","","null","","","null","11","NaN","","","","","","","","","","","","","","",""
"","S2","","html-keyboard-response","76","134972","0.0-1.0-103.0","0","0","72112","","null","","","null","11","","NaN","","","","","","","","","","","","","",""
"","response","","html-keyboard-response","77","135672","0.0-1.0-104.0-0.0","0","0","72112","","698","","","75","11","","","1","11","training","adjacent","DC","4","3","L.jpg","N.jpg","0","0","1","",""
"","feedback","","html-keyboard-response","78","136675","0.0-1.0-105.0-0.0","0","0","72112","","null","","","null","11","","","","","","","","","","","","","","","",""
"","ITI","","html-keyboard-response","79","137679","0.0-1.0-108.0","0","0","72112","","null","","","null","11","","","","","","","","","","","","","","","NaN",""
"","S1","","html-keyboard-response","80","137933","0.0-1.0-110.0","0","0","72112","","null","","","null","12","","","","","","","","","","","","","","","",""
"","ISI","","html-keyboard-response","81","139936","0.0-1.0-111.0","0","0","72112","","null","","","null","12","NaN","","","","","","","","","","","","","","",""
"","S2","","html-keyboard-response","82","140190","0.0-1.0-112.0","0","0","72112","","null","","","null","12","","NaN","","","","","","","","","","","","","",""
"","response","","html-keyboard-response","83","140484","0.0-1.0-113.0-0.0","0","0","72112","","292","","","75","12","","","1","12","training","adjacent","DC","4","3","L.jpg","N.jpg","0","0","1","",""
"","feedback","","html-keyboard-response","84","141487","0.0-1.0-114.0-0.0","0","0","72112","","null","","","null","12","","","","","","","","","","","","","","","",""
"","ITI","","html-keyboard-response","85","142491","0.0-1.0-117.0","0","0","72112","","null","","","null","12","","","","","","","","","","","","","","","NaN",""
"","S1","","html-keyboard-response","86","142743","0.0-1.0-119.0","0","0","72112","","null","","","null","13","","","","","","","","","","","","","","","",""
"","ISI","","html-keyboard-response","87","144746","0.0-1.0-120.0","0","0","72112","","null","","","null","13","NaN","","","","","","","","","","","","","","",""
"","S2","","html-keyboard-response","88","145000","0.0-1.0-121.0","0","0","72112","","null","","","null","13","","NaN","","","","","","","","","","","","","",""
"","response","","html-keyboard-response","89","145246","0.0-1.0-122.0-0.0","0","0","72112","","243","","","75","13","","","1","13","training","adjacent","AB","1","2","P.jpg","R.jpg","0","1","0","",""
"","feedback","","html-keyboard-response","90","146249","0.0-1.0-123.0-0.0","0","0","72112","","null","","","null","13","","","","","","","","","","","","","","","",""
"","time_out","","html-keyboard-response","91","148251","0.0-1.0-125.0-0.0","0","0","72112","","null","","","null","13","","","","","","","","","","","","","","","",""
"","ITI","","html-keyboard-response","92","149253","0.0-1.0-126.0","0","0","72112","","null","","","null","13","","","","","","","","","","","","","","","NaN",""
"","S1","","html-keyboard-response","93","149506","0.0-1.0-128.0","0","0","72112","","null","","","null","14","","","","","","","","","","","","","","","",""
"","ISI","","html-keyboard-response","94","151509","0.0-1.0-129.0","0","0","72112","","null","","","null","14","NaN","","","","","","","","","","","","","","",""
"","S2","","html-keyboard-response","95","151763","0.0-1.0-130.0","0","0","72112","","null","","","null","14","","NaN","","","","","","","","","","","","","",""
"","response","","html-keyboard-response","96","152378","0.0-1.0-131.0-0.0","0","0","72112","","612","","","68","14","","","1","14","training","adjacent","DE","4","5","L.jpg","O.jpg","1","1","1","",""
"","feedback","","html-keyboard-response","97","153381","0.0-1.0-132.0-0.0","0","0","72112","","null","","","null","14","","","","","","","","","","","","","","","",""
"","ITI","","html-keyboard-response","98","154384","0.0-1.0-135.0","0","0","72112","","null","","","null","14","","","","","","","","","","","","","","","NaN",""
"","S1","","html-keyboard-response","99","154637","0.0-1.0-137.0","0","0","72112","","null","","","null","15","","","","","","","","","","","","","","","",""
"","ISI","","html-keyboard-response","100","156640","0.0-1.0-138.0","0","0","72112","","null","","","null","15","NaN","","","","","","","","","","","","","","",""
"","S2","","html-keyboard-response","101","156894","0.0-1.0-139.0","0","0","72112","","null","","","null","15","","NaN","","","","","","","","","","","","","",""
"","response","","html-keyboard-response","102","157146","0.0-1.0-140.0-0.0","0","0","72112","","250","","","75","15","","","1","15","training","adjacent","GF","7","6","Q.jpg","M.jpg","0","0","1","",""
"","feedback","","html-keyboard-response","103","158151","0.0-1.0-141.0-0.0","0","0","72112","","null","","","null","15","","","","","","","","","","","","","","","",""
"","ITI","","html-keyboard-response","104","159153","0.0-1.0-144.0","0","0","72112","","null","","","null","15","","","","","","","","","","","","","","","NaN",""
"","S1","","html-keyboard-response","105","159406","0.0-1.0-146.0","0","0","72112","","null","","","null","16","","","","","","","","","","","","","","","",""
"","ISI","","html-keyboard-response","106","161409","0.0-1.0-147.0","0","0","72112","","null","","","null","16","NaN","","","","","","","","","","","","","","",""
"","S2","","html-keyboard-response","107","161662","0.0-1.0-148.0","0","0","72112","","null","","","null","16","","NaN","","","","","","","","","","","","","",""
"","response","","html-keyboard-response","108","162004","0.0-1.0-149.0-0.0","0","0","72112","","339","","","75","16","","","1","16","training","adjacent","GF","7","6","Q.jpg","M.jpg","0","0","1","",""
"","feedback","","html-keyboard-response","109","163007","0.0-1.0-150.0-0.0","0","0","72112","","null","","","null","16","","","","","","","","","","","","","","","",""
"","ITI","","html-keyboard-response","110","164011","0.0-1.0-153.0","0","0","72112","","null","","","null","16","","","","","","","","","","","","","","","NaN",""
"","S1","","html-keyboard-response","111","164262","0.0-1.0-155.0","0","0","72112","","null","","","null","17","","","","","","","","","","","","","","","",""
"","ISI","","html-keyboard-response","112","166264","0.0-1.0-156.0","0","0","72112","","null","","","null","17","NaN","","","","","","","","","","","","","","",""
"","S2","","html-keyboard-response","113","166517","0.0-1.0-157.0","0","0","72112","","null","","","null","17","","NaN","","","","","","","","","","","","","",""
"","response","","html-keyboard-response","114","166787","0.0-1.0-158.0-0.0","0","0","72112","","268","","","75","17","","","1","17","training","adjacent","AB","1","2","P.jpg","R.jpg","0","1","0","",""
"","feedback","","html-keyboard-response","115","167791","0.0-1.0-159.0-0.0","0","0","72112","","null","","","null","17","","","","","","","","","","","","","","","",""
"","time_out","","html-keyboard-response","116","169795","0.0-1.0-161.0-0.0","0","0","72112","","null","","","null","17","","","","","","","","","","","","","","","",""
"","ITI","","html-keyboard-response","117","170798","0.0-1.0-162.0","0","0","72112","","null","","","null","17","","","","","","","","","","","","","","","NaN",""
"","S1","","html-keyboard-response","118","171051","0.0-1.0-164.0","0","0","72112","","null","","","null","18","","","","","","","","","","","","","","","",""
"","ISI","","html-keyboard-response","119","173054","0.0-1.0-165.0","0","0","72112","","null","","","null","18","NaN","","","","","","","","","","","","","","",""
"","S2","","html-keyboard-response","120","173308","0.0-1.0-166.0","0","0","72112","","null","","","null","18","","NaN","","","","","","","","","","","","","",""
"","response","","html-keyboard-response","121","173838","0.0-1.0-167.0-0.0","0","0","72112","","527","","","68","18","","","1","18","training","adjacent","BC","2","3","R.jpg","N.jpg","1","1","1","",""
"","feedback","","html-keyboard-response","122","174842","0.0-1.0-168.0-0.0","0","0","72112","","null","","","null","18","","","","","","","","","","","","","","","",""
"","ITI","","html-keyboard-response","123","175844","0.0-1.0-171.0","0","0","72112","","null","","","null","18","","","","","","","","","","","","","","","NaN",""
"","S1","","html-keyboard-response","124","176096","0.0-1.0-173.0","0","0","72112","","null","","","null","19","","","","","","","","","","","","","","","",""
"","ISI","","html-keyboard-response","125","178099","0.0-1.0-174.0","0","0","72112","","null","","","null","19","NaN","","","","","","","","","","","","","","",""
"","S2","","html-keyboard-response","126","178353","0.0-1.0-175.0","0","0","72112","","null","","","null","19","","NaN","","","","","","","","","","","","","",""
"","response","","html-keyboard-response","127","178789","0.0-1.0-176.0-0.0","0","0","72112","","433","","","68","19","","","1","19","training","adjacent","FE","6","5","M.jpg","O.jpg","1","0","0","",""
"","feedback","","html-keyboard-response","128","179808","0.0-1.0-177.0-0.0","0","0","72112","","null","","","null","19","","","","","","","","","","","","","","","",""
"","time_out","","html-keyboard-response","129","181811","0.0-1.0-179.0-0.0","0","0","72112","","null","","","null","19","","","","","","","","","","","","","","","",""
"","ITI","","html-keyboard-response","130","182815","0.0-1.0-180.0","0","0","72112","","null","","","null","19","","","","","","","","","","","","","","","NaN",""
"","S1","","html-keyboard-response","131","183068","0.0-1.0-182.0","0","0","72112","","null","","","null","20","","","","","","","","","","","","","","","",""
"","ISI","","html-keyboard-response","132","185071","0.0-1.0-183.0","0","0","72112","","null","","","null","20","NaN","","","","","","","","","","","","","","",""
"","S2","","html-keyboard-response","133","185326","0.0-1.0-184.0","0","0","72112","","null","","","null","20","","NaN","","","","","","","","","","","","","",""
"","response","","html-keyboard-response","134","185643","0.0-1.0-185.0-0.0","0","0","72112","","317","","","75","20","","","1","20","training","adjacent","CD","3","4","N.jpg","L.jpg","0","1","0","",""
"","feedback","","html-keyboard-response","135","186647","0.0-1.0-186.0-0.0","0","0","72112","","null","","","null","20","","","","","","","","","","","","","","","",""
"","time_out","","html-keyboard-response","136","188650","0.0-1.0-188.0-0.0","0","0","72112","","null","","","null","20","","","","","","","","","","","","","","","",""
"","ITI","","html-keyboard-response","137","189654","0.0-1.0-189.0","0","0","72112","","null","","","null","20","","","","","","","","","","","","","","","NaN",""
"","S1","","html-keyboard-response","138","189908","0.0-1.0-191.0","0","0","72112","","null","","","null","21","","","","","","","","","","","","","","","",""
"","ISI","","html-keyboard-response","139","191910","0.0-1.0-192.0","0","0","72112","","null","","","null","21","NaN","","","","","","","","","","","","","","",""
"","S2","","html-keyboard-response","140","192164","0.0-1.0-193.0","0","0","72112","","null","","","null","21","","NaN","","","","","","","","","","","","","",""
"","response","","html-keyboard-response","141","192618","0.0-1.0-194.0-0.0","0","0","72112","","453","","","68","21","","","1","21","training","adjacent","FG","6","7","M.jpg","Q.jpg","1","1","1","",""
"","feedback","","html-keyboard-response","142","193621","0.0-1.0-195.0-0.0","0","0","72112","","null","","","null","21","","","","","","","","","","","","","","","",""
"","ITI","","html-keyboard-response","143","194625","0.0-1.0-198.0","0","0","72112","","null","","","null","21","","","","","","","","","","","","","","","NaN",""
"","S1","","html-keyboard-response","144","194877","0.0-1.0-200.0","0","0","72112","","null","","","null","22","","","","","","","","","","","","","","","",""
"","ISI","","html-keyboard-response","145","196880","0.0-1.0-201.0","0","0","72112","","null","","","null","22","NaN","","","","","","","","","","","","","","",""
"","S2","","html-keyboard-response","146","197134","0.0-1.0-202.0","0","0","72112","","null","","","null","22","","NaN","","","","","","","","","","","","","",""
"","response","","html-keyboard-response","147","197463","0.0-1.0-203.0-0.0","0","0","72112","","327","","","75","22","","","1","22","training","adjacent","ED","5","4","O.jpg","L.jpg","0","0","1","",""
"","feedback","","html-keyboard-response","148","198465","0.0-1.0-204.0-0.0","0","0","72112","","null","","","null","22","","","","","","","","","","","","","","","",""
"","ITI","","html-keyboard-response","149","199469","0.0-1.0-207.0","0","0","72112","","null","","","null","22","","","","","","","","","","","","","","","NaN",""
"","S1","","html-keyboard-response","150","199722","0.0-1.0-209.0","0","0","72112","","null","","","null","23","","","","","","","","","","","","","","","",""
"","ISI","","html-keyboard-response","151","201725","0.0-1.0-210.0","0","0","72112","","null","","","null","23","NaN","","","","","","","","","","","","","","",""
"","S2","","html-keyboard-response","152","201977","0.0-1.0-211.0","0","0","72112","","null","","","null","23","","NaN","","","","","","","","","","","","","",""
"","response","","html-keyboard-response","153","202291","0.0-1.0-212.0-0.0","0","0","72112","","311","","","68","23","","","1","23","training","adjacent","DC","4","3","L.jpg","N.jpg","1","0","0","",""
"","feedback","","html-keyboard-response","154","203295","0.0-1.0-213.0-0.0","0","0","72112","","null","","","null","23","","","","","","","","","","","","","","","",""
"","time_out","","html-keyboard-response","155","205298","0.0-1.0-215.0-0.0","0","0","72112","","null","","","null","23","","","","","","","","","","","","","","","",""
"","ITI","","html-keyboard-response","156","206301","0.0-1.0-216.0","0","0","72112","","null","","","null","23","","","","","","","","","","","","","","","NaN",""
"","S1","","html-keyboard-response","157","206556","0.0-1.0-218.0","0","0","72112","","null","","","null","24","","","","","","","","","","","","","","","",""
"","ISI","","html-keyboard-response","158","208559","0.0-1.0-219.0","0","0","72112","","null","","","null","24","NaN","","","","","","","","","","","","","","",""
"","S2","","html-keyboard-response","159","208812","0.0-1.0-220.0","0","0","72112","","null","","","null","24","","NaN","","","","","","","","","","","","","",""
"","response","","html-keyboard-response","160","209162","0.0-1.0-221.0-0.0","0","0","72112","","348","","","68","24","","","1","24","training","adjacent","BA","2","1","R.jpg","P.jpg","1","0","0","",""
"","feedback","","html-keyboard-response","161","210164","0.0-1.0-222.0-0.0","0","0","72112","","null","","","null","24","","","","","","","","","","","","","","","",""
"","time_out","","html-keyboard-response","162","212167","0.0-1.0-224.0-0.0","0","0","72112","","null","","","null","24","","","","","","","","","","","","","","","",""
"","ITI","","html-keyboard-response","163","213170","0.0-1.0-225.0","0","0","72112","","null","","","null","24","","","","","","","","","","","","","","","NaN",""
"","S1","","html-keyboard-response","164","213423","0.0-1.0-227.0","0","0","72112","","null","","","null","25","","","","","","","","","","","","","","","",""
"","ISI","","html-keyboard-response","165","215426","0.0-1.0-228.0","0","0","72112","","null","","","null","25","NaN","","","","","","","","","","","","","","",""
"","S2","","html-keyboard-response","166","215680","0.0-1.0-229.0","0","0","72112","","null","","","null","25","","NaN","","","","","","","","","","","","","",""
"","response","","html-keyboard-response","167","215868","0.0-1.0-230.0-0.0","0","0","72112","","187","","","75","25","","","1","25","training","adjacent","BC","2","3","R.jpg","N.jpg","0","1","0","",""
"","feedback","","html-keyboard-response","168","216874","0.0-1.0-231.0-0.0","0","0","72112","","null","","","null","25","","","","","","","","","","","","","","","",""
"","time_out","","html-keyboard-response","169","218877","0.0-1.0-233.0-0.0","0","0","72112","","null","","","null","25","","","","","","","","","","","","","","","",""
"","ITI","","html-keyboard-response","170","219881","0.0-1.0-234.0","0","0","72112","","null","","","null","25","","","","","","","","","","","","","","","NaN",""
"","S1","","html-keyboard-response","171","220134","0.0-1.0-236.0","0","0","72112","","null","","","null","26","","","","","","","","","","","","","","","",""
"","ISI","","html-keyboard-response","172","222137","0.0-1.0-237.0","0","0","72112","","null","","","null","26","NaN","","","","","","","","","","","","","","",""
"","S2","","html-keyboard-response","173","222390","0.0-1.0-238.0","0","0","72112","","null","","","null","26","","NaN","","","","","","","","","","","","","",""
"","response","","html-keyboard-response","174","222731","0.0-1.0-239.0-0.0","0","0","72112","","339","","","68","26","","","1","26","training","adjacent","FE","6","5","M.jpg","O.jpg","1","0","0","",""
"","feedback","","html-keyboard-response","175","223735","0.0-1.0-240.0-0.0","0","0","72112","","null","","","null","26","","","","","","","","","","","","","","","",""
"","time_out","","html-keyboard-response","176","225738","0.0-1.0-242.0-0.0","0","0","72112","","null","","","null","26","","","","","","","","","","","","","","","",""
"","ITI","","html-keyboard-response","177","226741","0.0-1.0-243.0","0","0","72112","","null","","","null","26","","","","","","","","","","","","","","","NaN",""
"","S1","","html-keyboard-response","178","226995","0.0-1.0-245.0","0","0","72112","","null","","","null","27","","","","","","","","","","","","","","","",""
"","ISI","","html-keyboard-response","179","228998","0.0-1.0-246.0","0","0","72112","","null","","","null","27","NaN","","","","","","","","","","","","","","",""
"","S2","","html-keyboard-response","180","229252","0.0-1.0-247.0","0","0","72112","","null","","","null","27","","NaN","","","","","","","","","","","","","",""
"","response","","html-keyboard-response","181","229521","0.0-1.0-248.0-0.0","0","0","72112","","266","","","68","27","","","1","27","training","adjacent","FE","6","5","M.jpg","O.jpg","1","0","0","",""
"","feedback","","html-keyboard-response","182","230524","0.0-1.0-249.0-0.0","0","0","72112","","null","","","null","27","","","","","","","","","","","","","","","",""
"","time_out","","html-keyboard-response","183","232528","0.0-1.0-251.0-0.0","0","0","72112","","null","","","null","27","","","","","","","","","","","","","","","",""
"","ITI","","html-keyboard-response","184","233531","0.0-1.0-252.0","0","0","72112","","null","","","null","27","","","","","","","","","","","","","","","NaN",""
"","S1","","html-keyboard-response","185","233784","0.0-1.0-254.0","0","0","72112","","null","","","null","28","","","","","","","","","","","","","","","",""
"","ISI","","html-keyboard-response","186","235787","0.0-1.0-255.0","0","0","72112","","null","","","null","28","NaN","","","","","","","","","","","","","","",""
"","S2","","html-keyboard-response","187","236049","0.0-1.0-256.0","0","0","72112","","null","","","null","28","","NaN","","","","","","","","","","","","","",""
"","response","","html-keyboard-response","188","236438","0.0-1.0-257.0-0.0","0","0","72112","","386","","","68","28","","","1","28","training","adjacent","DE","4","5","L.jpg","O.jpg","1","1","1","",""
"","feedback","","html-keyboard-response","189","237442","0.0-1.0-258.0-0.0","0","0","72112","","null","","","null","28","","","","","","","","","","","","","","","",""
"","ITI","","html-keyboard-response","190","238445","0.0-1.0-261.0","0","0","72112","","null","","","null","28","","","","","","","","","","","","","","","NaN",""
"","S1","","html-keyboard-response","191","238698","0.0-1.0-263.0","0","0","72112","","null","","","null","29","","","","","","","","","","","","","","","",""
"","ISI","","html-keyboard-response","192","240701","0.0-1.0-264.0","0","0","72112","","null","","","null","29","NaN","","","","","","","","","","","","","","",""
"","S2","","html-keyboard-response","193","240954","0.0-1.0-265.0","0","0","72112","","null","","","null","29","","NaN","","","","","","","","","","","","","",""
"","response","","html-keyboard-response","194","241186","0.0-1.0-266.0-0.0","0","0","72112","","232","","","68","29","","","1","29","training","adjacent","CB","3","2","N.jpg","R.jpg","1","0","0","",""
"","feedback","","html-keyboard-response","195","242188","0.0-1.0-267.0-0.0","0","0","72112","","null","","","null","29","","","","","","","","","","","","","","","",""
"","time_out","","html-keyboard-response","196","244190","0.0-1.0-269.0-0.0","0","0","72112","","null","","","null","29","","","","","","","","","","","","","","","",""
"","ITI","","html-keyboard-response","197","245193","0.0-1.0-270.0","0","0","72112","","null","","","null","29","","","","","","","","","","","","","","","NaN",""
"","S1","","html-keyboard-response","198","245447","0.0-1.0-272.0","0","0","72112","","null","","","null","30","","","","","","","","","","","","","","","",""
"","ISI","","html-keyboard-response","199","247450","0.0-1.0-273.0","0","0","72112","","null","","","null","30","NaN","","","","","","","","","","","","","","",""
"","S2","","html-keyboard-response","200","247703","0.0-1.0-274.0","0","0","72112","","null","","","null","30","","NaN","","","","","","","","","","","","","",""
"","response","","html-keyboard-response","201","247721","0.0-1.0-275.0-0.0","0","0","72112","","15","","","68","30","","","1","30","training","adjacent","FG","6","7","M.jpg","Q.jpg","1","1","1","",""
"","feedback","","html-keyboard-response","202","248724","0.0-1.0-276.0-0.0","0","0","72112","","null","","","null","30","","","","","","","","","","","","","","","",""
"","ITI","","html-keyboard-response","203","249727","0.0-1.0-279.0","0","0","72112","","null","","","null","30","","","","","","","","","","","","","","","NaN",""
"","S1","","html-keyboard-response","204","249985","0.0-1.0-281.0","0","0","72112","","null","","","null","31","","","","","","","","","","","","","","","",""
"","ISI","","html-keyboard-response","205","251988","0.0-1.0-282.0","0","0","72112","","null","","","null","31","NaN","","","","","","","","","","","","","","",""
"","S2","","html-keyboard-response","206","252241","0.0-1.0-283.0","0","0","72112","","null","","","null","31","","NaN","","","","","","","","","","","","","",""
"","response","","html-keyboard-response","207","252246","0.0-1.0-284.0-0.0","0","0","72112","","4","","","75","31","","","1","31","training","adjacent","AB","1","2","P.jpg","R.jpg","0","1","0","",""
"","feedback","","html-keyboard-response","208","253249","0.0-1.0-285.0-0.0","0","0","72112","","null","","","null","31","","","","","","","","","","","","","","","",""
"","time_out","","html-keyboard-response","209","255253","0.0-1.0-287.0-0.0","0","0","72112","","null","","","null","31","","","","","","","","","","","","","","","",""
"","ITI","","html-keyboard-response","210","256255","0.0-1.0-288.0","0","0","72112","","null","","","null","31","","","","","","","","","","","","","","","NaN",""
"","S1","","html-keyboard-response","211","256507","0.0-1.0-290.0","0","0","72112","","null","","","null","32","","","","","","","","","","","","","","","",""
"","ISI","","html-keyboard-response","212","258510","0.0-1.0-291.0","0","0","72112","","null","","","null","32","NaN","","","","","","","","","","","","","","",""
"","S2","","html-keyboard-response","213","258763","0.0-1.0-292.0","0","0","72112","","null","","","null","32","","NaN","","","","","","","","","","","","","",""
"","response","","html-keyboard-response","214","259497","0.0-1.0-293.0-0.0","0","0","72112","","733","","","68","32","","","1","32","training","adjacent","DE","4","5","L.jpg","O.jpg","1","1","1","",""
"","feedback","","html-keyboard-response","215","260501","0.0-1.0-294.0-0.0","0","0","72112","","null","","","null","32","","","","","","","","","","","","","","","",""
"","ITI","","html-keyboard-response","216","261504","0.0-1.0-297.0","0","0","72112","","null","","","null","32","","","","","","","","","","","","","","","NaN",""
"","S1","","html-keyboard-response","217","261758","0.0-1.0-299.0","0","0","72112","","null","","","null","33","","","","","","","","","","","","","","","",""
"","ISI","","html-keyboard-response","218","263761","0.0-1.0-300.0","0","0","72112","","null","","","null","33","NaN","","","","","","","","","","","","","","",""
"","S2","","html-keyboard-response","219","264014","0.0-1.0-301.0","0","0","72112","","null","","","null","33","","NaN","","","","","","","","","","","","","",""
"","response","","html-keyboard-response","220","264399","0.0-1.0-302.0-0.0","0","0","72112","","382","","","68","33","","","1","33","training","adjacent","BA","2","1","R.jpg","P.jpg","1","0","0","",""
"","feedback","","html-keyboard-response","221","265411","0.0-1.0-303.0-0.0","0","0","72112","","null","","","null","33","","","","","","","","","","","","","","","",""
"","time_out","","html-keyboard-response","222","267413","0.0-1.0-305.0-0.0","0","0","72112","","null","","","null","33","","","","","","","","","","","","","","","",""
"","ITI","","html-keyboard-response","223","268416","0.0-1.0-306.0","0","0","72112","","null","","","null","33","","","","","","","","","","","","","","","NaN",""
"","S1","","html-keyboard-response","224","268669","0.0-1.0-308.0","0","0","72112","","null","","","null","34","","","","","","","","","","","","","","","",""
"","ISI","","html-keyboard-response","225","270672","0.0-1.0-309.0","0","0","72112","","null","","","null","34","NaN","","","","","","","","","","","","","","",""
"","S2","","html-keyboard-response","226","270926","0.0-1.0-310.0","0","0","72112","","null","","","null","34","","NaN","","","","","","","","","","","","","",""
"","response","","html-keyboard-response","227","271317","0.0-1.0-311.0-0.0","0","0","72112","","388","","","68","34","","","1","34","training","adjacent","CD","3","4","N.jpg","L.jpg","1","1","1","",""
"","feedback","","html-keyboard-response","228","272321","0.0-1.0-312.0-0.0","0","0","72112","","null","","","null","34","","","","","","","","","","","","","","","",""
"","ITI","","html-keyboard-response","229","273324","0.0-1.0-315.0","0","0","72112","","null","","","null","34","","","","","","","","","","","","","","","NaN",""
"","S1","","html-keyboard-response","230","273577","0.0-1.0-317.0","0","0","72112","","null","","","null","35","","","","","","","","","","","","","","","",""
"","ISI","","html-keyboard-response","231","275580","0.0-1.0-318.0","0","0","72112","","null","","","null","35","NaN","","","","","","","","","","","","","","",""
"","S2","","html-keyboard-response","232","275833","0.0-1.0-319.0","0","0","72112","","null","","","null","35","","NaN","","","","","","","","","","","","","",""
"","response","","html-keyboard-response","233","276332","0.0-1.0-320.0-0.0","0","0","72112","","493","","","68","35","","","1","35","training","adjacent","CB","3","2","N.jpg","R.jpg","1","0","0","",""
"","feedback","","html-keyboard-response","234","277335","0.0-1.0-321.0-0.0","0","0","72112","","null","","","null","35","","","","","","","","","","","","","","","",""
"","time_out","","html-keyboard-response","235","279347","0.0-1.0-323.0-0.0","0","0","72112","","null","","","null","35","","","","","","","","","","","","","","","",""
"","ITI","","html-keyboard-response","236","280351","0.0-1.0-324.0","0","0","72112","","null","","","null","35","","","","","","","","","","","","","","","NaN",""
"","S1","","html-keyboard-response","237","280605","0.0-1.0-326.0","0","0","72112","","null","","","null","36","","","","","","","","","","","","","","","",""
"","ISI","","html-keyboard-response","238","282607","0.0-1.0-327.0","0","0","72112","","null","","","null","36","NaN","","","","","","","","","","","","","","",""
"","S2","","html-keyboard-response","239","282862","0.0-1.0-328.0","0","0","72112","","null","","","null","36","","NaN","","","","","","","","","","","","","",""
"","response","","html-keyboard-response","240","283100","0.0-1.0-329.0-0.0","0","0","72112","","236","","","68","36","","","1","36","training","adjacent","FE","6","5","M.jpg","O.jpg","1","0","0","",""
"","feedback","","html-keyboard-response","241","284104","0.0-1.0-330.0-0.0","0","0","72112","","null","","","null","36","","","","","","","","","","","","","","","",""
"","time_out","","html-keyboard-response","242","286107","0.0-1.0-332.0-0.0","0","0","72112","","null","","","null","36","","","","","","","","","","","","","","","",""
"","ITI","","html-keyboard-response","243","287110","0.0-1.0-333.0","0","0","72112","","null","","","null","36","","","","","","","","","","","","","","","NaN",""
"","S1","","html-keyboard-response","244","287363","0.0-1.0-335.0","0","0","72112","","null","","","null","37","","","","","","","","","","","","","","","",""
"","ISI","","html-keyboard-response","245","289368","0.0-1.0-336.0","0","0","72112","","null","","","null","37","NaN","","","","","","","","","","","","","","",""
"","S2","","html-keyboard-response","246","289624","0.0-1.0-337.0","0","0","72112","","null","","","null","37","","NaN","","","","","","","","","","","","","",""
"","response","","html-keyboard-response","247","290187","0.0-1.0-338.0-0.0","0","0","72112","","561","","","68","37","","","1","37","training","adjacent","BC","2","3","R.jpg","N.jpg","1","1","1","",""
"","feedback","","html-keyboard-response","248","291190","0.0-1.0-339.0-0.0","0","0","72112","","null","","","null","37","","","","","","","","","","","","","","","",""
"","ITI","","html-keyboard-response","249","292193","0.0-1.0-342.0","0","0","72112","","null","","","null","37","","","","","","","","","","","","","","","NaN",""
"","S1","","html-keyboard-response","250","292447","0.0-1.0-344.0","0","0","72112","","null","","","null","38","","","","","","","","","","","","","","","",""
"","ISI","","html-keyboard-response","251","294451","0.0-1.0-345.0","0","0","72112","","null","","","null","38","NaN","","","","","","","","","","","","","","",""
"","S2","","html-keyboard-response","252","294704","0.0-1.0-346.0","0","0","72112","","null","","","null","38","","NaN","","","","","","","","","","","","","",""
"","response","","html-keyboard-response","253","295193","0.0-1.0-347.0-0.0","0","0","72112","","487","","","75","38","","","1","38","training","adjacent","FG","6","7","M.jpg","Q.jpg","0","1","0","",""
"","feedback","","html-keyboard-response","254","296197","0.0-1.0-348.0-0.0","0","0","72112","","null","","","null","38","","","","","","","","","","","","","","","",""
"","time_out","","html-keyboard-response","255","298200","0.0-1.0-350.0-0.0","0","0","72112","","null","","","null","38","","","","","","","","","","","","","","","",""
"","ITI","","html-keyboard-response","256","299202","0.0-1.0-351.0","0","0","72112","","null","","","null","38","","","","","","","","","","","","","","","NaN",""
"","S1","","html-keyboard-response","257","299454","0.0-1.0-353.0","0","0","72112","","null","","","null","39","","","","","","","","","","","","","","","",""
"","ISI","","html-keyboard-response","258","301458","0.0-1.0-354.0","0","0","72112","","null","","","null","39","NaN","","","","","","","","","","","","","","",""
"","S2","","html-keyboard-response","259","301711","0.0-1.0-355.0","0","0","72112","","null","","","null","39","","NaN","","","","","","","","","","","","","",""
"","response","","html-keyboard-response","260","301765","0.0-1.0-356.0-0.0","0","0","72112","","51","","","75","39","","","1","39","training","adjacent","ED","5","4","O.jpg","L.jpg","0","0","1","",""
"","feedback","","html-keyboard-response","261","302770","0.0-1.0-357.0-0.0","0","0","72112","","null","","","null","39","","","","","","","","","","","","","","","",""
"","ITI","","html-keyboard-response","262","303773","0.0-1.0-360.0","0","0","72112","","null","","","null","39","","","","","","","","","","","","","","","NaN",""
"","S1","","html-keyboard-response","263","304027","0.0-1.0-362.0","0","0","72112","","null","","","null","40","","","","","","","","","","","","","","","",""
"","ISI","","html-keyboard-response","264","306030","0.0-1.0-363.0","0","0","72112","","null","","","null","40","NaN","","","","","","","","","","","","","","",""
"","S2","","html-keyboard-response","265","306283","0.0-1.0-364.0","0","0","72112","","null","","","null","40","","NaN","","","","","","","","","","","","","",""
"","response","","html-keyboard-response","266","306314","0.0-1.0-365.0-0.0","0","0","72112","","28","","","75","40","","","1","40","training","adjacent","EF","5","6","O.jpg","M.jpg","0","1","0","",""
"","feedback","","html-keyboard-response","267","307318","0.0-1.0-366.0-0.0","0","0","72112","","null","","","null","40","","","","","","","","","","","","","","","",""
"","time_out","","html-keyboard-response","268","309321","0.0-1.0-368.0-0.0","0","0","72112","","null","","","null","40","","","","","","","","","","","","","","","",""
"","ITI","","html-keyboard-response","269","310323","0.0-1.0-369.0","0","0","72112","","null","","","null","40","","","","","","","","","","","","","","","NaN",""
"","S1","","html-keyboard-response","270","310575","0.0-1.0-371.0","0","0","72112","","null","","","null","41","","","","","","","","","","","","","","","",""
"","ISI","","html-keyboard-response","271","312578","0.0-1.0-372.0","0","0","72112","","null","","","null","41","NaN","","","","","","","","","","","","","","",""
"","S2","","html-keyboard-response","272","312832","0.0-1.0-373.0","0","0","72112","","null","","","null","41","","NaN","","","","","","","","","","","","","",""
"","response","","html-keyboard-response","273","313365","0.0-1.0-374.0-0.0","0","0","72112","","531","","","75","41","","","1","41","training","adjacent","CB","3","2","N.jpg","R.jpg","0","0","1","",""
"","feedback","","html-keyboard-response","274","314367","0.0-1.0-375.0-0.0","0","0","72112","","null","","","null","41","","","","","","","","","","","","","","","",""
"","ITI","","html-keyboard-response","275","315370","0.0-1.0-378.0","0","0","72112","","null","","","null","41","","","","","","","","","","","","","","","NaN",""
"","S1","","html-keyboard-response","276","315623","0.0-1.0-380.0","0","0","72112","","null","","","null","42","","","","","","","","","","","","","","","",""
"","ISI","","html-keyboard-response","277","317625","0.0-1.0-381.0","0","0","72112","","null","","","null","42","NaN","","","","","","","","","","","","","","",""
"","S2","","html-keyboard-response","278","317879","0.0-1.0-382.0","0","0","72112","","null","","","null","42","","NaN","","","","","","","","","","","","","",""
"","response","","html-keyboard-response","279","318380","0.0-1.0-383.0-0.0","0","0","72112","","498","","","75","42","","","1","42","training","adjacent","BA","2","1","R.jpg","P.jpg","0","0","1","",""
"","feedback","","html-keyboard-response","280","319384","0.0-1.0-384.0-0.0","0","0","72112","","null","","","null","42","","","","","","","","","","","","","","","",""
"","ITI","","html-keyboard-response","281","320388","0.0-1.0-387.0","0","0","72112","","null","","","null","42","","","","","","","","","","","","","","","NaN",""
"","S1","","html-keyboard-response","282","320643","0.0-1.0-389.0","0","0","72112","","null","","","null","43","","","","","","","","","","","","","","","",""
"","ISI","","html-keyboard-response","283","322645","0.0-1.0-390.0","0","0","72112","","null","","","null","43","NaN","","","","","","","","","","","","","","",""
"","S2","","html-keyboard-response","284","322899","0.0-1.0-391.0","0","0","72112","","null","","","null","43","","NaN","","","","","","","","","","","","","",""
"","response","","html-keyboard-response","285","324397","0.0-1.0-392.0-0.0","0","0","72112","","1496","","","68","43","","","1","43","training","adjacent","ED","5","4","O.jpg","L.jpg","1","0","0","",""
"","feedback","","html-keyboard-response","286","325401","0.0-1.0-393.0-0.0","0","0","72112","","null","","","null","43","","","","","","","","","","","","","","","",""
"","time_out","","html-keyboard-response","287","327409","0.0-1.0-395.0-0.0","0","0","72112","","null","","","null","43","","","","","","","","","","","","","","","",""
"","ITI","","html-keyboard-response","288","328412","0.0-1.0-396.0","0","0","72112","","null","","","null","43","","","","","","","","","","","","","","","NaN",""
"","S1","","html-keyboard-response","289","328665","0.0-1.0-398.0","0","0","72112","","null","","","null","44","","","","","","","","","","","","","","","",""
"","ISI","","html-keyboard-response","290","330668","0.0-1.0-399.0","0","0","72112","","null","","","null","44","NaN","","","","","","","","","","","","","","",""
"","S2","","html-keyboard-response","291","330921","0.0-1.0-400.0","0","0","72112","","null","","","null","44","","NaN","","","","","","","","","","","","","",""
"","response","","html-keyboard-response","292","331288","0.0-1.0-401.0-0.0","0","0","72112","","364","","","75","44","","","1","44","training","adjacent","AB","1","2","P.jpg","R.jpg","0","1","0","",""
"","feedback","","html-keyboard-response","293","332292","0.0-1.0-402.0-0.0","0","0","72112","","null","","","null","44","","","","","","","","","","","","","","","",""
"","time_out","","html-keyboard-response","294","334295","0.0-1.0-404.0-0.0","0","0","72112","","null","","","null","44","","","","","","","","","","","","","","","",""
"","ITI","","html-keyboard-response","295","335297","0.0-1.0-405.0","0","0","72112","","null","","","null","44","","","","","","","","","","","","","","","NaN",""
"","S1","","html-keyboard-response","296","335563","0.0-1.0-407.0","0","0","72112","","null","","","null","45","","","","","","","","","","","","","","","",""
"","ISI","","html-keyboard-response","297","337566","0.0-1.0-408.0","0","0","72112","","null","","","null","45","NaN","","","","","","","","","","","","","","",""
"","S2","","html-keyboard-response","298","337831","0.0-1.0-409.0","0","0","72112","","null","","","null","45","","NaN","","","","","","","","","","","","","",""
"","response","","html-keyboard-response","299","338280","0.0-1.0-410.0-0.0","0","0","72112","","447","","","68","45","","","1","45","training","adjacent","FG","6","7","M.jpg","Q.jpg","1","1","1","",""
"","feedback","","html-keyboard-response","300","339283","0.0-1.0-411.0-0.0","0","0","72112","","null","","","null","45","","","","","","","","","","","","","","","",""
"","ITI","","html-keyboard-response","301","340286","0.0-1.0-414.0","0","0","72112","","null","","","null","45","","","","","","","","","","","","","","","NaN",""
"","S1","","html-keyboard-response","302","340542","0.0-1.0-416.0","0","0","72112","","null","","","null","46","","","","","","","","","","","","","","","",""
"","ISI","","html-keyboard-response","303","342544","0.0-1.0-417.0","0","0","72112","","null","","","null","46","NaN","","","","","","","","","","","","","","",""
"","S2","","html-keyboard-response","304","342797","0.0-1.0-418.0","0","0","72112","","null","","","null","46","","NaN","","","","","","","","","","","","","",""
"","response","","html-keyboard-response","305","343316","0.0-1.0-419.0-0.0","0","0","72112","","517","","","75","46","","","1","46","training","adjacent","DC","4","3","L.jpg","N.jpg","0","0","1","",""
"","feedback","","html-keyboard-response","306","344320","0.0-1.0-420.0-0.0","0","0","72112","","null","","","null","46","","","","","","","","","","","","","","","",""
"","ITI","","html-keyboard-response","307","345323","0.0-1.0-423.0","0","0","72112","","null","","","null","46","","","","","","","","","","","","","","","NaN",""
"","S1","","html-keyboard-response","308","345578","0.0-1.0-425.0","0","0","72112","","null","","","null","47","","","","","","","","","","","","","","","",""
"","ISI","","html-keyboard-response","309","347581","0.0-1.0-426.0","0","0","72112","","null","","","null","47","NaN","","","","","","","","","","","","","","",""
"","S2","","html-keyboard-response","310","347834","0.0-1.0-427.0","0","0","72112","","null","","","null","47","","NaN","","","","","","","","","","","","","",""
"","response","","html-keyboard-response","311","348546","0.0-1.0-428.0-0.0","0","0","72112","","710","","","68","47","","","1","47","training","adjacent","EF","5","6","O.jpg","M.jpg","1","1","1","",""
"","feedback","","html-keyboard-response","312","349555","0.0-1.0-429.0-0.0","0","0","72112","","null","","","null","47","","","","","","","","","","","","","","","",""
"","ITI","","html-keyboard-response","313","350559","0.0-1.0-432.0","0","0","72112","","null","","","null","47","","","","","","","","","","","","","","","NaN",""
"","block_over","","html-keyboard-response","314","357535","0.0-1.0-433.0-0.0","0","0","72112","","6972","","","32","47","","","","","","","","","","","","","","","",""
"","S1","","html-keyboard-response","315","357789","0.0-1.0-434.0","0","0","72112","","null","","","null","48","","","","","","","","","","","","","","","",""
"","ISI","","html-keyboard-response","316","359792","0.0-1.0-435.0","0","0","72112","","null","","","null","48","NaN","","","","","","","","","","","","","","",""
"","S2","","html-keyboard-response","317","360045","0.0-1.0-436.0","0","0","72112","","null","","","null","48","","NaN","","","","","","","","","","","","","",""
"","response","","html-keyboard-response","318","360837","0.0-1.0-437.0-0.0","0","0","72112","","790","","","75","48","","","2","48","training","adjacent","CB","3","2","N.jpg","R.jpg","0","0","1","",""
"","feedback","","html-keyboard-response","319","361841","0.0-1.0-438.0-0.0","0","0","72112","","null","","","null","48","","","","","","","","","","","","","","","",""
"","ITI","","html-keyboard-response","320","362858","0.0-1.0-441.0","0","0","72112","","null","","","null","48","","","","","","","","","","","","","","","NaN",""
"","S1","","html-keyboard-response","321","363112","0.0-1.0-443.0","0","0","72112","","null","","","null","49","","","","","","","","","","","","","","","",""
"","ISI","","html-keyboard-response","322","365115","0.0-1.0-444.0","0","0","72112","","null","","","null","49","NaN","","","","","","","","","","","","","","",""
"","S2","","html-keyboard-response","323","365368","0.0-1.0-445.0","0","0","72112","","null","","","null","49","","NaN","","","","","","","","","","","","","",""
"","response","","html-keyboard-response","324","365602","0.0-1.0-446.0-0.0","0","0","72112","","232","","","75","49","","","2","49","training","adjacent","CB","3","2","N.jpg","R.jpg","0","0","1","",""
"","feedback","","html-keyboard-response","325","366605","0.0-1.0-447.0-0.0","0","0","72112","","null","","","null","49","","","","","","","","","","","","","","","",""
"","ITI","","html-keyboard-response","326","367608","0.0-1.0-450.0","0","0","72112","","null","","","null","49","","","","","","","","","","","","","","","NaN",""
"","S1","","html-keyboard-response","327","367864","0.0-1.0-452.0","0","0","72112","","null","","","null","50","","","","","","","","","","","","","","","",""
"","ISI","","html-keyboard-response","328","369868","0.0-1.0-453.0","0","0","72112","","null","","","null","50","NaN","","","","","","","","","","","","","","",""
"","S2","","html-keyboard-response","329","370122","0.0-1.0-454.0","0","0","72112","","null","","","null","50","","NaN","","","","","","","","","","","","","",""
"","response","","html-keyboard-response","330","370478","0.0-1.0-455.0-0.0","0","0","72112","","354","","","75","50","","","2","50","training","adjacent","CB","3","2","N.jpg","R.jpg","0","0","1","",""
"","feedback","","html-keyboard-response","331","371481","0.0-1.0-456.0-0.0","0","0","72112","","null","","","null","50","","","","","","","","","","","","","","","",""
"","ITI","","html-keyboard-response","332","372483","0.0-1.0-459.0","0","0","72112","","null","","","null","50","","","","","","","","","","","","","","","NaN",""
"","S1","","html-keyboard-response","333","372737","0.0-1.0-461.0","0","0","72112","","null","","","null","51","","","","","","","","","","","","","","","",""
"","ISI","","html-keyboard-response","334","374739","0.0-1.0-462.0","0","0","72112","","null","","","null","51","NaN","","","","","","","","","","","","","","",""
"","S2","","html-keyboard-response","335","374987","0.0-1.0-463.0","0","0","72112","","245","","","75","51","","k","2","51","training","adjacent","BA","2","1","R.jpg","P.jpg","0","0","1","",""
"","feedback","","html-keyboard-response","336","375991","0.0-1.0-465.0-0.0","0","0","72112","","null","","","null","51","","","","","","","","","","","","","","","",""
"","ITI","","html-keyboard-response","337","376994","0.0-1.0-468.0","0","0","72112","","null","","","null","51","","","","","","","","","","","","","","","NaN",""
"","S1","","html-keyboard-response","338","377248","0.0-1.0-470.0","0","0","72112","","null","","","null","52","","","","","","","","","","","","","","","",""
"","ISI","","html-keyboard-response","339","379250","0.0-1.0-471.0","0","0","72112","","null","","","null","52","NaN","","","","","","","","","","","","","","",""
"","S2","","html-keyboard-response","340","379502","0.0-1.0-472.0","0","0","72112","","null","","","null","52","","NaN","","","","","","","","","","","","","",""
"","response","","html-keyboard-response","341","379887","0.0-1.0-473.0-0.0","0","0","72112","","382","","","68","52","","","2","52","training","adjacent","EF","5","6","O.jpg","M.jpg","1","1","1","",""
"","feedback","","html-keyboard-response","342","380891","0.0-1.0-474.0-0.0","0","0","72112","","null","","","null","52","","","","","","","","","","","","","","","",""
"","ITI","","html-keyboard-response","343","381894","0.0-1.0-477.0","0","0","72112","","null","","","null","52","","","","","","","","","","","","","","","NaN",""
"","S1","","html-keyboard-response","344","382148","0.0-1.0-479.0","0","0","72112","","null","","","null","53","","","","","","","","","","","","","","","",""
"","ISI","","html-keyboard-response","345","384151","0.0-1.0-480.0","0","0","72112","","null","","","null","53","NaN","","","","","","","","","","","","","","",""
"","S2","","html-keyboard-response","346","384406","0.0-1.0-481.0","0","0","72112","","null","","","null","53","","NaN","","","","","","","","","","","","","",""
"","response","","html-keyboard-response","347","384437","0.0-1.0-482.0-0.0","0","0","72112","","29","","","75","53","","","2","53","training","adjacent","FG","6","7","M.jpg","Q.jpg","0","1","0","",""
"","feedback","","html-keyboard-response","348","385440","0.0-1.0-483.0-0.0","0","0","72112","","null","","","null","53","","","","","","","","","","","","","","","",""
"","time_out","","html-keyboard-response","349","387444","0.0-1.0-485.0-0.0","0","0","72112","","null","","","null","53","","","","","","","","","","","","","","","",""
"","ITI","","html-keyboard-response","350","388447","0.0-1.0-486.0","0","0","72112","","null","","","null","53","","","","","","","","","","","","","","","NaN",""
"","S1","","html-keyboard-response","351","388701","0.0-1.0-488.0","0","0","72112","","null","","","null","54","","","","","","","","","","","","","","","",""
"","ISI","","html-keyboard-response","352","390704","0.0-1.0-489.0","0","0","72112","","null","","","null","54","NaN","","","","","","","","","","","","","","",""
"","S2","","html-keyboard-response","353","390956","0.0-1.0-490.0","0","0","72112","","null","","","null","54","","NaN","","","","","","","","","","","","","",""
"","response","","html-keyboard-response","354","391325","0.0-1.0-491.0-0.0","0","0","72112","","367","","","75","54","","","2","54","training","adjacent","AB","1","2","P.jpg","R.jpg","0","1","0","",""
"","feedback","","html-keyboard-response","355","392329","0.0-1.0-492.0-0.0","0","0","72112","","null","","","null","54","","","","","","","","","","","","","","","",""
"","time_out","","html-keyboard-response","356","394332","0.0-1.0-494.0-0.0","0","0","72112","","null","","","null","54","","","","","","","","","","","","","","","",""
"","ITI","","html-keyboard-response","357","395335","0.0-1.0-495.0","0","0","72112","","null","","","null","54","","","","","","","","","","","","","","","NaN",""
"","S1","","html-keyboard-response","358","395590","0.0-1.0-497.0","0","0","72112","","null","","","null","55","","","","","","","","","","","","","","","",""
"","ISI","","html-keyboard-response","359","397592","0.0-1.0-498.0","0","0","72112","","null","","","null","55","NaN","","","","","","","","","","","","","","",""
"","S2","","html-keyboard-response","360","397845","0.0-1.0-499.0","0","0","72112","","null","","","null","55","","NaN","","","","","","","","","","","","","",""
"","response","","html-keyboard-response","361","398311","0.0-1.0-500.0-0.0","0","0","72112","","463","","","75","55","","","2","55","training","adjacent","BA","2","1","R.jpg","P.jpg","0","0","1","",""
"","feedback","","html-keyboard-response","362","399315","0.0-1.0-501.0-0.0","0","0","72112","","null","","","null","55","","","","","","","","","","","","","","","",""
"","ITI","","html-keyboard-response","363","400317","0.0-1.0-504.0","0","0","72112","","null","","","null","55","","","","","","","","","","","","","","","NaN",""
"","S1","","html-keyboard-response","364","400569","0.0-1.0-506.0","0","0","72112","","null","","","null","56","","","","","","","","","","","","","","","",""
"","ISI","","html-keyboard-response","365","402572","0.0-1.0-507.0","0","0","72112","","null","","","null","56","NaN","","","","","","","","","","","","","","",""
"","S2","","html-keyboard-response","366","402826","0.0-1.0-508.0","0","0","72112","","null","","","null","56","","NaN","","","","","","","","","","","","","",""
"","response","","html-keyboard-response","367","403573","0.0-1.0-509.0-0.0","0","0","72112","","745","","","68","56","","","2","56","training","adjacent","BA","2","1","R.jpg","P.jpg","1","0","0","",""
"","feedback","","html-keyboard-response","368","404576","0.0-1.0-510.0-0.0","0","0","72112","","null","","","null","56","","","","","","","","","","","","","","","",""
"","time_out","","html-keyboard-response","369","406579","0.0-1.0-512.0-0.0","0","0","72112","","null","","","null","56","","","","","","","","","","","","","","","",""
"","ITI","","html-keyboard-response","370","407583","0.0-1.0-513.0","0","0","72112","","null","","","null","56","","","","","","","","","","","","","","","NaN",""
"","S1","","html-keyboard-response","371","407834","0.0-1.0-515.0","0","0","72112","","null","","","null","57","","","","","","","","","","","","","","","",""
"","ISI","","html-keyboard-response","372","409837","0.0-1.0-516.0","0","0","72112","","null","","","null","57","NaN","","","","","","","","","","","","","","",""
"","S2","","html-keyboard-response","373","410092","0.0-1.0-517.0","0","0","72112","","null","","","null","57","","NaN","","","","","","","","","","","","","",""
"","response","","html-keyboard-response","374","411656","0.0-1.0-518.0-0.0","0","0","72112","","1561","","","68","57","","","2","57","training","adjacent","BC","2","3","R.jpg","N.jpg","1","1","1","",""
"","feedback","","html-keyboard-response","375","412659","0.0-1.0-519.0-0.0","0","0","72112","","null","","","null","57","","","","","","","","","","","","","","","",""
"","ITI","","html-keyboard-response","376","413660","0.0-1.0-522.0","0","0","72112","","null","","","null","57","","","","","","","","","","","","","","","NaN",""
"","S1","","html-keyboard-response","377","414195","0.0-1.0-524.0","0","0","72112","","null","","","null","58","","","","","","","","","","","","","","","",""
"","ISI","","html-keyboard-response","378","416198","0.0-1.0-525.0","0","0","72112","","null","","","null","58","NaN","","","","","","","","","","","","","","",""
"","S2","","html-keyboard-response","379","416452","0.0-1.0-526.0","0","0","72112","","null","","","null","58","","NaN","","","","","","","","","","","","","",""
"","response","","html-keyboard-response","380","417045","0.0-1.0-527.0-0.0","0","0","72112","","590","","","75","58","","","2","58","training","adjacent","DC","4","3","L.jpg","N.jpg","0","0","1","",""
"","feedback","","html-keyboard-response","381","418050","0.0-1.0-528.0-0.0","0","0","72112","","null","","","null","58","","","","","","","","","","","","","","","",""
"","ITI","","html-keyboard-response","382","419067","0.0-1.0-531.0","0","0","72112","","null","","","null","58","","","","","","","","","","","","","","","NaN",""
"","S1","","html-keyboard-response","383","419319","0.0-1.0-533.0","0","0","72112","","null","","","null","59","","","","","","","","","","","","","","","",""
"","ISI","","html-keyboard-response","384","421321","0.0-1.0-534.0","0","0","72112","","null","","","null","59","NaN","","","","","","","","","","","","","","",""
"","S2","","html-keyboard-response","385","421572","0.0-1.0-535.0","0","0","72112","","null","","","null","59","","NaN","","","","","","","","","","","","","",""
"","response","","html-keyboard-response","386","422171","0.0-1.0-536.0-0.0","0","0","72112","","596","","","68","59","","","2","59","training","adjacent","GF","7","6","Q.jpg","M.jpg","1","0","0","",""
"","feedback","","html-keyboard-response","387","423173","0.0-1.0-537.0-0.0","0","0","72112","","null","","","null","59","","","","","","","","","","","","","","","",""
"","time_out","","html-keyboard-response","388","425176","0.0-1.0-539.0-0.0","0","0","72112","","null","","","null","59","","","","","","","","","","","","","","","",""
"","ITI","","html-keyboard-response","389","426189","0.0-1.0-540.0","0","0","72112","","null","","","null","59","","","","","","","","","","","","","","","NaN",""
"","S1","","html-keyboard-response","390","426442","0.0-1.0-542.0","0","0","72112","","null","","","null","60","","","","","","","","","","","","","","","",""
"","ISI","","html-keyboard-response","391","428445","0.0-1.0-543.0","0","0","72112","","null","","","null","60","NaN","","","","","","","","","","","","","","",""
"","S2","","html-keyboard-response","392","428700","0.0-1.0-544.0","0","0","72112","","null","","","null","60","","NaN","","","","","","","","","","","","","",""
"","response","","html-keyboard-response","393","428989","0.0-1.0-545.0-0.0","0","0","72112","","286","","","75","60","","","2","60","training","adjacent","BC","2","3","R.jpg","N.jpg","0","1","0","",""
"","feedback","","html-keyboard-response","394","429998","0.0-1.0-546.0-0.0","0","0","72112","","null","","","null","60","","","","","","","","","","","","","","","",""
"","time_out","","html-keyboard-response","395","432000","0.0-1.0-548.0-0.0","0","0","72112","","null","","","null","60","","","","","","","","","","","","","","","",""
"","ITI","","html-keyboard-response","396","433004","0.0-1.0-549.0","0","0","72112","","null","","","null","60","","","","","","","","","","","","","","","NaN",""
"","S1","","html-keyboard-response","397","433256","0.0-1.0-551.0","0","0","72112","","null","","","null","61","","","","","","","","","","","","","","","",""
"","ISI","","html-keyboard-response","398","435258","0.0-1.0-552.0","0","0","72112","","null","","","null","61","NaN","","","","","","","","","","","","","","",""
"","S2","","html-keyboard-response","399","435512","0.0-1.0-553.0","0","0","72112","","null","","","null","61","","NaN","","","","","","","","","","","","","",""
"","response","","html-keyboard-response","400","435878","0.0-1.0-554.0-0.0","0","0","72112","","363","","","75","61","","","2","61","training","adjacent","FE","6","5","M.jpg","O.jpg","0","0","1","",""
"","feedback","","html-keyboard-response","401","436882","0.0-1.0-555.0-0.0","0","0","72112","","null","","","null","61","","","","","","","","","","","","","","","",""
"","ITI","","html-keyboard-response","402","437886","0.0-1.0-558.0","0","0","72112","","null","","","null","61","","","","","","","","","","","","","","","NaN",""
"","S1","","html-keyboard-response","403","438140","0.0-1.0-560.0","0","0","72112","","null","","","null","62","","","","","","","","","","","","","","","",""
"","ISI","","html-keyboard-response","404","440142","0.0-1.0-561.0","0","0","72112","","null","","","null","62","NaN","","","","","","","","","","","","","","",""
"","S2","","html-keyboard-response","405","440394","0.0-1.0-562.0","0","0","72112","","null","","","null","62","","NaN","","","","","","","","","","","","","",""
"","response","","html-keyboard-response","406","440811","0.0-1.0-563.0-0.0","0","0","72112","","414","","","68","62","","","2","62","training","adjacent","DE","4","5","L.jpg","O.jpg","1","1","1","",""
"","feedback","","html-keyboard-response","407","441813","0.0-1.0-564.0-0.0","0","0","72112","","null","","","null","62","","","","","","","","","","","","","","","",""
"","ITI","","html-keyboard-response","408","442816","0.0-1.0-567.0","0","0","72112","","null","","","null","62","","","","","","","","","","","","","","","NaN",""
"","S1","","html-keyboard-response","409","443078","0.0-1.0-569.0","0","0","72112","","null","","","null","63","","","","","","","","","","","","","","","",""
"","ISI","","html-keyboard-response","410","445082","0.0-1.0-570.0","0","0","72112","","null","","","null","63","NaN","","","","","","","","","","","","","","",""
"","S2","","html-keyboard-response","411","445335","0.0-1.0-571.0","0","0","72112","","null","","","null","63","","NaN","","","","","","","","","","","","","",""
"","response","","html-keyboard-response","412","445723","0.0-1.0-572.0-0.0","0","0","72112","","385","","","68","63","","","2","63","training","adjacent","BA","2","1","R.jpg","P.jpg","1","0","0","",""
"","feedback","","html-keyboard-response","413","446727","0.0-1.0-573.0-0.0","0","0","72112","","null","","","null","63","","","","","","","","","","","","","","","",""
"","time_out","","html-keyboard-response","414","448731","0.0-1.0-575.0-0.0","0","0","72112","","null","","","null","63","","","","","","","","","","","","","","","",""
"","ITI","","html-keyboard-response","415","449734","0.0-1.0-576.0","0","0","72112","","null","","","null","63","","","","","","","","","","","","","","","NaN",""
"","S1","","html-keyboard-response","416","449990","0.0-1.0-578.0","0","0","72112","","null","","","null","64","","","","","","","","","","","","","","","",""
"","ISI","","html-keyboard-response","417","451993","0.0-1.0-579.0","0","0","72112","","null","","","null","64","NaN","","","","","","","","","","","","","","",""
"","S2","","html-keyboard-response","418","452246","0.0-1.0-580.0","0","0","72112","","null","","","null","64","","NaN","","","","","","","","","","","","","",""
"","response","","html-keyboard-response","419","452494","0.0-1.0-581.0-0.0","0","0","72112","","246","","","75","64","","","2","64","training","adjacent","AB","1","2","P.jpg","R.jpg","0","1","0","",""
"","feedback","","html-keyboard-response","420","453497","0.0-1.0-582.0-0.0","0","0","72112","","null","","","null","64","","","","","","","","","","","","","","","",""
"","time_out","","html-keyboard-response","421","455499","0.0-1.0-584.0-0.0","0","0","72112","","null","","","null","64","","","","","","","","","","","","","","","",""
"","ITI","","html-keyboard-response","422","456501","0.0-1.0-585.0","0","0","72112","","null","","","null","64","","","","","","","","","","","","","","","NaN",""
"","S1","","html-keyboard-response","423","456755","0.0-1.0-587.0","0","0","72112","","null","","","null","65","","","","","","","","","","","","","","","",""
"","ISI","","html-keyboard-response","424","458757","0.0-1.0-588.0","0","0","72112","","null","","","null","65","NaN","","","","","","","","","","","","","","",""
"","S2","","html-keyboard-response","425","459018","0.0-1.0-589.0","0","0","72112","","null","","","null","65","","NaN","","","","","","","","","","","","","",""
"","response","","html-keyboard-response","426","459799","0.0-1.0-590.0-0.0","0","0","72112","","777","","","68","65","","","2","65","training","adjacent","AB","1","2","P.jpg","R.jpg","1","1","1","",""
"","feedback","","html-keyboard-response","427","460803","0.0-1.0-591.0-0.0","0","0","72112","","null","","","null","65","","","","","","","","","","","","","","","",""
"","ITI","","html-keyboard-response","428","461807","0.0-1.0-594.0","0","0","72112","","null","","","null","65","","","","","","","","","","","","","","","NaN",""
"","S1","","html-keyboard-response","429","462061","0.0-1.0-596.0","0","0","72112","","null","","","null","66","","","","","","","","","","","","","","","",""
"","ISI","","html-keyboard-response","430","464064","0.0-1.0-597.0","0","0","72112","","null","","","null","66","NaN","","","","","","","","","","","","","","",""
"","S2","","html-keyboard-response","431","464318","0.0-1.0-598.0","0","0","72112","","null","","","null","66","","NaN","","","","","","","","","","","","","",""
"","response","","html-keyboard-response","432","464662","0.0-1.0-599.0-0.0","0","0","72112","","341","","","68","66","","","2","66","training","adjacent","FE","6","5","M.jpg","O.jpg","1","0","0","",""
"","feedback","","html-keyboard-response","433","465669","0.0-1.0-600.0-0.0","0","0","72112","","null","","","null","66","","","","","","","","","","","","","","","",""
"","time_out","","html-keyboard-response","434","467672","0.0-1.0-602.0-0.0","0","0","72112","","null","","","null","66","","","","","","","","","","","","","","","",""
"","ITI","","html-keyboard-response","435","468675","0.0-1.0-603.0","0","0","72112","","null","","","null","66","","","","","","","","","","","","","","","NaN",""
"","S1","","html-keyboard-response","436","468926","0.0-1.0-605.0","0","0","72112","","null","","","null","67","","","","","","","","","","","","","","","",""
"","ISI","","html-keyboard-response","437","470929","0.0-1.0-606.0","0","0","72112","","null","","","null","67","NaN","","","","","","","","","","","","","","",""
"","S2","","html-keyboard-response","438","471183","0.0-1.0-607.0","0","0","72112","","null","","","null","67","","NaN","","","","","","","","","","","","","",""
"","response","","html-keyboard-response","439","471579","0.0-1.0-608.0-0.0","0","0","72112","","393","","","75","67","","","2","67","training","adjacent","BC","2","3","R.jpg","N.jpg","0","1","0","",""
"","feedback","","html-keyboard-response","440","472582","0.0-1.0-609.0-0.0","0","0","72112","","null","","","null","67","","","","","","","","","","","","","","","",""
"","time_out","","html-keyboard-response","441","474584","0.0-1.0-611.0-0.0","0","0","72112","","null","","","null","67","","","","","","","","","","","","","","","",""
"","ITI","","html-keyboard-response","442","475586","0.0-1.0-612.0","0","0","72112","","null","","","null","67","","","","","","","","","","","","","","","NaN",""
"","S1","","html-keyboard-response","443","475838","0.0-1.0-614.0","0","0","72112","","null","","","null","68","","","","","","","","","","","","","","","",""
"","ISI","","html-keyboard-response","444","477841","0.0-1.0-615.0","0","0","72112","","null","","","null","68","NaN","","","","","","","","","","","","","","",""
"","S2","","html-keyboard-response","445","478095","0.0-1.0-616.0","0","0","72112","","null","","","null","68","","NaN","","","","","","","","","","","","","",""
"","response","","html-keyboard-response","446","478630","0.0-1.0-617.0-0.0","0","0","72112","","533","","","68","68","","","2","68","training","adjacent","ED","5","4","O.jpg","L.jpg","1","0","0","",""
"","feedback","","html-keyboard-response","447","479635","0.0-1.0-618.0-0.0","0","0","72112","","null","","","null","68","","","","","","","","","","","","","","","",""
"","time_out","","html-keyboard-response","448","481639","0.0-1.0-620.0-0.0","0","0","72112","","null","","","null","68","","","","","","","","","","","","","","","",""
"","ITI","","html-keyboard-response","449","482642","0.0-1.0-621.0","0","0","72112","","null","","","null","68","","","","","","","","","","","","","","","NaN",""
"","S1","","html-keyboard-response","450","482896","0.0-1.0-623.0","0","0","72112","","null","","","null","69","","","","","","","","","","","","","","","",""
"","ISI","","html-keyboard-response","451","484899","0.0-1.0-624.0","0","0","72112","","null","","","null","69","NaN","","","","","","","","","","","","","","",""
"","S2","","html-keyboard-response","452","485153","0.0-1.0-625.0","0","0","72112","","null","","","null","69","","NaN","","","","","","","","","","","","","",""
"","response","","html-keyboard-response","453","485541","0.0-1.0-626.0-0.0","0","0","72112","","385","","","68","69","","","2","69","training","adjacent","FG","6","7","M.jpg","Q.jpg","1","1","1","",""
"","feedback","","html-keyboard-response","454","486545","0.0-1.0-627.0-0.0","0","0","72112","","null","","","null","69","","","","","","","","","","","","","","","",""
"","ITI","","html-keyboard-response","455","487547","0.0-1.0-630.0","0","0","72112","","null","","","null","69","","","","","","","","","","","","","","","NaN",""
"","S1","","html-keyboard-response","456","487805","0.0-1.0-632.0","0","0","72112","","null","","","null","70","","","","","","","","","","","","","","","",""
"","ISI","","html-keyboard-response","457","489807","0.0-1.0-633.0","0","0","72112","","null","","","null","70","NaN","","","","","","","","","","","","","","",""
"","S2","","html-keyboard-response","458","490062","0.0-1.0-634.0","0","0","72112","","null","","","null","70","","NaN","","","","","","","","","","","","","",""
"","response","","html-keyboard-response","459","490887","0.0-1.0-635.0-0.0","0","0","72112","","822","","","68","70","","","2","70","training","adjacent","CB","3","2","N.jpg","R.jpg","1","0","0","",""
"","feedback","","html-keyboard-response","460","491890","0.0-1.0-636.0-0.0","0","0","72112","","null","","","null","70","","","","","","","","","","","","","","","",""
"","time_out","","html-keyboard-response","461","493893","0.0-1.0-638.0-0.0","0","0","72112","","null","","","null","70","","","","","","","","","","","","","","","",""
"","ITI","","html-keyboard-response","462","494897","0.0-1.0-639.0","0","0","72112","","null","","","null","70","","","","","","","","","","","","","","","NaN",""
"","S1","","html-keyboard-response","463","495150","0.0-1.0-641.0","0","0","72112","","null","","","null","71","","","","","","","","","","","","","","","",""
"","ISI","","html-keyboard-response","464","497156","0.0-1.0-642.0","0","0","72112","","null","","","null","71","NaN","","","","","","","","","","","","","","",""
"","S2","","html-keyboard-response","465","497411","0.0-1.0-643.0","0","0","72112","","null","","","null","71","","NaN","","","","","","","","","","","","","",""
"","response","","html-keyboard-response","466","497737","0.0-1.0-644.0-0.0","0","0","72112","","323","","","68","71","","","2","71","training","adjacent","EF","5","6","O.jpg","M.jpg","1","1","1","",""
"","feedback","","html-keyboard-response","467","498740","0.0-1.0-645.0-0.0","0","0","72112","","null","","","null","71","","","","","","","","","","","","","","","",""
"","ITI","","html-keyboard-response","468","499743","0.0-1.0-648.0","0","0","72112","","null","","","null","71","","","","","","","","","","","","","","","NaN",""
"","S1","","html-keyboard-response","469","499996","0.0-1.0-650.0","0","0","72112","","null","","","null","72","","","","","","","","","","","","","","","",""
"","ISI","","html-keyboard-response","470","501999","0.0-1.0-651.0","0","0","72112","","null","","","null","72","NaN","","","","","","","","","","","","","","",""
"","S2","","html-keyboard-response","471","502254","0.0-1.0-652.0","0","0","72112","","null","","","null","72","","NaN","","","","","","","","","","","","","",""
"","response","","html-keyboard-response","472","502803","0.0-1.0-653.0-0.0","0","0","72112","","547","","","68","72","","","2","72","training","adjacent","EF","5","6","O.jpg","M.jpg","1","1","1","",""
"","feedback","","html-keyboard-response","473","503808","0.0-1.0-654.0-0.0","0","0","72112","","null","","","null","72","","","","","","","","","","","","","","","",""
"","ITI","","html-keyboard-response","474","504811","0.0-1.0-657.0","0","0","72112","","null","","","null","72","","","","","","","","","","","","","","","NaN",""
"","S1","","html-keyboard-response","475","505065","0.0-1.0-659.0","0","0","72112","","null","","","null","73","","","","","","","","","","","","","","","",""
"","ISI","","html-keyboard-response","476","507068","0.0-1.0-660.0","0","0","72112","","null","","","null","73","NaN","","","","","","","","","","","","","","",""
"","S2","","html-keyboard-response","477","507322","0.0-1.0-661.0","0","0","72112","","null","","","null","73","","NaN","","","","","","","","","","","","","",""
"","response","","html-keyboard-response","478","507741","0.0-1.0-662.0-0.0","0","0","72112","","416","","","75","73","","","2","73","training","adjacent","DC","4","3","L.jpg","N.jpg","0","0","1","",""
"","feedback","","html-keyboard-response","479","508745","0.0-1.0-663.0-0.0","0","0","72112","","null","","","null","73","","","","","","","","","","","","","","","",""
"","ITI","","html-keyboard-response","480","509749","0.0-1.0-666.0","0","0","72112","","null","","","null","73","","","","","","","","","","","","","","","NaN",""
"","S1","","html-keyboard-response","481","510003","0.0-1.0-668.0","0","0","72112","","null","","","null","74","","","","","","","","","","","","","","","",""
"","ISI","","html-keyboard-response","482","512005","0.0-1.0-669.0","0","0","72112","","null","","","null","74","NaN","","","","","","","","","","","","","","",""
"","S2","","html-keyboard-response","483","512258","0.0-1.0-670.0","0","0","72112","","null","","","null","74","","NaN","","","","","","","","","","","","","",""
"","response","","html-keyboard-response","484","512372","0.0-1.0-671.0-0.0","0","0","72112","","111","","","68","74","","","2","74","training","adjacent","DC","4","3","L.jpg","N.jpg","1","0","0","",""
"","feedback","","html-keyboard-response","485","513375","0.0-1.0-672.0-0.0","0","0","72112","","null","","","null","74","","","","","","","","","","","","","","","",""
"","time_out","","html-keyboard-response","486","515380","0.0-1.0-674.0-0.0","0","0","72112","","null","","","null","74","","","","","","","","","","","","","","","",""
"","ITI","","html-keyboard-response","487","516384","0.0-1.0-675.0","0","0","72112","","null","","","null","74","","","","","","","","","","","","","","","NaN",""
"","S1","","html-keyboard-response","488","516637","0.0-1.0-677.0","0","0","72112","","null","","","null","75","","","","","","","","","","","","","","","",""
"","ISI","","html-keyboard-response","489","518640","0.0-1.0-678.0","0","0","72112","","null","","","null","75","NaN","","","","","","","","","","","","","","",""
"","S2","","html-keyboard-response","490","518894","0.0-1.0-679.0","0","0","72112","","null","","","null","75","","NaN","","","","","","","","","","","","","",""
"","response","","html-keyboard-response","491","519333","0.0-1.0-680.0-0.0","0","0","72112","","436","","","75","75","","","2","75","training","adjacent","DE","4","5","L.jpg","O.jpg","0","1","0","",""
"","feedback","","html-keyboard-response","492","520337","0.0-1.0-681.0-0.0","0","0","72112","","null","","","null","75","","","","","","","","","","","","","","","",""
"","time_out","","html-keyboard-response","493","522339","0.0-1.0-683.0-0.0","0","0","72112","","null","","","null","75","","","","","","","","","","","","","","","",""
"","ITI","","html-keyboard-response","494","523342","0.0-1.0-684.0","0","0","72112","","null","","","null","75","","","","","","","","","","","","","","","NaN",""
"","S1","","html-keyboard-response","495","523595","0.0-1.0-686.0","0","0","72112","","null","","","null","76","","","","","","","","","","","","","","","",""
"","ISI","","html-keyboard-response","496","525597","0.0-1.0-687.0","0","0","72112","","null","","","null","76","NaN","","","","","","","","","","","","","","",""
"","S2","","html-keyboard-response","497","525865","0.0-1.0-688.0","0","0","72112","","null","","","null","76","","NaN","","","","","","","","","","","","","",""
"","response","","html-keyboard-response","498","525901","0.0-1.0-689.0-0.0","0","0","72112","","34","","","75","76","","","2","76","training","adjacent","GF","7","6","Q.jpg","M.jpg","0","0","1","",""
"","feedback","","html-keyboard-response","499","526904","0.0-1.0-690.0-0.0","0","0","72112","","null","","","null","76","","","","","","","","","","","","","","","",""
"","ITI","","html-keyboard-response","500","527908","0.0-1.0-693.0","0","0","72112","","null","","","null","76","","","","","","","","","","","","","","","NaN",""
"","S1","","html-keyboard-response","501","528166","0.0-1.0-695.0","0","0","72112","","null","","","null","77","","","","","","","","","","","","","","","",""
"","ISI","","html-keyboard-response","502","530169","0.0-1.0-696.0","0","0","72112","","null","","","null","77","NaN","","","","","","","","","","","","","","",""
"","S2","","html-keyboard-response","503","530422","0.0-1.0-697.0","0","0","72112","","null","","","null","77","","NaN","","","","","","","","","","","","","",""
"","response","","html-keyboard-response","504","530711","0.0-1.0-698.0-0.0","0","0","72112","","286","","","68","77","","","2","77","training","adjacent","DE","4","5","L.jpg","O.jpg","1","1","1","",""
"","feedback","","html-keyboard-response","505","531714","0.0-1.0-699.0-0.0","0","0","72112","","null","","","null","77","","","","","","","","","","","","","","","",""
"","ITI","","html-keyboard-response","506","532718","0.0-1.0-702.0","0","0","72112","","null","","","null","77","","","","","","","","","","","","","","","NaN",""
"","S1","","html-keyboard-response","507","532971","0.0-1.0-704.0","0","0","72112","","null","","","null","78","","","","","","","","","","","","","","","",""
"","ISI","","html-keyboard-response","508","534974","0.0-1.0-705.0","0","0","72112","","null","","","null","78","NaN","","","","","","","","","","","","","","",""
"","S2","","html-keyboard-response","509","535228","0.0-1.0-706.0","0","0","72112","","null","","","null","78","","NaN","","","","","","","","","","","","","",""
"","response","","html-keyboard-response","510","535415","0.0-1.0-707.0-0.0","0","0","72112","","184","","","75","78","","","2","78","training","adjacent","ED","5","4","O.jpg","L.jpg","0","0","1","",""
"","feedback","","html-keyboard-response","511","536427","0.0-1.0-708.0-0.0","0","0","72112","","null","","","null","78","","","","","","","","","","","","","","","",""
"","ITI","","html-keyboard-response","512","537431","0.0-1.0-711.0","0","0","72112","","null","","","null","78","","","","","","","","","","","","","","","NaN",""
"","S1","","html-keyboard-response","513","537686","0.0-1.0-713.0","0","0","72112","","null","","","null","79","","","","","","","","","","","","","","","",""
"","ISI","","html-keyboard-response","514","539693","0.0-1.0-714.0","0","0","72112","","null","","","null","79","NaN","","","","","","","","","","","","","","",""
"","S2","","html-keyboard-response","515","539945","0.0-1.0-715.0","0","0","72112","","null","","","null","79","","NaN","","","","","","","","","","","","","",""
"","response","","html-keyboard-response","516","540205","0.0-1.0-716.0-0.0","0","0","72112","","258","","","68","79","","","2","79","training","adjacent","FE","6","5","M.jpg","O.jpg","1","0","0","",""
"","feedback","","html-keyboard-response","517","541207","0.0-1.0-717.0-0.0","0","0","72112","","null","","","null","79","","","","","","","","","","","","","","","",""
"","time_out","","html-keyboard-response","518","543210","0.0-1.0-719.0-0.0","0","0","72112","","null","","","null","79","","","","","","","","","","","","","","","",""
"","ITI","","html-keyboard-response","519","544211","0.0-1.0-720.0","0","0","72112","","null","","","null","79","","","","","","","","","","","","","","","NaN",""
"","S1","","html-keyboard-response","520","544464","0.0-1.0-722.0","0","0","72112","","null","","","null","80","","","","","","","","","","","","","","","",""
"","ISI","","html-keyboard-response","521","546468","0.0-1.0-723.0","0","0","72112","","null","","","null","80","NaN","","","","","","","","","","","","","","",""
"","S2","","html-keyboard-response","522","546722","0.0-1.0-724.0","0","0","72112","","null","","","null","80","","NaN","","","","","","","","","","","","","",""
"","response","","html-keyboard-response","523","546990","0.0-1.0-725.0-0.0","0","0","72112","","266","","","75","80","","","2","80","training","adjacent","BC","2","3","R.jpg","N.jpg","0","1","0","",""
"","feedback","","html-keyboard-response","524","548005","0.0-1.0-726.0-0.0","0","0","72112","","null","","","null","80","","","","","","","","","","","","","","","",""
"","time_out","","html-keyboard-response","525","550006","0.0-1.0-728.0-0.0","0","0","72112","","null","","","null","80","","","","","","","","","","","","","","","",""
"","ITI","","html-keyboard-response","526","551008","0.0-1.0-729.0","0","0","72112","","null","","","null","80","","","","","","","","","","","","","","","NaN",""
"","S1","","html-keyboard-response","527","551261","0.0-1.0-731.0","0","0","72112","","null","","","null","81","","","","","","","","","","","","","","","",""
"","ISI","","html-keyboard-response","528","553263","0.0-1.0-732.0","0","0","72112","","null","","","null","81","NaN","","","","","","","","","","","","","","",""
"","S2","","html-keyboard-response","529","553516","0.0-1.0-733.0","0","0","72112","","null","","","null","81","","NaN","","","","","","","","","","","","","",""
"","response","","html-keyboard-response","530","553563","0.0-1.0-734.0-0.0","0","0","72112","","44","","","75","81","","","2","81","training","adjacent","CD","3","4","N.jpg","L.jpg","0","1","0","",""
"","feedback","","html-keyboard-response","531","554568","0.0-1.0-735.0-0.0","0","0","72112","","null","","","null","81","","","","","","","","","","","","","","","",""
"","time_out","","html-keyboard-response","532","556572","0.0-1.0-737.0-0.0","0","0","72112","","null","","","null","81","","","","","","","","","","","","","","","",""
"","ITI","","html-keyboard-response","533","557575","0.0-1.0-738.0","0","0","72112","","null","","","null","81","","","","","","","","","","","","","","","NaN",""
"","S1","","html-keyboard-response","534","557828","0.0-1.0-740.0","0","0","72112","","null","","","null","82","","","","","","","","","","","","","","","",""
"","ISI","","html-keyboard-response","535","559831","0.0-1.0-741.0","0","0","72112","","null","","","null","82","NaN","","","","","","","","","","","","","","",""
"","S2","","html-keyboard-response","536","560085","0.0-1.0-742.0","0","0","72112","","null","","","null","82","","NaN","","","","","","","","","","","","","",""
"","response","","html-keyboard-response","537","560352","0.0-1.0-743.0-0.0","0","0","72112","","264","","","68","82","","","2","82","training","adjacent","FE","6","5","M.jpg","O.jpg","1","0","0","",""
"","feedback","","html-keyboard-response","538","561355","0.0-1.0-744.0-0.0","0","0","72112","","null","","","null","82","","","","","","","","","","","","","","","",""
"","time_out","","html-keyboard-response","539","563359","0.0-1.0-746.0-0.0","0","0","72112","","null","","","null","82","","","","","","","","","","","","","","","",""
"","ITI","","html-keyboard-response","540","564362","0.0-1.0-747.0","0","0","72112","","null","","","null","82","","","","","","","","","","","","","","","NaN",""
"","S1","","html-keyboard-response","541","564615","0.0-1.0-749.0","0","0","72112","","null","","","null","83","","","","","","","","","","","","","","","",""
"","ISI","","html-keyboard-response","542","566619","0.0-1.0-750.0","0","0","72112","","null","","","null","83","NaN","","","","","","","","","","","","","","",""
"","S2","","html-keyboard-response","543","566877","0.0-1.0-751.0","0","0","72112","","null","","","null","83","","NaN","","","","","","","","","","","","","",""
"","response","","html-keyboard-response","544","567263","0.0-1.0-752.0-0.0","0","0","72112","","383","","","68","83","","","2","83","training","adjacent","FG","6","7","M.jpg","Q.jpg","1","1","1","",""
"","feedback","","html-keyboard-response","545","568266","0.0-1.0-753.0-0.0","0","0","72112","","null","","","null","83","","","","","","","","","","","","","","","",""
"","ITI","","html-keyboard-response","546","569269","0.0-1.0-756.0","0","0","72112","","null","","","null","83","","","","","","","","","","","","","","","NaN",""
"","S1","","html-keyboard-response","547","569523","0.0-1.0-758.0","0","0","72112","","null","","","null","84","","","","","","","","","","","","","","","",""
"","ISI","","html-keyboard-response","548","571526","0.0-1.0-759.0","0","0","72112","","null","","","null","84","NaN","","","","","","","","","","","","","","",""
"","S2","","html-keyboard-response","549","571779","0.0-1.0-760.0","0","0","72112","","null","","","null","84","","NaN","","","","","","","","","","","","","",""
"","response","","html-keyboard-response","550","572264","0.0-1.0-761.0-0.0","0","0","72112","","482","","","68","84","","","2","84","training","adjacent","CD","3","4","N.jpg","L.jpg","1","1","1","",""
"","feedback","","html-keyboard-response","551","573268","0.0-1.0-762.0-0.0","0","0","72112","","null","","","null","84","","","","","","","","","","","","","","","",""
"","ITI","","html-keyboard-response","552","574272","0.0-1.0-765.0","0","0","72112","","null","","","null","84","","","","","","","","","","","","","","","NaN",""
"","S1","","html-keyboard-response","553","574525","0.0-1.0-767.0","0","0","72112","","null","","","null","85","","","","","","","","","","","","","","","",""
"","ISI","","html-keyboard-response","554","576528","0.0-1.0-768.0","0","0","72112","","null","","","null","85","NaN","","","","","","","","","","","","","","",""
"","S2","","html-keyboard-response","555","576781","0.0-1.0-769.0","0","0","72112","","null","","","null","85","","NaN","","","","","","","","","","","","","",""
"","response","","html-keyboard-response","556","577191","0.0-1.0-770.0-0.0","0","0","72112","","407","","","68","85","","","2","85","training","adjacent","CD","3","4","N.jpg","L.jpg","1","1","1","",""
"","feedback","","html-keyboard-response","557","578195","0.0-1.0-771.0-0.0","0","0","72112","","null","","","null","85","","","","","","","","","","","","","","","",""
"","ITI","","html-keyboard-response","558","579200","0.0-1.0-774.0","0","0","72112","","null","","","null","85","","","","","","","","","","","","","","","NaN",""
"","S1","","html-keyboard-response","559","579453","0.0-1.0-776.0","0","0","72112","","null","","","null","86","","","","","","","","","","","","","","","",""
"","ISI","","html-keyboard-response","560","581456","0.0-1.0-777.0","0","0","72112","","null","","","null","86","NaN","","","","","","","","","","","","","","",""
"","S2","","html-keyboard-response","561","581709","0.0-1.0-778.0","0","0","72112","","null","","","null","86","","NaN","","","","","","","","","","","","","",""
"","response","","html-keyboard-response","562","582435","0.0-1.0-779.0-0.0","0","0","72112","","724","","","68","86","","","2","86","training","adjacent","ED","5","4","O.jpg","L.jpg","1","0","0","",""
"","feedback","","html-keyboard-response","563","583439","0.0-1.0-780.0-0.0","0","0","72112","","null","","","null","86","","","","","","","","","","","","","","","",""
"","time_out","","html-keyboard-response","564","585443","0.0-1.0-782.0-0.0","0","0","72112","","null","","","null","86","","","","","","","","","","","","","","","",""
"","ITI","","html-keyboard-response","565","586446","0.0-1.0-783.0","0","0","72112","","null","","","null","86","","","","","","","","","","","","","","","NaN",""
"","S1","","html-keyboard-response","566","586700","0.0-1.0-785.0","0","0","72112","","null","","","null","87","","","","","","","","","","","","","","","",""
"","ISI","","html-keyboard-response","567","588702","0.0-1.0-786.0","0","0","72112","","null","","","null","87","NaN","","","","","","","","","","","","","","",""
"","S2","","html-keyboard-response","568","588954","0.0-1.0-787.0","0","0","72112","","null","","","null","87","","NaN","","","","","","","","","","","","","",""
"","response","","html-keyboard-response","569","589496","0.0-1.0-788.0-0.0","0","0","72112","","540","","","75","87","","","2","87","training","adjacent","GF","7","6","Q.jpg","M.jpg","0","0","1","",""
"","feedback","","html-keyboard-response","570","590501","0.0-1.0-789.0-0.0","0","0","72112","","null","","","null","87","","","","","","","","","","","","","","","",""
"","ITI","","html-keyboard-response","571","591514","0.0-1.0-792.0","0","0","72112","","null","","","null","87","","","","","","","","","","","","","","","NaN",""
"","S1","","html-keyboard-response","572","591766","0.0-1.0-794.0","0","0","72112","","null","","","null","88","","","","","","","","","","","","","","","",""
"","ISI","","html-keyboard-response","573","593768","0.0-1.0-795.0","0","0","72112","","null","","","null","88","NaN","","","","","","","","","","","","","","",""
"","S2","","html-keyboard-response","574","594021","0.0-1.0-796.0","0","0","72112","","null","","","null","88","","NaN","","","","","","","","","","","","","",""
"","response","","html-keyboard-response","575","595537","0.0-1.0-797.0-0.0","0","0","72112","","1514","","","68","88","","","2","88","training","adjacent","FG","6","7","M.jpg","Q.jpg","1","1","1","",""
"","feedback","","html-keyboard-response","576","596539","0.0-1.0-798.0-0.0","0","0","72112","","null","","","null","88","","","","","","","","","","","","","","","",""
"","ITI","","html-keyboard-response","577","597545","0.0-1.0-801.0","0","0","72112","","null","","","null","88","","","","","","","","","","","","","","","NaN",""
"","S1","","html-keyboard-response","578","597798","0.0-1.0-803.0","0","0","72112","","null","","","null","89","","","","","","","","","","","","","","","",""
"","ISI","","html-keyboard-response","579","599801","0.0-1.0-804.0","0","0","72112","","null","","","null","89","NaN","","","","","","","","","","","","","","",""
"","S2","","html-keyboard-response","580","600054","0.0-1.0-805.0","0","0","72112","","null","","","null","89","","NaN","","","","","","","","","","","","","",""
"","response","","html-keyboard-response","581","600522","0.0-1.0-806.0-0.0","0","0","72112","","467","","","75","89","","","2","89","training","adjacent","ED","5","4","O.jpg","L.jpg","0","0","1","",""
"","feedback","","html-keyboard-response","582","601526","0.0-1.0-807.0-0.0","0","0","72112","","null","","","null","89","","","","","","","","","","","","","","","",""
