"success","ttype","start_time","trial_type","trial_index","time_elapsed","internal_node_id","warning","missed_checkup","PID","view_history","rt","responses","repeat_instructions","key_press","index","keypress_isi","keypress_S2","block","trial_num","phase","group_type","pair_type","S1_stim","S2_stim","S1_img","S2_img","S1_chosen","S1_higher","accuracy","keypress_iti","total_bonus_tally"
"true","full_screen","d04142023hr0445","fullscreen","0","12073","0.0-0.0","0","0","70637","","","","","","","","","","","","","","","","","","","","","",""
"","instructions","","instructions","1","66075","0.0-1.0-0.0-0.0","0","0","70637","[{""page_index"":0,""viewing_time"":5325},{""page_index"":1,""viewing_time"":31104},{""page_index"":2,""viewing_time"":14091},{""page_index"":3,""viewing_time"":3479}]","54000","","","","","","","","","","","","","","","","","","","",""
"","comprehension_check","","survey-multi-choice","2","119017","0.0-1.0-0.0-1.0","0","0","70637","","52936","{""Q0"":""True"",""Q1"":""K"",""Q2"":""Once the second image appears and while the screen 'MAKE A CHOICE' is shown"",""Q3"":""Green mark"",""Q4"":""either D or K""}","0","","","","","","","","","","","","","","","","","",""
"","start_exp","","html-keyboard-response","3","121895","0.0-1.0-1.0","0","0","70637","","2875","","","32","","","","","","","","","","","","","","","","",""
"","S1","","html-keyboard-response","4","122148","0.0-1.0-2.0","0","0","70637","","null","","","null","0","","","","","","","","","","","","","","","",""
"","ISI","","html-keyboard-response","5","123151","0.0-1.0-3.0","0","0","70637","","null","","","null","0","NaN","","","","","","","","","","","","","","",""
"","S2","","html-keyboard-response","6","123406","0.0-1.0-4.0","0","0","70637","","null","","","null","0","","NaN","","","","","","","","","","","","","",""
"","response","","html-keyboard-response","7","124416","0.0-1.0-5.0-0.0","0","0","70637","","1007","","","75","0","","","1","0","training","adjacent","AB","1","2","Q.jpg","O.jpg","1","1","1","",""
"","feedback","","html-keyboard-response","8","125420","0.0-1.0-6.0-0.0","0","0","70637","","null","","","null","0","","","","","","","","","","","","","","","",""
"","ITI","","html-keyboard-response","9","126424","0.0-1.0-9.0","0","0","70637","","null","","","null","0","","","","","","","","","","","","","","","NaN",""
"","S1","","html-keyboard-response","10","126677","0.0-1.0-11.0","0","0","70637","","null","","","null","1","","","","","","","","","","","","","","","",""
"","ISI","","html-keyboard-response","11","127679","0.0-1.0-12.0","0","0","70637","","null","","","null","1","NaN","","","","","","","","","","","","","","",""
"","S2","","html-keyboard-response","12","127931","0.0-1.0-13.0","0","0","70637","","null","","","null","1","","NaN","","","","","","","","","","","","","",""
"","response","","html-keyboard-response","13","128735","0.0-1.0-14.0-0.0","0","0","70637","","802","","","68","1","","","1","1","training","adjacent","DC","4","3","P.jpg","L.jpg","0","0","1","",""
"","feedback","","html-keyboard-response","14","129738","0.0-1.0-15.0-0.0","0","0","70637","","null","","","null","1","","","","","","","","","","","","","","","",""
"","ITI","","html-keyboard-response","15","130740","0.0-1.0-18.0","0","0","70637","","null","","","null","1","","","","","","","","","","","","","","","NaN",""
"","S1","","html-keyboard-response","16","130993","0.0-1.0-20.0","0","0","70637","","null","","","null","2","","","","","","","","","","","","","","","",""
"","ISI","","html-keyboard-response","17","131995","0.0-1.0-21.0","0","0","70637","","null","","","null","2","NaN","","","","","","","","","","","","","","",""
"","S2","","html-keyboard-response","18","132249","0.0-1.0-22.0","0","0","70637","","null","","","null","2","","NaN","","","","","","","","","","","","","",""
"","response","","html-keyboard-response","19","132406","0.0-1.0-23.0-0.0","0","0","70637","","155","","","75","2","","","1","2","training","adjacent","CD","3","4","L.jpg","P.jpg","1","1","1","",""
"","feedback","","html-keyboard-response","20","133408","0.0-1.0-24.0-0.0","0","0","70637","","null","","","null","2","","","","","","","","","","","","","","","",""
"","ITI","","html-keyboard-response","21","134410","0.0-1.0-27.0","0","0","70637","","null","","","null","2","","","","","","","","","","","","","","","NaN",""
"","S1","","html-keyboard-response","22","134663","0.0-1.0-29.0","0","0","70637","","null","","","null","3","","","","","","","","","","","","","","","",""
"","ISI","","html-keyboard-response","23","135665","0.0-1.0-30.0","0","0","70637","","null","","","null","3","NaN","","","","","","","","","","","","","","",""
"","S2","","html-keyboard-response","24","135917","0.0-1.0-31.0","0","0","70637","","null","","","null","3","","NaN","","","","","","","","","","","","","",""
"","response","","html-keyboard-response","25","136380","0.0-1.0-32.0-0.0","0","0","70637","","459","","","75","3","","","1","3","training","adjacent","GF","7","6","N.jpg","R.jpg","1","0","0","",""
"","feedback","","html-keyboard-response","26","137383","0.0-1.0-33.0-0.0","0","0","70637","","null","","","null","3","","","","","","","","","","","","","","","",""
"","time_out","","html-keyboard-response","27","139386","0.0-1.0-35.0-0.0","0","0","70637","","null","","","null","3","","","","","","","","","","","","","","","",""
"","ITI","","html-keyboard-response","28","140389","0.0-1.0-36.0","0","0","70637","","null","","","null","3","","","","","","","","","","","","","","","NaN",""
"","S1","","html-keyboard-response","29","140643","0.0-1.0-38.0","0","0","70637","","null","","","null","4","","","","","","","","","","","","","","","",""
"","ISI","","html-keyboard-response","30","141647","0.0-1.0-39.0","0","0","70637","","null","","","null","4","NaN","","","","","","","","","","","","","","",""
"","S2","","html-keyboard-response","31","141899","0.0-1.0-40.0","0","0","70637","","null","","","null","4","","NaN","","","","","","","","","","","","","",""
"","response","","html-keyboard-response","32","142500","0.0-1.0-41.0-0.0","0","0","70637","","599","","","68","4","","","1","4","training","adjacent","AB","1","2","Q.jpg","O.jpg","0","1","0","",""
"","feedback","","html-keyboard-response","33","143503","0.0-1.0-42.0-0.0","0","0","70637","","null","","","null","4","","","","","","","","","","","","","","","",""
"","time_out","","html-keyboard-response","34","145505","0.0-1.0-44.0-0.0","0","0","70637","","null","","","null","4","","","","","","","","","","","","","","","",""
"","ITI","","html-keyboard-response","35","146507","0.0-1.0-45.0","0","0","70637","","null","","","null","4","","","","","","","","","","","","","","","NaN",""
"","S1","","html-keyboard-response","36","146760","0.0-1.0-47.0","0","0","70637","","null","","","null","5","","","","","","","","","","","","","","","",""
"","ISI","","html-keyboard-response","37","147763","0.0-1.0-48.0","0","0","70637","","null","","","null","5","NaN","","","","","","","","","","","","","","",""
"","S2","","html-keyboard-response","38","148015","0.0-1.0-49.0","0","0","70637","","null","","","null","5","","NaN","","","","","","","","","","","","","",""
"","response","","html-keyboard-response","39","148936","0.0-1.0-50.0-0.0","0","0","70637","","919","","","75","5","","","1","5","training","adjacent","CB","3","2","L.jpg","O.jpg","1","0","0","",""
"","feedback","","html-keyboard-response","40","149938","0.0-1.0-51.0-0.0","0","0","70637","","null","","","null","5","","","","","","","","","","","","","","","",""
"","time_out","","html-keyboard-response","41","151941","0.0-1.0-53.0-0.0","0","0","70637","","null","","","null","5","","","","","","","","","","","","","","","",""
"","ITI","","html-keyboard-response","42","152944","0.0-1.0-54.0","0","0","70637","","null","","","null","5","","","","","","","","","","","","","","","NaN",""
"","S1","","html-keyboard-response","43","153196","0.0-1.0-56.0","0","0","70637","","null","","","null","6","","","","","","","","","","","","","","","",""
"","ISI","","html-keyboard-response","44","154199","0.0-1.0-57.0","0","0","70637","","null","","","null","6","NaN","","","","","","","","","","","","","","",""
"","S2","","html-keyboard-response","45","154453","0.0-1.0-58.0","0","0","70637","","null","","","null","6","","NaN","","","","","","","","","","","","","",""
"","response","","html-keyboard-response","46","154776","0.0-1.0-59.0-0.0","0","0","70637","","321","","","68","6","","","1","6","training","adjacent","ED","5","4","M.jpg","P.jpg","0","0","1","",""
"","feedback","","html-keyboard-response","47","155778","0.0-1.0-60.0-0.0","0","0","70637","","null","","","null","6","","","","","","","","","","","","","","","",""
"","ITI","","html-keyboard-response","48","156781","0.0-1.0-63.0","0","0","70637","","null","","","null","6","","","","","","","","","","","","","","","NaN",""
"","S1","","html-keyboard-response","49","157038","0.0-1.0-65.0","0","0","70637","","null","","","null","7","","","","","","","","","","","","","","","",""
"","ISI","","html-keyboard-response","50","158042","0.0-1.0-66.0","0","0","70637","","null","","","null","7","NaN","","","","","","","","","","","","","","",""
"","S2","","html-keyboard-response","51","158294","0.0-1.0-67.0","0","0","70637","","null","","","null","7","","NaN","","","","","","","","","","","","","",""
"","response","","html-keyboard-response","52","158633","0.0-1.0-68.0-0.0","0","0","70637","","336","","","68","7","","","1","7","training","adjacent","DE","4","5","P.jpg","M.jpg","0","1","0","",""
"","feedback","","html-keyboard-response","53","159637","0.0-1.0-69.0-0.0","0","0","70637","","null","","","null","7","","","","","","","","","","","","","","","",""
"","time_out","","html-keyboard-response","54","161641","0.0-1.0-71.0-0.0","0","0","70637","","null","","","null","7","","","","","","","","","","","","","","","",""
"","ITI","","html-keyboard-response","55","162643","0.0-1.0-72.0","0","0","70637","","null","","","null","7","","","","","","","","","","","","","","","NaN",""
"","S1","","html-keyboard-response","56","162896","0.0-1.0-74.0","0","0","70637","","null","","","null","8","","","","","","","","","","","","","","","",""
"","ISI","","html-keyboard-response","57","163898","0.0-1.0-75.0","0","0","70637","","null","","","null","8","NaN","","","","","","","","","","","","","","",""
"","S2","","html-keyboard-response","58","164150","0.0-1.0-76.0","0","0","70637","","null","","","null","8","","NaN","","","","","","","","","","","","","",""
"","response","","html-keyboard-response","59","164685","0.0-1.0-77.0-0.0","0","0","70637","","533","","","68","8","","","1","8","training","adjacent","DC","4","3","P.jpg","L.jpg","0","0","1","",""
"","feedback","","html-keyboard-response","60","165687","0.0-1.0-78.0-0.0","0","0","70637","","null","","","null","8","","","","","","","","","","","","","","","",""
"","ITI","","html-keyboard-response","61","166689","0.0-1.0-81.0","0","0","70637","","null","","","null","8","","","","","","","","","","","","","","","NaN",""
"","S1","","html-keyboard-response","62","166942","0.0-1.0-83.0","0","0","70637","","null","","","null","9","","","","","","","","","","","","","","","",""
"","ISI","","html-keyboard-response","63","167944","0.0-1.0-84.0","0","0","70637","","null","","","null","9","NaN","","","","","","","","","","","","","","",""
"","S2","","html-keyboard-response","64","168197","0.0-1.0-85.0","0","0","70637","","null","","","null","9","","NaN","","","","","","","","","","","","","",""
"","response","","html-keyboard-response","65","168626","0.0-1.0-86.0-0.0","0","0","70637","","423","","","75","9","","","1","9","training","adjacent","FG","6","7","R.jpg","N.jpg","1","1","1","",""
"","feedback","","html-keyboard-response","66","169632","0.0-1.0-87.0-0.0","0","0","70637","","null","","","null","9","","","","","","","","","","","","","","","",""
"","ITI","","html-keyboard-response","67","170636","0.0-1.0-90.0","0","0","70637","","null","","","null","9","","","","","","","","","","","","","","","NaN",""
"","S1","","html-keyboard-response","68","170889","0.0-1.0-92.0","0","0","70637","","null","","","null","10","","","","","","","","","","","","","","","",""
"","ISI","","html-keyboard-response","69","171892","0.0-1.0-93.0","0","0","70637","","null","","","null","10","NaN","","","","","","","","","","","","","","",""
"","S2","","html-keyboard-response","70","172144","0.0-1.0-94.0","0","0","70637","","null","","","null","10","","NaN","","","","","","","","","","","","","",""
"","response","","html-keyboard-response","71","172567","0.0-1.0-95.0-0.0","0","0","70637","","421","","","68","10","","","1","10","training","adjacent","FG","6","7","R.jpg","N.jpg","0","1","0","",""
"","feedback","","html-keyboard-response","72","173569","0.0-1.0-96.0-0.0","0","0","70637","","null","","","null","10","","","","","","","","","","","","","","","",""
"","time_out","","html-keyboard-response","73","175572","0.0-1.0-98.0-0.0","0","0","70637","","null","","","null","10","","","","","","","","","","","","","","","",""
"","ITI","","html-keyboard-response","74","176576","0.0-1.0-99.0","0","0","70637","","null","","","null","10","","","","","","","","","","","","","","","NaN",""
"","S1","","html-keyboard-response","75","176830","0.0-1.0-101.0","0","0","70637","","null","","","null","11","","","","","","","","","","","","","","","",""
"","ISI","","html-keyboard-response","76","177836","0.0-1.0-102.0","0","0","70637","","null","","","null","11","NaN","","","","","","","","","","","","","","",""
"","S2","","html-keyboard-response","77","178092","0.0-1.0-103.0","0","0","70637","","null","","","null","11","","NaN","","","","","","","","","","","","","",""
"","response","","html-keyboard-response","78","178190","0.0-1.0-104.0-0.0","0","0","70637","","96","","","68","11","","","1","11","training","adjacent","ED","5","4","M.jpg","P.jpg","0","0","1","",""
"","feedback","","html-keyboard-response","79","179194","0.0-1.0-105.0-0.0","0","0","70637","","null","","","null","11","","","","","","","","","","","","","","","",""
"","ITI","","html-keyboard-response","80","180196","0.0-1.0-108.0","0","0","70637","","null","","","null","11","","","","","","","","","","","","","","","NaN",""
"","S1","","html-keyboard-response","81","180449","0.0-1.0-110.0","0","0","70637","","null","","","null","12","","","","","","","","","","","","","","","",""
"","ISI","","html-keyboard-response","82","181452","0.0-1.0-111.0","0","0","70637","","null","","","null","12","NaN","","","","","","","","","","","","","","",""
"","S2","","html-keyboard-response","83","181706","0.0-1.0-112.0","0","0","70637","","null","","","null","12","","NaN","","","","","","","","","","","","","",""
"","response","","html-keyboard-response","84","182190","0.0-1.0-113.0-0.0","0","0","70637","","483","","","68","12","","","1","12","training","adjacent","AB","1","2","Q.jpg","O.jpg","0","1","0","",""
"","feedback","","html-keyboard-response","85","183192","0.0-1.0-114.0-0.0","0","0","70637","","null","","","null","12","","","","","","","","","","","","","","","",""
"","time_out","","html-keyboard-response","86","185195","0.0-1.0-116.0-0.0","0","0","70637","","null","","","null","12","","","","","","","","","","","","","","","",""
"","ITI","","html-keyboard-response","87","186198","0.0-1.0-117.0","0","0","70637","","null","","","null","12","","","","","","","","","","","","","","","NaN",""
"","S1","","html-keyboard-response","88","186450","0.0-1.0-119.0","0","0","70637","","null","","","null","13","","","","","","","","","","","","","","","",""
"","ISI","","html-keyboard-response","89","187452","0.0-1.0-120.0","0","0","70637","","null","","","null","13","NaN","","","","","","","","","","","","","","",""
"","S2","","html-keyboard-response","90","187708","0.0-1.0-121.0","0","0","70637","","null","","","null","13","","NaN","","","","","","","","","","","","","",""
"","response","","html-keyboard-response","91","188014","0.0-1.0-122.0-0.0","0","0","70637","","304","","","68","13","","","1","13","training","adjacent","CB","3","2","L.jpg","O.jpg","0","0","1","",""
"","feedback","","html-keyboard-response","92","189018","0.0-1.0-123.0-0.0","0","0","70637","","null","","","null","13","","","","","","","","","","","","","","","",""
"","ITI","","html-keyboard-response","93","190022","0.0-1.0-126.0","0","0","70637","","null","","","null","13","","","","","","","","","","","","","","","NaN",""
"","S1","","html-keyboard-response","94","190275","0.0-1.0-128.0","0","0","70637","","null","","","null","14","","","","","","","","","","","","","","","",""
"","ISI","","html-keyboard-response","95","191279","0.0-1.0-129.0","0","0","70637","","null","","","null","14","NaN","","","","","","","","","","","","","","",""
"","S2","","html-keyboard-response","96","191531","0.0-1.0-130.0","0","0","70637","","null","","","null","14","","NaN","","","","","","","","","","","","","",""
"","response","","html-keyboard-response","97","191781","0.0-1.0-131.0-0.0","0","0","70637","","249","","","75","14","","","1","14","training","adjacent","DE","4","5","P.jpg","M.jpg","1","1","1","",""
"","feedback","","html-keyboard-response","98","192783","0.0-1.0-132.0-0.0","0","0","70637","","null","","","null","14","","","","","","","","","","","","","","","",""
"","ITI","","html-keyboard-response","99","193786","0.0-1.0-135.0","0","0","70637","","null","","","null","14","","","","","","","","","","","","","","","NaN",""
"","S1","","html-keyboard-response","100","194040","0.0-1.0-137.0","0","0","70637","","null","","","null","15","","","","","","","","","","","","","","","",""
"","ISI","","html-keyboard-response","101","195043","0.0-1.0-138.0","0","0","70637","","null","","","null","15","NaN","","","","","","","","","","","","","","",""
"","S2","","html-keyboard-response","102","195297","0.0-1.0-139.0","0","0","70637","","null","","","null","15","","NaN","","","","","","","","","","","","","",""
"","response","","html-keyboard-response","103","195328","0.0-1.0-140.0-0.0","0","0","70637","","29","","","75","15","","","1","15","training","adjacent","DC","4","3","P.jpg","L.jpg","1","0","0","",""
"","feedback","","html-keyboard-response","104","196329","0.0-1.0-141.0-0.0","0","0","70637","","null","","","null","15","","","","","","","","","","","","","","","",""
"","time_out","","html-keyboard-response","105","198331","0.0-1.0-143.0-0.0","0","0","70637","","null","","","null","15","","","","","","","","","","","","","","","",""
"","ITI","","html-keyboard-response","106","199334","0.0-1.0-144.0","0","0","70637","","null","","","null","15","","","","","","","","","","","","","","","NaN",""
"","S1","","html-keyboard-response","107","199585","0.0-1.0-146.0","0","0","70637","","null","","","null","16","","","","","","","","","","","","","","","",""
"","ISI","","html-keyboard-response","108","200588","0.0-1.0-147.0","0","0","70637","","null","","","null","16","NaN","","","","","","","","","","","","","","",""
"","S2","","html-keyboard-response","109","200842","0.0-1.0-148.0","0","0","70637","","null","","","null","16","","NaN","","","","","","","","","","","","","",""
"","response","","html-keyboard-response","110","200941","0.0-1.0-149.0-0.0","0","0","70637","","98","","","68","16","","","1","16","training","adjacent","BC","2","3","O.jpg","L.jpg","0","1","0","",""
"","feedback","","html-keyboard-response","111","201945","0.0-1.0-150.0-0.0","0","0","70637","","null","","","null","16","","","","","","","","","","","","","","","",""
"","time_out","","html-keyboard-response","112","203948","0.0-1.0-152.0-0.0","0","0","70637","","null","","","null","16","","","","","","","","","","","","","","","",""
"","ITI","","html-keyboard-response","113","204951","0.0-1.0-153.0","0","0","70637","","null","","","null","16","","","","","","","","","","","","","","","NaN",""
"","S1","","html-keyboard-response","114","205204","0.0-1.0-155.0","0","0","70637","","null","","","null","17","","","","","","","","","","","","","","","",""
"","ISI","","html-keyboard-response","115","206205","0.0-1.0-156.0","0","0","70637","","null","","","null","17","NaN","","","","","","","","","","","","","","",""
"","S2","","html-keyboard-response","116","206458","0.0-1.0-157.0","0","0","70637","","null","","","null","17","","NaN","","","","","","","","","","","","","",""
"","response","","html-keyboard-response","117","206565","0.0-1.0-158.0-0.0","0","0","70637","","105","","","68","17","","","1","17","training","adjacent","CB","3","2","L.jpg","O.jpg","0","0","1","",""
"","feedback","","html-keyboard-response","118","207567","0.0-1.0-159.0-0.0","0","0","70637","","null","","","null","17","","","","","","","","","","","","","","","",""
"","ITI","","html-keyboard-response","119","208570","0.0-1.0-162.0","0","0","70637","","null","","","null","17","","","","","","","","","","","","","","","NaN",""
"","S1","","html-keyboard-response","120","208824","0.0-1.0-164.0","0","0","70637","","null","","","null","18","","","","","","","","","","","","","","","",""
"","ISI","","html-keyboard-response","121","209830","0.0-1.0-165.0","0","0","70637","","null","","","null","18","NaN","","","","","","","","","","","","","","",""
"","S2","","html-keyboard-response","122","210084","0.0-1.0-166.0","0","0","70637","","null","","","null","18","","NaN","","","","","","","","","","","","","",""
"","response","","html-keyboard-response","123","210229","0.0-1.0-167.0-0.0","0","0","70637","","140","","","68","18","","","1","18","training","adjacent","BA","2","1","O.jpg","Q.jpg","0","0","1","",""
"","feedback","","html-keyboard-response","124","211234","0.0-1.0-168.0-0.0","0","0","70637","","null","","","null","18","","","","","","","","","","","","","","","",""
"","ITI","","html-keyboard-response","125","212238","0.0-1.0-171.0","0","0","70637","","null","","","null","18","","","","","","","","","","","","","","","NaN",""
"","S1","","html-keyboard-response","126","212490","0.0-1.0-173.0","0","0","70637","","null","","","null","19","","","","","","","","","","","","","","","",""
"","ISI","","html-keyboard-response","127","213492","0.0-1.0-174.0","0","0","70637","","null","","","null","19","NaN","","","","","","","","","","","","","","",""
"","S2","","html-keyboard-response","128","213744","0.0-1.0-175.0","0","0","70637","","null","","","null","19","","NaN","","","","","","","","","","","","","",""
"","response","","html-keyboard-response","129","213791","0.0-1.0-176.0-0.0","0","0","70637","","44","","","75","19","","","1","19","training","adjacent","CB","3","2","L.jpg","O.jpg","1","0","0","",""
"","feedback","","html-keyboard-response","130","214793","0.0-1.0-177.0-0.0","0","0","70637","","null","","","null","19","","","","","","","","","","","","","","","",""
"","time_out","","html-keyboard-response","131","216796","0.0-1.0-179.0-0.0","0","0","70637","","null","","","null","19","","","","","","","","","","","","","","","",""
"","ITI","","html-keyboard-response","132","217799","0.0-1.0-180.0","0","0","70637","","null","","","null","19","","","","","","","","","","","","","","","NaN",""
"","S1","","html-keyboard-response","133","218052","0.0-1.0-182.0","0","0","70637","","null","","","null","20","","","","","","","","","","","","","","","",""
"","ISI","","html-keyboard-response","134","219054","0.0-1.0-183.0","0","0","70637","","null","","","null","20","NaN","","","","","","","","","","","","","","",""
"","S2","","html-keyboard-response","135","219307","0.0-1.0-184.0","0","0","70637","","null","","","null","20","","NaN","","","","","","","","","","","","","",""
"","response","","html-keyboard-response","136","219361","0.0-1.0-185.0-0.0","0","0","70637","","53","","","68","20","","","1","20","training","adjacent","BC","2","3","O.jpg","L.jpg","0","1","0","",""
"","feedback","","html-keyboard-response","137","220363","0.0-1.0-186.0-0.0","0","0","70637","","null","","","null","20","","","","","","","","","","","","","","","",""
"","time_out","","html-keyboard-response","138","222365","0.0-1.0-188.0-0.0","0","0","70637","","null","","","null","20","","","","","","","","","","","","","","","",""
"","ITI","","html-keyboard-response","139","223369","0.0-1.0-189.0","0","0","70637","","null","","","null","20","","","","","","","","","","","","","","","NaN",""
"","S1","","html-keyboard-response","140","223622","0.0-1.0-191.0","0","0","70637","","null","","","null","21","","","","","","","","","","","","","","","",""
"","ISI","","html-keyboard-response","141","224626","0.0-1.0-192.0","0","0","70637","","null","","","null","21","NaN","","","","","","","","","","","","","","",""
"","S2","","html-keyboard-response","142","224878","0.0-1.0-193.0","0","0","70637","","null","","","null","21","","NaN","","","","","","","","","","","","","",""
"","response","","html-keyboard-response","143","225020","0.0-1.0-194.0-0.0","0","0","70637","","137","","","75","21","","","1","21","training","adjacent","FE","6","5","R.jpg","M.jpg","1","0","0","",""
"","feedback","","html-keyboard-response","144","226025","0.0-1.0-195.0-0.0","0","0","70637","","null","","","null","21","","","","","","","","","","","","","","","",""
"","time_out","","html-keyboard-response","145","228029","0.0-1.0-197.0-0.0","0","0","70637","","null","","","null","21","","","","","","","","","","","","","","","",""
"","ITI","","html-keyboard-response","146","229033","0.0-1.0-198.0","0","0","70637","","null","","","null","21","","","","","","","","","","","","","","","NaN",""
"","S1","","html-keyboard-response","147","229286","0.0-1.0-200.0","0","0","70637","","null","","","null","22","","","","","","","","","","","","","","","",""
"","ISI","","html-keyboard-response","148","230287","0.0-1.0-201.0","0","0","70637","","null","","","null","22","NaN","","","","","","","","","","","","","","",""
"","S2","","html-keyboard-response","149","230535","0.0-1.0-202.0","0","0","70637","","246","","","68","22","","d","1","22","training","adjacent","EF","5","6","M.jpg","R.jpg","0","1","0","",""
"","feedback","","html-keyboard-response","150","231538","0.0-1.0-204.0-0.0","0","0","70637","","null","","","null","22","","","","","","","","","","","","","","","",""
"","time_out","","html-keyboard-response","151","233540","0.0-1.0-206.0-0.0","0","0","70637","","null","","","null","22","","","","","","","","","","","","","","","",""
"","ITI","","html-keyboard-response","152","234542","0.0-1.0-207.0","0","0","70637","","null","","","null","22","","","","","","","","","","","","","","","NaN",""
"","S1","","html-keyboard-response","153","234796","0.0-1.0-209.0","0","0","70637","","null","","","null","23","","","","","","","","","","","","","","","",""
"","ISI","","html-keyboard-response","154","235798","0.0-1.0-210.0","0","0","70637","","null","","","null","23","NaN","","","","","","","","","","","","","","",""
"","S2","","html-keyboard-response","155","236053","0.0-1.0-211.0","0","0","70637","","null","","","null","23","","NaN","","","","","","","","","","","","","",""
"","response","","html-keyboard-response","156","236215","0.0-1.0-212.0-0.0","0","0","70637","","158","","","75","23","","","1","23","training","adjacent","DE","4","5","P.jpg","M.jpg","1","1","1","",""
"","feedback","","html-keyboard-response","157","237219","0.0-1.0-213.0-0.0","0","0","70637","","null","","","null","23","","","","","","","","","","","","","","","",""
"","ITI","","html-keyboard-response","158","238222","0.0-1.0-216.0","0","0","70637","","null","","","null","23","","","","","","","","","","","","","","","NaN",""
"","S1","","html-keyboard-response","159","238475","0.0-1.0-218.0","0","0","70637","","null","","","null","24","","","","","","","","","","","","","","","",""
"","ISI","","html-keyboard-response","160","239477","0.0-1.0-219.0","0","0","70637","","null","","","null","24","NaN","","","","","","","","","","","","","","",""
"","S2","","html-keyboard-response","161","239729","0.0-1.0-220.0","0","0","70637","","null","","","null","24","","NaN","","","","","","","","","","","","","",""
"","response","","html-keyboard-response","162","239755","0.0-1.0-221.0-0.0","0","0","70637","","23","","","75","24","","","1","24","training","adjacent","FG","6","7","R.jpg","N.jpg","1","1","1","",""
"","feedback","","html-keyboard-response","163","240758","0.0-1.0-222.0-0.0","0","0","70637","","null","","","null","24","","","","","","","","","","","","","","","",""
"","ITI","","html-keyboard-response","164","241761","0.0-1.0-225.0","0","0","70637","","null","","","null","24","","","","","","","","","","","","","","","NaN",""
"","S1","","html-keyboard-response","165","242014","0.0-1.0-227.0","0","0","70637","","null","","","null","25","","","","","","","","","","","","","","","",""
"","ISI","","html-keyboard-response","166","243017","0.0-1.0-228.0","0","0","70637","","null","","","null","25","NaN","","","","","","","","","","","","","","",""
"","S2","","html-keyboard-response","167","243269","0.0-1.0-229.0","0","0","70637","","null","","","null","25","","NaN","","","","","","","","","","","","","",""
"","response","","html-keyboard-response","168","243286","0.0-1.0-230.0-0.0","0","0","70637","","15","","","68","25","","","1","25","training","adjacent","GF","7","6","N.jpg","R.jpg","0","0","1","",""
"","feedback","","html-keyboard-response","169","244289","0.0-1.0-231.0-0.0","0","0","70637","","null","","","null","25","","","","","","","","","","","","","","","",""
"","ITI","","html-keyboard-response","170","245292","0.0-1.0-234.0","0","0","70637","","null","","","null","25","","","","","","","","","","","","","","","NaN",""
"","S1","","html-keyboard-response","171","245544","0.0-1.0-236.0","0","0","70637","","null","","","null","26","","","","","","","","","","","","","","","",""
"","ISI","","html-keyboard-response","172","246546","0.0-1.0-237.0","0","0","70637","","null","","","null","26","NaN","","","","","","","","","","","","","","",""
"","S2","","html-keyboard-response","173","246799","0.0-1.0-238.0","0","0","70637","","null","","","null","26","","NaN","","","","","","","","","","","","","",""
"","response","","html-keyboard-response","174","247072","0.0-1.0-239.0-0.0","0","0","70637","","272","","","68","26","","","1","26","training","adjacent","CD","3","4","L.jpg","P.jpg","0","1","0","",""
"","feedback","","html-keyboard-response","175","248074","0.0-1.0-240.0-0.0","0","0","70637","","null","","","null","26","","","","","","","","","","","","","","","",""
"","time_out","","html-keyboard-response","176","250077","0.0-1.0-242.0-0.0","0","0","70637","","null","","","null","26","","","","","","","","","","","","","","","",""
"","ITI","","html-keyboard-response","177","251080","0.0-1.0-243.0","0","0","70637","","null","","","null","26","","","","","","","","","","","","","","","NaN",""
"","S1","","html-keyboard-response","178","251334","0.0-1.0-245.0","0","0","70637","","null","","","null","27","","","","","","","","","","","","","","","",""
"","ISI","","html-keyboard-response","179","252336","0.0-1.0-246.0","0","0","70637","","null","","","null","27","NaN","","","","","","","","","","","","","","",""
"","S2","","html-keyboard-response","180","252589","0.0-1.0-247.0","0","0","70637","","null","","","null","27","","NaN","","","","","","","","","","","","","",""
"","response","","html-keyboard-response","181","252710","0.0-1.0-248.0-0.0","0","0","70637","","119","","","68","27","","","1","27","training","adjacent","EF","5","6","M.jpg","R.jpg","0","1","0","",""
"","feedback","","html-keyboard-response","182","253713","0.0-1.0-249.0-0.0","0","0","70637","","null","","","null","27","","","","","","","","","","","","","","","",""
"","time_out","","html-keyboard-response","183","255715","0.0-1.0-251.0-0.0","0","0","70637","","null","","","null","27","","","","","","","","","","","","","","","",""
"","ITI","","html-keyboard-response","184","256718","0.0-1.0-252.0","0","0","70637","","null","","","null","27","","","","","","","","","","","","","","","NaN",""
"","S1","","html-keyboard-response","185","256971","0.0-1.0-254.0","0","0","70637","","null","","","null","28","","","","","","","","","","","","","","","",""
"","ISI","","html-keyboard-response","186","257974","0.0-1.0-255.0","0","0","70637","","null","","","null","28","NaN","","","","","","","","","","","","","","",""
"","S2","","html-keyboard-response","187","258227","0.0-1.0-256.0","0","0","70637","","null","","","null","28","","NaN","","","","","","","","","","","","","",""
"","response","","html-keyboard-response","188","258311","0.0-1.0-257.0-0.0","0","0","70637","","82","","","75","28","","","1","28","training","adjacent","FE","6","5","R.jpg","M.jpg","1","0","0","",""
"","feedback","","html-keyboard-response","189","259315","0.0-1.0-258.0-0.0","0","0","70637","","null","","","null","28","","","","","","","","","","","","","","","",""
"","time_out","","html-keyboard-response","190","261317","0.0-1.0-260.0-0.0","0","0","70637","","null","","","null","28","","","","","","","","","","","","","","","",""
"","ITI","","html-keyboard-response","191","262319","0.0-1.0-261.0","0","0","70637","","null","","","null","28","","","","","","","","","","","","","","","NaN",""
"","S1","","html-keyboard-response","192","262571","0.0-1.0-263.0","0","0","70637","","null","","","null","29","","","","","","","","","","","","","","","",""
"","ISI","","html-keyboard-response","193","263574","0.0-1.0-264.0","0","0","70637","","null","","","null","29","NaN","","","","","","","","","","","","","","",""
"","S2","","html-keyboard-response","194","263827","0.0-1.0-265.0","0","0","70637","","null","","","null","29","","NaN","","","","","","","","","","","","","",""
"","response","","html-keyboard-response","195","264119","0.0-1.0-266.0-0.0","0","0","70637","","290","","","68","29","","","1","29","training","adjacent","ED","5","4","M.jpg","P.jpg","0","0","1","",""
"","feedback","","html-keyboard-response","196","265122","0.0-1.0-267.0-0.0","0","0","70637","","null","","","null","29","","","","","","","","","","","","","","","",""
"","ITI","","html-keyboard-response","197","266125","0.0-1.0-270.0","0","0","70637","","null","","","null","29","","","","","","","","","","","","","","","NaN",""
"","S1","","html-keyboard-response","198","266378","0.0-1.0-272.0","0","0","70637","","null","","","null","30","","","","","","","","","","","","","","","",""
"","ISI","","html-keyboard-response","199","267382","0.0-1.0-273.0","0","0","70637","","null","","","null","30","NaN","","","","","","","","","","","","","","",""
"","S2","","html-keyboard-response","200","267635","0.0-1.0-274.0","0","0","70637","","null","","","null","30","","NaN","","","","","","","","","","","","","",""
"","response","","html-keyboard-response","201","267804","0.0-1.0-275.0-0.0","0","0","70637","","166","","","75","30","","","1","30","training","adjacent","BA","2","1","O.jpg","Q.jpg","1","0","0","",""
"","feedback","","html-keyboard-response","202","268806","0.0-1.0-276.0-0.0","0","0","70637","","null","","","null","30","","","","","","","","","","","","","","","",""
"","time_out","","html-keyboard-response","203","270812","0.0-1.0-278.0-0.0","0","0","70637","","null","","","null","30","","","","","","","","","","","","","","","",""
"","ITI","","html-keyboard-response","204","271814","0.0-1.0-279.0","0","0","70637","","null","","","null","30","","","","","","","","","","","","","","","NaN",""
"","S1","","html-keyboard-response","205","272066","0.0-1.0-281.0","0","0","70637","","null","","","null","31","","","","","","","","","","","","","","","",""
"","ISI","","html-keyboard-response","206","273070","0.0-1.0-282.0","0","0","70637","","null","","","null","31","NaN","","","","","","","","","","","","","","",""
"","S2","","html-keyboard-response","207","273323","0.0-1.0-283.0","0","0","70637","","null","","","null","31","","NaN","","","","","","","","","","","","","",""
"","response","","html-keyboard-response","208","273570","0.0-1.0-284.0-0.0","0","0","70637","","246","","","68","31","","","1","31","training","adjacent","EF","5","6","M.jpg","R.jpg","0","1","0","",""
"","feedback","","html-keyboard-response","209","274574","0.0-1.0-285.0-0.0","0","0","70637","","null","","","null","31","","","","","","","","","","","","","","","",""
"","time_out","","html-keyboard-response","210","276577","0.0-1.0-287.0-0.0","0","0","70637","","null","","","null","31","","","","","","","","","","","","","","","",""
"","ITI","","html-keyboard-response","211","277579","0.0-1.0-288.0","0","0","70637","","null","","","null","31","","","","","","","","","","","","","","","NaN",""
"","S1","","html-keyboard-response","212","277833","0.0-1.0-290.0","0","0","70637","","null","","","null","32","","","","","","","","","","","","","","","",""
"","ISI","","html-keyboard-response","213","278837","0.0-1.0-291.0","0","0","70637","","null","","","null","32","NaN","","","","","","","","","","","","","","",""
"","S2","","html-keyboard-response","214","279091","0.0-1.0-292.0","0","0","70637","","null","","","null","32","","NaN","","","","","","","","","","","","","",""
"","response","","html-keyboard-response","215","279333","0.0-1.0-293.0-0.0","0","0","70637","","240","","","75","32","","","1","32","training","adjacent","DE","4","5","P.jpg","M.jpg","1","1","1","",""
"","feedback","","html-keyboard-response","216","280337","0.0-1.0-294.0-0.0","0","0","70637","","null","","","null","32","","","","","","","","","","","","","","","",""
"","ITI","","html-keyboard-response","217","281340","0.0-1.0-297.0","0","0","70637","","null","","","null","32","","","","","","","","","","","","","","","NaN",""
"","S1","","html-keyboard-response","218","281593","0.0-1.0-299.0","0","0","70637","","null","","","null","33","","","","","","","","","","","","","","","",""
"","ISI","","html-keyboard-response","219","282597","0.0-1.0-300.0","0","0","70637","","null","","","null","33","NaN","","","","","","","","","","","","","","",""
"","S2","","html-keyboard-response","220","282849","0.0-1.0-301.0","0","0","70637","","null","","","null","33","","NaN","","","","","","","","","","","","","",""
"","response","","html-keyboard-response","221","282934","0.0-1.0-302.0-0.0","0","0","70637","","82","","","75","33","","","1","33","training","adjacent","BA","2","1","O.jpg","Q.jpg","1","0","0","",""
"","feedback","","html-keyboard-response","222","283936","0.0-1.0-303.0-0.0","0","0","70637","","null","","","null","33","","","","","","","","","","","","","","","",""
"","time_out","","html-keyboard-response","223","285938","0.0-1.0-305.0-0.0","0","0","70637","","null","","","null","33","","","","","","","","","","","","","","","",""
"","ITI","","html-keyboard-response","224","286940","0.0-1.0-306.0","0","0","70637","","null","","","null","33","","","","","","","","","","","","","","","NaN",""
"","S1","","html-keyboard-response","225","287193","0.0-1.0-308.0","0","0","70637","","null","","","null","34","","","","","","","","","","","","","","","",""
"","ISI","","html-keyboard-response","226","288195","0.0-1.0-309.0","0","0","70637","","null","","","null","34","NaN","","","","","","","","","","","","","","",""
"","S2","","html-keyboard-response","227","288449","0.0-1.0-310.0","0","0","70637","","null","","","null","34","","NaN","","","","","","","","","","","","","",""
"","response","","html-keyboard-response","228","288462","0.0-1.0-311.0-0.0","0","0","70637","","9","","","68","34","","","1","34","training","adjacent","BC","2","3","O.jpg","L.jpg","0","1","0","",""
"","feedback","","html-keyboard-response","229","289466","0.0-1.0-312.0-0.0","0","0","70637","","null","","","null","34","","","","","","","","","","","","","","","",""
"","time_out","","html-keyboard-response","230","291470","0.0-1.0-314.0-0.0","0","0","70637","","null","","","null","34","","","","","","","","","","","","","","","",""
"","ITI","","html-keyboard-response","231","292474","0.0-1.0-315.0","0","0","70637","","null","","","null","34","","","","","","","","","","","","","","","NaN",""
"","S1","","html-keyboard-response","232","292726","0.0-1.0-317.0","0","0","70637","","null","","","null","35","","","","","","","","","","","","","","","",""
"","ISI","","html-keyboard-response","233","293729","0.0-1.0-318.0","0","0","70637","","null","","","null","35","NaN","","","","","","","","","","","","","","",""
"","S2","","html-keyboard-response","234","293976","0.0-1.0-319.0","0","0","70637","","245","","","68","35","","d","1","35","training","adjacent","CD","3","4","L.jpg","P.jpg","0","1","0","",""
"","feedback","","html-keyboard-response","235","294979","0.0-1.0-321.0-0.0","0","0","70637","","null","","","null","35","","","","","","","","","","","","","","","",""
"","time_out","","html-keyboard-response","236","296981","0.0-1.0-323.0-0.0","0","0","70637","","null","","","null","35","","","","","","","","","","","","","","","",""
"","ITI","","html-keyboard-response","237","297984","0.0-1.0-324.0","0","0","70637","","null","","","null","35","","","","","","","","","","","","","","","NaN",""
"","S1","","html-keyboard-response","238","298238","0.0-1.0-326.0","0","0","70637","","null","","","null","36","","","","","","","","","","","","","","","",""
"","ISI","","html-keyboard-response","239","299242","0.0-1.0-327.0","0","0","70637","","229","","","75","36","k","","","","","","","","","","","","","","",""
"","S2","","html-keyboard-response","240","299495","0.0-1.0-328.0","0","0","70637","","null","","","null","36","","NaN","","","","","","","","","","","","","",""
"","response","","html-keyboard-response","241","300439","0.0-1.0-329.0-0.0","0","0","70637","","942","","","75","36","","","1","36","training","adjacent","ED","5","4","M.jpg","P.jpg","1","0","0","",""
"","feedback","","html-keyboard-response","242","301443","0.0-1.0-330.0-0.0","0","0","70637","","null","","","null","36","","","","","","","","","","","","","","","",""
"","time_out","","html-keyboard-response","243","303447","0.0-1.0-332.0-0.0","0","0","70637","","null","","","null","36","","","","","","","","","","","","","","","",""
"","ITI","","html-keyboard-response","244","304455","0.0-1.0-333.0","0","0","70637","","null","","","null","36","","","","","","","","","","","","","","","NaN",""
"","S1","","html-keyboard-response","245","304709","0.0-1.0-335.0","0","0","70637","","null","","","null","37","","","","","","","","","","","","","","","",""
"","ISI","","html-keyboard-response","246","305712","0.0-1.0-336.0","0","0","70637","","null","","","null","37","NaN","","","","","","","","","","","","","","",""
"","S2","","html-keyboard-response","247","305965","0.0-1.0-337.0","0","0","70637","","null","","","null","37","","NaN","","","","","","","","","","","","","",""
"","response","","html-keyboard-response","248","307426","0.0-1.0-338.0-0.0","0","0","70637","","1456","","","68","37","","","1","37","training","adjacent","GF","7","6","N.jpg","R.jpg","0","0","1","",""
"","feedback","","html-keyboard-response","249","308431","0.0-1.0-339.0-0.0","0","0","70637","","null","","","null","37","","","","","","","","","","","","","","","",""
"","ITI","","html-keyboard-response","250","309434","0.0-1.0-342.0","0","0","70637","","null","","","null","37","","","","","","","","","","","","","","","NaN",""
"","S1","","html-keyboard-response","251","309687","0.0-1.0-344.0","0","0","70637","","null","","","null","38","","","","","","","","","","","","","","","",""
"","ISI","","html-keyboard-response","252","310689","0.0-1.0-345.0","0","0","70637","","null","","","null","38","NaN","","","","","","","","","","","","","","",""
"","S2","","html-keyboard-response","253","310941","0.0-1.0-346.0","0","0","70637","","null","","","null","38","","NaN","","","","","","","","","","","","","",""
"","response","","html-keyboard-response","254","311675","0.0-1.0-347.0-0.0","0","0","70637","","732","","","68","38","","","1","38","training","adjacent","AB","1","2","Q.jpg","O.jpg","0","1","0","",""
"","feedback","","html-keyboard-response","255","312677","0.0-1.0-348.0-0.0","0","0","70637","","null","","","null","38","","","","","","","","","","","","","","","",""
"","time_out","","html-keyboard-response","256","314680","0.0-1.0-350.0-0.0","0","0","70637","","null","","","null","38","","","","","","","","","","","","","","","",""
"","ITI","","html-keyboard-response","257","315682","0.0-1.0-351.0","0","0","70637","","null","","","null","38","","","","","","","","","","","","","","","NaN",""
"","S1","","html-keyboard-response","258","315934","0.0-1.0-353.0","0","0","70637","","null","","","null","39","","","","","","","","","","","","","","","",""
"","ISI","","html-keyboard-response","259","316936","0.0-1.0-354.0","0","0","70637","","null","","","null","39","NaN","","","","","","","","","","","","","","",""
"","S2","","html-keyboard-response","260","317187","0.0-1.0-355.0","0","0","70637","","248","","","68","39","","d","1","39","training","adjacent","FE","6","5","R.jpg","M.jpg","0","0","1","",""
"","feedback","","html-keyboard-response","261","318190","0.0-1.0-357.0-0.0","0","0","70637","","null","","","null","39","","","","","","","","","","","","","","","",""
"","ITI","","html-keyboard-response","262","319193","0.0-1.0-360.0","0","0","70637","","null","","","null","39","","","","","","","","","","","","","","","NaN",""
"","S1","","html-keyboard-response","263","319448","0.0-1.0-362.0","0","0","70637","","null","","","null","40","","","","","","","","","","","","","","","",""
"","ISI","","html-keyboard-response","264","320450","0.0-1.0-363.0","0","0","70637","","null","","","null","40","NaN","","","","","","","","","","","","","","",""
"","S2","","html-keyboard-response","265","320703","0.0-1.0-364.0","0","0","70637","","null","","","null","40","","NaN","","","","","","","","","","","","","",""
"","response","","html-keyboard-response","266","320752","0.0-1.0-365.0-0.0","0","0","70637","","48","","","75","40","","","1","40","training","adjacent","BC","2","3","O.jpg","L.jpg","1","1","1","",""
"","feedback","","html-keyboard-response","267","321755","0.0-1.0-366.0-0.0","0","0","70637","","null","","","null","40","","","","","","","","","","","","","","","",""
"","ITI","","html-keyboard-response","268","322758","0.0-1.0-369.0","0","0","70637","","null","","","null","40","","","","","","","","","","","","","","","NaN",""
"","S1","","html-keyboard-response","269","323012","0.0-1.0-371.0","0","0","70637","","null","","","null","41","","","","","","","","","","","","","","","",""
"","ISI","","html-keyboard-response","270","324015","0.0-1.0-372.0","0","0","70637","","null","","","null","41","NaN","","","","","","","","","","","","","","",""
"","S2","","html-keyboard-response","271","324269","0.0-1.0-373.0","0","0","70637","","null","","","null","41","","NaN","","","","","","","","","","","","","",""
"","response","","html-keyboard-response","272","324503","0.0-1.0-374.0-0.0","0","0","70637","","232","","","75","41","","","1","41","training","adjacent","GF","7","6","N.jpg","R.jpg","1","0","0","",""
"","feedback","","html-keyboard-response","273","325505","0.0-1.0-375.0-0.0","0","0","70637","","null","","","null","41","","","","","","","","","","","","","","","",""
"","time_out","","html-keyboard-response","274","327508","0.0-1.0-377.0-0.0","0","0","70637","","null","","","null","41","","","","","","","","","","","","","","","",""
"","ITI","","html-keyboard-response","275","328512","0.0-1.0-378.0","0","0","70637","","null","","","null","41","","","","","","","","","","","","","","","NaN",""
"","S1","","html-keyboard-response","276","328765","0.0-1.0-380.0","0","0","70637","","null","","","null","42","","","","","","","","","","","","","","","",""
"","ISI","","html-keyboard-response","277","329767","0.0-1.0-381.0","0","0","70637","","null","","","null","42","NaN","","","","","","","","","","","","","","",""
"","S2","","html-keyboard-response","278","330015","0.0-1.0-382.0","0","0","70637","","246","","","68","42","","d","1","42","training","adjacent","FE","6","5","R.jpg","M.jpg","0","0","1","",""
"","feedback","","html-keyboard-response","279","331017","0.0-1.0-384.0-0.0","0","0","70637","","null","","","null","42","","","","","","","","","","","","","","","",""
"","ITI","","html-keyboard-response","280","332020","0.0-1.0-387.0","0","0","70637","","null","","","null","42","","","","","","","","","","","","","","","NaN",""
"","S1","","html-keyboard-response","281","332273","0.0-1.0-389.0","0","0","70637","","null","","","null","43","","","","","","","","","","","","","","","",""
"","ISI","","html-keyboard-response","282","333275","0.0-1.0-390.0","0","0","70637","","null","","","null","43","NaN","","","","","","","","","","","","","","",""
"","S2","","html-keyboard-response","283","333528","0.0-1.0-391.0","0","0","70637","","null","","","null","43","","NaN","","","","","","","","","","","","","",""
"","response","","html-keyboard-response","284","333556","0.0-1.0-392.0-0.0","0","0","70637","","26","","","68","43","","","1","43","training","adjacent","CD","3","4","L.jpg","P.jpg","0","1","0","",""
"","feedback","","html-keyboard-response","285","334559","0.0-1.0-393.0-0.0","0","0","70637","","null","","","null","43","","","","","","","","","","","","","","","",""
"","time_out","","html-keyboard-response","286","336562","0.0-1.0-395.0-0.0","0","0","70637","","null","","","null","43","","","","","","","","","","","","","","","",""
"","ITI","","html-keyboard-response","287","337564","0.0-1.0-396.0","0","0","70637","","null","","","null","43","","","","","","","","","","","","","","","NaN",""
"","S1","","html-keyboard-response","288","337818","0.0-1.0-398.0","0","0","70637","","null","","","null","44","","","","","","","","","","","","","","","",""
"","ISI","","html-keyboard-response","289","338823","0.0-1.0-399.0","0","0","70637","","null","","","null","44","NaN","","","","","","","","","","","","","","",""
"","S2","","html-keyboard-response","290","339077","0.0-1.0-400.0","0","0","70637","","null","","","null","44","","NaN","","","","","","","","","","","","","",""
"","response","","html-keyboard-response","291","339268","0.0-1.0-401.0-0.0","0","0","70637","","189","","","75","44","","","1","44","training","adjacent","FG","6","7","R.jpg","N.jpg","1","1","1","",""
"","feedback","","html-keyboard-response","292","340270","0.0-1.0-402.0-0.0","0","0","70637","","null","","","null","44","","","","","","","","","","","","","","","",""
"","ITI","","html-keyboard-response","293","341273","0.0-1.0-405.0","0","0","70637","","null","","","null","44","","","","","","","","","","","","","","","NaN",""
"","S1","","html-keyboard-response","294","341526","0.0-1.0-407.0","0","0","70637","","null","","","null","45","","","","","","","","","","","","","","","",""
"","ISI","","html-keyboard-response","295","342529","0.0-1.0-408.0","0","0","70637","","null","","","null","45","NaN","","","","","","","","","","","","","","",""
"","S2","","html-keyboard-response","296","342781","0.0-1.0-409.0","0","0","70637","","null","","","null","45","","NaN","","","","","","","","","","","","","",""
"","response","","html-keyboard-response","297","342786","0.0-1.0-410.0-0.0","0","0","70637","","4","","","68","45","","","1","45","training","adjacent","BA","2","1","O.jpg","Q.jpg","0","0","1","",""
"","feedback","","html-keyboard-response","298","343789","0.0-1.0-411.0-0.0","0","0","70637","","null","","","null","45","","","","","","","","","","","","","","","",""
"","ITI","","html-keyboard-response","299","344793","0.0-1.0-414.0","0","0","70637","","null","","","null","45","","","","","","","","","","","","","","","NaN",""
"","S1","","html-keyboard-response","300","345047","0.0-1.0-416.0","0","0","70637","","null","","","null","46","","","","","","","","","","","","","","","",""
"","ISI","","html-keyboard-response","301","346050","0.0-1.0-417.0","0","0","70637","","null","","","null","46","NaN","","","","","","","","","","","","","","",""
"","S2","","html-keyboard-response","302","346303","0.0-1.0-418.0","0","0","70637","","null","","","null","46","","NaN","","","","","","","","","","","","","",""
"","response","","html-keyboard-response","303","346567","0.0-1.0-419.0-0.0","0","0","70637","","262","","","68","46","","","1","46","training","adjacent","EF","5","6","M.jpg","R.jpg","0","1","0","",""
"","feedback","","html-keyboard-response","304","347570","0.0-1.0-420.0-0.0","0","0","70637","","null","","","null","46","","","","","","","","","","","","","","","",""
"","time_out","","html-keyboard-response","305","349573","0.0-1.0-422.0-0.0","0","0","70637","","null","","","null","46","","","","","","","","","","","","","","","",""
"","ITI","","html-keyboard-response","306","350578","0.0-1.0-423.0","0","0","70637","","null","","","null","46","","","","","","","","","","","","","","","NaN",""
"","S1","","html-keyboard-response","307","350832","0.0-1.0-425.0","0","0","70637","","null","","","null","47","","","","","","","","","","","","","","","",""
"","ISI","","html-keyboard-response","308","351836","0.0-1.0-426.0","0","0","70637","","null","","","null","47","NaN","","","","","","","","","","","","","","",""
"","S2","","html-keyboard-response","309","352059","0.0-1.0-427.0","0","0","70637","","222","","","68","47","","d","1","47","training","adjacent","DC","4","3","P.jpg","L.jpg","0","0","1","",""
"","feedback","","html-keyboard-response","310","353062","0.0-1.0-429.0-0.0","0","0","70637","","null","","","null","47","","","","","","","","","","","","","","","",""
"","ITI","","html-keyboard-response","311","354064","0.0-1.0-432.0","0","0","70637","","null","","","null","47","","","","","","","","","","","","","","","NaN",""
"","block_over","","html-keyboard-response","312","547056","0.0-1.0-433.0-0.0","0","0","70637","","192989","","","32","47","","","","","","","","","","","","","","","",""
"","S1","","html-keyboard-response","313","547309","0.0-1.0-434.0","0","0","70637","","null","","","null","48","","","","","","","","","","","","","","","",""
"","ISI","","html-keyboard-response","314","548312","0.0-1.0-435.0","0","0","70637","","null","","","null","48","NaN","","","","","","","","","","","","","","",""
"","S2","","html-keyboard-response","315","548564","0.0-1.0-436.0","0","0","70637","","null","","","null","48","","NaN","","","","","","","","","","","","","",""
"","response","","html-keyboard-response","316","548914","0.0-1.0-437.0-0.0","0","0","70637","","348","","","75","48","","","2","48","training","adjacent","AB","1","2","Q.jpg","O.jpg","1","1","1","",""
"","feedback","","html-keyboard-response","317","549917","0.0-1.0-438.0-0.0","0","0","70637","","null","","","null","48","","","","","","","","","","","","","","","",""
"","ITI","","html-keyboard-response","318","550921","0.0-1.0-441.0","0","0","70637","","null","","","null","48","","","","","","","","","","","","","","","NaN",""
"","S1","","html-keyboard-response","319","551173","0.0-1.0-443.0","0","0","70637","","null","","","null","49","","","","","","","","","","","","","","","",""
"","ISI","","html-keyboard-response","320","552176","0.0-1.0-444.0","0","0","70637","","null","","","null","49","NaN","","","","","","","","","","","","","","",""
"","S2","","html-keyboard-response","321","552429","0.0-1.0-445.0","0","0","70637","","null","","","null","49","","NaN","","","","","","","","","","","","","",""
"","response","","html-keyboard-response","322","552519","0.0-1.0-446.0-0.0","0","0","70637","","88","","","75","49","","","2","49","training","adjacent","FE","6","5","R.jpg","M.jpg","1","0","0","",""
"","feedback","","html-keyboard-response","323","553522","0.0-1.0-447.0-0.0","0","0","70637","","null","","","null","49","","","","","","","","","","","","","","","",""
"","time_out","","html-keyboard-response","324","555524","0.0-1.0-449.0-0.0","0","0","70637","","null","","","null","49","","","","","","","","","","","","","","","",""
"","ITI","","html-keyboard-response","325","556527","0.0-1.0-450.0","0","0","70637","","null","","","null","49","","","","","","","","","","","","","","","NaN",""
"","S1","","html-keyboard-response","326","556780","0.0-1.0-452.0","0","0","70637","","null","","","null","50","","","","","","","","","","","","","","","",""
"","ISI","","html-keyboard-response","327","557782","0.0-1.0-453.0","0","0","70637","","null","","","null","50","NaN","","","","","","","","","","","","","","",""
"","S2","","html-keyboard-response","328","558037","0.0-1.0-454.0","0","0","70637","","null","","","null","50","","NaN","","","","","","","","","","","","","",""
"","response","","html-keyboard-response","329","558980","0.0-1.0-455.0-0.0","0","0","70637","","940","","","68","50","","","2","50","training","adjacent","DE","4","5","P.jpg","M.jpg","0","1","0","",""
"","feedback","","html-keyboard-response","330","559982","0.0-1.0-456.0-0.0","0","0","70637","","null","","","null","50","","","","","","","","","","","","","","","",""
"","time_out","","html-keyboard-response","331","561985","0.0-1.0-458.0-0.0","0","0","70637","","null","","","null","50","","","","","","","","","","","","","","","",""
"","ITI","","html-keyboard-response","332","562987","0.0-1.0-459.0","0","0","70637","","null","","","null","50","","","","","","","","","","","","","","","NaN",""
"","S1","","html-keyboard-response","333","563241","0.0-1.0-461.0","0","0","70637","","null","","","null","51","","","","","","","","","","","","","","","",""
"","ISI","","html-keyboard-response","334","564244","0.0-1.0-462.0","0","0","70637","","null","","","null","51","NaN","","","","","","","","","","","","","","",""
"","S2","","html-keyboard-response","335","564496","0.0-1.0-463.0","0","0","70637","","null","","","null","51","","NaN","","","","","","","","","","","","","",""
"","response","","html-keyboard-response","336","564746","0.0-1.0-464.0-0.0","0","0","70637","","247","","","75","51","","","2","51","training","adjacent","DC","4","3","P.jpg","L.jpg","1","0","0","",""
"","feedback","","html-keyboard-response","337","565750","0.0-1.0-465.0-0.0","0","0","70637","","null","","","null","51","","","","","","","","","","","","","","","",""
"","time_out","","html-keyboard-response","338","567752","0.0-1.0-467.0-0.0","0","0","70637","","null","","","null","51","","","","","","","","","","","","","","","",""
"","ITI","","html-keyboard-response","339","568755","0.0-1.0-468.0","0","0","70637","","null","","","null","51","","","","","","","","","","","","","","","NaN",""
"","S1","","html-keyboard-response","340","569007","0.0-1.0-470.0","0","0","70637","","null","","","null","52","","","","","","","","","","","","","","","",""
"","ISI","","html-keyboard-response","341","570009","0.0-1.0-471.0","0","0","70637","","null","","","null","52","NaN","","","","","","","","","","","","","","",""
"","S2","","html-keyboard-response","342","570262","0.0-1.0-472.0","0","0","70637","","null","","","null","52","","NaN","","","","","","","","","","","","","",""
"","response","","html-keyboard-response","343","570449","0.0-1.0-473.0-0.0","0","0","70637","","183","","","68","52","","","2","52","training","adjacent","EF","5","6","M.jpg","R.jpg","0","1","0","",""
"","feedback","","html-keyboard-response","344","571453","0.0-1.0-474.0-0.0","0","0","70637","","null","","","null","52","","","","","","","","","","","","","","","",""
"","time_out","","html-keyboard-response","345","573457","0.0-1.0-476.0-0.0","0","0","70637","","null","","","null","52","","","","","","","","","","","","","","","",""
"","ITI","","html-keyboard-response","346","574461","0.0-1.0-477.0","0","0","70637","","null","","","null","52","","","","","","","","","","","","","","","NaN",""
"","S1","","html-keyboard-response","347","574714","0.0-1.0-479.0","0","0","70637","","null","","","null","53","","","","","","","","","","","","","","","",""
"","ISI","","html-keyboard-response","348","575717","0.0-1.0-480.0","0","0","70637","","null","","","null","53","NaN","","","","","","","","","","","","","","",""
"","S2","","html-keyboard-response","349","575969","0.0-1.0-481.0","0","0","70637","","null","","","null","53","","NaN","","","","","","","","","","","","","",""
"","response","","html-keyboard-response","350","576056","0.0-1.0-482.0-0.0","0","0","70637","","85","","","68","53","","","2","53","training","adjacent","DE","4","5","P.jpg","M.jpg","0","1","0","",""
"","feedback","","html-keyboard-response","351","577058","0.0-1.0-483.0-0.0","0","0","70637","","null","","","null","53","","","","","","","","","","","","","","","",""
"","time_out","","html-keyboard-response","352","579061","0.0-1.0-485.0-0.0","0","0","70637","","null","","","null","53","","","","","","","","","","","","","","","",""
"","ITI","","html-keyboard-response","353","580064","0.0-1.0-486.0","0","0","70637","","null","","","null","53","","","","","","","","","","","","","","","NaN",""
"","S1","","html-keyboard-response","354","580316","0.0-1.0-488.0","0","0","70637","","null","","","null","54","","","","","","","","","","","","","","","",""
"","ISI","","html-keyboard-response","355","581318","0.0-1.0-489.0","0","0","70637","","null","","","null","54","NaN","","","","","","","","","","","","","","",""
"","S2","","html-keyboard-response","356","581571","0.0-1.0-490.0","0","0","70637","","null","","","null","54","","NaN","","","","","","","","","","","","","",""
"","response","","html-keyboard-response","357","581664","0.0-1.0-491.0-0.0","0","0","70637","","90","","","68","54","","","2","54","training","adjacent","ED","5","4","M.jpg","P.jpg","0","0","1","",""
"","feedback","","html-keyboard-response","358","582667","0.0-1.0-492.0-0.0","0","0","70637","","null","","","null","54","","","","","","","","","","","","","","","",""
"","ITI","","html-keyboard-response","359","583669","0.0-1.0-495.0","0","0","70637","","null","","","null","54","","","","","","","","","","","","","","","NaN",""
"","S1","","html-keyboard-response","360","583922","0.0-1.0-497.0","0","0","70637","","null","","","null","55","","","","","","","","","","","","","","","",""
"","ISI","","html-keyboard-response","361","584924","0.0-1.0-498.0","0","0","70637","","null","","","null","55","NaN","","","","","","","","","","","","","","",""
"","S2","","html-keyboard-response","362","585176","0.0-1.0-499.0","0","0","70637","","null","","","null","55","","NaN","","","","","","","","","","","","","",""
"","response","","html-keyboard-response","363","585346","0.0-1.0-500.0-0.0","0","0","70637","","168","","","75","55","","","2","55","training","adjacent","BC","2","3","O.jpg","L.jpg","1","1","1","",""
"","feedback","","html-keyboard-response","364","586349","0.0-1.0-501.0-0.0","0","0","70637","","null","","","null","55","","","","","","","","","","","","","","","",""
"","ITI","","html-keyboard-response","365","587352","0.0-1.0-504.0","0","0","70637","","null","","","null","55","","","","","","","","","","","","","","","NaN",""
"","S1","","html-keyboard-response","366","587604","0.0-1.0-506.0","0","0","70637","","null","","","null","56","","","","","","","","","","","","","","","",""
"","ISI","","html-keyboard-response","367","588607","0.0-1.0-507.0","0","0","70637","","null","","","null","56","NaN","","","","","","","","","","","","","","",""
"","S2","","html-keyboard-response","368","588862","0.0-1.0-508.0","0","0","70637","","null","","","null","56","","NaN","","","","","","","","","","","","","",""
"","response","","html-keyboard-response","369","589064","0.0-1.0-509.0-0.0","0","0","70637","","199","","","75","56","","","2","56","training","adjacent","CD","3","4","L.jpg","P.jpg","1","1","1","",""
"","feedback","","html-keyboard-response","370","590066","0.0-1.0-510.0-0.0","0","0","70637","","null","","","null","56","","","","","","","","","","","","","","","",""
"","ITI","","html-keyboard-response","371","591068","0.0-1.0-513.0","0","0","70637","","null","","","null","56","","","","","","","","","","","","","","","NaN",""
"","S1","","html-keyboard-response","372","591321","0.0-1.0-515.0","0","0","70637","","null","","","null","57","","","","","","","","","","","","","","","",""
"","ISI","","html-keyboard-response","373","592323","0.0-1.0-516.0","0","0","70637","","null","","","null","57","NaN","","","","","","","","","","","","","","",""
"","S2","","html-keyboard-response","374","592576","0.0-1.0-517.0","0","0","70637","","null","","","null","57","","NaN","","","","","","","","","","","","","",""
"","response","","html-keyboard-response","375","592601","0.0-1.0-518.0-0.0","0","0","70637","","24","","","68","57","","","2","57","training","adjacent","ED","5","4","M.jpg","P.jpg","0","0","1","",""
"","feedback","","html-keyboard-response","376","593604","0.0-1.0-519.0-0.0","0","0","70637","","null","","","null","57","","","","","","","","","","","","","","","",""
"","ITI","","html-keyboard-response","377","594606","0.0-1.0-522.0","0","0","70637","","null","","","null","57","","","","","","","","","","","","","","","NaN",""
"","S1","","html-keyboard-response","378","594862","0.0-1.0-524.0","0","0","70637","","null","","","null","58","","","","","","","","","","","","","","","",""
"","ISI","","html-keyboard-response","379","595865","0.0-1.0-525.0","0","0","70637","","null","","","null","58","NaN","","","","","","","","","","","","","","",""
"","S2","","html-keyboard-response","380","596117","0.0-1.0-526.0","0","0","70637","","null","","","null","58","","NaN","","","","","","","","","","","","","",""
"","response","","html-keyboard-response","381","596644","0.0-1.0-527.0-0.0","0","0","70637","","522","","","68","58","","","2","58","training","adjacent","AB","1","2","Q.jpg","O.jpg","0","1","0","",""
"","feedback","","html-keyboard-response","382","597649","0.0-1.0-528.0-0.0","0","0","70637","","null","","","null","58","","","","","","","","","","","","","","","",""
"","time_out","","html-keyboard-response","383","599651","0.0-1.0-530.0-0.0","0","0","70637","","null","","","null","58","","","","","","","","","","","","","","","",""
"","ITI","","html-keyboard-response","384","600654","0.0-1.0-531.0","0","0","70637","","null","","","null","58","","","","","","","","","","","","","","","NaN",""
"","S1","","html-keyboard-response","385","600907","0.0-1.0-533.0","0","0","70637","","null","","","null","59","","","","","","","","","","","","","","","",""
"","ISI","","html-keyboard-response","386","601909","0.0-1.0-534.0","0","0","70637","","null","","","null","59","NaN","","","","","","","","","","","","","","",""
"","S2","","html-keyboard-response","387","602162","0.0-1.0-535.0","0","0","70637","","null","","","null","59","","NaN","","","","","","","","","","","","","",""
"","response","","html-keyboard-response","388","602299","0.0-1.0-536.0-0.0","0","0","70637","","136","","","68","59","","","2","59","training","adjacent","CB","3","2","L.jpg","O.jpg","0","0","1","",""
"","feedback","","html-keyboard-response","389","603303","0.0-1.0-537.0-0.0","0","0","70637","","null","","","null","59","","","","","","","","","","","","","","","",""
"","ITI","","html-keyboard-response","390","604305","0.0-1.0-540.0","0","0","70637","","null","","","null","59","","","","","","","","","","","","","","","NaN",""
"","S1","","html-keyboard-response","391","604557","0.0-1.0-542.0","0","0","70637","","null","","","null","60","","","","","","","","","","","","","","","",""
"","ISI","","html-keyboard-response","392","605562","0.0-1.0-543.0","0","0","70637","","null","","","null","60","NaN","","","","","","","","","","","","","","",""
"","S2","","html-keyboard-response","393","605816","0.0-1.0-544.0","0","0","70637","","null","","","null","60","","NaN","","","","","","","","","","","","","",""
"","response","","html-keyboard-response","394","606077","0.0-1.0-545.0-0.0","0","0","70637","","259","","","75","60","","","2","60","training","adjacent","DC","4","3","P.jpg","L.jpg","1","0","0","",""
"","feedback","","html-keyboard-response","395","607080","0.0-1.0-546.0-0.0","0","0","70637","","null","","","null","60","","","","","","","","","","","","","","","",""
"","time_out","","html-keyboard-response","396","609084","0.0-1.0-548.0-0.0","0","0","70637","","null","","","null","60","","","","","","","","","","","","","","","",""
"","ITI","","html-keyboard-response","397","610086","0.0-1.0-549.0","0","0","70637","","null","","","null","60","","","","","","","","","","","","","","","NaN",""
"","S1","","html-keyboard-response","398","610340","0.0-1.0-551.0","0","0","70637","","null","","","null","61","","","","","","","","","","","","","","","",""
"","ISI","","html-keyboard-response","399","611343","0.0-1.0-552.0","0","0","70637","","null","","","null","61","NaN","","","","","","","","","","","","","","",""
"","S2","","html-keyboard-response","400","611583","0.0-1.0-553.0","0","0","70637","","238","","","68","61","","d","2","61","training","adjacent","FE","6","5","R.jpg","M.jpg","0","0","1","",""
"","feedback","","html-keyboard-response","401","612586","0.0-1.0-555.0-0.0","0","0","70637","","null","","","null","61","","","","","","","","","","","","","","","",""
"","ITI","","html-keyboard-response","402","613588","0.0-1.0-558.0","0","0","70637","","null","","","null","61","","","","","","","","","","","","","","","NaN",""
"","S1","","html-keyboard-response","403","613842","0.0-1.0-560.0","0","0","70637","","null","","","null","62","","","","","","","","","","","","","","","",""
"","ISI","","html-keyboard-response","404","614846","0.0-1.0-561.0","0","0","70637","","null","","","null","62","NaN","","","","","","","","","","","","","","",""
"","S2","","html-keyboard-response","405","615098","0.0-1.0-562.0","0","0","70637","","null","","","null","62","","NaN","","","","","","","","","","","","","",""
"","response","","html-keyboard-response","406","615336","0.0-1.0-563.0-0.0","0","0","70637","","235","","","75","62","","","2","62","training","adjacent","DE","4","5","P.jpg","M.jpg","1","1","1","",""
"","feedback","","html-keyboard-response","407","616339","0.0-1.0-564.0-0.0","0","0","70637","","null","","","null","62","","","","","","","","","","","","","","","",""
"","ITI","","html-keyboard-response","408","617342","0.0-1.0-567.0","0","0","70637","","null","","","null","62","","","","","","","","","","","","","","","NaN",""
"","S1","","html-keyboard-response","409","617595","0.0-1.0-569.0","0","0","70637","","null","","","null","63","","","","","","","","","","","","","","","",""
"","ISI","","html-keyboard-response","410","618596","0.0-1.0-570.0","0","0","70637","","null","","","null","63","NaN","","","","","","","","","","","","","","",""
"","S2","","html-keyboard-response","411","618853","0.0-1.0-571.0","0","0","70637","","null","","","null","63","","NaN","","","","","","","","","","","","","",""
"","response","","html-keyboard-response","412","618901","0.0-1.0-572.0-0.0","0","0","70637","","43","","","75","63","","","2","63","training","adjacent","GF","7","6","N.jpg","R.jpg","1","0","0","",""
"","feedback","","html-keyboard-response","413","619904","0.0-1.0-573.0-0.0","0","0","70637","","null","","","null","63","","","","","","","","","","","","","","","",""
"","time_out","","html-keyboard-response","414","621906","0.0-1.0-575.0-0.0","0","0","70637","","null","","","null","63","","","","","","","","","","","","","","","",""
"","ITI","","html-keyboard-response","415","622908","0.0-1.0-576.0","0","0","70637","","null","","","null","63","","","","","","","","","","","","","","","NaN",""
"","S1","","html-keyboard-response","416","623161","0.0-1.0-578.0","0","0","70637","","null","","","null","64","","","","","","","","","","","","","","","",""
"","ISI","","html-keyboard-response","417","624163","0.0-1.0-579.0","0","0","70637","","null","","","null","64","NaN","","","","","","","","","","","","","","",""
"","S2","","html-keyboard-response","418","624417","0.0-1.0-580.0","0","0","70637","","null","","","null","64","","NaN","","","","","","","","","","","","","",""
"","response","","html-keyboard-response","419","624421","0.0-1.0-581.0-0.0","0","0","70637","","1","","","75","64","","","2","64","training","adjacent","DC","4","3","P.jpg","L.jpg","1","0","0","",""
"","feedback","","html-keyboard-response","420","625424","0.0-1.0-582.0-0.0","0","0","70637","","null","","","null","64","","","","","","","","","","","","","","","",""
"","time_out","","html-keyboard-response","421","627428","0.0-1.0-584.0-0.0","0","0","70637","","null","","","null","64","","","","","","","","","","","","","","","",""
"","ITI","","html-keyboard-response","422","628431","0.0-1.0-585.0","0","0","70637","","null","","","null","64","","","","","","","","","","","","","","","NaN",""
"","S1","","html-keyboard-response","423","628684","0.0-1.0-587.0","0","0","70637","","null","","","null","65","","","","","","","","","","","","","","","",""
"","ISI","","html-keyboard-response","424","629688","0.0-1.0-588.0","0","0","70637","","null","","","null","65","NaN","","","","","","","","","","","","","","",""
"","S2","","html-keyboard-response","425","629941","0.0-1.0-589.0","0","0","70637","","null","","","null","65","","NaN","","","","","","","","","","","","","",""
"","response","","html-keyboard-response","426","629966","0.0-1.0-590.0-0.0","0","0","70637","","24","","","68","65","","","2","65","training","adjacent","EF","5","6","M.jpg","R.jpg","0","1","0","",""
"","feedback","","html-keyboard-response","427","630970","0.0-1.0-591.0-0.0","0","0","70637","","null","","","null","65","","","","","","","","","","","","","","","",""
"","time_out","","html-keyboard-response","428","632972","0.0-1.0-593.0-0.0","0","0","70637","","null","","","null","65","","","","","","","","","","","","","","","",""
"","ITI","","html-keyboard-response","429","633975","0.0-1.0-594.0","0","0","70637","","null","","","null","65","","","","","","","","","","","","","","","NaN",""
"","S1","","html-keyboard-response","430","634229","0.0-1.0-596.0","0","0","70637","","null","","","null","66","","","","","","","","","","","","","","","",""
"","ISI","","html-keyboard-response","431","635235","0.0-1.0-597.0","0","0","70637","","null","","","null","66","NaN","","","","","","","","","","","","","","",""
"","S2","","html-keyboard-response","432","635477","0.0-1.0-598.0","0","0","70637","","238","","","68","66","","d","2","66","training","adjacent","BC","2","3","O.jpg","L.jpg","0","1","0","",""
"","feedback","","html-keyboard-response","433","636479","0.0-1.0-600.0-0.0","0","0","70637","","null","","","null","66","","","","","","","","","","","","","","","",""
"","time_out","","html-keyboard-response","434","638481","0.0-1.0-602.0-0.0","0","0","70637","","null","","","null","66","","","","","","","","","","","","","","","",""
"","ITI","","html-keyboard-response","435","639484","0.0-1.0-603.0","0","0","70637","","null","","","null","66","","","","","","","","","","","","","","","NaN",""
"","S1","","html-keyboard-response","436","639736","0.0-1.0-605.0","0","0","70637","","null","","","null","67","","","","","","","","","","","","","","","",""
"","ISI","","html-keyboard-response","437","640739","0.0-1.0-606.0","0","0","70637","","null","","","null","67","NaN","","","","","","","","","","","","","","",""
"","S2","","html-keyboard-response","438","640992","0.0-1.0-607.0","0","0","70637","","null","","","null","67","","NaN","","","","","","","","","","","","","",""
"","response","","html-keyboard-response","439","641019","0.0-1.0-608.0-0.0","0","0","70637","","23","","","75","67","","","2","67","training","adjacent","CB","3","2","L.jpg","O.jpg","1","0","0","",""
"","feedback","","html-keyboard-response","440","642026","0.0-1.0-609.0-0.0","0","0","70637","","null","","","null","67","","","","","","","","","","","","","","","",""
"","time_out","","html-keyboard-response","441","644031","0.0-1.0-611.0-0.0","0","0","70637","","null","","","null","67","","","","","","","","","","","","","","","",""
"","ITI","","html-keyboard-response","442","645034","0.0-1.0-612.0","0","0","70637","","null","","","null","67","","","","","","","","","","","","","","","NaN",""
"","S1","","html-keyboard-response","443","645286","0.0-1.0-614.0","0","0","70637","","null","","","null","68","","","","","","","","","","","","","","","",""
"","ISI","","html-keyboard-response","444","646288","0.0-1.0-615.0","0","0","70637","","null","","","null","68","NaN","","","","","","","","","","","","","","",""
"","S2","","html-keyboard-response","445","646542","0.0-1.0-616.0","0","0","70637","","null","","","null","68","","NaN","","","","","","","","","","","","","",""
"","response","","html-keyboard-response","446","646636","0.0-1.0-617.0-0.0","0","0","70637","","91","","","75","68","","","2","68","training","adjacent","DE","4","5","P.jpg","M.jpg","1","1","1","",""
"","feedback","","html-keyboard-response","447","647641","0.0-1.0-618.0-0.0","0","0","70637","","null","","","null","68","","","","","","","","","","","","","","","",""
"","ITI","","html-keyboard-response","448","648646","0.0-1.0-621.0","0","0","70637","","null","","","null","68","","","","","","","","","","","","","","","NaN",""
"","S1","","html-keyboard-response","449","648898","0.0-1.0-623.0","0","0","70637","","null","","","null","69","","","","","","","","","","","","","","","",""
"","ISI","","html-keyboard-response","450","649901","0.0-1.0-624.0","0","0","70637","","null","","","null","69","NaN","","","","","","","","","","","","","","",""
"","S2","","html-keyboard-response","451","650154","0.0-1.0-625.0","0","0","70637","","null","","","null","69","","NaN","","","","","","","","","","","","","",""
"","response","","html-keyboard-response","452","650259","0.0-1.0-626.0-0.0","0","0","70637","","103","","","68","69","","","2","69","training","adjacent","CD","3","4","L.jpg","P.jpg","0","1","0","",""
"","feedback","","html-keyboard-response","453","651262","0.0-1.0-627.0-0.0","0","0","70637","","null","","","null","69","","","","","","","","","","","","","","","",""
"","time_out","","html-keyboard-response","454","653264","0.0-1.0-629.0-0.0","0","0","70637","","null","","","null","69","","","","","","","","","","","","","","","",""
"","ITI","","html-keyboard-response","455","654266","0.0-1.0-630.0","0","0","70637","","null","","","null","69","","","","","","","","","","","","","","","NaN",""
"","S1","","html-keyboard-response","456","654518","0.0-1.0-632.0","0","0","70637","","null","","","null","70","","","","","","","","","","","","","","","",""
"","ISI","","html-keyboard-response","457","655521","0.0-1.0-633.0","0","0","70637","","null","","","null","70","NaN","","","","","","","","","","","","","","",""
"","S2","","html-keyboard-response","458","655774","0.0-1.0-634.0","0","0","70637","","null","","","null","70","","NaN","","","","","","","","","","","","","",""
"","response","","html-keyboard-response","459","655819","0.0-1.0-635.0-0.0","0","0","70637","","43","","","75","70","","","2","70","training","adjacent","BA","2","1","O.jpg","Q.jpg","1","0","0","",""
"","feedback","","html-keyboard-response","460","656824","0.0-1.0-636.0-0.0","0","0","70637","","null","","","null","70","","","","","","","","","","","","","","","",""
"","time_out","","html-keyboard-response","461","658828","0.0-1.0-638.0-0.0","0","0","70637","","null","","","null","70","","","","","","","","","","","","","","","",""
"","ITI","","html-keyboard-response","462","659836","0.0-1.0-639.0","0","0","70637","","null","","","null","70","","","","","","","","","","","","","","","NaN",""
"","S1","","html-keyboard-response","463","660090","0.0-1.0-641.0","0","0","70637","","null","","","null","71","","","","","","","","","","","","","","","",""
"","ISI","","html-keyboard-response","464","661092","0.0-1.0-642.0","0","0","70637","","null","","","null","71","NaN","","","","","","","","","","","","","","",""
"","S2","","html-keyboard-response","465","661348","0.0-1.0-643.0","0","0","70637","","null","","","null","71","","NaN","","","","","","","","","","","","","",""
"","response","","html-keyboard-response","466","661354","0.0-1.0-644.0-0.0","0","0","70637","","0","","","75","71","","","2","71","training","adjacent","FG","6","7","R.jpg","N.jpg","1","1","1","",""
"","feedback","","html-keyboard-response","467","662358","0.0-1.0-645.0-0.0","0","0","70637","","null","","","null","71","","","","","","","","","","","","","","","",""
"","ITI","","html-keyboard-response","468","663361","0.0-1.0-648.0","0","0","70637","","null","","","null","71","","","","","","","","","","","","","","","NaN",""
"","S1","","html-keyboard-response","469","663614","0.0-1.0-650.0","0","0","70637","","null","","","null","72","","","","","","","","","","","","","","","",""
"","ISI","","html-keyboard-response","470","664617","0.0-1.0-651.0","0","0","70637","","null","","","null","72","NaN","","","","","","","","","","","","","","",""
"","S2","","html-keyboard-response","471","664852","0.0-1.0-652.0","0","0","70637","","232","","","75","72","","k","2","72","training","adjacent","BC","2","3","O.jpg","L.jpg","1","1","1","",""
"","feedback","","html-keyboard-response","472","665856","0.0-1.0-654.0-0.0","0","0","70637","","null","","","null","72","","","","","","","","","","","","","","","",""
"","ITI","","html-keyboard-response","473","666858","0.0-1.0-657.0","0","0","70637","","null","","","null","72","","","","","","","","","","","","","","","NaN",""
"","S1","","html-keyboard-response","474","667111","0.0-1.0-659.0","0","0","70637","","null","","","null","73","","","","","","","","","","","","","","","",""
"","ISI","","html-keyboard-response","475","668113","0.0-1.0-660.0","0","0","70637","","null","","","null","73","NaN","","","","","","","","","","","","","","",""
"","S2","","html-keyboard-response","476","668367","0.0-1.0-661.0","0","0","70637","","null","","","null","73","","NaN","","","","","","","","","","","","","",""
"","response","","html-keyboard-response","477","668373","0.0-1.0-662.0-0.0","0","0","70637","","5","","","75","73","","","2","73","training","adjacent","FG","6","7","R.jpg","N.jpg","1","1","1","",""
"","feedback","","html-keyboard-response","478","669377","0.0-1.0-663.0-0.0","0","0","70637","","null","","","null","73","","","","","","","","","","","","","","","",""
"","ITI","","html-keyboard-response","479","670381","0.0-1.0-666.0","0","0","70637","","null","","","null","73","","","","","","","","","","","","","","","NaN",""
"","S1","","html-keyboard-response","480","670634","0.0-1.0-668.0","0","0","70637","","null","","","null","74","","","","","","","","","","","","","","","",""
"","ISI","","html-keyboard-response","481","671637","0.0-1.0-669.0","0","0","70637","","null","","","null","74","NaN","","","","","","","","","","","","","","",""
"","S2","","html-keyboard-response","482","671890","0.0-1.0-670.0","0","0","70637","","null","","","null","74","","NaN","","","","","","","","","","","","","",""
"","response","","html-keyboard-response","483","672333","0.0-1.0-671.0-0.0","0","0","70637","","442","","","68","74","","","2","74","training","adjacent","EF","5","6","M.jpg","R.jpg","0","1","0","",""
"","feedback","","html-keyboard-response","484","673336","0.0-1.0-672.0-0.0","0","0","70637","","null","","","null","74","","","","","","","","","","","","","","","",""
"","time_out","","html-keyboard-response","485","675339","0.0-1.0-674.0-0.0","0","0","70637","","null","","","null","74","","","","","","","","","","","","","","","",""
"","ITI","","html-keyboard-response","486","676341","0.0-1.0-675.0","0","0","70637","","null","","","null","74","","","","","","","","","","","","","","","NaN",""
"","S1","","html-keyboard-response","487","676594","0.0-1.0-677.0","0","0","70637","","null","","","null","75","","","","","","","","","","","","","","","",""
"","ISI","","html-keyboard-response","488","677595","0.0-1.0-678.0","0","0","70637","","null","","","null","75","NaN","","","","","","","","","","","","","","",""
"","S2","","html-keyboard-response","489","677850","0.0-1.0-679.0","0","0","70637","","null","","","null","75","","NaN","","","","","","","","","","","","","",""
"","response","","html-keyboard-response","490","678216","0.0-1.0-680.0-0.0","0","0","70637","","361","","","68","75","","","2","75","training","adjacent","AB","1","2","Q.jpg","O.jpg","0","1","0","",""
"","feedback","","html-keyboard-response","491","679223","0.0-1.0-681.0-0.0","0","0","70637","","null","","","null","75","","","","","","","","","","","","","","","",""
"","time_out","","html-keyboard-response","492","681230","0.0-1.0-683.0-0.0","0","0","70637","","null","","","null","75","","","","","","","","","","","","","","","",""
"","ITI","","html-keyboard-response","493","682235","0.0-1.0-684.0","0","0","70637","","null","","","null","75","","","","","","","","","","","","","","","NaN",""
"","S1","","html-keyboard-response","494","682488","0.0-1.0-686.0","0","0","70637","","null","","","null","76","","","","","","","","","","","","","","","",""
"","ISI","","html-keyboard-response","495","683490","0.0-1.0-687.0","0","0","70637","","null","","","null","76","NaN","","","","","","","","","","","","","","",""
"","S2","","html-keyboard-response","496","683729","0.0-1.0-688.0","0","0","70637","","236","","","75","76","","k","2","76","training","adjacent","FE","6","5","R.jpg","M.jpg","1","0","0","",""
"","feedback","","html-keyboard-response","497","684731","0.0-1.0-690.0-0.0","0","0","70637","","null","","","null","76","","","","","","","","","","","","","","","",""
"","time_out","","html-keyboard-response","498","686735","0.0-1.0-692.0-0.0","0","0","70637","","null","","","null","76","","","","","","","","","","","","","","","",""
"","ITI","","html-keyboard-response","499","687737","0.0-1.0-693.0","0","0","70637","","null","","","null","76","","","","","","","","","","","","","","","NaN",""
"","S1","","html-keyboard-response","500","687989","0.0-1.0-695.0","0","0","70637","","null","","","null","77","","","","","","","","","","","","","","","",""
"","ISI","","html-keyboard-response","501","688991","0.0-1.0-696.0","0","0","70637","","null","","","null","77","NaN","","","","","","","","","","","","","","",""
"","S2","","html-keyboard-response","502","689245","0.0-1.0-697.0","0","0","70637","","null","","","null","77","","NaN","","","","","","","","","","","","","",""
"","response","","html-keyboard-response","503","689277","0.0-1.0-698.0-0.0","0","0","70637","","30","","","75","77","","","2","77","training","adjacent","CD","3","4","L.jpg","P.jpg","1","1","1","",""
"","feedback","","html-keyboard-response","504","690281","0.0-1.0-699.0-0.0","0","0","70637","","null","","","null","77","","","","","","","","","","","","","","","",""
"","ITI","","html-keyboard-response","505","691283","0.0-1.0-702.0","0","0","70637","","null","","","null","77","","","","","","","","","","","","","","","NaN",""
"","S1","","html-keyboard-response","506","691536","0.0-1.0-704.0","0","0","70637","","null","","","null","78","","","","","","","","","","","","","","","",""
"","ISI","","html-keyboard-response","507","692538","0.0-1.0-705.0","0","0","70637","","null","","","null","78","NaN","","","","","","","","","","","","","","",""
"","S2","","html-keyboard-response","508","692793","0.0-1.0-706.0","0","0","70637","","null","","","null","78","","NaN","","","","","","","","","","","","","",""
"","response","","html-keyboard-response","509","692797","0.0-1.0-707.0-0.0","0","0","70637","","0","","","75","78","","","2","78","training","adjacent","GF","7","6","N.jpg","R.jpg","1","0","0","",""
"","feedback","","html-keyboard-response","510","693801","0.0-1.0-708.0-0.0","0","0","70637","","null","","","null","78","","","","","","","","","","","","","","","",""
"","time_out","","html-keyboard-response","511","695803","0.0-1.0-710.0-0.0","0","0","70637","","null","","","null","78","","","","","","","","","","","","","","","",""
"","ITI","","html-keyboard-response","512","696806","0.0-1.0-711.0","0","0","70637","","null","","","null","78","","","","","","","","","","","","","","","NaN",""
"","S1","","html-keyboard-response","513","697059","0.0-1.0-713.0","0","0","70637","","null","","","null","79","","","","","","","","","","","","","","","",""
"","ISI","","html-keyboard-response","514","698061","0.0-1.0-714.0","0","0","70637","","null","","","null","79","NaN","","","","","","","","","","","","","","",""
"","S2","","html-keyboard-response","515","698312","0.0-1.0-715.0","0","0","70637","","249","","","75","79","","k","2","79","training","adjacent","EF","5","6","M.jpg","R.jpg","1","1","1","",""
"","feedback","","html-keyboard-response","516","699315","0.0-1.0-717.0-0.0","0","0","70637","","null","","","null","79","","","","","","","","","","","","","","","",""
"","ITI","","html-keyboard-response","517","700319","0.0-1.0-720.0","0","0","70637","","null","","","null","79","","","","","","","","","","","","","","","NaN",""
"","S1","","html-keyboard-response","518","700571","0.0-1.0-722.0","0","0","70637","","null","","","null","80","","","","","","","","","","","","","","","",""
"","ISI","","html-keyboard-response","519","701574","0.0-1.0-723.0","0","0","70637","","null","","","null","80","NaN","","","","","","","","","","","","","","",""
"","S2","","html-keyboard-response","520","701829","0.0-1.0-724.0","0","0","70637","","null","","","null","80","","NaN","","","","","","","","","","","","","",""
"","response","","html-keyboard-response","521","701904","0.0-1.0-725.0-0.0","0","0","70637","","74","","","68","80","","","2","80","training","adjacent","CB","3","2","L.jpg","O.jpg","0","0","1","",""
"","feedback","","html-keyboard-response","522","702907","0.0-1.0-726.0-0.0","0","0","70637","","null","","","null","80","","","","","","","","","","","","","","","",""
"","ITI","","html-keyboard-response","523","703909","0.0-1.0-729.0","0","0","70637","","null","","","null","80","","","","","","","","","","","","","","","NaN",""
"","S1","","html-keyboard-response","524","704162","0.0-1.0-731.0","0","0","70637","","null","","","null","81","","","","","","","","","","","","","","","",""
"","ISI","","html-keyboard-response","525","705164","0.0-1.0-732.0","0","0","70637","","null","","","null","81","NaN","","","","","","","","","","","","","","",""
"","S2","","html-keyboard-response","526","705417","0.0-1.0-733.0","0","0","70637","","null","","","null","81","","NaN","","","","","","","","","","","","","",""
"","response","","html-keyboard-response","527","705581","0.0-1.0-734.0-0.0","0","0","70637","","162","","","75","81","","","2","81","training","adjacent","CD","3","4","L.jpg","P.jpg","1","1","1","",""
"","feedback","","html-keyboard-response","528","706584","0.0-1.0-735.0-0.0","0","0","70637","","null","","","null","81","","","","","","","","","","","","","","","",""
"","ITI","","html-keyboard-response","529","707587","0.0-1.0-738.0","0","0","70637","","null","","","null","81","","","","","","","","","","","","","","","NaN",""
"","S1","","html-keyboard-response","530","707842","0.0-1.0-740.0","0","0","70637","","null","","","null","82","","","","","","","","","","","","","","","",""
"","ISI","","html-keyboard-response","531","708845","0.0-1.0-741.0","0","0","70637","","null","","","null","82","NaN","","","","","","","","","","","","","","",""
"","S2","","html-keyboard-response","532","709098","0.0-1.0-742.0","0","0","70637","","null","","","null","82","","NaN","","","","","","","","","","","","","",""
"","response","","html-keyboard-response","533","709161","0.0-1.0-743.0-0.0","0","0","70637","","61","","","68","82","","","2","82","training","adjacent","ED","5","4","M.jpg","P.jpg","0","0","1","",""
"","feedback","","html-keyboard-response","534","710164","0.0-1.0-744.0-0.0","0","0","70637","","null","","","null","82","","","","","","","","","","","","","","","",""
"","ITI","","html-keyboard-response","535","711167","0.0-1.0-747.0","0","0","70637","","null","","","null","82","","","","","","","","","","","","","","","NaN",""
"","S1","","html-keyboard-response","536","711420","0.0-1.0-749.0","0","0","70637","","null","","","null","83","","","","","","","","","","","","","","","",""
"","ISI","","html-keyboard-response","537","712424","0.0-1.0-750.0","0","0","70637","","null","","","null","83","NaN","","","","","","","","","","","","","","",""
"","S2","","html-keyboard-response","538","712670","0.0-1.0-751.0","0","0","70637","","244","","","68","83","","d","2","83","training","adjacent","GF","7","6","N.jpg","R.jpg","0","0","1","",""
"","feedback","","html-keyboard-response","539","713673","0.0-1.0-753.0-0.0","0","0","70637","","null","","","null","83","","","","","","","","","","","","","","","",""
"","ITI","","html-keyboard-response","540","714675","0.0-1.0-756.0","0","0","70637","","null","","","null","83","","","","","","","","","","","","","","","NaN",""
"","S1","","html-keyboard-response","541","714928","0.0-1.0-758.0","0","0","70637","","null","","","null","84","","","","","","","","","","","","","","","",""
"","ISI","","html-keyboard-response","542","715931","0.0-1.0-759.0","0","0","70637","","null","","","null","84","NaN","","","","","","","","","","","","","","",""
"","S2","","html-keyboard-response","543","716183","0.0-1.0-760.0","0","0","70637","","null","","","null","84","","NaN","","","","","","","","","","","","","",""
"","response","","html-keyboard-response","544","717061","0.0-1.0-761.0-0.0","0","0","70637","","875","","","68","84","","","2","84","training","adjacent","BA","2","1","O.jpg","Q.jpg","0","0","1","",""
"","feedback","","html-keyboard-response","545","718065","0.0-1.0-762.0-0.0","0","0","70637","","null","","","null","84","","","","","","","","","","","","","","","",""
"","ITI","","html-keyboard-response","546","719067","0.0-1.0-765.0","0","0","70637","","null","","","null","84","","","","","","","","","","","","","","","NaN",""
"","S1","","html-keyboard-response","547","719320","0.0-1.0-767.0","0","0","70637","","null","","","null","85","","","","","","","","","","","","","","","",""
"","ISI","","html-keyboard-response","548","720322","0.0-1.0-768.0","0","0","70637","","null","","","null","85","NaN","","","","","","","","","","","","","","",""
"","S2","","html-keyboard-response","549","720574","0.0-1.0-769.0","0","0","70637","","null","","","null","85","","NaN","","","","","","","","","","","","","",""
"","response","","html-keyboard-response","550","721458","0.0-1.0-770.0-0.0","0","0","70637","","882","","","68","85","","","2","85","training","adjacent","BA","2","1","O.jpg","Q.jpg","0","0","1","",""
"","feedback","","html-keyboard-response","551","722461","0.0-1.0-771.0-0.0","0","0","70637","","null","","","null","85","","","","","","","","","","","","","","","",""
"","ITI","","html-keyboard-response","552","723464","0.0-1.0-774.0","0","0","70637","","null","","","null","85","","","","","","","","","","","","","","","NaN",""
"","S1","","html-keyboard-response","553","723718","0.0-1.0-776.0","0","0","70637","","null","","","null","86","","","","","","","","","","","","","","","",""
"","ISI","","html-keyboard-response","554","724719","0.0-1.0-777.0","0","0","70637","","null","","","null","86","NaN","","","","","","","","","","","","","","",""
"","S2","","html-keyboard-response","555","724974","0.0-1.0-778.0","0","0","70637","","null","","","null","86","","NaN","","","","","","","","","","","","","",""
"","response","","html-keyboard-response","556","725778","0.0-1.0-779.0-0.0","0","0","70637","","802","","","75","86","","","2","86","training","adjacent","AB","1","2","Q.jpg","O.jpg","1","1","1","",""
"","feedback","","html-keyboard-response","557","726781","0.0-1.0-780.0-0.0","0","0","70637","","null","","","null","86","","","","","","","","","","","","","","","",""
"","ITI","","html-keyboard-response","558","727785","0.0-1.0-783.0","0","0","70637","","null","","","null","86","","","","","","","","","","","","","","","NaN",""
"","S1","","html-keyboard-response","559","728038","0.0-1.0-785.0","0","0","70637","","null","","","null","87","","","","","","","","","","","","","","","",""
"","ISI","","html-keyboard-response","560","729043","0.0-1.0-786.0","0","0","70637","","null","","","null","87","NaN","","","","","","","","","","","","","","",""
"","S2","","html-keyboard-response","561","729296","0.0-1.0-787.0","0","0","70637","","null","","","null","87","","NaN","","","","","","","","","","","","","",""
"","response","","html-keyboard-response","562","730050","0.0-1.0-788.0-0.0","0","0","70637","","751","","","68","87","","","2","87","training","adjacent","GF","7","6","N.jpg","R.jpg","0","0","1","",""
"","feedback","","html-keyboard-response","563","731053","0.0-1.0-789.0-0.0","0","0","70637","","null","","","null","87","","","","","","","","","","","","","","","",""
"","ITI","","html-keyboard-response","564","732057","0.0-1.0-792.0","0","0","70637","","null","","","null","87","","","","","","","","","","","","","","","NaN",""
"","S1","","html-keyboard-response","565","732310","0.0-1.0-794.0","0","0","70637","","null","","","null","88","","","","","","","","","","","","","","","",""
"","ISI","","html-keyboard-response","566","733313","0.0-1.0-795.0","0","0","70637","","null","","","null","88","NaN","","","","","","","","","","","","","","",""
"","S2","","html-keyboard-response","567","733566","0.0-1.0-796.0","0","0","70637","","null","","","null","88","","NaN","","","","","","","","","","","","","",""
"","response","","html-keyboard-response","568","734143","0.0-1.0-797.0-0.0","0","0","70637","","576","","","75","88","","","2","88","training","adjacent","DC","4","3","P.jpg","L.jpg","1","0","0","",""
"","feedback","","html-keyboard-response","569","735147","0.0-1.0-798.0-0.0","0","0","70637","","null","","","null","88","","","","","","","","","","","","","","","",""
"","time_out","","html-keyboard-response","570","737150","0.0-1.0-800.0-0.0","0","0","70637","","null","","","null","88","","","","","","","","","","","","","","","",""
"","ITI","","html-keyboard-response","571","738152","0.0-1.0-801.0","0","0","70637","","null","","","null","88","","","","","","","","","","","","","","","NaN",""
"","S1","","html-keyboard-response","572","738406","0.0-1.0-803.0","0","0","70637","","null","","","null","89","","","","","","","","","","","","","","","",""
"","ISI","","html-keyboard-response","573","739408","0.0-1.0-804.0","0","0","70637","","null","","","null","89","NaN","","","","","","","","","","","","","","",""
"","S2","","html-keyboard-response","574","739660","0.0-1.0-805.0","0","0","70637","","null","","","null","89","","NaN","","","","","","","","","","","","","",""
"","response","","html-keyboard-response","575","740402","0.0-1.0-806.0-0.0","0","0","70637","","740","","","68","89","","","2","89","training","adjacent","FE","6","5","R.jpg","M.jpg","0","0","1","",""
"","feedback","","html-keyboard-response","576","741407","0.0-1.0-807.0-0.0","0","0","70637","","null","","","null","89","","","","","","","","","","","","","","","",""
"","ITI","","html-keyboard-response","577","742412","0.0-1.0-810.0","0","0","70637","","null","","","null","89","","","","","","","","","","","","","","","NaN",""
"","S1","","html-keyboard-response","578","742666","0.0-1.0-812.0","0","0","70637","","null","","","null","90","","","","","","","","","","","","","","","",""
"","ISI","","html-keyboard-response","579","743669","0.0-1.0-813.0","0","0","70637","","null","","","null","90","NaN","","","","","","","","","","","","","","",""
"","S2","","html-keyboard-response","580","743921","0.0-1.0-814.0","0","0","70637","","null","","","null","90","","NaN","","","","","","","","","","","","","",""
"","response","","html-keyboard-response","581","744480","0.0-1.0-815.0-0.0","0","0","70637","","557","","","75","90","","","2","90","training","adjacent","BA","2","1","O.jpg","Q.jpg","1","0","0","",""
"","feedback","","html-keyboard-response","582","745483","0.0-1.0-816.0-0.0","0","0","70637","","null","","","null","90","","","","","","","","","","","","","","","",""
