"success","ttype","start_time","trial_type","trial_index","time_elapsed","internal_node_id","warning","missed_checkup","PID","view_history","rt","responses","repeat_instructions","key_press","index","keypress_isi","keypress_S2","block","trial_num","phase","group_type","pair_type","S1_stim","S2_stim","S1_img","S2_img","S1_chosen","S1_higher","accuracy","keypress_iti","total_bonus_tally"
"true","full_screen","d04062023hr1759","fullscreen","0","25006","0.0-0.0","0","0","47578","","","","","","","","","","","","","","","","","","","","","",""
"","instructions","","instructions","1","155759","0.0-1.0-0.0-0.0","0","0","47578","[{""page_index"":0,""viewing_time"":91406},{""page_index"":1,""viewing_time"":14462},{""page_index"":0,""viewing_time"":1591},{""page_index"":1,""viewing_time"":11803},{""page_index"":2,""viewing_time"":923},{""page_index"":1,""viewing_time"":4937},{""page_index"":2,""viewing_time"":3236},{""page_index"":3,""viewing_time"":2392}]","130751","","","","","","","","","","","","","","","","","","","",""
"","comprehension_check","","survey-multi-choice","2","179550","0.0-1.0-0.0-1.0","0","0","47578","","23788","{""Q0"":""True"",""Q1"":""D"",""Q2"":""Only when the screen 'MAKE A CHOICE' is shown"",""Q3"":""Green mark"",""Q4"":""either D or K""}","1","","","","","","","","","","","","","","","","","",""
"","missed_instruction_checkup","","html-keyboard-response","3","183695","0.0-1.0-0.0-2.0-0.0","0","1","47578","","4143","","","32","","","","","","","","","","","","","","","","",""
"","instructions","","instructions","4","246907","0.0-1.0-0.1-0.1","0","0","47578","[{""page_index"":0,""viewing_time"":4147},{""page_index"":1,""viewing_time"":1578},{""page_index"":2,""viewing_time"":8882},{""page_index"":1,""viewing_time"":1155},{""page_index"":2,""viewing_time"":10386},{""page_index"":3,""viewing_time"":1055},{""page_index"":2,""viewing_time"":638},{""page_index"":1,""viewing_time"":33706},{""page_index"":2,""viewing_time"":1131},{""page_index"":3,""viewing_time"":533}]","63212","","","","","","","","","","","","","","","","","","","",""
"","comprehension_check","","survey-multi-choice","5","259685","0.0-1.0-0.1-1.1","0","0","47578","","12774","{""Q0"":""True"",""Q1"":""D"",""Q2"":""Once the second image appears and while the screen 'MAKE A CHOICE' is shown"",""Q3"":""Green mark"",""Q4"":""either D or K""}","0","","","","","","","","","","","","","","","","","",""
"","start_exp","","html-keyboard-response","6","261512","0.0-1.0-1.0","0","0","47578","","1826","","","32","","","","","","","","","","","","","","","","",""
"","S1","","html-keyboard-response","7","261665","0.0-1.0-2.0","0","0","47578","","null","","","null","0","","","","","","","","","","","","","","","",""
"","ISI","","html-keyboard-response","8","263670","0.0-1.0-3.0","0","0","47578","","null","","","null","0","NaN","","","","","","","","","","","","","","",""
"","S2","","html-keyboard-response","9","263822","0.0-1.0-4.0","0","0","47578","","null","","","null","0","","NaN","","","","","","","","","","","","","",""
"","response","","html-keyboard-response","10","265115","0.0-1.0-5.0-0.0","0","0","47578","","1291","","","75","0","","","1","0","training","adjacent","GF","7","6","M.jpg","N.jpg","0","0","1","",""
"","feedback","","html-keyboard-response","11","266118","0.0-1.0-6.0-0.0","0","0","47578","","null","","","null","0","","","","","","","","","","","","","","","",""
"","ITI","","html-keyboard-response","12","267121","0.0-1.0-9.0","0","0","47578","","null","","","null","0","","","","","","","","","","","","","","","NaN",""
"","S1","","html-keyboard-response","13","267273","0.0-1.0-11.0","0","0","47578","","null","","","null","1","","","","","","","","","","","","","","","",""
"","ISI","","html-keyboard-response","14","269278","0.0-1.0-12.0","0","0","47578","","null","","","null","1","NaN","","","","","","","","","","","","","","",""
"","S2","","html-keyboard-response","15","269429","0.0-1.0-13.0","0","0","47578","","null","","","null","1","","NaN","","","","","","","","","","","","","",""
"","response","","html-keyboard-response","16","270262","0.0-1.0-14.0-0.0","0","0","47578","","831","","","68","1","","","1","1","training","adjacent","EF","5","6","P.jpg","N.jpg","1","1","1","",""
"","feedback","","html-keyboard-response","17","271266","0.0-1.0-15.0-0.0","0","0","47578","","null","","","null","1","","","","","","","","","","","","","","","",""
"","ITI","","html-keyboard-response","18","272270","0.0-1.0-18.0","0","0","47578","","null","","","null","1","","","","","","","","","","","","","","","NaN",""
"","S1","","html-keyboard-response","19","272421","0.0-1.0-20.0","0","0","47578","","null","","","null","2","","","","","","","","","","","","","","","",""
"","ISI","","html-keyboard-response","20","274422","0.0-1.0-21.0","0","0","47578","","null","","","null","2","NaN","","","","","","","","","","","","","","",""
"","S2","","html-keyboard-response","21","274577","0.0-1.0-22.0","0","0","47578","","null","","","null","2","","NaN","","","","","","","","","","","","","",""
"","response","","html-keyboard-response","22","274782","0.0-1.0-23.0-0.0","0","0","47578","","203","","","68","2","","","1","2","training","adjacent","ED","5","4","P.jpg","Q.jpg","1","0","0","",""
"","feedback","","html-keyboard-response","23","275786","0.0-1.0-24.0-0.0","0","0","47578","","null","","","null","2","","","","","","","","","","","","","","","",""
"","time_out","","html-keyboard-response","24","277789","0.0-1.0-26.0-0.0","0","0","47578","","null","","","null","2","","","","","","","","","","","","","","","",""
"","ITI","","html-keyboard-response","25","278794","0.0-1.0-27.0","0","0","47578","","null","","","null","2","","","","","","","","","","","","","","","NaN",""
"","S1","","html-keyboard-response","26","278946","0.0-1.0-29.0","0","0","47578","","null","","","null","3","","","","","","","","","","","","","","","",""
"","ISI","","html-keyboard-response","27","280950","0.0-1.0-30.0","0","0","47578","","null","","","null","3","NaN","","","","","","","","","","","","","","",""
"","S2","","html-keyboard-response","28","281102","0.0-1.0-31.0","0","0","47578","","null","","","null","3","","NaN","","","","","","","","","","","","","",""
"","response","","html-keyboard-response","29","282105","0.0-1.0-32.0-0.0","0","0","47578","","1001","","","68","3","","","1","3","training","adjacent","DE","4","5","Q.jpg","P.jpg","1","1","1","",""
"","feedback","","html-keyboard-response","30","283106","0.0-1.0-33.0-0.0","0","0","47578","","null","","","null","3","","","","","","","","","","","","","","","",""
"","ITI","","html-keyboard-response","31","284109","0.0-1.0-36.0","0","0","47578","","null","","","null","3","","","","","","","","","","","","","","","NaN",""
"","S1","","html-keyboard-response","32","284261","0.0-1.0-38.0","0","0","47578","","null","","","null","4","","","","","","","","","","","","","","","",""
"","ISI","","html-keyboard-response","33","286267","0.0-1.0-39.0","0","0","47578","","null","","","null","4","NaN","","","","","","","","","","","","","","",""
"","S2","","html-keyboard-response","34","286418","0.0-1.0-40.0","0","0","47578","","null","","","null","4","","NaN","","","","","","","","","","","","","",""
"","response","","html-keyboard-response","35","287124","0.0-1.0-41.0-0.0","0","0","47578","","705","","","75","4","","","1","4","training","adjacent","BA","2","1","R.jpg","L.jpg","0","0","1","",""
"","feedback","","html-keyboard-response","36","288125","0.0-1.0-42.0-0.0","0","0","47578","","null","","","null","4","","","","","","","","","","","","","","","",""
"","ITI","","html-keyboard-response","37","289130","0.0-1.0-45.0","0","0","47578","","null","","","null","4","","","","","","","","","","","","","","","NaN",""
"","S1","","html-keyboard-response","38","289283","0.0-1.0-47.0","0","0","47578","","null","","","null","5","","","","","","","","","","","","","","","",""
"","ISI","","html-keyboard-response","39","291285","0.0-1.0-48.0","0","0","47578","","null","","","null","5","NaN","","","","","","","","","","","","","","",""
"","S2","","html-keyboard-response","40","291438","0.0-1.0-49.0","0","0","47578","","null","","","null","5","","NaN","","","","","","","","","","","","","",""
"","response","","html-keyboard-response","41","292310","0.0-1.0-50.0-0.0","0","0","47578","","870","","","68","5","","","1","5","training","adjacent","GF","7","6","M.jpg","N.jpg","1","0","0","",""
"","feedback","","html-keyboard-response","42","293313","0.0-1.0-51.0-0.0","0","0","47578","","null","","","null","5","","","","","","","","","","","","","","","",""
"","time_out","","html-keyboard-response","43","295317","0.0-1.0-53.0-0.0","0","0","47578","","null","","","null","5","","","","","","","","","","","","","","","",""
"","ITI","","html-keyboard-response","44","296322","0.0-1.0-54.0","0","0","47578","","null","","","null","5","","","","","","","","","","","","","","","NaN",""
"","S1","","html-keyboard-response","45","296473","0.0-1.0-56.0","0","0","47578","","null","","","null","6","","","","","","","","","","","","","","","",""
"","ISI","","html-keyboard-response","46","298477","0.0-1.0-57.0","0","0","47578","","null","","","null","6","NaN","","","","","","","","","","","","","","",""
"","S2","","html-keyboard-response","47","298629","0.0-1.0-58.0","0","0","47578","","null","","","null","6","","NaN","","","","","","","","","","","","","",""
"","response","","html-keyboard-response","48","299190","0.0-1.0-59.0-0.0","0","0","47578","","559","","","68","6","","","1","6","training","adjacent","CD","3","4","O.jpg","Q.jpg","1","1","1","",""
"","feedback","","html-keyboard-response","49","300194","0.0-1.0-60.0-0.0","0","0","47578","","null","","","null","6","","","","","","","","","","","","","","","",""
"","ITI","","html-keyboard-response","50","301198","0.0-1.0-63.0","0","0","47578","","null","","","null","6","","","","","","","","","","","","","","","NaN",""
"","S1","","html-keyboard-response","51","301354","0.0-1.0-65.0","0","0","47578","","null","","","null","7","","","","","","","","","","","","","","","",""
"","ISI","","html-keyboard-response","52","303357","0.0-1.0-66.0","0","0","47578","","null","","","null","7","NaN","","","","","","","","","","","","","","",""
"","S2","","html-keyboard-response","53","303509","0.0-1.0-67.0","0","0","47578","","null","","","null","7","","NaN","","","","","","","","","","","","","",""
"","response","","html-keyboard-response","54","304007","0.0-1.0-68.0-0.0","0","0","47578","","497","","","75","7","","","1","7","training","adjacent","CB","3","2","O.jpg","R.jpg","0","0","1","",""
"","feedback","","html-keyboard-response","55","305013","0.0-1.0-69.0-0.0","0","0","47578","","null","","","null","7","","","","","","","","","","","","","","","",""
"","ITI","","html-keyboard-response","56","306018","0.0-1.0-72.0","0","0","47578","","null","","","null","7","","","","","","","","","","","","","","","NaN",""
"","S1","","html-keyboard-response","57","306169","0.0-1.0-74.0","0","0","47578","","null","","","null","8","","","","","","","","","","","","","","","",""
"","ISI","","html-keyboard-response","58","308173","0.0-1.0-75.0","0","0","47578","","null","","","null","8","NaN","","","","","","","","","","","","","","",""
"","S2","","html-keyboard-response","59","308325","0.0-1.0-76.0","0","0","47578","","null","","","null","8","","NaN","","","","","","","","","","","","","",""
"","response","","html-keyboard-response","60","309171","0.0-1.0-77.0-0.0","0","0","47578","","845","","","75","8","","","1","8","training","adjacent","ED","5","4","P.jpg","Q.jpg","0","0","1","",""
"","feedback","","html-keyboard-response","61","310173","0.0-1.0-78.0-0.0","0","0","47578","","null","","","null","8","","","","","","","","","","","","","","","",""
"","ITI","","html-keyboard-response","62","311178","0.0-1.0-81.0","0","0","47578","","null","","","null","8","","","","","","","","","","","","","","","NaN",""
"","S1","","html-keyboard-response","63","311333","0.0-1.0-83.0","0","0","47578","","null","","","null","9","","","","","","","","","","","","","","","",""
"","ISI","","html-keyboard-response","64","313336","0.0-1.0-84.0","0","0","47578","","null","","","null","9","NaN","","","","","","","","","","","","","","",""
"","S2","","html-keyboard-response","65","313489","0.0-1.0-85.0","0","0","47578","","null","","","null","9","","NaN","","","","","","","","","","","","","",""
"","response","","html-keyboard-response","66","313948","0.0-1.0-86.0-0.0","0","0","47578","","458","","","68","9","","","1","9","training","adjacent","CB","3","2","O.jpg","R.jpg","1","0","0","",""
"","feedback","","html-keyboard-response","67","314950","0.0-1.0-87.0-0.0","0","0","47578","","null","","","null","9","","","","","","","","","","","","","","","",""
"","time_out","","html-keyboard-response","68","316953","0.0-1.0-89.0-0.0","0","0","47578","","null","","","null","9","","","","","","","","","","","","","","","",""
"","ITI","","html-keyboard-response","69","317957","0.0-1.0-90.0","0","0","47578","","null","","","null","9","","","","","","","","","","","","","","","NaN",""
"","S1","","html-keyboard-response","70","318109","0.0-1.0-92.0","0","0","47578","","null","","","null","10","","","","","","","","","","","","","","","",""
"","ISI","","html-keyboard-response","71","320113","0.0-1.0-93.0","0","0","47578","","null","","","null","10","NaN","","","","","","","","","","","","","","",""
"","S2","","html-keyboard-response","72","320265","0.0-1.0-94.0","0","0","47578","","null","","","null","10","","NaN","","","","","","","","","","","","","",""
"","response","","html-keyboard-response","73","320484","0.0-1.0-95.0-0.0","0","0","47578","","218","","","68","10","","","1","10","training","adjacent","ED","5","4","P.jpg","Q.jpg","1","0","0","",""
"","feedback","","html-keyboard-response","74","321486","0.0-1.0-96.0-0.0","0","0","47578","","null","","","null","10","","","","","","","","","","","","","","","",""
"","time_out","","html-keyboard-response","75","323489","0.0-1.0-98.0-0.0","0","0","47578","","null","","","null","10","","","","","","","","","","","","","","","",""
"","ITI","","html-keyboard-response","76","324493","0.0-1.0-99.0","0","0","47578","","null","","","null","10","","","","","","","","","","","","","","","NaN",""
"","S1","","html-keyboard-response","77","324646","0.0-1.0-101.0","0","0","47578","","null","","","null","11","","","","","","","","","","","","","","","",""
"","ISI","","html-keyboard-response","78","326649","0.0-1.0-102.0","0","0","47578","","null","","","null","11","NaN","","","","","","","","","","","","","","",""
"","S2","","html-keyboard-response","79","326802","0.0-1.0-103.0","0","0","47578","","null","","","null","11","","NaN","","","","","","","","","","","","","",""
"","response","","html-keyboard-response","80","327340","0.0-1.0-104.0-0.0","0","0","47578","","537","","","75","11","","","1","11","training","adjacent","BC","2","3","R.jpg","O.jpg","0","1","0","",""
"","feedback","","html-keyboard-response","81","328342","0.0-1.0-105.0-0.0","0","0","47578","","null","","","null","11","","","","","","","","","","","","","","","",""
"","time_out","","html-keyboard-response","82","330346","0.0-1.0-107.0-0.0","0","0","47578","","null","","","null","11","","","","","","","","","","","","","","","",""
"","ITI","","html-keyboard-response","83","331349","0.0-1.0-108.0","0","0","47578","","null","","","null","11","","","","","","","","","","","","","","","NaN",""
"","S1","","html-keyboard-response","84","331501","0.0-1.0-110.0","0","0","47578","","null","","","null","12","","","","","","","","","","","","","","","",""
"","ISI","","html-keyboard-response","85","333502","0.0-1.0-111.0","0","0","47578","","null","","","null","12","NaN","","","","","","","","","","","","","","",""
"","S2","","html-keyboard-response","86","333653","0.0-1.0-112.0","0","0","47578","","null","","","null","12","","NaN","","","","","","","","","","","","","",""
"","response","","html-keyboard-response","87","334578","0.0-1.0-113.0-0.0","0","0","47578","","924","","","68","12","","","1","12","training","adjacent","FG","6","7","N.jpg","M.jpg","1","1","1","",""
"","feedback","","html-keyboard-response","88","335581","0.0-1.0-114.0-0.0","0","0","47578","","null","","","null","12","","","","","","","","","","","","","","","",""
"","ITI","","html-keyboard-response","89","336585","0.0-1.0-117.0","0","0","47578","","null","","","null","12","","","","","","","","","","","","","","","NaN",""
"","S1","","html-keyboard-response","90","336738","0.0-1.0-119.0","0","0","47578","","null","","","null","13","","","","","","","","","","","","","","","",""
"","ISI","","html-keyboard-response","91","338742","0.0-1.0-120.0","0","0","47578","","null","","","null","13","NaN","","","","","","","","","","","","","","",""
"","S2","","html-keyboard-response","92","338894","0.0-1.0-121.0","0","0","47578","","null","","","null","13","","NaN","","","","","","","","","","","","","",""
"","response","","html-keyboard-response","93","340069","0.0-1.0-122.0-0.0","0","0","47578","","1174","","","75","13","","","1","13","training","adjacent","DC","4","3","Q.jpg","O.jpg","0","0","1","",""
"","feedback","","html-keyboard-response","94","341073","0.0-1.0-123.0-0.0","0","0","47578","","null","","","null","13","","","","","","","","","","","","","","","",""
"","ITI","","html-keyboard-response","95","342078","0.0-1.0-126.0","0","0","47578","","null","","","null","13","","","","","","","","","","","","","","","NaN",""
"","S1","","html-keyboard-response","96","342232","0.0-1.0-128.0","0","0","47578","","null","","","null","14","","","","","","","","","","","","","","","",""
"","ISI","","html-keyboard-response","97","344234","0.0-1.0-129.0","0","0","47578","","null","","","null","14","NaN","","","","","","","","","","","","","","",""
"","S2","","html-keyboard-response","98","344386","0.0-1.0-130.0","0","0","47578","","null","","","null","14","","NaN","","","","","","","","","","","","","",""
"","response","","html-keyboard-response","99","345066","0.0-1.0-131.0-0.0","0","0","47578","","679","","","68","14","","","1","14","training","adjacent","AB","1","2","L.jpg","R.jpg","1","1","1","",""
"","feedback","","html-keyboard-response","100","346069","0.0-1.0-132.0-0.0","0","0","47578","","null","","","null","14","","","","","","","","","","","","","","","",""
"","ITI","","html-keyboard-response","101","347073","0.0-1.0-135.0","0","0","47578","","null","","","null","14","","","","","","","","","","","","","","","NaN",""
"","S1","","html-keyboard-response","102","347225","0.0-1.0-137.0","0","0","47578","","null","","","null","15","","","","","","","","","","","","","","","",""
"","ISI","","html-keyboard-response","103","349229","0.0-1.0-138.0","0","0","47578","","null","","","null","15","NaN","","","","","","","","","","","","","","",""
"","S2","","html-keyboard-response","104","349381","0.0-1.0-139.0","0","0","47578","","null","","","null","15","","NaN","","","","","","","","","","","","","",""
"","response","","html-keyboard-response","105","350266","0.0-1.0-140.0-0.0","0","0","47578","","884","","","68","15","","","1","15","training","adjacent","DE","4","5","Q.jpg","P.jpg","1","1","1","",""
"","feedback","","html-keyboard-response","106","351270","0.0-1.0-141.0-0.0","0","0","47578","","null","","","null","15","","","","","","","","","","","","","","","",""
"","ITI","","html-keyboard-response","107","352273","0.0-1.0-144.0","0","0","47578","","null","","","null","15","","","","","","","","","","","","","","","NaN",""
"","S1","","html-keyboard-response","108","352426","0.0-1.0-146.0","0","0","47578","","null","","","null","16","","","","","","","","","","","","","","","",""
"","ISI","","html-keyboard-response","109","354429","0.0-1.0-147.0","0","0","47578","","null","","","null","16","NaN","","","","","","","","","","","","","","",""
"","S2","","html-keyboard-response","110","354581","0.0-1.0-148.0","0","0","47578","","null","","","null","16","","NaN","","","","","","","","","","","","","",""
"","response","","html-keyboard-response","111","355573","0.0-1.0-149.0-0.0","0","0","47578","","991","","","75","16","","","1","16","training","adjacent","FG","6","7","N.jpg","M.jpg","0","1","0","",""
"","feedback","","html-keyboard-response","112","356577","0.0-1.0-150.0-0.0","0","0","47578","","null","","","null","16","","","","","","","","","","","","","","","",""
"","time_out","","html-keyboard-response","113","358581","0.0-1.0-152.0-0.0","0","0","47578","","null","","","null","16","","","","","","","","","","","","","","","",""
"","ITI","","html-keyboard-response","114","359586","0.0-1.0-153.0","0","0","47578","","null","","","null","16","","","","","","","","","","","","","","","NaN",""
"","S1","","html-keyboard-response","115","359737","0.0-1.0-155.0","0","0","47578","","null","","","null","17","","","","","","","","","","","","","","","",""
"","ISI","","html-keyboard-response","116","361742","0.0-1.0-156.0","0","0","47578","","null","","","null","17","NaN","","","","","","","","","","","","","","",""
"","S2","","html-keyboard-response","117","361898","0.0-1.0-157.0","0","0","47578","","null","","","null","17","","NaN","","","","","","","","","","","","","",""
"","response","","html-keyboard-response","118","362532","0.0-1.0-158.0-0.0","0","0","47578","","633","","","68","17","","","1","17","training","adjacent","BA","2","1","R.jpg","L.jpg","1","0","0","",""
"","feedback","","html-keyboard-response","119","363538","0.0-1.0-159.0-0.0","0","0","47578","","null","","","null","17","","","","","","","","","","","","","","","",""
"","time_out","","html-keyboard-response","120","365541","0.0-1.0-161.0-0.0","0","0","47578","","null","","","null","17","","","","","","","","","","","","","","","",""
"","ITI","","html-keyboard-response","121","366545","0.0-1.0-162.0","0","0","47578","","null","","","null","17","","","","","","","","","","","","","","","NaN",""
"","S1","","html-keyboard-response","122","366698","0.0-1.0-164.0","0","0","47578","","null","","","null","18","","","","","","","","","","","","","","","",""
"","ISI","","html-keyboard-response","123","368701","0.0-1.0-165.0","0","0","47578","","null","","","null","18","NaN","","","","","","","","","","","","","","",""
"","S2","","html-keyboard-response","124","368853","0.0-1.0-166.0","0","0","47578","","null","","","null","18","","NaN","","","","","","","","","","","","","",""
"","response","","html-keyboard-response","125","369574","0.0-1.0-167.0-0.0","0","0","47578","","720","","","75","18","","","1","18","training","adjacent","BA","2","1","R.jpg","L.jpg","0","0","1","",""
"","feedback","","html-keyboard-response","126","370578","0.0-1.0-168.0-0.0","0","0","47578","","null","","","null","18","","","","","","","","","","","","","","","",""
"","ITI","","html-keyboard-response","127","371581","0.0-1.0-171.0","0","0","47578","","null","","","null","18","","","","","","","","","","","","","","","NaN",""
"","S1","","html-keyboard-response","128","371733","0.0-1.0-173.0","0","0","47578","","null","","","null","19","","","","","","","","","","","","","","","",""
"","ISI","","html-keyboard-response","129","373737","0.0-1.0-174.0","0","0","47578","","null","","","null","19","NaN","","","","","","","","","","","","","","",""
"","S2","","html-keyboard-response","130","373889","0.0-1.0-175.0","0","0","47578","","null","","","null","19","","NaN","","","","","","","","","","","","","",""
"","response","","html-keyboard-response","131","374763","0.0-1.0-176.0-0.0","0","0","47578","","872","","","75","19","","","1","19","training","adjacent","GF","7","6","M.jpg","N.jpg","0","0","1","",""
"","feedback","","html-keyboard-response","132","375766","0.0-1.0-177.0-0.0","0","0","47578","","null","","","null","19","","","","","","","","","","","","","","","",""
"","ITI","","html-keyboard-response","133","376769","0.0-1.0-180.0","0","0","47578","","null","","","null","19","","","","","","","","","","","","","","","NaN",""
"","S1","","html-keyboard-response","134","376922","0.0-1.0-182.0","0","0","47578","","null","","","null","20","","","","","","","","","","","","","","","",""
"","ISI","","html-keyboard-response","135","378924","0.0-1.0-183.0","0","0","47578","","null","","","null","20","NaN","","","","","","","","","","","","","","",""
"","S2","","html-keyboard-response","136","379078","0.0-1.0-184.0","0","0","47578","","null","","","null","20","","NaN","","","","","","","","","","","","","",""
"","response","","html-keyboard-response","137","379344","0.0-1.0-185.0-0.0","0","0","47578","","265","","","75","20","","","1","20","training","adjacent","FE","6","5","N.jpg","P.jpg","0","0","1","",""
"","feedback","","html-keyboard-response","138","380346","0.0-1.0-186.0-0.0","0","0","47578","","null","","","null","20","","","","","","","","","","","","","","","",""
"","ITI","","html-keyboard-response","139","381350","0.0-1.0-189.0","0","0","47578","","null","","","null","20","","","","","","","","","","","","","","","NaN",""
"","S1","","html-keyboard-response","140","381502","0.0-1.0-191.0","0","0","47578","","null","","","null","21","","","","","","","","","","","","","","","",""
"","ISI","","html-keyboard-response","141","383505","0.0-1.0-192.0","0","0","47578","","null","","","null","21","NaN","","","","","","","","","","","","","","",""
"","S2","","html-keyboard-response","142","383658","0.0-1.0-193.0","0","0","47578","","null","","","null","21","","NaN","","","","","","","","","","","","","",""
"","response","","html-keyboard-response","143","383923","0.0-1.0-194.0-0.0","0","0","47578","","264","","","68","21","","","1","21","training","adjacent","BC","2","3","R.jpg","O.jpg","1","1","1","",""
"","feedback","","html-keyboard-response","144","384925","0.0-1.0-195.0-0.0","0","0","47578","","null","","","null","21","","","","","","","","","","","","","","","",""
"","ITI","","html-keyboard-response","145","385930","0.0-1.0-198.0","0","0","47578","","null","","","null","21","","","","","","","","","","","","","","","NaN",""
"","S1","","html-keyboard-response","146","386082","0.0-1.0-200.0","0","0","47578","","null","","","null","22","","","","","","","","","","","","","","","",""
"","ISI","","html-keyboard-response","147","388086","0.0-1.0-201.0","0","0","47578","","null","","","null","22","NaN","","","","","","","","","","","","","","",""
"","S2","","html-keyboard-response","148","388242","0.0-1.0-202.0","0","0","47578","","null","","","null","22","","NaN","","","","","","","","","","","","","",""
"","response","","html-keyboard-response","149","389052","0.0-1.0-203.0-0.0","0","0","47578","","809","","","75","22","","","1","22","training","adjacent","DC","4","3","Q.jpg","O.jpg","0","0","1","",""
"","feedback","","html-keyboard-response","150","390053","0.0-1.0-204.0-0.0","0","0","47578","","null","","","null","22","","","","","","","","","","","","","","","",""
"","ITI","","html-keyboard-response","151","391058","0.0-1.0-207.0","0","0","47578","","null","","","null","22","","","","","","","","","","","","","","","NaN",""
"","S1","","html-keyboard-response","152","391209","0.0-1.0-209.0","0","0","47578","","null","","","null","23","","","","","","","","","","","","","","","",""
"","ISI","","html-keyboard-response","153","393213","0.0-1.0-210.0","0","0","47578","","null","","","null","23","NaN","","","","","","","","","","","","","","",""
"","S2","","html-keyboard-response","154","393365","0.0-1.0-211.0","0","0","47578","","null","","","null","23","","NaN","","","","","","","","","","","","","",""
"","response","","html-keyboard-response","155","393800","0.0-1.0-212.0-0.0","0","0","47578","","434","","","75","23","","","1","23","training","adjacent","EF","5","6","P.jpg","N.jpg","0","1","0","",""
"","feedback","","html-keyboard-response","156","394806","0.0-1.0-213.0-0.0","0","0","47578","","null","","","null","23","","","","","","","","","","","","","","","",""
"","time_out","","html-keyboard-response","157","396809","0.0-1.0-215.0-0.0","0","0","47578","","null","","","null","23","","","","","","","","","","","","","","","",""
"","ITI","","html-keyboard-response","158","397813","0.0-1.0-216.0","0","0","47578","","null","","","null","23","","","","","","","","","","","","","","","NaN",""
"","S1","","html-keyboard-response","159","397966","0.0-1.0-218.0","0","0","47578","","null","","","null","24","","","","","","","","","","","","","","","",""
"","ISI","","html-keyboard-response","160","399969","0.0-1.0-219.0","0","0","47578","","null","","","null","24","NaN","","","","","","","","","","","","","","",""
"","S2","","html-keyboard-response","161","400121","0.0-1.0-220.0","0","0","47578","","null","","","null","24","","NaN","","","","","","","","","","","","","",""
"","response","","html-keyboard-response","162","400300","0.0-1.0-221.0-0.0","0","0","47578","","178","","","75","24","","","1","24","training","adjacent","AB","1","2","L.jpg","R.jpg","0","1","0","",""
"","feedback","","html-keyboard-response","163","401302","0.0-1.0-222.0-0.0","0","0","47578","","null","","","null","24","","","","","","","","","","","","","","","",""
"","time_out","","html-keyboard-response","164","403306","0.0-1.0-224.0-0.0","0","0","47578","","null","","","null","24","","","","","","","","","","","","","","","",""
"","ITI","","html-keyboard-response","165","404310","0.0-1.0-225.0","0","0","47578","","null","","","null","24","","","","","","","","","","","","","","","NaN",""
"","S1","","html-keyboard-response","166","404466","0.0-1.0-227.0","0","0","47578","","null","","","null","25","","","","","","","","","","","","","","","",""
"","ISI","","html-keyboard-response","167","406470","0.0-1.0-228.0","0","0","47578","","null","","","null","25","NaN","","","","","","","","","","","","","","",""
"","S2","","html-keyboard-response","168","406626","0.0-1.0-229.0","0","0","47578","","null","","","null","25","","NaN","","","","","","","","","","","","","",""
"","response","","html-keyboard-response","169","407180","0.0-1.0-230.0-0.0","0","0","47578","","553","","","75","25","","","1","25","training","adjacent","DC","4","3","Q.jpg","O.jpg","0","0","1","",""
"","feedback","","html-keyboard-response","170","408182","0.0-1.0-231.0-0.0","0","0","47578","","null","","","null","25","","","","","","","","","","","","","","","",""
"","ITI","","html-keyboard-response","171","409186","0.0-1.0-234.0","0","0","47578","","null","","","null","25","","","","","","","","","","","","","","","NaN",""
"","S1","","html-keyboard-response","172","409338","0.0-1.0-236.0","0","0","47578","","null","","","null","26","","","","","","","","","","","","","","","",""
"","ISI","","html-keyboard-response","173","411342","0.0-1.0-237.0","0","0","47578","","null","","","null","26","NaN","","","","","","","","","","","","","","",""
"","S2","","html-keyboard-response","174","411493","0.0-1.0-238.0","0","0","47578","","null","","","null","26","","NaN","","","","","","","","","","","","","",""
"","response","","html-keyboard-response","175","412239","0.0-1.0-239.0-0.0","0","0","47578","","745","","","68","26","","","1","26","training","adjacent","FG","6","7","N.jpg","M.jpg","1","1","1","",""
"","feedback","","html-keyboard-response","176","413242","0.0-1.0-240.0-0.0","0","0","47578","","null","","","null","26","","","","","","","","","","","","","","","",""
"","ITI","","html-keyboard-response","177","414246","0.0-1.0-243.0","0","0","47578","","null","","","null","26","","","","","","","","","","","","","","","NaN",""
"","S1","","html-keyboard-response","178","414398","0.0-1.0-245.0","0","0","47578","","null","","","null","27","","","","","","","","","","","","","","","",""
"","ISI","","html-keyboard-response","179","416401","0.0-1.0-246.0","0","0","47578","","null","","","null","27","NaN","","","","","","","","","","","","","","",""
"","S2","","html-keyboard-response","180","416554","0.0-1.0-247.0","0","0","47578","","null","","","null","27","","NaN","","","","","","","","","","","","","",""
"","response","","html-keyboard-response","181","416956","0.0-1.0-248.0-0.0","0","0","47578","","401","","","68","27","","","1","27","training","adjacent","CB","3","2","O.jpg","R.jpg","1","0","0","",""
"","feedback","","html-keyboard-response","182","417961","0.0-1.0-249.0-0.0","0","0","47578","","null","","","null","27","","","","","","","","","","","","","","","",""
"","time_out","","html-keyboard-response","183","419965","0.0-1.0-251.0-0.0","0","0","47578","","null","","","null","27","","","","","","","","","","","","","","","",""
"","ITI","","html-keyboard-response","184","420968","0.0-1.0-252.0","0","0","47578","","null","","","null","27","","","","","","","","","","","","","","","NaN",""
"","S1","","html-keyboard-response","185","421121","0.0-1.0-254.0","0","0","47578","","null","","","null","28","","","","","","","","","","","","","","","",""
"","ISI","","html-keyboard-response","186","423126","0.0-1.0-255.0","0","0","47578","","null","","","null","28","NaN","","","","","","","","","","","","","","",""
"","S2","","html-keyboard-response","187","423281","0.0-1.0-256.0","0","0","47578","","null","","","null","28","","NaN","","","","","","","","","","","","","",""
"","response","","html-keyboard-response","188","423622","0.0-1.0-257.0-0.0","0","0","47578","","340","","","75","28","","","1","28","training","adjacent","ED","5","4","P.jpg","Q.jpg","0","0","1","",""
"","feedback","","html-keyboard-response","189","424625","0.0-1.0-258.0-0.0","0","0","47578","","null","","","null","28","","","","","","","","","","","","","","","",""
"","ITI","","html-keyboard-response","190","425629","0.0-1.0-261.0","0","0","47578","","null","","","null","28","","","","","","","","","","","","","","","NaN",""
"","S1","","html-keyboard-response","191","425781","0.0-1.0-263.0","0","0","47578","","null","","","null","29","","","","","","","","","","","","","","","",""
"","ISI","","html-keyboard-response","192","427785","0.0-1.0-264.0","0","0","47578","","null","","","null","29","NaN","","","","","","","","","","","","","","",""
"","S2","","html-keyboard-response","193","427937","0.0-1.0-265.0","0","0","47578","","null","","","null","29","","NaN","","","","","","","","","","","","","",""
"","response","","html-keyboard-response","194","428525","0.0-1.0-266.0-0.0","0","0","47578","","587","","","75","29","","","1","29","training","adjacent","BC","2","3","R.jpg","O.jpg","0","1","0","",""
"","feedback","","html-keyboard-response","195","429529","0.0-1.0-267.0-0.0","0","0","47578","","null","","","null","29","","","","","","","","","","","","","","","",""
"","time_out","","html-keyboard-response","196","431532","0.0-1.0-269.0-0.0","0","0","47578","","null","","","null","29","","","","","","","","","","","","","","","",""
"","ITI","","html-keyboard-response","197","432537","0.0-1.0-270.0","0","0","47578","","null","","","null","29","","","","","","","","","","","","","","","NaN",""
"","S1","","html-keyboard-response","198","432689","0.0-1.0-272.0","0","0","47578","","null","","","null","30","","","","","","","","","","","","","","","",""
"","ISI","","html-keyboard-response","199","434693","0.0-1.0-273.0","0","0","47578","","null","","","null","30","NaN","","","","","","","","","","","","","","",""
"","S2","","html-keyboard-response","200","434845","0.0-1.0-274.0","0","0","47578","","null","","","null","30","","NaN","","","","","","","","","","","","","",""
"","response","","html-keyboard-response","201","435500","0.0-1.0-275.0-0.0","0","0","47578","","653","","","68","30","","","1","30","training","adjacent","DE","4","5","Q.jpg","P.jpg","1","1","1","",""
"","feedback","","html-keyboard-response","202","436505","0.0-1.0-276.0-0.0","0","0","47578","","null","","","null","30","","","","","","","","","","","","","","","",""
"","ITI","","html-keyboard-response","203","437509","0.0-1.0-279.0","0","0","47578","","null","","","null","30","","","","","","","","","","","","","","","NaN",""
"","S1","","html-keyboard-response","204","437661","0.0-1.0-281.0","0","0","47578","","null","","","null","31","","","","","","","","","","","","","","","",""
"","ISI","","html-keyboard-response","205","439665","0.0-1.0-282.0","0","0","47578","","null","","","null","31","NaN","","","","","","","","","","","","","","",""
"","S2","","html-keyboard-response","206","439821","0.0-1.0-283.0","0","0","47578","","null","","","null","31","","NaN","","","","","","","","","","","","","",""
"","response","","html-keyboard-response","207","440561","0.0-1.0-284.0-0.0","0","0","47578","","738","","","68","31","","","1","31","training","adjacent","AB","1","2","L.jpg","R.jpg","1","1","1","",""
"","feedback","","html-keyboard-response","208","441565","0.0-1.0-285.0-0.0","0","0","47578","","null","","","null","31","","","","","","","","","","","","","","","",""
"","ITI","","html-keyboard-response","209","442569","0.0-1.0-288.0","0","0","47578","","null","","","null","31","","","","","","","","","","","","","","","NaN",""
"","S1","","html-keyboard-response","210","442721","0.0-1.0-290.0","0","0","47578","","null","","","null","32","","","","","","","","","","","","","","","",""
"","ISI","","html-keyboard-response","211","444726","0.0-1.0-291.0","0","0","47578","","null","","","null","32","NaN","","","","","","","","","","","","","","",""
"","S2","","html-keyboard-response","212","444882","0.0-1.0-292.0","0","0","47578","","null","","","null","32","","NaN","","","","","","","","","","","","","",""
"","response","","html-keyboard-response","213","445536","0.0-1.0-293.0-0.0","0","0","47578","","653","","","75","32","","","1","32","training","adjacent","EF","5","6","P.jpg","N.jpg","0","1","0","",""
"","feedback","","html-keyboard-response","214","446541","0.0-1.0-294.0-0.0","0","0","47578","","null","","","null","32","","","","","","","","","","","","","","","",""
"","time_out","","html-keyboard-response","215","448545","0.0-1.0-296.0-0.0","0","0","47578","","null","","","null","32","","","","","","","","","","","","","","","",""
"","ITI","","html-keyboard-response","216","449549","0.0-1.0-297.0","0","0","47578","","null","","","null","32","","","","","","","","","","","","","","","NaN",""
"","S1","","html-keyboard-response","217","449702","0.0-1.0-299.0","0","0","47578","","null","","","null","33","","","","","","","","","","","","","","","",""
"","ISI","","html-keyboard-response","218","451706","0.0-1.0-300.0","0","0","47578","","null","","","null","33","NaN","","","","","","","","","","","","","","",""
"","S2","","html-keyboard-response","219","451858","0.0-1.0-301.0","0","0","47578","","null","","","null","33","","NaN","","","","","","","","","","","","","",""
"","response","","html-keyboard-response","220","452200","0.0-1.0-302.0-0.0","0","0","47578","","341","","","75","33","","","1","33","training","adjacent","CB","3","2","O.jpg","R.jpg","0","0","1","",""
"","feedback","","html-keyboard-response","221","453202","0.0-1.0-303.0-0.0","0","0","47578","","null","","","null","33","","","","","","","","","","","","","","","",""
"","ITI","","html-keyboard-response","222","454205","0.0-1.0-306.0","0","0","47578","","null","","","null","33","","","","","","","","","","","","","","","NaN",""
"","S1","","html-keyboard-response","223","454357","0.0-1.0-308.0","0","0","47578","","null","","","null","34","","","","","","","","","","","","","","","",""
"","ISI","","html-keyboard-response","224","456361","0.0-1.0-309.0","0","0","47578","","null","","","null","34","NaN","","","","","","","","","","","","","","",""
"","S2","","html-keyboard-response","225","456518","0.0-1.0-310.0","0","0","47578","","null","","","null","34","","NaN","","","","","","","","","","","","","",""
"","response","","html-keyboard-response","226","456762","0.0-1.0-311.0-0.0","0","0","47578","","243","","","68","34","","","1","34","training","adjacent","FE","6","5","N.jpg","P.jpg","1","0","0","",""
"","feedback","","html-keyboard-response","227","457766","0.0-1.0-312.0-0.0","0","0","47578","","null","","","null","34","","","","","","","","","","","","","","","",""
"","time_out","","html-keyboard-response","228","459769","0.0-1.0-314.0-0.0","0","0","47578","","null","","","null","34","","","","","","","","","","","","","","","",""
"","ITI","","html-keyboard-response","229","460772","0.0-1.0-315.0","0","0","47578","","null","","","null","34","","","","","","","","","","","","","","","NaN",""
"","S1","","html-keyboard-response","230","460925","0.0-1.0-317.0","0","0","47578","","null","","","null","35","","","","","","","","","","","","","","","",""
"","ISI","","html-keyboard-response","231","462930","0.0-1.0-318.0","0","0","47578","","null","","","null","35","NaN","","","","","","","","","","","","","","",""
"","S2","","html-keyboard-response","232","463084","0.0-1.0-319.0","0","0","47578","","null","","","null","35","","NaN","","","","","","","","","","","","","",""
"","response","","html-keyboard-response","233","463461","0.0-1.0-320.0-0.0","0","0","47578","","377","","","68","35","","","1","35","training","adjacent","GF","7","6","M.jpg","N.jpg","1","0","0","",""
"","feedback","","html-keyboard-response","234","464466","0.0-1.0-321.0-0.0","0","0","47578","","null","","","null","35","","","","","","","","","","","","","","","",""
"","time_out","","html-keyboard-response","235","466468","0.0-1.0-323.0-0.0","0","0","47578","","null","","","null","35","","","","","","","","","","","","","","","",""
"","ITI","","html-keyboard-response","236","467473","0.0-1.0-324.0","0","0","47578","","null","","","null","35","","","","","","","","","","","","","","","NaN",""
"","S1","","html-keyboard-response","237","467626","0.0-1.0-326.0","0","0","47578","","null","","","null","36","","","","","","","","","","","","","","","",""
"","ISI","","html-keyboard-response","238","469629","0.0-1.0-327.0","0","0","47578","","null","","","null","36","NaN","","","","","","","","","","","","","","",""
"","S2","","html-keyboard-response","239","469781","0.0-1.0-328.0","0","0","47578","","null","","","null","36","","NaN","","","","","","","","","","","","","",""
"","response","","html-keyboard-response","240","470351","0.0-1.0-329.0-0.0","0","0","47578","","568","","","68","36","","","1","36","training","adjacent","BA","2","1","R.jpg","L.jpg","1","0","0","",""
"","feedback","","html-keyboard-response","241","471353","0.0-1.0-330.0-0.0","0","0","47578","","null","","","null","36","","","","","","","","","","","","","","","",""
"","time_out","","html-keyboard-response","242","473357","0.0-1.0-332.0-0.0","0","0","47578","","null","","","null","36","","","","","","","","","","","","","","","",""
"","ITI","","html-keyboard-response","243","474361","0.0-1.0-333.0","0","0","47578","","null","","","null","36","","","","","","","","","","","","","","","NaN",""
"","S1","","html-keyboard-response","244","474513","0.0-1.0-335.0","0","0","47578","","null","","","null","37","","","","","","","","","","","","","","","",""
"","ISI","","html-keyboard-response","245","476517","0.0-1.0-336.0","0","0","47578","","null","","","null","37","NaN","","","","","","","","","","","","","","",""
"","S2","","html-keyboard-response","246","476668","0.0-1.0-337.0","0","0","47578","","null","","","null","37","","NaN","","","","","","","","","","","","","",""
"","response","","html-keyboard-response","247","477864","0.0-1.0-338.0-0.0","0","0","47578","","1194","","","68","37","","","1","37","training","adjacent","CD","3","4","O.jpg","Q.jpg","1","1","1","",""
"","feedback","","html-keyboard-response","248","478869","0.0-1.0-339.0-0.0","0","0","47578","","null","","","null","37","","","","","","","","","","","","","","","",""
"","ITI","","html-keyboard-response","249","479873","0.0-1.0-342.0","0","0","47578","","null","","","null","37","","","","","","","","","","","","","","","NaN",""
"","S1","","html-keyboard-response","250","480025","0.0-1.0-344.0","0","0","47578","","null","","","null","38","","","","","","","","","","","","","","","",""
"","ISI","","html-keyboard-response","251","482029","0.0-1.0-345.0","0","0","47578","","null","","","null","38","NaN","","","","","","","","","","","","","","",""
"","S2","","html-keyboard-response","252","482185","0.0-1.0-346.0","0","0","47578","","null","","","null","38","","NaN","","","","","","","","","","","","","",""
"","response","","html-keyboard-response","253","483161","0.0-1.0-347.0-0.0","0","0","47578","","974","","","75","38","","","1","38","training","adjacent","CD","3","4","O.jpg","Q.jpg","0","1","0","",""
"","feedback","","html-keyboard-response","254","484165","0.0-1.0-348.0-0.0","0","0","47578","","null","","","null","38","","","","","","","","","","","","","","","",""
"","time_out","","html-keyboard-response","255","486169","0.0-1.0-350.0-0.0","0","0","47578","","null","","","null","38","","","","","","","","","","","","","","","",""
"","ITI","","html-keyboard-response","256","487173","0.0-1.0-351.0","0","0","47578","","null","","","null","38","","","","","","","","","","","","","","","NaN",""
"","S1","","html-keyboard-response","257","487325","0.0-1.0-353.0","0","0","47578","","null","","","null","39","","","","","","","","","","","","","","","",""
"","ISI","","html-keyboard-response","258","489328","0.0-1.0-354.0","0","0","47578","","null","","","null","39","NaN","","","","","","","","","","","","","","",""
"","S2","","html-keyboard-response","259","489481","0.0-1.0-355.0","0","0","47578","","null","","","null","39","","NaN","","","","","","","","","","","","","",""
"","response","","html-keyboard-response","260","489988","0.0-1.0-356.0-0.0","0","0","47578","","505","","","75","39","","","1","39","training","adjacent","DE","4","5","Q.jpg","P.jpg","0","1","0","",""
"","feedback","","html-keyboard-response","261","490993","0.0-1.0-357.0-0.0","0","0","47578","","null","","","null","39","","","","","","","","","","","","","","","",""
"","time_out","","html-keyboard-response","262","492997","0.0-1.0-359.0-0.0","0","0","47578","","null","","","null","39","","","","","","","","","","","","","","","",""
"","ITI","","html-keyboard-response","263","494001","0.0-1.0-360.0","0","0","47578","","null","","","null","39","","","","","","","","","","","","","","","NaN",""
"","S1","","html-keyboard-response","264","494153","0.0-1.0-362.0","0","0","47578","","null","","","null","40","","","","","","","","","","","","","","","",""
"","ISI","","html-keyboard-response","265","496156","0.0-1.0-363.0","0","0","47578","","null","","","null","40","NaN","","","","","","","","","","","","","","",""
"","S2","","html-keyboard-response","266","496309","0.0-1.0-364.0","0","0","47578","","null","","","null","40","","NaN","","","","","","","","","","","","","",""
"","response","","html-keyboard-response","267","496341","0.0-1.0-365.0-0.0","0","0","47578","","31","","","68","40","","","1","40","training","adjacent","AB","1","2","L.jpg","R.jpg","1","1","1","",""
"","feedback","","html-keyboard-response","268","497345","0.0-1.0-366.0-0.0","0","0","47578","","null","","","null","40","","","","","","","","","","","","","","","",""
"","ITI","","html-keyboard-response","269","498349","0.0-1.0-369.0","0","0","47578","","null","","","null","40","","","","","","","","","","","","","","","NaN",""
"","S1","","html-keyboard-response","270","498501","0.0-1.0-371.0","0","0","47578","","null","","","null","41","","","","","","","","","","","","","","","",""
"","ISI","","html-keyboard-response","271","500505","0.0-1.0-372.0","0","0","47578","","null","","","null","41","NaN","","","","","","","","","","","","","","",""
"","S2","","html-keyboard-response","272","500661","0.0-1.0-373.0","0","0","47578","","null","","","null","41","","NaN","","","","","","","","","","","","","",""
"","response","","html-keyboard-response","273","501709","0.0-1.0-374.0-0.0","0","0","47578","","1046","","","68","41","","","1","41","training","adjacent","CD","3","4","O.jpg","Q.jpg","1","1","1","",""
"","feedback","","html-keyboard-response","274","502712","0.0-1.0-375.0-0.0","0","0","47578","","null","","","null","41","","","","","","","","","","","","","","","",""
"","ITI","","html-keyboard-response","275","503718","0.0-1.0-378.0","0","0","47578","","null","","","null","41","","","","","","","","","","","","","","","NaN",""
"","S1","","html-keyboard-response","276","503873","0.0-1.0-380.0","0","0","47578","","null","","","null","42","","","","","","","","","","","","","","","",""
"","ISI","","html-keyboard-response","277","505878","0.0-1.0-381.0","0","0","47578","","null","","","null","42","NaN","","","","","","","","","","","","","","",""
"","S2","","html-keyboard-response","278","506033","0.0-1.0-382.0","0","0","47578","","null","","","null","42","","NaN","","","","","","","","","","","","","",""
"","response","","html-keyboard-response","279","507266","0.0-1.0-383.0-0.0","0","0","47578","","1232","","","75","42","","","1","42","training","adjacent","BC","2","3","R.jpg","O.jpg","0","1","0","",""
"","feedback","","html-keyboard-response","280","508269","0.0-1.0-384.0-0.0","0","0","47578","","null","","","null","42","","","","","","","","","","","","","","","",""
"","time_out","","html-keyboard-response","281","510273","0.0-1.0-386.0-0.0","0","0","47578","","null","","","null","42","","","","","","","","","","","","","","","",""
"","ITI","","html-keyboard-response","282","511276","0.0-1.0-387.0","0","0","47578","","null","","","null","42","","","","","","","","","","","","","","","NaN",""
"","S1","","html-keyboard-response","283","511428","0.0-1.0-389.0","0","0","47578","","null","","","null","43","","","","","","","","","","","","","","","",""
"","ISI","","html-keyboard-response","284","513432","0.0-1.0-390.0","0","0","47578","","null","","","null","43","NaN","","","","","","","","","","","","","","",""
"","S2","","html-keyboard-response","285","513585","0.0-1.0-391.0","0","0","47578","","null","","","null","43","","NaN","","","","","","","","","","","","","",""
"","response","","html-keyboard-response","286","513967","0.0-1.0-392.0-0.0","0","0","47578","","380","","","75","43","","","1","43","training","adjacent","FE","6","5","N.jpg","P.jpg","0","0","1","",""
"","feedback","","html-keyboard-response","287","514969","0.0-1.0-393.0-0.0","0","0","47578","","null","","","null","43","","","","","","","","","","","","","","","",""
"","ITI","","html-keyboard-response","288","515973","0.0-1.0-396.0","0","0","47578","","null","","","null","43","","","","","","","","","","","","","","","NaN",""
"","S1","","html-keyboard-response","289","516126","0.0-1.0-398.0","0","0","47578","","null","","","null","44","","","","","","","","","","","","","","","",""
"","ISI","","html-keyboard-response","290","518128","0.0-1.0-399.0","0","0","47578","","null","","","null","44","NaN","","","","","","","","","","","","","","",""
"","S2","","html-keyboard-response","291","518281","0.0-1.0-400.0","0","0","47578","","null","","","null","44","","NaN","","","","","","","","","","","","","",""
"","response","","html-keyboard-response","292","518747","0.0-1.0-401.0-0.0","0","0","47578","","464","","","68","44","","","1","44","training","adjacent","DC","4","3","Q.jpg","O.jpg","1","0","0","",""
"","feedback","","html-keyboard-response","293","519749","0.0-1.0-402.0-0.0","0","0","47578","","null","","","null","44","","","","","","","","","","","","","","","",""
"","time_out","","html-keyboard-response","294","521753","0.0-1.0-404.0-0.0","0","0","47578","","null","","","null","44","","","","","","","","","","","","","","","",""
"","ITI","","html-keyboard-response","295","522757","0.0-1.0-405.0","0","0","47578","","null","","","null","44","","","","","","","","","","","","","","","NaN",""
"","S1","","html-keyboard-response","296","522908","0.0-1.0-407.0","0","0","47578","","null","","","null","45","","","","","","","","","","","","","","","",""
"","ISI","","html-keyboard-response","297","524912","0.0-1.0-408.0","0","0","47578","","null","","","null","45","NaN","","","","","","","","","","","","","","",""
"","S2","","html-keyboard-response","298","525065","0.0-1.0-409.0","0","0","47578","","null","","","null","45","","NaN","","","","","","","","","","","","","",""
"","response","","html-keyboard-response","299","525128","0.0-1.0-410.0-0.0","0","0","47578","","61","","","68","45","","","1","45","training","adjacent","FE","6","5","N.jpg","P.jpg","1","0","0","",""
"","feedback","","html-keyboard-response","300","526133","0.0-1.0-411.0-0.0","0","0","47578","","null","","","null","45","","","","","","","","","","","","","","","",""
"","time_out","","html-keyboard-response","301","528138","0.0-1.0-413.0-0.0","0","0","47578","","null","","","null","45","","","","","","","","","","","","","","","",""
"","ITI","","html-keyboard-response","302","529141","0.0-1.0-414.0","0","0","47578","","null","","","null","45","","","","","","","","","","","","","","","NaN",""
"","S1","","html-keyboard-response","303","529294","0.0-1.0-416.0","0","0","47578","","null","","","null","46","","","","","","","","","","","","","","","",""
"","ISI","","html-keyboard-response","304","531297","0.0-1.0-417.0","0","0","47578","","null","","","null","46","NaN","","","","","","","","","","","","","","",""
"","S2","","html-keyboard-response","305","531449","0.0-1.0-418.0","0","0","47578","","null","","","null","46","","NaN","","","","","","","","","","","","","",""
"","response","","html-keyboard-response","306","531897","0.0-1.0-419.0-0.0","0","0","47578","","447","","","75","46","","","1","46","training","adjacent","EF","5","6","P.jpg","N.jpg","0","1","0","",""
"","feedback","","html-keyboard-response","307","532901","0.0-1.0-420.0-0.0","0","0","47578","","null","","","null","46","","","","","","","","","","","","","","","",""
"","time_out","","html-keyboard-response","308","534905","0.0-1.0-422.0-0.0","0","0","47578","","null","","","null","46","","","","","","","","","","","","","","","",""
"","ITI","","html-keyboard-response","309","535910","0.0-1.0-423.0","0","0","47578","","null","","","null","46","","","","","","","","","","","","","","","NaN",""
"","S1","","html-keyboard-response","310","536062","0.0-1.0-425.0","0","0","47578","","null","","","null","47","","","","","","","","","","","","","","","",""
"","ISI","","html-keyboard-response","311","538065","0.0-1.0-426.0","0","0","47578","","null","","","null","47","NaN","","","","","","","","","","","","","","",""
"","S2","","html-keyboard-response","312","538218","0.0-1.0-427.0","0","0","47578","","null","","","null","47","","NaN","","","","","","","","","","","","","",""
"","response","","html-keyboard-response","313","538914","0.0-1.0-428.0-0.0","0","0","47578","","695","","","75","47","","","1","47","training","adjacent","FG","6","7","N.jpg","M.jpg","0","1","0","",""
"","feedback","","html-keyboard-response","314","539917","0.0-1.0-429.0-0.0","0","0","47578","","null","","","null","47","","","","","","","","","","","","","","","",""
"","time_out","","html-keyboard-response","315","541921","0.0-1.0-431.0-0.0","0","0","47578","","null","","","null","47","","","","","","","","","","","","","","","",""
"","ITI","","html-keyboard-response","316","542925","0.0-1.0-432.0","0","0","47578","","null","","","null","47","","","","","","","","","","","","","","","NaN",""
"","block_over","","html-keyboard-response","317","549111","0.0-1.0-433.0-0.0","0","0","47578","","6184","","","32","47","","","","","","","","","","","","","","","",""
"","S1","","html-keyboard-response","318","549265","0.0-1.0-434.0","0","0","47578","","null","","","null","48","","","","","","","","","","","","","","","",""
"","ISI","","html-keyboard-response","319","551268","0.0-1.0-435.0","0","0","47578","","null","","","null","48","NaN","","","","","","","","","","","","","","",""
"","S2","","html-keyboard-response","320","551422","0.0-1.0-436.0","0","0","47578","","null","","","null","48","","NaN","","","","","","","","","","","","","",""
"","response","","html-keyboard-response","321","551719","0.0-1.0-437.0-0.0","0","0","47578","","296","","","68","48","","","2","48","training","adjacent","CB","3","2","O.jpg","R.jpg","1","0","0","",""
"","feedback","","html-keyboard-response","322","552721","0.0-1.0-438.0-0.0","0","0","47578","","null","","","null","48","","","","","","","","","","","","","","","",""
"","time_out","","html-keyboard-response","323","554725","0.0-1.0-440.0-0.0","0","0","47578","","null","","","null","48","","","","","","","","","","","","","","","",""
"","ITI","","html-keyboard-response","324","555729","0.0-1.0-441.0","0","0","47578","","null","","","null","48","","","","","","","","","","","","","","","NaN",""
"","S1","","html-keyboard-response","325","555881","0.0-1.0-443.0","0","0","47578","","null","","","null","49","","","","","","","","","","","","","","","",""
"","ISI","","html-keyboard-response","326","557886","0.0-1.0-444.0","0","0","47578","","null","","","null","49","NaN","","","","","","","","","","","","","","",""
"","S2","","html-keyboard-response","327","558041","0.0-1.0-445.0","0","0","47578","","null","","","null","49","","NaN","","","","","","","","","","","","","",""
"","response","","html-keyboard-response","328","558679","0.0-1.0-446.0-0.0","0","0","47578","","637","","","68","49","","","2","49","training","adjacent","FG","6","7","N.jpg","M.jpg","1","1","1","",""
"","feedback","","html-keyboard-response","329","559680","0.0-1.0-447.0-0.0","0","0","47578","","null","","","null","49","","","","","","","","","","","","","","","",""
"","ITI","","html-keyboard-response","330","560685","0.0-1.0-450.0","0","0","47578","","null","","","null","49","","","","","","","","","","","","","","","NaN",""
"","S1","","html-keyboard-response","331","560837","0.0-1.0-452.0","0","0","47578","","null","","","null","50","","","","","","","","","","","","","","","",""
"","ISI","","html-keyboard-response","332","562840","0.0-1.0-453.0","0","0","47578","","null","","","null","50","NaN","","","","","","","","","","","","","","",""
"","S2","","html-keyboard-response","333","562994","0.0-1.0-454.0","0","0","47578","","null","","","null","50","","NaN","","","","","","","","","","","","","",""
"","response","","html-keyboard-response","334","563311","0.0-1.0-455.0-0.0","0","0","47578","","316","","","75","50","","","2","50","training","adjacent","CB","3","2","O.jpg","R.jpg","0","0","1","",""
"","feedback","","html-keyboard-response","335","564313","0.0-1.0-456.0-0.0","0","0","47578","","null","","","null","50","","","","","","","","","","","","","","","",""
"","ITI","","html-keyboard-response","336","565318","0.0-1.0-459.0","0","0","47578","","null","","","null","50","","","","","","","","","","","","","","","NaN",""
"","S1","","html-keyboard-response","337","565473","0.0-1.0-461.0","0","0","47578","","null","","","null","51","","","","","","","","","","","","","","","",""
"","ISI","","html-keyboard-response","338","567477","0.0-1.0-462.0","0","0","47578","","null","","","null","51","NaN","","","","","","","","","","","","","","",""
"","S2","","html-keyboard-response","339","567632","0.0-1.0-463.0","0","0","47578","","null","","","null","51","","NaN","","","","","","","","","","","","","",""
"","response","","html-keyboard-response","340","567736","0.0-1.0-464.0-0.0","0","0","47578","","103","","","75","51","","","2","51","training","adjacent","BC","2","3","R.jpg","O.jpg","0","1","0","",""
"","feedback","","html-keyboard-response","341","568741","0.0-1.0-465.0-0.0","0","0","47578","","null","","","null","51","","","","","","","","","","","","","","","",""
"","time_out","","html-keyboard-response","342","570745","0.0-1.0-467.0-0.0","0","0","47578","","null","","","null","51","","","","","","","","","","","","","","","",""
"","ITI","","html-keyboard-response","343","571749","0.0-1.0-468.0","0","0","47578","","null","","","null","51","","","","","","","","","","","","","","","NaN",""
"","S1","","html-keyboard-response","344","571902","0.0-1.0-470.0","0","0","47578","","null","","","null","52","","","","","","","","","","","","","","","",""
"","ISI","","html-keyboard-response","345","573906","0.0-1.0-471.0","0","0","47578","","null","","","null","52","NaN","","","","","","","","","","","","","","",""
"","S2","","html-keyboard-response","346","574057","0.0-1.0-472.0","0","0","47578","","null","","","null","52","","NaN","","","","","","","","","","","","","",""
"","response","","html-keyboard-response","347","574797","0.0-1.0-473.0-0.0","0","0","47578","","738","","","75","52","","","2","52","training","adjacent","FE","6","5","N.jpg","P.jpg","0","0","1","",""
"","feedback","","html-keyboard-response","348","575802","0.0-1.0-474.0-0.0","0","0","47578","","null","","","null","52","","","","","","","","","","","","","","","",""
"","ITI","","html-keyboard-response","349","576805","0.0-1.0-477.0","0","0","47578","","null","","","null","52","","","","","","","","","","","","","","","NaN",""
"","S1","","html-keyboard-response","350","576956","0.0-1.0-479.0","0","0","47578","","null","","","null","53","","","","","","","","","","","","","","","",""
"","ISI","","html-keyboard-response","351","578961","0.0-1.0-480.0","0","0","47578","","null","","","null","53","NaN","","","","","","","","","","","","","","",""
"","S2","","html-keyboard-response","352","579112","0.0-1.0-481.0","0","0","47578","","null","","","null","53","","NaN","","","","","","","","","","","","","",""
"","response","","html-keyboard-response","353","579920","0.0-1.0-482.0-0.0","0","0","47578","","806","","","68","53","","","2","53","training","adjacent","ED","5","4","P.jpg","Q.jpg","1","0","0","",""
"","feedback","","html-keyboard-response","354","580921","0.0-1.0-483.0-0.0","0","0","47578","","null","","","null","53","","","","","","","","","","","","","","","",""
"","time_out","","html-keyboard-response","355","582925","0.0-1.0-485.0-0.0","0","0","47578","","null","","","null","53","","","","","","","","","","","","","","","",""
"","ITI","","html-keyboard-response","356","583930","0.0-1.0-486.0","0","0","47578","","null","","","null","53","","","","","","","","","","","","","","","NaN",""
"","S1","","html-keyboard-response","357","584085","0.0-1.0-488.0","0","0","47578","","null","","","null","54","","","","","","","","","","","","","","","",""
"","ISI","","html-keyboard-response","358","586088","0.0-1.0-489.0","0","0","47578","","null","","","null","54","NaN","","","","","","","","","","","","","","",""
"","S2","","html-keyboard-response","359","586242","0.0-1.0-490.0","0","0","47578","","null","","","null","54","","NaN","","","","","","","","","","","","","",""
"","response","","html-keyboard-response","360","588097","0.0-1.0-491.0-0.0","0","0","47578","","null","","","null","54","","","2","54","training","adjacent","AB","1","2","L.jpg","R.jpg","NaN","1","0","",""
"","too_slow_prompt","","html-keyboard-response","361","589102","0.0-1.0-493.0-0.0","1","0","47578","","null","","","null","","","","","","","","","","","","","","","","",""
"","time_out","","html-keyboard-response","362","591105","0.0-1.0-494.0-0.0","0","0","47578","","null","","","null","54","","","","","","","","","","","","","","","",""
"","ITI","","html-keyboard-response","363","592108","0.0-1.0-495.0","0","0","47578","","null","","","null","54","","","","","","","","","","","","","","","NaN",""
"","S1","","html-keyboard-response","364","592262","0.0-1.0-497.0","0","0","47578","","null","","","null","55","","","","","","","","","","","","","","","",""
"","ISI","","html-keyboard-response","365","594265","0.0-1.0-498.0","0","0","47578","","null","","","null","55","NaN","","","","","","","","","","","","","","",""
"","S2","","html-keyboard-response","366","594420","0.0-1.0-499.0","0","0","47578","","null","","","null","55","","NaN","","","","","","","","","","","","","",""
"","response","","html-keyboard-response","367","594446","0.0-1.0-500.0-0.0","0","0","47578","","25","","","68","55","","","2","55","training","adjacent","FE","6","5","N.jpg","P.jpg","1","0","0","",""
"","feedback","","html-keyboard-response","368","595450","0.0-1.0-501.0-0.0","0","0","47578","","null","","","null","55","","","","","","","","","","","","","","","",""
"","time_out","","html-keyboard-response","369","597453","0.0-1.0-503.0-0.0","0","0","47578","","null","","","null","55","","","","","","","","","","","","","","","",""
"","ITI","","html-keyboard-response","370","598459","0.0-1.0-504.0","0","0","47578","","null","","","null","55","","","","","","","","","","","","","","","NaN",""
"","S1","","html-keyboard-response","371","598613","0.0-1.0-506.0","0","0","47578","","null","","","null","56","","","","","","","","","","","","","","","",""
"","ISI","","html-keyboard-response","372","600617","0.0-1.0-507.0","0","0","47578","","null","","","null","56","NaN","","","","","","","","","","","","","","",""
"","S2","","html-keyboard-response","373","600769","0.0-1.0-508.0","0","0","47578","","null","","","null","56","","NaN","","","","","","","","","","","","","",""
"","response","","html-keyboard-response","374","601058","0.0-1.0-509.0-0.0","0","0","47578","","288","","","75","56","","","2","56","training","adjacent","FG","6","7","N.jpg","M.jpg","0","1","0","",""
"","feedback","","html-keyboard-response","375","602061","0.0-1.0-510.0-0.0","0","0","47578","","null","","","null","56","","","","","","","","","","","","","","","",""
"","time_out","","html-keyboard-response","376","604066","0.0-1.0-512.0-0.0","0","0","47578","","null","","","null","56","","","","","","","","","","","","","","","",""
"","ITI","","html-keyboard-response","377","605070","0.0-1.0-513.0","0","0","47578","","null","","","null","56","","","","","","","","","","","","","","","NaN",""
"","S1","","html-keyboard-response","378","605222","0.0-1.0-515.0","0","0","47578","","null","","","null","57","","","","","","","","","","","","","","","",""
"","ISI","","html-keyboard-response","379","607227","0.0-1.0-516.0","0","0","47578","","null","","","null","57","NaN","","","","","","","","","","","","","","",""
"","S2","","html-keyboard-response","380","607378","0.0-1.0-517.0","0","0","47578","","null","","","null","57","","NaN","","","","","","","","","","","","","",""
"","response","","html-keyboard-response","381","607661","0.0-1.0-518.0-0.0","0","0","47578","","281","","","75","57","","","2","57","training","adjacent","BA","2","1","R.jpg","L.jpg","0","0","1","",""
"","feedback","","html-keyboard-response","382","608666","0.0-1.0-519.0-0.0","0","0","47578","","null","","","null","57","","","","","","","","","","","","","","","",""
"","ITI","","html-keyboard-response","383","609670","0.0-1.0-522.0","0","0","47578","","null","","","null","57","","","","","","","","","","","","","","","NaN",""
"","S1","","html-keyboard-response","384","609822","0.0-1.0-524.0","0","0","47578","","null","","","null","58","","","","","","","","","","","","","","","",""
"","ISI","","html-keyboard-response","385","611826","0.0-1.0-525.0","0","0","47578","","null","","","null","58","NaN","","","","","","","","","","","","","","",""
"","S2","","html-keyboard-response","386","611977","0.0-1.0-526.0","0","0","47578","","null","","","null","58","","NaN","","","","","","","","","","","","","",""
"","response","","html-keyboard-response","387","612136","0.0-1.0-527.0-0.0","0","0","47578","","157","","","68","58","","","2","58","training","adjacent","GF","7","6","M.jpg","N.jpg","1","0","0","",""
"","feedback","","html-keyboard-response","388","613137","0.0-1.0-528.0-0.0","0","0","47578","","null","","","null","58","","","","","","","","","","","","","","","",""
"","time_out","","html-keyboard-response","389","615142","0.0-1.0-530.0-0.0","0","0","47578","","null","","","null","58","","","","","","","","","","","","","","","",""
"","ITI","","html-keyboard-response","390","616145","0.0-1.0-531.0","0","0","47578","","null","","","null","58","","","","","","","","","","","","","","","NaN",""
"","S1","","html-keyboard-response","391","616298","0.0-1.0-533.0","0","0","47578","","null","","","null","59","","","","","","","","","","","","","","","",""
"","ISI","","html-keyboard-response","392","618302","0.0-1.0-534.0","0","0","47578","","null","","","null","59","NaN","","","","","","","","","","","","","","",""
"","S2","","html-keyboard-response","393","618455","0.0-1.0-535.0","0","0","47578","","null","","","null","59","","NaN","","","","","","","","","","","","","",""
"","response","","html-keyboard-response","394","618557","0.0-1.0-536.0-0.0","0","0","47578","","102","","","75","59","","","2","59","training","adjacent","ED","5","4","P.jpg","Q.jpg","0","0","1","",""
"","feedback","","html-keyboard-response","395","619562","0.0-1.0-537.0-0.0","0","0","47578","","null","","","null","59","","","","","","","","","","","","","","","",""
"","ITI","","html-keyboard-response","396","620567","0.0-1.0-540.0","0","0","47578","","null","","","null","59","","","","","","","","","","","","","","","NaN",""
"","S1","","html-keyboard-response","397","620722","0.0-1.0-542.0","0","0","47578","","null","","","null","60","","","","","","","","","","","","","","","",""
"","ISI","","html-keyboard-response","398","622726","0.0-1.0-543.0","0","0","47578","","null","","","null","60","NaN","","","","","","","","","","","","","","",""
"","S2","","html-keyboard-response","399","622878","0.0-1.0-544.0","0","0","47578","","null","","","null","60","","NaN","","","","","","","","","","","","","",""
"","response","","html-keyboard-response","400","623025","0.0-1.0-545.0-0.0","0","0","47578","","145","","","75","60","","","2","60","training","adjacent","DE","4","5","Q.jpg","P.jpg","0","1","0","",""
"","feedback","","html-keyboard-response","401","624029","0.0-1.0-546.0-0.0","0","0","47578","","null","","","null","60","","","","","","","","","","","","","","","",""
"","time_out","","html-keyboard-response","402","626034","0.0-1.0-548.0-0.0","0","0","47578","","null","","","null","60","","","","","","","","","","","","","","","",""
"","ITI","","html-keyboard-response","403","627037","0.0-1.0-549.0","0","0","47578","","null","","","null","60","","","","","","","","","","","","","","","NaN",""
"","S1","","html-keyboard-response","404","627189","0.0-1.0-551.0","0","0","47578","","null","","","null","61","","","","","","","","","","","","","","","",""
"","ISI","","html-keyboard-response","405","629194","0.0-1.0-552.0","0","0","47578","","null","","","null","61","NaN","","","","","","","","","","","","","","",""
"","S2","","html-keyboard-response","406","629346","0.0-1.0-553.0","0","0","47578","","null","","","null","61","","NaN","","","","","","","","","","","","","",""
"","response","","html-keyboard-response","407","629508","0.0-1.0-554.0-0.0","0","0","47578","","161","","","75","61","","","2","61","training","adjacent","CD","3","4","O.jpg","Q.jpg","0","1","0","",""
"","feedback","","html-keyboard-response","408","630510","0.0-1.0-555.0-0.0","0","0","47578","","null","","","null","61","","","","","","","","","","","","","","","",""
"","time_out","","html-keyboard-response","409","632513","0.0-1.0-557.0-0.0","0","0","47578","","null","","","null","61","","","","","","","","","","","","","","","",""
"","ITI","","html-keyboard-response","410","633518","0.0-1.0-558.0","0","0","47578","","null","","","null","61","","","","","","","","","","","","","","","NaN",""
"","S1","","html-keyboard-response","411","633669","0.0-1.0-560.0","0","0","47578","","null","","","null","62","","","","","","","","","","","","","","","",""
"","ISI","","html-keyboard-response","412","635673","0.0-1.0-561.0","0","0","47578","","null","","","null","62","NaN","","","","","","","","","","","","","","",""
"","S2","","html-keyboard-response","413","635826","0.0-1.0-562.0","0","0","47578","","null","","","null","62","","NaN","","","","","","","","","","","","","",""
"","response","","html-keyboard-response","414","636109","0.0-1.0-563.0-0.0","0","0","47578","","281","","","68","62","","","2","62","training","adjacent","DC","4","3","Q.jpg","O.jpg","1","0","0","",""
"","feedback","","html-keyboard-response","415","637113","0.0-1.0-564.0-0.0","0","0","47578","","null","","","null","62","","","","","","","","","","","","","","","",""
"","time_out","","html-keyboard-response","416","639118","0.0-1.0-566.0-0.0","0","0","47578","","null","","","null","62","","","","","","","","","","","","","","","",""
"","ITI","","html-keyboard-response","417","640122","0.0-1.0-567.0","0","0","47578","","null","","","null","62","","","","","","","","","","","","","","","NaN",""
"","S1","","html-keyboard-response","418","640274","0.0-1.0-569.0","0","0","47578","","null","","","null","63","","","","","","","","","","","","","","","",""
"","ISI","","html-keyboard-response","419","642278","0.0-1.0-570.0","0","0","47578","","null","","","null","63","NaN","","","","","","","","","","","","","","",""
"","S2","","html-keyboard-response","420","642430","0.0-1.0-571.0","0","0","47578","","null","","","null","63","","NaN","","","","","","","","","","","","","",""
"","response","","html-keyboard-response","421","643102","0.0-1.0-572.0-0.0","0","0","47578","","671","","","75","63","","","2","63","training","adjacent","EF","5","6","P.jpg","N.jpg","0","1","0","",""
"","feedback","","html-keyboard-response","422","644106","0.0-1.0-573.0-0.0","0","0","47578","","null","","","null","63","","","","","","","","","","","","","","","",""
"","time_out","","html-keyboard-response","423","646109","0.0-1.0-575.0-0.0","0","0","47578","","null","","","null","63","","","","","","","","","","","","","","","",""
"","ITI","","html-keyboard-response","424","647111","0.0-1.0-576.0","0","0","47578","","null","","","null","63","","","","","","","","","","","","","","","NaN",""
"","S1","","html-keyboard-response","425","647262","0.0-1.0-578.0","0","0","47578","","null","","","null","64","","","","","","","","","","","","","","","",""
"","ISI","","html-keyboard-response","426","649265","0.0-1.0-579.0","0","0","47578","","null","","","null","64","NaN","","","","","","","","","","","","","","",""
"","S2","","html-keyboard-response","427","649417","0.0-1.0-580.0","0","0","47578","","null","","","null","64","","NaN","","","","","","","","","","","","","",""
"","response","","html-keyboard-response","428","649925","0.0-1.0-581.0-0.0","0","0","47578","","506","","","68","64","","","2","64","training","adjacent","AB","1","2","L.jpg","R.jpg","1","1","1","",""
"","feedback","","html-keyboard-response","429","650931","0.0-1.0-582.0-0.0","0","0","47578","","null","","","null","64","","","","","","","","","","","","","","","",""
"","ITI","","html-keyboard-response","430","651935","0.0-1.0-585.0","0","0","47578","","null","","","null","64","","","","","","","","","","","","","","","NaN",""
"","S1","","html-keyboard-response","431","652090","0.0-1.0-587.0","0","0","47578","","null","","","null","65","","","","","","","","","","","","","","","",""
"","ISI","","html-keyboard-response","432","654093","0.0-1.0-588.0","0","0","47578","","null","","","null","65","NaN","","","","","","","","","","","","","","",""
"","S2","","html-keyboard-response","433","654247","0.0-1.0-589.0","0","0","47578","","null","","","null","65","","NaN","","","","","","","","","","","","","",""
"","response","","html-keyboard-response","434","654931","0.0-1.0-590.0-0.0","0","0","47578","","683","","","68","65","","","2","65","training","adjacent","CD","3","4","O.jpg","Q.jpg","1","1","1","",""
"","feedback","","html-keyboard-response","435","655933","0.0-1.0-591.0-0.0","0","0","47578","","null","","","null","65","","","","","","","","","","","","","","","",""
"","ITI","","html-keyboard-response","436","656938","0.0-1.0-594.0","0","0","47578","","null","","","null","65","","","","","","","","","","","","","","","NaN",""
"","S1","","html-keyboard-response","437","657089","0.0-1.0-596.0","0","0","47578","","null","","","null","66","","","","","","","","","","","","","","","",""
"","ISI","","html-keyboard-response","438","659094","0.0-1.0-597.0","0","0","47578","","null","","","null","66","NaN","","","","","","","","","","","","","","",""
"","S2","","html-keyboard-response","439","659249","0.0-1.0-598.0","0","0","47578","","null","","","null","66","","NaN","","","","","","","","","","","","","",""
"","response","","html-keyboard-response","440","659767","0.0-1.0-599.0-0.0","0","0","47578","","517","","","75","66","","","2","66","training","adjacent","FG","6","7","N.jpg","M.jpg","0","1","0","",""
"","feedback","","html-keyboard-response","441","660770","0.0-1.0-600.0-0.0","0","0","47578","","null","","","null","66","","","","","","","","","","","","","","","",""
"","time_out","","html-keyboard-response","442","662773","0.0-1.0-602.0-0.0","0","0","47578","","null","","","null","66","","","","","","","","","","","","","","","",""
"","ITI","","html-keyboard-response","443","663774","0.0-1.0-603.0","0","0","47578","","null","","","null","66","","","","","","","","","","","","","","","NaN",""
"","S1","","html-keyboard-response","444","663926","0.0-1.0-605.0","0","0","47578","","null","","","null","67","","","","","","","","","","","","","","","",""
"","ISI","","html-keyboard-response","445","665929","0.0-1.0-606.0","0","0","47578","","null","","","null","67","NaN","","","","","","","","","","","","","","",""
"","S2","","html-keyboard-response","446","666081","0.0-1.0-607.0","0","0","47578","","null","","","null","67","","NaN","","","","","","","","","","","","","",""
"","response","","html-keyboard-response","447","666534","0.0-1.0-608.0-0.0","0","0","47578","","451","","","68","67","","","2","67","training","adjacent","GF","7","6","M.jpg","N.jpg","1","0","0","",""
"","feedback","","html-keyboard-response","448","667539","0.0-1.0-609.0-0.0","0","0","47578","","null","","","null","67","","","","","","","","","","","","","","","",""
"","time_out","","html-keyboard-response","449","669542","0.0-1.0-611.0-0.0","0","0","47578","","null","","","null","67","","","","","","","","","","","","","","","",""
"","ITI","","html-keyboard-response","450","670546","0.0-1.0-612.0","0","0","47578","","null","","","null","67","","","","","","","","","","","","","","","NaN",""
"","S1","","html-keyboard-response","451","670698","0.0-1.0-614.0","0","0","47578","","null","","","null","68","","","","","","","","","","","","","","","",""
"","ISI","","html-keyboard-response","452","672702","0.0-1.0-615.0","0","0","47578","","null","","","null","68","NaN","","","","","","","","","","","","","","",""
"","S2","","html-keyboard-response","453","672854","0.0-1.0-616.0","0","0","47578","","null","","","null","68","","NaN","","","","","","","","","","","","","",""
"","response","","html-keyboard-response","454","673435","0.0-1.0-617.0-0.0","0","0","47578","","579","","","68","68","","","2","68","training","adjacent","AB","1","2","L.jpg","R.jpg","1","1","1","",""
"","feedback","","html-keyboard-response","455","674437","0.0-1.0-618.0-0.0","0","0","47578","","null","","","null","68","","","","","","","","","","","","","","","",""
"","ITI","","html-keyboard-response","456","675439","0.0-1.0-621.0","0","0","47578","","null","","","null","68","","","","","","","","","","","","","","","NaN",""
"","S1","","html-keyboard-response","457","675594","0.0-1.0-623.0","0","0","47578","","null","","","null","69","","","","","","","","","","","","","","","",""
"","ISI","","html-keyboard-response","458","677598","0.0-1.0-624.0","0","0","47578","","null","","","null","69","NaN","","","","","","","","","","","","","","",""
"","S2","","html-keyboard-response","459","677754","0.0-1.0-625.0","0","0","47578","","null","","","null","69","","NaN","","","","","","","","","","","","","",""
"","response","","html-keyboard-response","460","678579","0.0-1.0-626.0-0.0","0","0","47578","","824","","","75","69","","","2","69","training","adjacent","DC","4","3","Q.jpg","O.jpg","0","0","1","",""
"","feedback","","html-keyboard-response","461","679582","0.0-1.0-627.0-0.0","0","0","47578","","null","","","null","69","","","","","","","","","","","","","","","",""
"","ITI","","html-keyboard-response","462","680586","0.0-1.0-630.0","0","0","47578","","null","","","null","69","","","","","","","","","","","","","","","NaN",""
"","S1","","html-keyboard-response","463","680738","0.0-1.0-632.0","0","0","47578","","null","","","null","70","","","","","","","","","","","","","","","",""
"","ISI","","html-keyboard-response","464","682742","0.0-1.0-633.0","0","0","47578","","null","","","null","70","NaN","","","","","","","","","","","","","","",""
"","S2","","html-keyboard-response","465","682897","0.0-1.0-634.0","0","0","47578","","null","","","null","70","","NaN","","","","","","","","","","","","","",""
"","response","","html-keyboard-response","466","683691","0.0-1.0-635.0-0.0","0","0","47578","","793","","","68","70","","","2","70","training","adjacent","BC","2","3","R.jpg","O.jpg","1","1","1","",""
"","feedback","","html-keyboard-response","467","684693","0.0-1.0-636.0-0.0","0","0","47578","","null","","","null","70","","","","","","","","","","","","","","","",""
"","ITI","","html-keyboard-response","468","685697","0.0-1.0-639.0","0","0","47578","","null","","","null","70","","","","","","","","","","","","","","","NaN",""
"","S1","","html-keyboard-response","469","685850","0.0-1.0-641.0","0","0","47578","","null","","","null","71","","","","","","","","","","","","","","","",""
"","ISI","","html-keyboard-response","470","687853","0.0-1.0-642.0","0","0","47578","","null","","","null","71","NaN","","","","","","","","","","","","","","",""
"","S2","","html-keyboard-response","471","688006","0.0-1.0-643.0","0","0","47578","","null","","","null","71","","NaN","","","","","","","","","","","","","",""
"","response","","html-keyboard-response","472","688936","0.0-1.0-644.0-0.0","0","0","47578","","928","","","75","71","","","2","71","training","adjacent","FG","6","7","N.jpg","M.jpg","0","1","0","",""
"","feedback","","html-keyboard-response","473","689938","0.0-1.0-645.0-0.0","0","0","47578","","null","","","null","71","","","","","","","","","","","","","","","",""
"","time_out","","html-keyboard-response","474","691942","0.0-1.0-647.0-0.0","0","0","47578","","null","","","null","71","","","","","","","","","","","","","","","",""
"","ITI","","html-keyboard-response","475","692946","0.0-1.0-648.0","0","0","47578","","null","","","null","71","","","","","","","","","","","","","","","NaN",""
"","S1","","html-keyboard-response","476","693097","0.0-1.0-650.0","0","0","47578","","null","","","null","72","","","","","","","","","","","","","","","",""
"","ISI","","html-keyboard-response","477","695102","0.0-1.0-651.0","0","0","47578","","null","","","null","72","NaN","","","","","","","","","","","","","","",""
"","S2","","html-keyboard-response","478","695254","0.0-1.0-652.0","0","0","47578","","null","","","null","72","","NaN","","","","","","","","","","","","","",""
"","response","","html-keyboard-response","479","695651","0.0-1.0-653.0-0.0","0","0","47578","","395","","","68","72","","","2","72","training","adjacent","DE","4","5","Q.jpg","P.jpg","1","1","1","",""
"","feedback","","html-keyboard-response","480","696654","0.0-1.0-654.0-0.0","0","0","47578","","null","","","null","72","","","","","","","","","","","","","","","",""
"","ITI","","html-keyboard-response","481","697657","0.0-1.0-657.0","0","0","47578","","null","","","null","72","","","","","","","","","","","","","","","NaN",""
"","S1","","html-keyboard-response","482","697809","0.0-1.0-659.0","0","0","47578","","null","","","null","73","","","","","","","","","","","","","","","",""
"","ISI","","html-keyboard-response","483","699811","0.0-1.0-660.0","0","0","47578","","null","","","null","73","NaN","","","","","","","","","","","","","","",""
"","S2","","html-keyboard-response","484","699966","0.0-1.0-661.0","0","0","47578","","null","","","null","73","","NaN","","","","","","","","","","","","","",""
"","response","","html-keyboard-response","485","700467","0.0-1.0-662.0-0.0","0","0","47578","","500","","","68","73","","","2","73","training","adjacent","CB","3","2","O.jpg","R.jpg","1","0","0","",""
"","feedback","","html-keyboard-response","486","701470","0.0-1.0-663.0-0.0","0","0","47578","","null","","","null","73","","","","","","","","","","","","","","","",""
"","time_out","","html-keyboard-response","487","703473","0.0-1.0-665.0-0.0","0","0","47578","","null","","","null","73","","","","","","","","","","","","","","","",""
"","ITI","","html-keyboard-response","488","704477","0.0-1.0-666.0","0","0","47578","","null","","","null","73","","","","","","","","","","","","","","","NaN",""
"","S1","","html-keyboard-response","489","704630","0.0-1.0-668.0","0","0","47578","","null","","","null","74","","","","","","","","","","","","","","","",""
"","ISI","","html-keyboard-response","490","706633","0.0-1.0-669.0","0","0","47578","","null","","","null","74","NaN","","","","","","","","","","","","","","",""
"","S2","","html-keyboard-response","491","706786","0.0-1.0-670.0","0","0","47578","","null","","","null","74","","NaN","","","","","","","","","","","","","",""
"","response","","html-keyboard-response","492","707466","0.0-1.0-671.0-0.0","0","0","47578","","679","","","75","74","","","2","74","training","adjacent","EF","5","6","P.jpg","N.jpg","0","1","0","",""
"","feedback","","html-keyboard-response","493","708470","0.0-1.0-672.0-0.0","0","0","47578","","null","","","null","74","","","","","","","","","","","","","","","",""
"","time_out","","html-keyboard-response","494","710473","0.0-1.0-674.0-0.0","0","0","47578","","null","","","null","74","","","","","","","","","","","","","","","",""
"","ITI","","html-keyboard-response","495","711477","0.0-1.0-675.0","0","0","47578","","null","","","null","74","","","","","","","","","","","","","","","NaN",""
"","S1","","html-keyboard-response","496","711630","0.0-1.0-677.0","0","0","47578","","null","","","null","75","","","","","","","","","","","","","","","",""
"","ISI","","html-keyboard-response","497","713633","0.0-1.0-678.0","0","0","47578","","null","","","null","75","NaN","","","","","","","","","","","","","","",""
"","S2","","html-keyboard-response","498","713786","0.0-1.0-679.0","0","0","47578","","null","","","null","75","","NaN","","","","","","","","","","","","","",""
"","response","","html-keyboard-response","499","713861","0.0-1.0-680.0-0.0","0","0","47578","","75","","","68","75","","","2","75","training","adjacent","CB","3","2","O.jpg","R.jpg","1","0","0","",""
"","feedback","","html-keyboard-response","500","714866","0.0-1.0-681.0-0.0","0","0","47578","","null","","","null","75","","","","","","","","","","","","","","","",""
"","time_out","","html-keyboard-response","501","716869","0.0-1.0-683.0-0.0","0","0","47578","","null","","","null","75","","","","","","","","","","","","","","","",""
"","ITI","","html-keyboard-response","502","717874","0.0-1.0-684.0","0","0","47578","","null","","","null","75","","","","","","","","","","","","","","","NaN",""
"","S1","","html-keyboard-response","503","718025","0.0-1.0-686.0","0","0","47578","","null","","","null","76","","","","","","","","","","","","","","","",""
"","ISI","","html-keyboard-response","504","720030","0.0-1.0-687.0","0","0","47578","","null","","","null","76","NaN","","","","","","","","","","","","","","",""
"","S2","","html-keyboard-response","505","720182","0.0-1.0-688.0","0","0","47578","","null","","","null","76","","NaN","","","","","","","","","","","","","",""
"","response","","html-keyboard-response","506","720191","0.0-1.0-689.0-0.0","0","0","47578","","8","","","75","76","","","2","76","training","adjacent","DE","4","5","Q.jpg","P.jpg","0","1","0","",""
"","feedback","","html-keyboard-response","507","721194","0.0-1.0-690.0-0.0","0","0","47578","","null","","","null","76","","","","","","","","","","","","","","","",""
"","time_out","","html-keyboard-response","508","723197","0.0-1.0-692.0-0.0","0","0","47578","","null","","","null","76","","","","","","","","","","","","","","","",""
"","ITI","","html-keyboard-response","509","724202","0.0-1.0-693.0","0","0","47578","","null","","","null","76","","","","","","","","","","","","","","","NaN",""
"","S1","","html-keyboard-response","510","724354","0.0-1.0-695.0","0","0","47578","","null","","","null","77","","","","","","","","","","","","","","","",""
"","ISI","","html-keyboard-response","511","726358","0.0-1.0-696.0","0","0","47578","","null","","","null","77","NaN","","","","","","","","","","","","","","",""
"","S2","","html-keyboard-response","512","726513","0.0-1.0-697.0","0","0","47578","","null","","","null","77","","NaN","","","","","","","","","","","","","",""
"","response","","html-keyboard-response","513","726768","0.0-1.0-698.0-0.0","0","0","47578","","253","","","68","77","","","2","77","training","adjacent","EF","5","6","P.jpg","N.jpg","1","1","1","",""
"","feedback","","html-keyboard-response","514","727770","0.0-1.0-699.0-0.0","0","0","47578","","null","","","null","77","","","","","","","","","","","","","","","",""
"","ITI","","html-keyboard-response","515","728774","0.0-1.0-702.0","0","0","47578","","null","","","null","77","","","","","","","","","","","","","","","NaN",""
"","S1","","html-keyboard-response","516","728927","0.0-1.0-704.0","0","0","47578","","null","","","null","78","","","","","","","","","","","","","","","",""
"","ISI","","html-keyboard-response","517","730929","0.0-1.0-705.0","0","0","47578","","null","","","null","78","NaN","","","","","","","","","","","","","","",""
"","S2","","html-keyboard-response","518","731082","0.0-1.0-706.0","0","0","47578","","null","","","null","78","","NaN","","","","","","","","","","","","","",""
"","response","","html-keyboard-response","519","731483","0.0-1.0-707.0-0.0","0","0","47578","","400","","","75","78","","","2","78","training","adjacent","ED","5","4","P.jpg","Q.jpg","0","0","1","",""
"","feedback","","html-keyboard-response","520","732487","0.0-1.0-708.0-0.0","0","0","47578","","null","","","null","78","","","","","","","","","","","","","","","",""
"","ITI","","html-keyboard-response","521","733489","0.0-1.0-711.0","0","0","47578","","null","","","null","78","","","","","","","","","","","","","","","NaN",""
"","S1","","html-keyboard-response","522","733642","0.0-1.0-713.0","0","0","47578","","null","","","null","79","","","","","","","","","","","","","","","",""
"","ISI","","html-keyboard-response","523","735647","0.0-1.0-714.0","0","0","47578","","null","","","null","79","NaN","","","","","","","","","","","","","","",""
"","S2","","html-keyboard-response","524","735802","0.0-1.0-715.0","0","0","47578","","null","","","null","79","","NaN","","","","","","","","","","","","","",""
"","response","","html-keyboard-response","525","736524","0.0-1.0-716.0-0.0","0","0","47578","","721","","","68","79","","","2","79","training","adjacent","BA","2","1","R.jpg","L.jpg","1","0","0","",""
"","feedback","","html-keyboard-response","526","737526","0.0-1.0-717.0-0.0","0","0","47578","","null","","","null","79","","","","","","","","","","","","","","","",""
"","time_out","","html-keyboard-response","527","739530","0.0-1.0-719.0-0.0","0","0","47578","","null","","","null","79","","","","","","","","","","","","","","","",""
"","ITI","","html-keyboard-response","528","740533","0.0-1.0-720.0","0","0","47578","","null","","","null","79","","","","","","","","","","","","","","","NaN",""
"","S1","","html-keyboard-response","529","740686","0.0-1.0-722.0","0","0","47578","","null","","","null","80","","","","","","","","","","","","","","","",""
"","ISI","","html-keyboard-response","530","742691","0.0-1.0-723.0","0","0","47578","","null","","","null","80","NaN","","","","","","","","","","","","","","",""
"","S2","","html-keyboard-response","531","742846","0.0-1.0-724.0","0","0","47578","","null","","","null","80","","NaN","","","","","","","","","","","","","",""
"","response","","html-keyboard-response","532","743223","0.0-1.0-725.0-0.0","0","0","47578","","376","","","75","80","","","2","80","training","adjacent","ED","5","4","P.jpg","Q.jpg","0","0","1","",""
"","feedback","","html-keyboard-response","533","744226","0.0-1.0-726.0-0.0","0","0","47578","","null","","","null","80","","","","","","","","","","","","","","","",""
"","ITI","","html-keyboard-response","534","745229","0.0-1.0-729.0","0","0","47578","","null","","","null","80","","","","","","","","","","","","","","","NaN",""
"","S1","","html-keyboard-response","535","745381","0.0-1.0-731.0","0","0","47578","","null","","","null","81","","","","","","","","","","","","","","","",""
"","ISI","","html-keyboard-response","536","747386","0.0-1.0-732.0","0","0","47578","","null","","","null","81","NaN","","","","","","","","","","","","","","",""
"","S2","","html-keyboard-response","537","747538","0.0-1.0-733.0","0","0","47578","","null","","","null","81","","NaN","","","","","","","","","","","","","",""
"","response","","html-keyboard-response","538","748313","0.0-1.0-734.0-0.0","0","0","47578","","774","","","75","81","","","2","81","training","adjacent","DC","4","3","Q.jpg","O.jpg","0","0","1","",""
"","feedback","","html-keyboard-response","539","749319","0.0-1.0-735.0-0.0","0","0","47578","","null","","","null","81","","","","","","","","","","","","","","","",""
"","ITI","","html-keyboard-response","540","750322","0.0-1.0-738.0","0","0","47578","","null","","","null","81","","","","","","","","","","","","","","","NaN",""
"","S1","","html-keyboard-response","541","750473","0.0-1.0-740.0","0","0","47578","","null","","","null","82","","","","","","","","","","","","","","","",""
"","ISI","","html-keyboard-response","542","752477","0.0-1.0-741.0","0","0","47578","","null","","","null","82","NaN","","","","","","","","","","","","","","",""
"","S2","","html-keyboard-response","543","752630","0.0-1.0-742.0","0","0","47578","","null","","","null","82","","NaN","","","","","","","","","","","","","",""
"","response","","html-keyboard-response","544","752911","0.0-1.0-743.0-0.0","0","0","47578","","280","","","68","82","","","2","82","training","adjacent","BC","2","3","R.jpg","O.jpg","1","1","1","",""
"","feedback","","html-keyboard-response","545","753913","0.0-1.0-744.0-0.0","0","0","47578","","null","","","null","82","","","","","","","","","","","","","","","",""
"","ITI","","html-keyboard-response","546","754918","0.0-1.0-747.0","0","0","47578","","null","","","null","82","","","","","","","","","","","","","","","NaN",""
"","S1","","html-keyboard-response","547","755069","0.0-1.0-749.0","0","0","47578","","null","","","null","83","","","","","","","","","","","","","","","",""
"","ISI","","html-keyboard-response","548","757073","0.0-1.0-750.0","0","0","47578","","null","","","null","83","NaN","","","","","","","","","","","","","","",""
"","S2","","html-keyboard-response","549","757226","0.0-1.0-751.0","0","0","47578","","null","","","null","83","","NaN","","","","","","","","","","","","","",""
"","response","","html-keyboard-response","550","757386","0.0-1.0-752.0-0.0","0","0","47578","","159","","","68","83","","","2","83","training","adjacent","DE","4","5","Q.jpg","P.jpg","1","1","1","",""
"","feedback","","html-keyboard-response","551","758391","0.0-1.0-753.0-0.0","0","0","47578","","null","","","null","83","","","","","","","","","","","","","","","",""
"","ITI","","html-keyboard-response","552","759393","0.0-1.0-756.0","0","0","47578","","null","","","null","83","","","","","","","","","","","","","","","NaN",""
"","S1","","html-keyboard-response","553","759546","0.0-1.0-758.0","0","0","47578","","null","","","null","84","","","","","","","","","","","","","","","",""
"","ISI","","html-keyboard-response","554","761549","0.0-1.0-759.0","0","0","47578","","null","","","null","84","NaN","","","","","","","","","","","","","","",""
"","S2","","html-keyboard-response","555","761702","0.0-1.0-760.0","0","0","47578","","null","","","null","84","","NaN","","","","","","","","","","","","","",""
"","response","","html-keyboard-response","556","761804","0.0-1.0-761.0-0.0","0","0","47578","","101","","","68","84","","","2","84","training","adjacent","BA","2","1","R.jpg","L.jpg","1","0","0","",""
"","feedback","","html-keyboard-response","557","762806","0.0-1.0-762.0-0.0","0","0","47578","","null","","","null","84","","","","","","","","","","","","","","","",""
"","time_out","","html-keyboard-response","558","764809","0.0-1.0-764.0-0.0","0","0","47578","","null","","","null","84","","","","","","","","","","","","","","","",""
"","ITI","","html-keyboard-response","559","765814","0.0-1.0-765.0","0","0","47578","","null","","","null","84","","","","","","","","","","","","","","","NaN",""
"","S1","","html-keyboard-response","560","765966","0.0-1.0-767.0","0","0","47578","","null","","","null","85","","","","","","","","","","","","","","","",""
"","ISI","","html-keyboard-response","561","767970","0.0-1.0-768.0","0","0","47578","","null","","","null","85","NaN","","","","","","","","","","","","","","",""
"","S2","","html-keyboard-response","562","768122","0.0-1.0-769.0","0","0","47578","","null","","","null","85","","NaN","","","","","","","","","","","","","",""
"","response","","html-keyboard-response","563","768220","0.0-1.0-770.0-0.0","0","0","47578","","96","","","75","85","","","2","85","training","adjacent","AB","1","2","L.jpg","R.jpg","0","1","0","",""
"","feedback","","html-keyboard-response","564","769226","0.0-1.0-771.0-0.0","0","0","47578","","null","","","null","85","","","","","","","","","","","","","","","",""
"","time_out","","html-keyboard-response","565","771230","0.0-1.0-773.0-0.0","0","0","47578","","null","","","null","85","","","","","","","","","","","","","","","",""
"","ITI","","html-keyboard-response","566","772233","0.0-1.0-774.0","0","0","47578","","null","","","null","85","","","","","","","","","","","","","","","NaN",""
"","S1","","html-keyboard-response","567","772386","0.0-1.0-776.0","0","0","47578","","null","","","null","86","","","","","","","","","","","","","","","",""
"","ISI","","html-keyboard-response","568","774389","0.0-1.0-777.0","0","0","47578","","null","","","null","86","NaN","","","","","","","","","","","","","","",""
"","S2","","html-keyboard-response","569","774542","0.0-1.0-778.0","0","0","47578","","null","","","null","86","","NaN","","","","","","","","","","","","","",""
"","response","","html-keyboard-response","570","774845","0.0-1.0-779.0-0.0","0","0","47578","","302","","","68","86","","","2","86","training","adjacent","BC","2","3","R.jpg","O.jpg","1","1","1","",""
"","feedback","","html-keyboard-response","571","775849","0.0-1.0-780.0-0.0","0","0","47578","","null","","","null","86","","","","","","","","","","","","","","","",""
"","ITI","","html-keyboard-response","572","776855","0.0-1.0-783.0","0","0","47578","","null","","","null","86","","","","","","","","","","","","","","","NaN",""
"","S1","","html-keyboard-response","573","777006","0.0-1.0-785.0","0","0","47578","","null","","","null","87","","","","","","","","","","","","","","","",""
"","ISI","","html-keyboard-response","574","779009","0.0-1.0-786.0","0","0","47578","","null","","","null","87","NaN","","","","","","","","","","","","","","",""
"","S2","","html-keyboard-response","575","779162","0.0-1.0-787.0","0","0","47578","","null","","","null","87","","NaN","","","","","","","","","","","","","",""
"","response","","html-keyboard-response","576","779486","0.0-1.0-788.0-0.0","0","0","47578","","323","","","68","87","","","2","87","training","adjacent","CD","3","4","O.jpg","Q.jpg","1","1","1","",""
"","feedback","","html-keyboard-response","577","780489","0.0-1.0-789.0-0.0","0","0","47578","","null","","","null","87","","","","","","","","","","","","","","","",""
"","ITI","","html-keyboard-response","578","781493","0.0-1.0-792.0","0","0","47578","","null","","","null","87","","","","","","","","","","","","","","","NaN",""
