"success","ttype","start_time","trial_type","trial_index","time_elapsed","internal_node_id","warning","missed_checkup","PID","view_history","rt","responses","repeat_instructions","key_press","index","keypress_isi","keypress_S2","block","trial_num","phase","group_type","pair_type","S1_stim","S2_stim","S1_img","S2_img","S1_chosen","S1_higher","accuracy","keypress_iti","total_bonus_tally"
"true","full_screen","d03072023hr1900","fullscreen","0","6557","0.0-0.0","0","0","96097","","","","","","","","","","","","","","","","","","","","","",""
"","instructions","","instructions","1","62771","0.0-1.0-0.0-0.0","0","0","96097","[{""page_index"":0,""viewing_time"":30234},{""page_index"":1,""viewing_time"":14363},{""page_index"":2,""viewing_time"":9877},{""page_index"":3,""viewing_time"":1724}]","56202","","","","","","","","","","","","","","","","","","","",""
"","comprehension_check","","survey-multi-choice","2","82921","0.0-1.0-0.0-1.0","0","0","96097","","20128","{""Q0"":""True"",""Q1"":""K"",""Q2"":""Only when the screen 'MAKE A CHOICE' is shown"",""Q3"":""Green mark"",""Q4"":""either D or K""}","1","","","","","","","","","","","","","","","","","",""
"","missed_instruction_checkup","","html-keyboard-response","3","84827","0.0-1.0-0.0-2.0-0.0","0","1","96097","","1882","","","32","","","","","","","","","","","","","","","","",""
"","instructions","","instructions","4","95473","0.0-1.0-0.1-0.1","0","0","96097","[{""page_index"":0,""viewing_time"":2047},{""page_index"":1,""viewing_time"":6995},{""page_index"":2,""viewing_time"":650},{""page_index"":3,""viewing_time"":942}]","10636","","","","","","","","","","","","","","","","","","","",""
"","comprehension_check","","survey-multi-choice","5","108471","0.0-1.0-0.1-1.1","0","0","96097","","12969","{""Q0"":""True"",""Q1"":""K"",""Q2"":""Once the second image appears and while the screen 'MAKE A CHOICE' is shown"",""Q3"":""Green mark"",""Q4"":""either D or K""}","0","","","","","","","","","","","","","","","","","",""
"","start_exp","","html-keyboard-response","6","109419","0.0-1.0-1.0","0","0","96097","","928","","","32","","","","","","","","","","","","","","","","",""
"","S1","","html-keyboard-response","7","109678","0.0-1.0-2.0","0","0","96097","","null","","","null","0","","","","","","","","","","","","","","","",""
"","ISI","","html-keyboard-response","8","110688","0.0-1.0-3.0","0","0","96097","","null","","","null","0","NaN","","","","","","","","","","","","","","",""
"","S2","","html-keyboard-response","9","110953","0.0-1.0-4.0","0","0","96097","","null","","","null","0","","NaN","","","","","","","","","","","","","",""
"","response","","html-keyboard-response","10","112206","0.0-1.0-5.0-0.0","0","0","96097","","1239","","","75","0","","","1","0","training","adjacent","DC","4","3","Q.jpg","O.jpg","1","0","0","",""
"","feedback","","html-keyboard-response","11","113222","0.0-1.0-6.0-0.0","0","0","96097","","null","","","null","0","","","","","","","","","","","","","","","",""
"","time_out","","html-keyboard-response","12","115235","0.0-1.0-8.0-0.0","0","0","96097","","null","","","null","0","","","","","","","","","","","","","","","",""
"","ITI","","html-keyboard-response","13","116246","0.0-1.0-9.0","0","0","96097","","null","","","null","0","","","","","","","","","","","","","","","NaN",""
"","S1","","html-keyboard-response","14","116509","0.0-1.0-11.0","0","0","96097","","null","","","null","1","","","","","","","","","","","","","","","",""
"","ISI","","html-keyboard-response","15","117519","0.0-1.0-12.0","0","0","96097","","null","","","null","1","NaN","","","","","","","","","","","","","","",""
"","S2","","html-keyboard-response","16","117782","0.0-1.0-13.0","0","0","96097","","null","","","null","1","","NaN","","","","","","","","","","","","","",""
"","response","","html-keyboard-response","17","119041","0.0-1.0-14.0-0.0","0","0","96097","","1247","","","68","1","","","1","1","training","adjacent","EF","5","6","M.jpg","N.jpg","0","1","0","",""
"","feedback","","html-keyboard-response","18","120054","0.0-1.0-15.0-0.0","0","0","96097","","null","","","null","1","","","","","","","","","","","","","","","",""
"","time_out","","html-keyboard-response","19","122067","0.0-1.0-17.0-0.0","0","0","96097","","null","","","null","1","","","","","","","","","","","","","","","",""
"","ITI","","html-keyboard-response","20","123085","0.0-1.0-18.0","0","0","96097","","null","","","null","1","","","","","","","","","","","","","","","NaN",""
"","S1","","html-keyboard-response","21","123348","0.0-1.0-20.0","0","0","96097","","null","","","null","2","","","","","","","","","","","","","","","",""
"","ISI","","html-keyboard-response","22","124355","0.0-1.0-21.0","0","0","96097","","null","","","null","2","NaN","","","","","","","","","","","","","","",""
"","S2","","html-keyboard-response","23","124617","0.0-1.0-22.0","0","0","96097","","null","","","null","2","","NaN","","","","","","","","","","","","","",""
"","response","","html-keyboard-response","24","125543","0.0-1.0-23.0-0.0","0","0","96097","","914","","","68","2","","","1","2","training","adjacent","BC","2","3","L.jpg","O.jpg","0","1","0","",""
"","feedback","","html-keyboard-response","25","126552","0.0-1.0-24.0-0.0","0","0","96097","","null","","","null","2","","","","","","","","","","","","","","","",""
"","time_out","","html-keyboard-response","26","128567","0.0-1.0-26.0-0.0","0","0","96097","","null","","","null","2","","","","","","","","","","","","","","","",""
"","ITI","","html-keyboard-response","27","129581","0.0-1.0-27.0","0","0","96097","","null","","","null","2","","","","","","","","","","","","","","","NaN",""
"","S1","","html-keyboard-response","28","129844","0.0-1.0-29.0","0","0","96097","","null","","","null","3","","","","","","","","","","","","","","","",""
"","ISI","","html-keyboard-response","29","130855","0.0-1.0-30.0","0","0","96097","","null","","","null","3","NaN","","","","","","","","","","","","","","",""
"","S2","","html-keyboard-response","30","131120","0.0-1.0-31.0","0","0","96097","","null","","","null","3","","NaN","","","","","","","","","","","","","",""
"","response","","html-keyboard-response","31","131714","0.0-1.0-32.0-0.0","0","0","96097","","581","","","75","3","","","1","3","training","adjacent","CD","3","4","O.jpg","Q.jpg","1","1","1","",""
"","feedback","","html-keyboard-response","32","132726","0.0-1.0-33.0-0.0","0","0","96097","","null","","","null","3","","","","","","","","","","","","","","","",""
"","ITI","","html-keyboard-response","33","133739","0.0-1.0-36.0","0","0","96097","","null","","","null","3","","","","","","","","","","","","","","","NaN",""
"","S1","","html-keyboard-response","34","134002","0.0-1.0-38.0","0","0","96097","","null","","","null","4","","","","","","","","","","","","","","","",""
"","ISI","","html-keyboard-response","35","135015","0.0-1.0-39.0","0","0","96097","","null","","","null","4","NaN","","","","","","","","","","","","","","",""
"","S2","","html-keyboard-response","36","135274","0.0-1.0-40.0","0","0","96097","","null","","","null","4","","NaN","","","","","","","","","","","","","",""
"","response","","html-keyboard-response","37","136399","0.0-1.0-41.0-0.0","0","0","96097","","1118","","","68","4","","","1","4","training","adjacent","FG","6","7","N.jpg","R.jpg","0","1","0","",""
"","feedback","","html-keyboard-response","38","137413","0.0-1.0-42.0-0.0","0","0","96097","","null","","","null","4","","","","","","","","","","","","","","","",""
"","time_out","","html-keyboard-response","39","139427","0.0-1.0-44.0-0.0","0","0","96097","","null","","","null","4","","","","","","","","","","","","","","","",""
"","ITI","","html-keyboard-response","40","140437","0.0-1.0-45.0","0","0","96097","","null","","","null","4","","","","","","","","","","","","","","","NaN",""
"","S1","","html-keyboard-response","41","140697","0.0-1.0-47.0","0","0","96097","","null","","","null","5","","","","","","","","","","","","","","","",""
"","ISI","","html-keyboard-response","42","141708","0.0-1.0-48.0","0","0","96097","","null","","","null","5","NaN","","","","","","","","","","","","","","",""
"","S2","","html-keyboard-response","43","141972","0.0-1.0-49.0","0","0","96097","","null","","","null","5","","NaN","","","","","","","","","","","","","",""
"","response","","html-keyboard-response","44","142249","0.0-1.0-50.0-0.0","0","0","96097","","267","","","75","5","","","1","5","training","adjacent","CB","3","2","O.jpg","L.jpg","1","0","0","",""
"","feedback","","html-keyboard-response","45","143263","0.0-1.0-51.0-0.0","0","0","96097","","null","","","null","5","","","","","","","","","","","","","","","",""
"","time_out","","html-keyboard-response","46","145277","0.0-1.0-53.0-0.0","0","0","96097","","null","","","null","5","","","","","","","","","","","","","","","",""
"","ITI","","html-keyboard-response","47","146286","0.0-1.0-54.0","0","0","96097","","null","","","null","5","","","","","","","","","","","","","","","NaN",""
"","S1","","html-keyboard-response","48","146547","0.0-1.0-56.0","0","0","96097","","null","","","null","6","","","","","","","","","","","","","","","",""
"","ISI","","html-keyboard-response","49","147560","0.0-1.0-57.0","0","0","96097","","null","","","null","6","NaN","","","","","","","","","","","","","","",""
"","S2","","html-keyboard-response","50","147824","0.0-1.0-58.0","0","0","96097","","null","","","null","6","","NaN","","","","","","","","","","","","","",""
"","response","","html-keyboard-response","51","148789","0.0-1.0-59.0-0.0","0","0","96097","","954","","","68","6","","","1","6","training","adjacent","DC","4","3","Q.jpg","O.jpg","0","0","1","",""
"","feedback","","html-keyboard-response","52","149801","0.0-1.0-60.0-0.0","0","0","96097","","null","","","null","6","","","","","","","","","","","","","","","",""
"","ITI","","html-keyboard-response","53","150825","0.0-1.0-63.0","0","0","96097","","null","","","null","6","","","","","","","","","","","","","","","NaN",""
"","S1","","html-keyboard-response","54","151085","0.0-1.0-65.0","0","0","96097","","null","","","null","7","","","","","","","","","","","","","","","",""
"","ISI","","html-keyboard-response","55","152094","0.0-1.0-66.0","0","0","96097","","null","","","null","7","NaN","","","","","","","","","","","","","","",""
"","S2","","html-keyboard-response","56","152357","0.0-1.0-67.0","0","0","96097","","null","","","null","7","","NaN","","","","","","","","","","","","","",""
"","response","","html-keyboard-response","57","153334","0.0-1.0-68.0-0.0","0","0","96097","","964","","","68","7","","","1","7","training","adjacent","GF","7","6","R.jpg","N.jpg","0","0","1","",""
"","feedback","","html-keyboard-response","58","154343","0.0-1.0-69.0-0.0","0","0","96097","","null","","","null","7","","","","","","","","","","","","","","","",""
"","ITI","","html-keyboard-response","59","155356","0.0-1.0-72.0","0","0","96097","","null","","","null","7","","","","","","","","","","","","","","","NaN",""
"","S1","","html-keyboard-response","60","155621","0.0-1.0-74.0","0","0","96097","","null","","","null","8","","","","","","","","","","","","","","","",""
"","ISI","","html-keyboard-response","61","156631","0.0-1.0-75.0","0","0","96097","","null","","","null","8","NaN","","","","","","","","","","","","","","",""
"","S2","","html-keyboard-response","62","156893","0.0-1.0-76.0","0","0","96097","","null","","","null","8","","NaN","","","","","","","","","","","","","",""
"","response","","html-keyboard-response","63","157442","0.0-1.0-77.0-0.0","0","0","96097","","538","","","75","8","","","1","8","training","adjacent","FG","6","7","N.jpg","R.jpg","1","1","1","",""
"","feedback","","html-keyboard-response","64","158451","0.0-1.0-78.0-0.0","0","0","96097","","null","","","null","8","","","","","","","","","","","","","","","",""
"","ITI","","html-keyboard-response","65","159463","0.0-1.0-81.0","0","0","96097","","null","","","null","8","","","","","","","","","","","","","","","NaN",""
"","S1","","html-keyboard-response","66","159727","0.0-1.0-83.0","0","0","96097","","null","","","null","9","","","","","","","","","","","","","","","",""
"","ISI","","html-keyboard-response","67","160739","0.0-1.0-84.0","0","0","96097","","null","","","null","9","NaN","","","","","","","","","","","","","","",""
"","S2","","html-keyboard-response","68","161004","0.0-1.0-85.0","0","0","96097","","null","","","null","9","","NaN","","","","","","","","","","","","","",""
"","response","","html-keyboard-response","69","162106","0.0-1.0-86.0-0.0","0","0","96097","","1089","","","75","9","","","1","9","training","adjacent","FE","6","5","N.jpg","M.jpg","1","0","0","",""
"","feedback","","html-keyboard-response","70","163118","0.0-1.0-87.0-0.0","0","0","96097","","null","","","null","9","","","","","","","","","","","","","","","",""
"","time_out","","html-keyboard-response","71","165131","0.0-1.0-89.0-0.0","0","0","96097","","null","","","null","9","","","","","","","","","","","","","","","",""
"","ITI","","html-keyboard-response","72","166142","0.0-1.0-90.0","0","0","96097","","null","","","null","9","","","","","","","","","","","","","","","NaN",""
"","S1","","html-keyboard-response","73","166402","0.0-1.0-92.0","0","0","96097","","null","","","null","10","","","","","","","","","","","","","","","",""
"","ISI","","html-keyboard-response","74","167414","0.0-1.0-93.0","0","0","96097","","null","","","null","10","NaN","","","","","","","","","","","","","","",""
"","S2","","html-keyboard-response","75","167679","0.0-1.0-94.0","0","0","96097","","null","","","null","10","","NaN","","","","","","","","","","","","","",""
"","response","","html-keyboard-response","76","168613","0.0-1.0-95.0-0.0","0","0","96097","","923","","","75","10","","","1","10","training","adjacent","GF","7","6","R.jpg","N.jpg","1","0","0","",""
"","feedback","","html-keyboard-response","77","169627","0.0-1.0-96.0-0.0","0","0","96097","","null","","","null","10","","","","","","","","","","","","","","","",""
"","time_out","","html-keyboard-response","78","171642","0.0-1.0-98.0-0.0","0","0","96097","","null","","","null","10","","","","","","","","","","","","","","","",""
"","ITI","","html-keyboard-response","79","172651","0.0-1.0-99.0","0","0","96097","","null","","","null","10","","","","","","","","","","","","","","","NaN",""
"","S1","","html-keyboard-response","80","172911","0.0-1.0-101.0","0","0","96097","","null","","","null","11","","","","","","","","","","","","","","","",""
"","ISI","","html-keyboard-response","81","173919","0.0-1.0-102.0","0","0","96097","","null","","","null","11","NaN","","","","","","","","","","","","","","",""
"","S2","","html-keyboard-response","82","174182","0.0-1.0-103.0","0","0","96097","","null","","","null","11","","NaN","","","","","","","","","","","","","",""
"","response","","html-keyboard-response","83","174998","0.0-1.0-104.0-0.0","0","0","96097","","803","","","68","11","","","1","11","training","adjacent","ED","5","4","M.jpg","Q.jpg","0","0","1","",""
"","feedback","","html-keyboard-response","84","176010","0.0-1.0-105.0-0.0","0","0","96097","","null","","","null","11","","","","","","","","","","","","","","","",""
"","ITI","","html-keyboard-response","85","177023","0.0-1.0-108.0","0","0","96097","","null","","","null","11","","","","","","","","","","","","","","","NaN",""
"","S1","","html-keyboard-response","86","177286","0.0-1.0-110.0","0","0","96097","","null","","","null","12","","","","","","","","","","","","","","","",""
"","ISI","","html-keyboard-response","87","178295","0.0-1.0-111.0","0","0","96097","","null","","","null","12","NaN","","","","","","","","","","","","","","",""
"","S2","","html-keyboard-response","88","178554","0.0-1.0-112.0","0","0","96097","","null","","","null","12","","NaN","","","","","","","","","","","","","",""
"","response","","html-keyboard-response","89","179851","0.0-1.0-113.0-0.0","0","0","96097","","1286","","","68","12","","","1","12","training","adjacent","GF","7","6","R.jpg","N.jpg","0","0","1","",""
"","feedback","","html-keyboard-response","90","180867","0.0-1.0-114.0-0.0","0","0","96097","","null","","","null","12","","","","","","","","","","","","","","","",""
"","ITI","","html-keyboard-response","91","181878","0.0-1.0-117.0","0","0","96097","","null","","","null","12","","","","","","","","","","","","","","","NaN",""
"","S1","","html-keyboard-response","92","182141","0.0-1.0-119.0","0","0","96097","","null","","","null","13","","","","","","","","","","","","","","","",""
"","ISI","","html-keyboard-response","93","183154","0.0-1.0-120.0","0","0","96097","","null","","","null","13","NaN","","","","","","","","","","","","","","",""
"","S2","","html-keyboard-response","94","183418","0.0-1.0-121.0","0","0","96097","","null","","","null","13","","NaN","","","","","","","","","","","","","",""
"","response","","html-keyboard-response","95","184314","0.0-1.0-122.0-0.0","0","0","96097","","884","","","68","13","","","1","13","training","adjacent","GF","7","6","R.jpg","N.jpg","0","0","1","",""
"","feedback","","html-keyboard-response","96","185330","0.0-1.0-123.0-0.0","0","0","96097","","null","","","null","13","","","","","","","","","","","","","","","",""
"","ITI","","html-keyboard-response","97","186340","0.0-1.0-126.0","0","0","96097","","null","","","null","13","","","","","","","","","","","","","","","NaN",""
"","S1","","html-keyboard-response","98","186600","0.0-1.0-128.0","0","0","96097","","null","","","null","14","","","","","","","","","","","","","","","",""
"","ISI","","html-keyboard-response","99","187611","0.0-1.0-129.0","0","0","96097","","null","","","null","14","NaN","","","","","","","","","","","","","","",""
"","S2","","html-keyboard-response","100","187874","0.0-1.0-130.0","0","0","96097","","null","","","null","14","","NaN","","","","","","","","","","","","","",""
"","response","","html-keyboard-response","101","188940","0.0-1.0-131.0-0.0","0","0","96097","","1054","","","75","14","","","1","14","training","adjacent","DE","4","5","Q.jpg","M.jpg","1","1","1","",""
"","feedback","","html-keyboard-response","102","189954","0.0-1.0-132.0-0.0","0","0","96097","","null","","","null","14","","","","","","","","","","","","","","","",""
"","ITI","","html-keyboard-response","103","190963","0.0-1.0-135.0","0","0","96097","","null","","","null","14","","","","","","","","","","","","","","","NaN",""
"","S1","","html-keyboard-response","104","191225","0.0-1.0-137.0","0","0","96097","","null","","","null","15","","","","","","","","","","","","","","","",""
"","ISI","","html-keyboard-response","105","192234","0.0-1.0-138.0","0","0","96097","","null","","","null","15","NaN","","","","","","","","","","","","","","",""
"","S2","","html-keyboard-response","106","192494","0.0-1.0-139.0","0","0","96097","","null","","","null","15","","NaN","","","","","","","","","","","","","",""
"","response","","html-keyboard-response","107","193154","0.0-1.0-140.0-0.0","0","0","96097","","649","","","75","15","","","1","15","training","adjacent","DE","4","5","Q.jpg","M.jpg","1","1","1","",""
"","feedback","","html-keyboard-response","108","194165","0.0-1.0-141.0-0.0","0","0","96097","","null","","","null","15","","","","","","","","","","","","","","","",""
"","ITI","","html-keyboard-response","109","195177","0.0-1.0-144.0","0","0","96097","","null","","","null","15","","","","","","","","","","","","","","","NaN",""
"","S1","","html-keyboard-response","110","195440","0.0-1.0-146.0","0","0","96097","","null","","","null","16","","","","","","","","","","","","","","","",""
"","ISI","","html-keyboard-response","111","196451","0.0-1.0-147.0","0","0","96097","","null","","","null","16","NaN","","","","","","","","","","","","","","",""
"","S2","","html-keyboard-response","112","196711","0.0-1.0-148.0","0","0","96097","","null","","","null","16","","NaN","","","","","","","","","","","","","",""
"","response","","html-keyboard-response","113","197306","0.0-1.0-149.0-0.0","0","0","96097","","583","","","68","16","","","1","16","training","adjacent","FG","6","7","N.jpg","R.jpg","0","1","0","",""
"","feedback","","html-keyboard-response","114","198316","0.0-1.0-150.0-0.0","0","0","96097","","null","","","null","16","","","","","","","","","","","","","","","",""
"","time_out","","html-keyboard-response","115","200324","0.0-1.0-152.0-0.0","0","0","96097","","null","","","null","16","","","","","","","","","","","","","","","",""
"","ITI","","html-keyboard-response","116","201335","0.0-1.0-153.0","0","0","96097","","null","","","null","16","","","","","","","","","","","","","","","NaN",""
"","S1","","html-keyboard-response","117","201598","0.0-1.0-155.0","0","0","96097","","null","","","null","17","","","","","","","","","","","","","","","",""
"","ISI","","html-keyboard-response","118","202608","0.0-1.0-156.0","0","0","96097","","null","","","null","17","NaN","","","","","","","","","","","","","","",""
"","S2","","html-keyboard-response","119","202872","0.0-1.0-157.0","0","0","96097","","null","","","null","17","","NaN","","","","","","","","","","","","","",""
"","response","","html-keyboard-response","120","203775","0.0-1.0-158.0-0.0","0","0","96097","","892","","","68","17","","","1","17","training","adjacent","AB","1","2","P.jpg","L.jpg","0","1","0","",""
"","feedback","","html-keyboard-response","121","204788","0.0-1.0-159.0-0.0","0","0","96097","","null","","","null","17","","","","","","","","","","","","","","","",""
"","time_out","","html-keyboard-response","122","206798","0.0-1.0-161.0-0.0","0","0","96097","","null","","","null","17","","","","","","","","","","","","","","","",""
"","ITI","","html-keyboard-response","123","207811","0.0-1.0-162.0","0","0","96097","","null","","","null","17","","","","","","","","","","","","","","","NaN",""
"","S1","","html-keyboard-response","124","208070","0.0-1.0-164.0","0","0","96097","","null","","","null","18","","","","","","","","","","","","","","","",""
"","ISI","","html-keyboard-response","125","209083","0.0-1.0-165.0","0","0","96097","","null","","","null","18","NaN","","","","","","","","","","","","","","",""
"","S2","","html-keyboard-response","126","209347","0.0-1.0-166.0","0","0","96097","","null","","","null","18","","NaN","","","","","","","","","","","","","",""
"","response","","html-keyboard-response","127","209745","0.0-1.0-167.0-0.0","0","0","96097","","388","","","68","18","","","1","18","training","adjacent","DC","4","3","Q.jpg","O.jpg","0","0","1","",""
"","feedback","","html-keyboard-response","128","210757","0.0-1.0-168.0-0.0","0","0","96097","","null","","","null","18","","","","","","","","","","","","","","","",""
"","ITI","","html-keyboard-response","129","211771","0.0-1.0-171.0","0","0","96097","","null","","","null","18","","","","","","","","","","","","","","","NaN",""
"","S1","","html-keyboard-response","130","212032","0.0-1.0-173.0","0","0","96097","","null","","","null","19","","","","","","","","","","","","","","","",""
"","ISI","","html-keyboard-response","131","213046","0.0-1.0-174.0","0","0","96097","","null","","","null","19","NaN","","","","","","","","","","","","","","",""
"","S2","","html-keyboard-response","132","213309","0.0-1.0-175.0","0","0","96097","","null","","","null","19","","NaN","","","","","","","","","","","","","",""
"","response","","html-keyboard-response","133","213739","0.0-1.0-176.0-0.0","0","0","96097","","418","","","68","19","","","1","19","training","adjacent","BA","2","1","L.jpg","P.jpg","0","0","1","",""
"","feedback","","html-keyboard-response","134","214751","0.0-1.0-177.0-0.0","0","0","96097","","null","","","null","19","","","","","","","","","","","","","","","",""
"","ITI","","html-keyboard-response","135","215762","0.0-1.0-180.0","0","0","96097","","null","","","null","19","","","","","","","","","","","","","","","NaN",""
"","S1","","html-keyboard-response","136","216026","0.0-1.0-182.0","0","0","96097","","null","","","null","20","","","","","","","","","","","","","","","",""
"","ISI","","html-keyboard-response","137","217036","0.0-1.0-183.0","0","0","96097","","null","","","null","20","NaN","","","","","","","","","","","","","","",""
"","S2","","html-keyboard-response","138","217300","0.0-1.0-184.0","0","0","96097","","null","","","null","20","","NaN","","","","","","","","","","","","","",""
"","response","","html-keyboard-response","139","217677","0.0-1.0-185.0-0.0","0","0","96097","","366","","","75","20","","","1","20","training","adjacent","BC","2","3","L.jpg","O.jpg","1","1","1","",""
"","feedback","","html-keyboard-response","140","218689","0.0-1.0-186.0-0.0","0","0","96097","","null","","","null","20","","","","","","","","","","","","","","","",""
"","ITI","","html-keyboard-response","141","219703","0.0-1.0-189.0","0","0","96097","","null","","","null","20","","","","","","","","","","","","","","","NaN",""
"","S1","","html-keyboard-response","142","219963","0.0-1.0-191.0","0","0","96097","","null","","","null","21","","","","","","","","","","","","","","","",""
"","ISI","","html-keyboard-response","143","220972","0.0-1.0-192.0","0","0","96097","","null","","","null","21","NaN","","","","","","","","","","","","","","",""
"","S2","","html-keyboard-response","144","221235","0.0-1.0-193.0","0","0","96097","","null","","","null","21","","NaN","","","","","","","","","","","","","",""
"","response","","html-keyboard-response","145","221770","0.0-1.0-194.0-0.0","0","0","96097","","523","","","68","21","","","1","21","training","adjacent","ED","5","4","M.jpg","Q.jpg","0","0","1","",""
"","feedback","","html-keyboard-response","146","222783","0.0-1.0-195.0-0.0","0","0","96097","","null","","","null","21","","","","","","","","","","","","","","","",""
"","ITI","","html-keyboard-response","147","223795","0.0-1.0-198.0","0","0","96097","","null","","","null","21","","","","","","","","","","","","","","","NaN",""
"","S1","","html-keyboard-response","148","224056","0.0-1.0-200.0","0","0","96097","","null","","","null","22","","","","","","","","","","","","","","","",""
"","ISI","","html-keyboard-response","149","225066","0.0-1.0-201.0","0","0","96097","","null","","","null","22","NaN","","","","","","","","","","","","","","",""
"","S2","","html-keyboard-response","150","225331","0.0-1.0-202.0","0","0","96097","","null","","","null","22","","NaN","","","","","","","","","","","","","",""
"","response","","html-keyboard-response","151","226634","0.0-1.0-203.0-0.0","0","0","96097","","1295","","","75","22","","","1","22","training","adjacent","EF","5","6","M.jpg","N.jpg","1","1","1","",""
"","feedback","","html-keyboard-response","152","227647","0.0-1.0-204.0-0.0","0","0","96097","","null","","","null","22","","","","","","","","","","","","","","","",""
"","ITI","","html-keyboard-response","153","228655","0.0-1.0-207.0","0","0","96097","","null","","","null","22","","","","","","","","","","","","","","","NaN",""
"","S1","","html-keyboard-response","154","228916","0.0-1.0-209.0","0","0","96097","","null","","","null","23","","","","","","","","","","","","","","","",""
"","ISI","","html-keyboard-response","155","229924","0.0-1.0-210.0","0","0","96097","","null","","","null","23","NaN","","","","","","","","","","","","","","",""
"","S2","","html-keyboard-response","156","230191","0.0-1.0-211.0","0","0","96097","","null","","","null","23","","NaN","","","","","","","","","","","","","",""
"","response","","html-keyboard-response","157","230548","0.0-1.0-212.0-0.0","0","0","96097","","348","","","68","23","","","1","23","training","adjacent","ED","5","4","M.jpg","Q.jpg","0","0","1","",""
"","feedback","","html-keyboard-response","158","231556","0.0-1.0-213.0-0.0","0","0","96097","","null","","","null","23","","","","","","","","","","","","","","","",""
"","ITI","","html-keyboard-response","159","232565","0.0-1.0-216.0","0","0","96097","","null","","","null","23","","","","","","","","","","","","","","","NaN",""
"","S1","","html-keyboard-response","160","232829","0.0-1.0-218.0","0","0","96097","","null","","","null","24","","","","","","","","","","","","","","","",""
"","ISI","","html-keyboard-response","161","233842","0.0-1.0-219.0","0","0","96097","","null","","","null","24","NaN","","","","","","","","","","","","","","",""
"","S2","","html-keyboard-response","162","234100","0.0-1.0-220.0","0","0","96097","","null","","","null","24","","NaN","","","","","","","","","","","","","",""
"","response","","html-keyboard-response","163","234382","0.0-1.0-221.0-0.0","0","0","96097","","274","","","68","24","","","1","24","training","adjacent","DE","4","5","Q.jpg","M.jpg","0","1","0","",""
"","feedback","","html-keyboard-response","164","235393","0.0-1.0-222.0-0.0","0","0","96097","","null","","","null","24","","","","","","","","","","","","","","","",""
"","time_out","","html-keyboard-response","165","237407","0.0-1.0-224.0-0.0","0","0","96097","","null","","","null","24","","","","","","","","","","","","","","","",""
"","ITI","","html-keyboard-response","166","238416","0.0-1.0-225.0","0","0","96097","","null","","","null","24","","","","","","","","","","","","","","","NaN",""
"","S1","","html-keyboard-response","167","238679","0.0-1.0-227.0","0","0","96097","","null","","","null","25","","","","","","","","","","","","","","","",""
"","ISI","","html-keyboard-response","168","239690","0.0-1.0-228.0","0","0","96097","","null","","","null","25","NaN","","","","","","","","","","","","","","",""
"","S2","","html-keyboard-response","169","239948","0.0-1.0-229.0","0","0","96097","","null","","","null","25","","NaN","","","","","","","","","","","","","",""
"","response","","html-keyboard-response","170","240152","0.0-1.0-230.0-0.0","0","0","96097","","196","","","75","25","","","1","25","training","adjacent","BC","2","3","L.jpg","O.jpg","1","1","1","",""
"","feedback","","html-keyboard-response","171","241166","0.0-1.0-231.0-0.0","0","0","96097","","null","","","null","25","","","","","","","","","","","","","","","",""
"","ITI","","html-keyboard-response","172","242178","0.0-1.0-234.0","0","0","96097","","null","","","null","25","","","","","","","","","","","","","","","NaN",""
"","S1","","html-keyboard-response","173","242440","0.0-1.0-236.0","0","0","96097","","null","","","null","26","","","","","","","","","","","","","","","",""
"","ISI","","html-keyboard-response","174","243453","0.0-1.0-237.0","0","0","96097","","null","","","null","26","NaN","","","","","","","","","","","","","","",""
"","S2","","html-keyboard-response","175","243718","0.0-1.0-238.0","0","0","96097","","null","","","null","26","","NaN","","","","","","","","","","","","","",""
"","response","","html-keyboard-response","176","244725","0.0-1.0-239.0-0.0","0","0","96097","","995","","","68","26","","","1","26","training","adjacent","BA","2","1","L.jpg","P.jpg","0","0","1","",""
"","feedback","","html-keyboard-response","177","245739","0.0-1.0-240.0-0.0","0","0","96097","","null","","","null","26","","","","","","","","","","","","","","","",""
"","ITI","","html-keyboard-response","178","246757","0.0-1.0-243.0","0","0","96097","","null","","","null","26","","","","","","","","","","","","","","","NaN",""
"","S1","","html-keyboard-response","179","247018","0.0-1.0-245.0","0","0","96097","","null","","","null","27","","","","","","","","","","","","","","","",""
"","ISI","","html-keyboard-response","180","248028","0.0-1.0-246.0","0","0","96097","","null","","","null","27","NaN","","","","","","","","","","","","","","",""
"","S2","","html-keyboard-response","181","248293","0.0-1.0-247.0","0","0","96097","","null","","","null","27","","NaN","","","","","","","","","","","","","",""
"","response","","html-keyboard-response","182","248416","0.0-1.0-248.0-0.0","0","0","96097","","114","","","75","27","","","1","27","training","adjacent","AB","1","2","P.jpg","L.jpg","1","1","1","",""
"","feedback","","html-keyboard-response","183","249430","0.0-1.0-249.0-0.0","0","0","96097","","null","","","null","27","","","","","","","","","","","","","","","",""
"","ITI","","html-keyboard-response","184","250437","0.0-1.0-252.0","0","0","96097","","null","","","null","27","","","","","","","","","","","","","","","NaN",""
"","S1","","html-keyboard-response","185","250697","0.0-1.0-254.0","0","0","96097","","null","","","null","28","","","","","","","","","","","","","","","",""
"","ISI","","html-keyboard-response","186","251709","0.0-1.0-255.0","0","0","96097","","null","","","null","28","NaN","","","","","","","","","","","","","","",""
"","S2","","html-keyboard-response","187","251969","0.0-1.0-256.0","0","0","96097","","null","","","null","28","","NaN","","","","","","","","","","","","","",""
"","response","","html-keyboard-response","188","252613","0.0-1.0-257.0-0.0","0","0","96097","","634","","","75","28","","","1","28","training","adjacent","CD","3","4","O.jpg","Q.jpg","1","1","1","",""
"","feedback","","html-keyboard-response","189","253627","0.0-1.0-258.0-0.0","0","0","96097","","null","","","null","28","","","","","","","","","","","","","","","",""
"","ITI","","html-keyboard-response","190","254636","0.0-1.0-261.0","0","0","96097","","null","","","null","28","","","","","","","","","","","","","","","NaN",""
"","S1","","html-keyboard-response","191","254897","0.0-1.0-263.0","0","0","96097","","null","","","null","29","","","","","","","","","","","","","","","",""
"","ISI","","html-keyboard-response","192","255905","0.0-1.0-264.0","0","0","96097","","null","","","null","29","NaN","","","","","","","","","","","","","","",""
"","S2","","html-keyboard-response","193","256165","0.0-1.0-265.0","0","0","96097","","null","","","null","29","","NaN","","","","","","","","","","","","","",""
"","response","","html-keyboard-response","194","256381","0.0-1.0-266.0-0.0","0","0","96097","","205","","","75","29","","","1","29","training","adjacent","CD","3","4","O.jpg","Q.jpg","1","1","1","",""
"","feedback","","html-keyboard-response","195","257398","0.0-1.0-267.0-0.0","0","0","96097","","null","","","null","29","","","","","","","","","","","","","","","",""
"","ITI","","html-keyboard-response","196","258407","0.0-1.0-270.0","0","0","96097","","null","","","null","29","","","","","","","","","","","","","","","NaN",""
"","S1","","html-keyboard-response","197","258670","0.0-1.0-272.0","0","0","96097","","null","","","null","30","","","","","","","","","","","","","","","",""
"","ISI","","html-keyboard-response","198","259684","0.0-1.0-273.0","0","0","96097","","null","","","null","30","NaN","","","","","","","","","","","","","","",""
"","S2","","html-keyboard-response","199","259942","0.0-1.0-274.0","0","0","96097","","null","","","null","30","","NaN","","","","","","","","","","","","","",""
"","response","","html-keyboard-response","200","260078","0.0-1.0-275.0-0.0","0","0","96097","","123","","","68","30","","","1","30","training","adjacent","DC","4","3","Q.jpg","O.jpg","0","0","1","",""
"","feedback","","html-keyboard-response","201","261091","0.0-1.0-276.0-0.0","0","0","96097","","null","","","null","30","","","","","","","","","","","","","","","",""
"","ITI","","html-keyboard-response","202","262101","0.0-1.0-279.0","0","0","96097","","null","","","null","30","","","","","","","","","","","","","","","NaN",""
"","S1","","html-keyboard-response","203","262363","0.0-1.0-281.0","0","0","96097","","null","","","null","31","","","","","","","","","","","","","","","",""
"","ISI","","html-keyboard-response","204","263376","0.0-1.0-282.0","0","0","96097","","null","","","null","31","NaN","","","","","","","","","","","","","","",""
"","S2","","html-keyboard-response","205","263640","0.0-1.0-283.0","0","0","96097","","null","","","null","31","","NaN","","","","","","","","","","","","","",""
"","response","","html-keyboard-response","206","264634","0.0-1.0-284.0-0.0","0","0","96097","","986","","","75","31","","","1","31","training","adjacent","DE","4","5","Q.jpg","M.jpg","1","1","1","",""
"","feedback","","html-keyboard-response","207","265645","0.0-1.0-285.0-0.0","0","0","96097","","null","","","null","31","","","","","","","","","","","","","","","",""
"","ITI","","html-keyboard-response","208","266658","0.0-1.0-288.0","0","0","96097","","null","","","null","31","","","","","","","","","","","","","","","NaN",""
"","S1","","html-keyboard-response","209","266918","0.0-1.0-290.0","0","0","96097","","null","","","null","32","","","","","","","","","","","","","","","",""
"","ISI","","html-keyboard-response","210","267928","0.0-1.0-291.0","0","0","96097","","null","","","null","32","NaN","","","","","","","","","","","","","","",""
"","S2","","html-keyboard-response","211","268191","0.0-1.0-292.0","0","0","96097","","null","","","null","32","","NaN","","","","","","","","","","","","","",""
"","response","","html-keyboard-response","212","268986","0.0-1.0-293.0-0.0","0","0","96097","","784","","","68","32","","","1","32","training","adjacent","EF","5","6","M.jpg","N.jpg","0","1","0","",""
"","feedback","","html-keyboard-response","213","270000","0.0-1.0-294.0-0.0","0","0","96097","","null","","","null","32","","","","","","","","","","","","","","","",""
"","time_out","","html-keyboard-response","214","272008","0.0-1.0-296.0-0.0","0","0","96097","","null","","","null","32","","","","","","","","","","","","","","","",""
"","ITI","","html-keyboard-response","215","273019","0.0-1.0-297.0","0","0","96097","","null","","","null","32","","","","","","","","","","","","","","","NaN",""
"","S1","","html-keyboard-response","216","273281","0.0-1.0-299.0","0","0","96097","","null","","","null","33","","","","","","","","","","","","","","","",""
"","ISI","","html-keyboard-response","217","274293","0.0-1.0-300.0","0","0","96097","","null","","","null","33","NaN","","","","","","","","","","","","","","",""
"","S2","","html-keyboard-response","218","274557","0.0-1.0-301.0","0","0","96097","","null","","","null","33","","NaN","","","","","","","","","","","","","",""
"","response","","html-keyboard-response","219","274669","0.0-1.0-302.0-0.0","0","0","96097","","102","","","75","33","","","1","33","training","adjacent","CB","3","2","O.jpg","L.jpg","1","0","0","",""
"","feedback","","html-keyboard-response","220","275678","0.0-1.0-303.0-0.0","0","0","96097","","null","","","null","33","","","","","","","","","","","","","","","",""
"","time_out","","html-keyboard-response","221","277691","0.0-1.0-305.0-0.0","0","0","96097","","null","","","null","33","","","","","","","","","","","","","","","",""
"","ITI","","html-keyboard-response","222","278705","0.0-1.0-306.0","0","0","96097","","null","","","null","33","","","","","","","","","","","","","","","NaN",""
"","S1","","html-keyboard-response","223","278967","0.0-1.0-308.0","0","0","96097","","null","","","null","34","","","","","","","","","","","","","","","",""
"","ISI","","html-keyboard-response","224","279976","0.0-1.0-309.0","0","0","96097","","null","","","null","34","NaN","","","","","","","","","","","","","","",""
"","S2","","html-keyboard-response","225","280239","0.0-1.0-310.0","0","0","96097","","null","","","null","34","","NaN","","","","","","","","","","","","","",""
"","response","","html-keyboard-response","226","280482","0.0-1.0-311.0-0.0","0","0","96097","","232","","","75","34","","","1","34","training","adjacent","FG","6","7","N.jpg","R.jpg","1","1","1","",""
"","feedback","","html-keyboard-response","227","281492","0.0-1.0-312.0-0.0","0","0","96097","","null","","","null","34","","","","","","","","","","","","","","","",""
"","ITI","","html-keyboard-response","228","282510","0.0-1.0-315.0","0","0","96097","","null","","","null","34","","","","","","","","","","","","","","","NaN",""
"","S1","","html-keyboard-response","229","282773","0.0-1.0-317.0","0","0","96097","","null","","","null","35","","","","","","","","","","","","","","","",""
"","ISI","","html-keyboard-response","230","283785","0.0-1.0-318.0","0","0","96097","","null","","","null","35","NaN","","","","","","","","","","","","","","",""
"","S2","","html-keyboard-response","231","284048","0.0-1.0-319.0","0","0","96097","","null","","","null","35","","NaN","","","","","","","","","","","","","",""
"","response","","html-keyboard-response","232","284205","0.0-1.0-320.0-0.0","0","0","96097","","143","","","75","35","","","1","35","training","adjacent","CB","3","2","O.jpg","L.jpg","1","0","0","",""
"","feedback","","html-keyboard-response","233","285221","0.0-1.0-321.0-0.0","0","0","96097","","null","","","null","35","","","","","","","","","","","","","","","",""
"","time_out","","html-keyboard-response","234","287234","0.0-1.0-323.0-0.0","0","0","96097","","null","","","null","35","","","","","","","","","","","","","","","",""
"","ITI","","html-keyboard-response","235","288247","0.0-1.0-324.0","0","0","96097","","null","","","null","35","","","","","","","","","","","","","","","NaN",""
"","S1","","html-keyboard-response","236","288509","0.0-1.0-326.0","0","0","96097","","null","","","null","36","","","","","","","","","","","","","","","",""
"","ISI","","html-keyboard-response","237","289519","0.0-1.0-327.0","0","0","96097","","null","","","null","36","NaN","","","","","","","","","","","","","","",""
"","S2","","html-keyboard-response","238","289782","0.0-1.0-328.0","0","0","96097","","null","","","null","36","","NaN","","","","","","","","","","","","","",""
"","response","","html-keyboard-response","239","290489","0.0-1.0-329.0-0.0","0","0","96097","","696","","","75","36","","","1","36","training","adjacent","FE","6","5","N.jpg","M.jpg","1","0","0","",""
"","feedback","","html-keyboard-response","240","291498","0.0-1.0-330.0-0.0","0","0","96097","","null","","","null","36","","","","","","","","","","","","","","","",""
"","time_out","","html-keyboard-response","241","293516","0.0-1.0-332.0-0.0","0","0","96097","","null","","","null","36","","","","","","","","","","","","","","","",""
"","ITI","","html-keyboard-response","242","294529","0.0-1.0-333.0","0","0","96097","","null","","","null","36","","","","","","","","","","","","","","","NaN",""
"","S1","","html-keyboard-response","243","294795","0.0-1.0-335.0","0","0","96097","","null","","","null","37","","","","","","","","","","","","","","","",""
"","ISI","","html-keyboard-response","244","295806","0.0-1.0-336.0","0","0","96097","","null","","","null","37","NaN","","","","","","","","","","","","","","",""
"","S2","","html-keyboard-response","245","295885","0.0-1.0-337.0","0","0","96097","","68","","","75","37","","k","1","37","training","adjacent","CB","3","2","O.jpg","L.jpg","1","0","0","",""
"","feedback","","html-keyboard-response","246","296899","0.0-1.0-339.0-0.0","0","0","96097","","null","","","null","37","","","","","","","","","","","","","","","",""
"","time_out","","html-keyboard-response","247","298912","0.0-1.0-341.0-0.0","0","0","96097","","null","","","null","37","","","","","","","","","","","","","","","",""
"","ITI","","html-keyboard-response","248","299923","0.0-1.0-342.0","0","0","96097","","null","","","null","37","","","","","","","","","","","","","","","NaN",""
"","S1","","html-keyboard-response","249","300181","0.0-1.0-344.0","0","0","96097","","null","","","null","38","","","","","","","","","","","","","","","",""
"","ISI","","html-keyboard-response","250","301192","0.0-1.0-345.0","0","0","96097","","null","","","null","38","NaN","","","","","","","","","","","","","","",""
"","S2","","html-keyboard-response","251","301450","0.0-1.0-346.0","0","0","96097","","null","","","null","38","","NaN","","","","","","","","","","","","","",""
"","response","","html-keyboard-response","252","301518","0.0-1.0-347.0-0.0","0","0","96097","","58","","","68","38","","","1","38","training","adjacent","ED","5","4","M.jpg","Q.jpg","0","0","1","",""
"","feedback","","html-keyboard-response","253","302528","0.0-1.0-348.0-0.0","0","0","96097","","null","","","null","38","","","","","","","","","","","","","","","",""
"","ITI","","html-keyboard-response","254","303542","0.0-1.0-351.0","0","0","96097","","null","","","null","38","","","","","","","","","","","","","","","NaN",""
"","S1","","html-keyboard-response","255","303805","0.0-1.0-353.0","0","0","96097","","null","","","null","39","","","","","","","","","","","","","","","",""
"","ISI","","html-keyboard-response","256","304818","0.0-1.0-354.0","0","0","96097","","null","","","null","39","NaN","","","","","","","","","","","","","","",""
"","S2","","html-keyboard-response","257","305079","0.0-1.0-355.0","0","0","96097","","null","","","null","39","","NaN","","","","","","","","","","","","","",""
"","response","","html-keyboard-response","258","305301","0.0-1.0-356.0-0.0","0","0","96097","","212","","","68","39","","","1","39","training","adjacent","BA","2","1","L.jpg","P.jpg","0","0","1","",""
"","feedback","","html-keyboard-response","259","306312","0.0-1.0-357.0-0.0","0","0","96097","","null","","","null","39","","","","","","","","","","","","","","","",""
"","ITI","","html-keyboard-response","260","307323","0.0-1.0-360.0","0","0","96097","","null","","","null","39","","","","","","","","","","","","","","","NaN",""
"","S1","","html-keyboard-response","261","307583","0.0-1.0-362.0","0","0","96097","","null","","","null","40","","","","","","","","","","","","","","","",""
"","ISI","","html-keyboard-response","262","308597","0.0-1.0-363.0","0","0","96097","","null","","","null","40","NaN","","","","","","","","","","","","","","",""
"","S2","","html-keyboard-response","263","308859","0.0-1.0-364.0","0","0","96097","","null","","","null","40","","NaN","","","","","","","","","","","","","",""
"","response","","html-keyboard-response","264","309037","0.0-1.0-365.0-0.0","0","0","96097","","167","","","68","40","","","1","40","training","adjacent","EF","5","6","M.jpg","N.jpg","0","1","0","",""
"","feedback","","html-keyboard-response","265","310048","0.0-1.0-366.0-0.0","0","0","96097","","null","","","null","40","","","","","","","","","","","","","","","",""
"","time_out","","html-keyboard-response","266","312062","0.0-1.0-368.0-0.0","0","0","96097","","null","","","null","40","","","","","","","","","","","","","","","",""
"","ITI","","html-keyboard-response","267","313073","0.0-1.0-369.0","0","0","96097","","null","","","null","40","","","","","","","","","","","","","","","NaN",""
"","S1","","html-keyboard-response","268","313337","0.0-1.0-371.0","0","0","96097","","null","","","null","41","","","","","","","","","","","","","","","",""
"","ISI","","html-keyboard-response","269","314349","0.0-1.0-372.0","0","0","96097","","null","","","null","41","NaN","","","","","","","","","","","","","","",""
"","S2","","html-keyboard-response","270","314612","0.0-1.0-373.0","0","0","96097","","null","","","null","41","","NaN","","","","","","","","","","","","","",""
"","response","","html-keyboard-response","271","314872","0.0-1.0-374.0-0.0","0","0","96097","","251","","","68","41","","","1","41","training","adjacent","BA","2","1","L.jpg","P.jpg","0","0","1","",""
"","feedback","","html-keyboard-response","272","315883","0.0-1.0-375.0-0.0","0","0","96097","","null","","","null","41","","","","","","","","","","","","","","","",""
"","ITI","","html-keyboard-response","273","316894","0.0-1.0-378.0","0","0","96097","","null","","","null","41","","","","","","","","","","","","","","","NaN",""
"","S1","","html-keyboard-response","274","317154","0.0-1.0-380.0","0","0","96097","","null","","","null","42","","","","","","","","","","","","","","","",""
"","ISI","","html-keyboard-response","275","318165","0.0-1.0-381.0","0","0","96097","","null","","","null","42","NaN","","","","","","","","","","","","","","",""
"","S2","","html-keyboard-response","276","318430","0.0-1.0-382.0","0","0","96097","","null","","","null","42","","NaN","","","","","","","","","","","","","",""
"","response","","html-keyboard-response","277","318466","0.0-1.0-383.0-0.0","0","0","96097","","22","","","75","42","","","1","42","training","adjacent","AB","1","2","P.jpg","L.jpg","1","1","1","",""
"","feedback","","html-keyboard-response","278","319479","0.0-1.0-384.0-0.0","0","0","96097","","null","","","null","42","","","","","","","","","","","","","","","",""
"","ITI","","html-keyboard-response","279","320490","0.0-1.0-387.0","0","0","96097","","null","","","null","42","","","","","","","","","","","","","","","NaN",""
"","S1","","html-keyboard-response","280","320753","0.0-1.0-389.0","0","0","96097","","null","","","null","43","","","","","","","","","","","","","","","",""
"","ISI","","html-keyboard-response","281","321763","0.0-1.0-390.0","0","0","96097","","null","","","null","43","NaN","","","","","","","","","","","","","","",""
"","S2","","html-keyboard-response","282","322028","0.0-1.0-391.0","0","0","96097","","null","","","null","43","","NaN","","","","","","","","","","","","","",""
"","response","","html-keyboard-response","283","322049","0.0-1.0-392.0-0.0","0","0","96097","","12","","","75","43","","","1","43","training","adjacent","CD","3","4","O.jpg","Q.jpg","1","1","1","",""
"","feedback","","html-keyboard-response","284","323061","0.0-1.0-393.0-0.0","0","0","96097","","null","","","null","43","","","","","","","","","","","","","","","",""
"","ITI","","html-keyboard-response","285","324073","0.0-1.0-396.0","0","0","96097","","null","","","null","43","","","","","","","","","","","","","","","NaN",""
"","S1","","html-keyboard-response","286","324334","0.0-1.0-398.0","0","0","96097","","null","","","null","44","","","","","","","","","","","","","","","",""
"","ISI","","html-keyboard-response","287","325341","0.0-1.0-399.0","0","0","96097","","null","","","null","44","NaN","","","","","","","","","","","","","","",""
"","S2","","html-keyboard-response","288","325604","0.0-1.0-400.0","0","0","96097","","null","","","null","44","","NaN","","","","","","","","","","","","","",""
"","response","","html-keyboard-response","289","325743","0.0-1.0-401.0-0.0","0","0","96097","","130","","","68","44","","","1","44","training","adjacent","BC","2","3","L.jpg","O.jpg","0","1","0","",""
"","feedback","","html-keyboard-response","290","326756","0.0-1.0-402.0-0.0","0","0","96097","","null","","","null","44","","","","","","","","","","","","","","","",""
"","time_out","","html-keyboard-response","291","328765","0.0-1.0-404.0-0.0","0","0","96097","","null","","","null","44","","","","","","","","","","","","","","","",""
"","ITI","","html-keyboard-response","292","329777","0.0-1.0-405.0","0","0","96097","","null","","","null","44","","","","","","","","","","","","","","","NaN",""
"","S1","","html-keyboard-response","293","330038","0.0-1.0-407.0","0","0","96097","","null","","","null","45","","","","","","","","","","","","","","","",""
"","ISI","","html-keyboard-response","294","331047","0.0-1.0-408.0","0","0","96097","","null","","","null","45","NaN","","","","","","","","","","","","","","",""
"","S2","","html-keyboard-response","295","331309","0.0-1.0-409.0","0","0","96097","","null","","","null","45","","NaN","","","","","","","","","","","","","",""
"","response","","html-keyboard-response","296","331527","0.0-1.0-410.0-0.0","0","0","96097","","203","","","75","45","","","1","45","training","adjacent","FE","6","5","N.jpg","M.jpg","1","0","0","",""
"","feedback","","html-keyboard-response","297","332536","0.0-1.0-411.0-0.0","0","0","96097","","null","","","null","45","","","","","","","","","","","","","","","",""
"","time_out","","html-keyboard-response","298","334549","0.0-1.0-413.0-0.0","0","0","96097","","null","","","null","45","","","","","","","","","","","","","","","",""
"","ITI","","html-keyboard-response","299","335562","0.0-1.0-414.0","0","0","96097","","null","","","null","45","","","","","","","","","","","","","","","NaN",""
"","S1","","html-keyboard-response","300","335825","0.0-1.0-416.0","0","0","96097","","null","","","null","46","","","","","","","","","","","","","","","",""
"","ISI","","html-keyboard-response","301","336835","0.0-1.0-417.0","0","0","96097","","null","","","null","46","NaN","","","","","","","","","","","","","","",""
"","S2","","html-keyboard-response","302","337097","0.0-1.0-418.0","0","0","96097","","null","","","null","46","","NaN","","","","","","","","","","","","","",""
"","response","","html-keyboard-response","303","337220","0.0-1.0-419.0-0.0","0","0","96097","","111","","","75","46","","","1","46","training","adjacent","AB","1","2","P.jpg","L.jpg","1","1","1","",""
"","feedback","","html-keyboard-response","304","338233","0.0-1.0-420.0-0.0","0","0","96097","","null","","","null","46","","","","","","","","","","","","","","","",""
"","ITI","","html-keyboard-response","305","339246","0.0-1.0-423.0","0","0","96097","","null","","","null","46","","","","","","","","","","","","","","","NaN",""
"","S1","","html-keyboard-response","306","339508","0.0-1.0-425.0","0","0","96097","","null","","","null","47","","","","","","","","","","","","","","","",""
"","ISI","","html-keyboard-response","307","340519","0.0-1.0-426.0","0","0","96097","","null","","","null","47","NaN","","","","","","","","","","","","","","",""
"","S2","","html-keyboard-response","308","340783","0.0-1.0-427.0","0","0","96097","","null","","","null","47","","NaN","","","","","","","","","","","","","",""
"","response","","html-keyboard-response","309","340945","0.0-1.0-428.0-0.0","0","0","96097","","149","","","75","47","","","1","47","training","adjacent","FE","6","5","N.jpg","M.jpg","1","0","0","",""
"","feedback","","html-keyboard-response","310","341957","0.0-1.0-429.0-0.0","0","0","96097","","null","","","null","47","","","","","","","","","","","","","","","",""
"","time_out","","html-keyboard-response","311","343966","0.0-1.0-431.0-0.0","0","0","96097","","null","","","null","47","","","","","","","","","","","","","","","",""
"","ITI","","html-keyboard-response","312","344975","0.0-1.0-432.0","0","0","96097","","null","","","null","47","","","","","","","","","","","","","","","NaN",""
"","block_over","","html-keyboard-response","313","363487","0.0-1.0-433.0-0.0","0","0","96097","","18498","","","32","47","","","","","","","","","","","","","","","",""
"","S1","","html-keyboard-response","314","363751","0.0-1.0-434.0","0","0","96097","","null","","","null","48","","","","","","","","","","","","","","","",""
"","ISI","","html-keyboard-response","315","364762","0.0-1.0-435.0","0","0","96097","","null","","","null","48","NaN","","","","","","","","","","","","","","",""
"","S2","","html-keyboard-response","316","365023","0.0-1.0-436.0","0","0","96097","","null","","","null","48","","NaN","","","","","","","","","","","","","",""
"","response","","html-keyboard-response","317","365474","0.0-1.0-437.0-0.0","0","0","96097","","440","","","75","48","","","2","48","training","adjacent","EF","5","6","M.jpg","N.jpg","1","1","1","",""
"","feedback","","html-keyboard-response","318","366488","0.0-1.0-438.0-0.0","0","0","96097","","null","","","null","48","","","","","","","","","","","","","","","",""
"","ITI","","html-keyboard-response","319","367499","0.0-1.0-441.0","0","0","96097","","null","","","null","48","","","","","","","","","","","","","","","NaN",""
"","S1","","html-keyboard-response","320","367759","0.0-1.0-443.0","0","0","96097","","null","","","null","49","","","","","","","","","","","","","","","",""
"","ISI","","html-keyboard-response","321","368770","0.0-1.0-444.0","0","0","96097","","null","","","null","49","NaN","","","","","","","","","","","","","","",""
"","S2","","html-keyboard-response","322","369032","0.0-1.0-445.0","0","0","96097","","null","","","null","49","","NaN","","","","","","","","","","","","","",""
"","response","","html-keyboard-response","323","369462","0.0-1.0-446.0-0.0","0","0","96097","","420","","","75","49","","","2","49","training","adjacent","EF","5","6","M.jpg","N.jpg","1","1","1","",""
"","feedback","","html-keyboard-response","324","370472","0.0-1.0-447.0-0.0","0","0","96097","","null","","","null","49","","","","","","","","","","","","","","","",""
"","ITI","","html-keyboard-response","325","371491","0.0-1.0-450.0","0","0","96097","","null","","","null","49","","","","","","","","","","","","","","","NaN",""
"","S1","","html-keyboard-response","326","371756","0.0-1.0-452.0","0","0","96097","","null","","","null","50","","","","","","","","","","","","","","","",""
"","ISI","","html-keyboard-response","327","372766","0.0-1.0-453.0","0","0","96097","","null","","","null","50","NaN","","","","","","","","","","","","","","",""
"","S2","","html-keyboard-response","328","373027","0.0-1.0-454.0","0","0","96097","","null","","","null","50","","NaN","","","","","","","","","","","","","",""
"","response","","html-keyboard-response","329","373473","0.0-1.0-455.0-0.0","0","0","96097","","436","","","75","50","","","2","50","training","adjacent","FG","6","7","N.jpg","R.jpg","1","1","1","",""
"","feedback","","html-keyboard-response","330","374487","0.0-1.0-456.0-0.0","0","0","96097","","null","","","null","50","","","","","","","","","","","","","","","",""
"","ITI","","html-keyboard-response","331","375499","0.0-1.0-459.0","0","0","96097","","null","","","null","50","","","","","","","","","","","","","","","NaN",""
"","S1","","html-keyboard-response","332","375757","0.0-1.0-461.0","0","0","96097","","null","","","null","51","","","","","","","","","","","","","","","",""
"","ISI","","html-keyboard-response","333","376770","0.0-1.0-462.0","0","0","96097","","null","","","null","51","NaN","","","","","","","","","","","","","","",""
"","S2","","html-keyboard-response","334","377040","0.0-1.0-463.0","0","0","96097","","null","","","null","51","","NaN","","","","","","","","","","","","","",""
"","response","","html-keyboard-response","335","377674","0.0-1.0-464.0-0.0","0","0","96097","","623","","","68","51","","","2","51","training","adjacent","DC","4","3","Q.jpg","O.jpg","0","0","1","",""
"","feedback","","html-keyboard-response","336","378689","0.0-1.0-465.0-0.0","0","0","96097","","null","","","null","51","","","","","","","","","","","","","","","",""
"","ITI","","html-keyboard-response","337","379702","0.0-1.0-468.0","0","0","96097","","null","","","null","51","","","","","","","","","","","","","","","NaN",""
"","S1","","html-keyboard-response","338","379966","0.0-1.0-470.0","0","0","96097","","null","","","null","52","","","","","","","","","","","","","","","",""
"","ISI","","html-keyboard-response","339","380979","0.0-1.0-471.0","0","0","96097","","null","","","null","52","NaN","","","","","","","","","","","","","","",""
"","S2","","html-keyboard-response","340","381237","0.0-1.0-472.0","0","0","96097","","null","","","null","52","","NaN","","","","","","","","","","","","","",""
"","response","","html-keyboard-response","341","381397","0.0-1.0-473.0-0.0","0","0","96097","","152","","","68","52","","","2","52","training","adjacent","BC","2","3","L.jpg","O.jpg","0","1","0","",""
"","feedback","","html-keyboard-response","342","382409","0.0-1.0-474.0-0.0","0","0","96097","","null","","","null","52","","","","","","","","","","","","","","","",""
"","time_out","","html-keyboard-response","343","384425","0.0-1.0-476.0-0.0","0","0","96097","","null","","","null","52","","","","","","","","","","","","","","","",""
"","ITI","","html-keyboard-response","344","385432","0.0-1.0-477.0","0","0","96097","","null","","","null","52","","","","","","","","","","","","","","","NaN",""
"","S1","","html-keyboard-response","345","385696","0.0-1.0-479.0","0","0","96097","","null","","","null","53","","","","","","","","","","","","","","","",""
"","ISI","","html-keyboard-response","346","386705","0.0-1.0-480.0","0","0","96097","","null","","","null","53","NaN","","","","","","","","","","","","","","",""
"","S2","","html-keyboard-response","347","386967","0.0-1.0-481.0","0","0","96097","","null","","","null","53","","NaN","","","","","","","","","","","","","",""
"","response","","html-keyboard-response","348","386982","0.0-1.0-482.0-0.0","0","0","96097","","5","","","75","53","","","2","53","training","adjacent","CD","3","4","O.jpg","Q.jpg","1","1","1","",""
"","feedback","","html-keyboard-response","349","387997","0.0-1.0-483.0-0.0","0","0","96097","","null","","","null","53","","","","","","","","","","","","","","","",""
"","ITI","","html-keyboard-response","350","389010","0.0-1.0-486.0","0","0","96097","","null","","","null","53","","","","","","","","","","","","","","","NaN",""
"","S1","","html-keyboard-response","351","389273","0.0-1.0-488.0","0","0","96097","","null","","","null","54","","","","","","","","","","","","","","","",""
"","ISI","","html-keyboard-response","352","390286","0.0-1.0-489.0","0","0","96097","","null","","","null","54","NaN","","","","","","","","","","","","","","",""
"","S2","","html-keyboard-response","353","390551","0.0-1.0-490.0","0","0","96097","","null","","","null","54","","NaN","","","","","","","","","","","","","",""
"","response","","html-keyboard-response","354","390732","0.0-1.0-491.0-0.0","0","0","96097","","169","","","68","54","","","2","54","training","adjacent","FE","6","5","N.jpg","M.jpg","0","0","1","",""
"","feedback","","html-keyboard-response","355","391745","0.0-1.0-492.0-0.0","0","0","96097","","null","","","null","54","","","","","","","","","","","","","","","",""
"","ITI","","html-keyboard-response","356","392759","0.0-1.0-495.0","0","0","96097","","null","","","null","54","","","","","","","","","","","","","","","NaN",""
"","S1","","html-keyboard-response","357","393020","0.0-1.0-497.0","0","0","96097","","null","","","null","55","","","","","","","","","","","","","","","",""
"","ISI","","html-keyboard-response","358","394035","0.0-1.0-498.0","0","0","96097","","null","","","null","55","NaN","","","","","","","","","","","","","","",""
"","S2","","html-keyboard-response","359","394298","0.0-1.0-499.0","0","0","96097","","null","","","null","55","","NaN","","","","","","","","","","","","","",""
"","response","","html-keyboard-response","360","394779","0.0-1.0-500.0-0.0","0","0","96097","","469","","","75","55","","","2","55","training","adjacent","FE","6","5","N.jpg","M.jpg","1","0","0","",""
"","feedback","","html-keyboard-response","361","395794","0.0-1.0-501.0-0.0","0","0","96097","","null","","","null","55","","","","","","","","","","","","","","","",""
"","time_out","","html-keyboard-response","362","397806","0.0-1.0-503.0-0.0","0","0","96097","","null","","","null","55","","","","","","","","","","","","","","","",""
"","ITI","","html-keyboard-response","363","398817","0.0-1.0-504.0","0","0","96097","","null","","","null","55","","","","","","","","","","","","","","","NaN",""
"","S1","","html-keyboard-response","364","399079","0.0-1.0-506.0","0","0","96097","","null","","","null","56","","","","","","","","","","","","","","","",""
"","ISI","","html-keyboard-response","365","400091","0.0-1.0-507.0","0","0","96097","","null","","","null","56","NaN","","","","","","","","","","","","","","",""
"","S2","","html-keyboard-response","366","400351","0.0-1.0-508.0","0","0","96097","","null","","","null","56","","NaN","","","","","","","","","","","","","",""
"","response","","html-keyboard-response","367","400761","0.0-1.0-509.0-0.0","0","0","96097","","397","","","68","56","","","2","56","training","adjacent","EF","5","6","M.jpg","N.jpg","0","1","0","",""
"","feedback","","html-keyboard-response","368","401772","0.0-1.0-510.0-0.0","0","0","96097","","null","","","null","56","","","","","","","","","","","","","","","",""
"","time_out","","html-keyboard-response","369","403781","0.0-1.0-512.0-0.0","0","0","96097","","null","","","null","56","","","","","","","","","","","","","","","",""
"","ITI","","html-keyboard-response","370","404794","0.0-1.0-513.0","0","0","96097","","null","","","null","56","","","","","","","","","","","","","","","NaN",""
"","S1","","html-keyboard-response","371","405061","0.0-1.0-515.0","0","0","96097","","null","","","null","57","","","","","","","","","","","","","","","",""
"","ISI","","html-keyboard-response","372","406071","0.0-1.0-516.0","0","0","96097","","null","","","null","57","NaN","","","","","","","","","","","","","","",""
"","S2","","html-keyboard-response","373","406335","0.0-1.0-517.0","0","0","96097","","null","","","null","57","","NaN","","","","","","","","","","","","","",""
"","response","","html-keyboard-response","374","406532","0.0-1.0-518.0-0.0","0","0","96097","","186","","","68","57","","","2","57","training","adjacent","GF","7","6","R.jpg","N.jpg","0","0","1","",""
"","feedback","","html-keyboard-response","375","407545","0.0-1.0-519.0-0.0","0","0","96097","","null","","","null","57","","","","","","","","","","","","","","","",""
"","ITI","","html-keyboard-response","376","408559","0.0-1.0-522.0","0","0","96097","","null","","","null","57","","","","","","","","","","","","","","","NaN",""
"","S1","","html-keyboard-response","377","408820","0.0-1.0-524.0","0","0","96097","","null","","","null","58","","","","","","","","","","","","","","","",""
"","ISI","","html-keyboard-response","378","409832","0.0-1.0-525.0","0","0","96097","","null","","","null","58","NaN","","","","","","","","","","","","","","",""
"","S2","","html-keyboard-response","379","410097","0.0-1.0-526.0","0","0","96097","","null","","","null","58","","NaN","","","","","","","","","","","","","",""
"","response","","html-keyboard-response","380","410358","0.0-1.0-527.0-0.0","0","0","96097","","253","","","75","58","","","2","58","training","adjacent","AB","1","2","P.jpg","L.jpg","1","1","1","",""
"","feedback","","html-keyboard-response","381","411367","0.0-1.0-528.0-0.0","0","0","96097","","null","","","null","58","","","","","","","","","","","","","","","",""
"","ITI","","html-keyboard-response","382","412380","0.0-1.0-531.0","0","0","96097","","null","","","null","58","","","","","","","","","","","","","","","NaN",""
"","S1","","html-keyboard-response","383","412643","0.0-1.0-533.0","0","0","96097","","null","","","null","59","","","","","","","","","","","","","","","",""
"","ISI","","html-keyboard-response","384","413654","0.0-1.0-534.0","0","0","96097","","null","","","null","59","NaN","","","","","","","","","","","","","","",""
"","S2","","html-keyboard-response","385","413918","0.0-1.0-535.0","0","0","96097","","null","","","null","59","","NaN","","","","","","","","","","","","","",""
"","response","","html-keyboard-response","386","413988","0.0-1.0-536.0-0.0","0","0","96097","","61","","","75","59","","","2","59","training","adjacent","FG","6","7","N.jpg","R.jpg","1","1","1","",""
"","feedback","","html-keyboard-response","387","415004","0.0-1.0-537.0-0.0","0","0","96097","","null","","","null","59","","","","","","","","","","","","","","","",""
"","ITI","","html-keyboard-response","388","416018","0.0-1.0-540.0","0","0","96097","","null","","","null","59","","","","","","","","","","","","","","","NaN",""
"","S1","","html-keyboard-response","389","416281","0.0-1.0-542.0","0","0","96097","","null","","","null","60","","","","","","","","","","","","","","","",""
"","ISI","","html-keyboard-response","390","417292","0.0-1.0-543.0","0","0","96097","","null","","","null","60","NaN","","","","","","","","","","","","","","",""
"","S2","","html-keyboard-response","391","417547","0.0-1.0-544.0","0","0","96097","","243","","","68","60","","d","2","60","training","adjacent","BA","2","1","L.jpg","P.jpg","0","0","1","",""
"","feedback","","html-keyboard-response","392","418559","0.0-1.0-546.0-0.0","0","0","96097","","null","","","null","60","","","","","","","","","","","","","","","",""
"","ITI","","html-keyboard-response","393","419571","0.0-1.0-549.0","0","0","96097","","null","","","null","60","","","","","","","","","","","","","","","NaN",""
"","S1","","html-keyboard-response","394","419832","0.0-1.0-551.0","0","0","96097","","null","","","null","61","","","","","","","","","","","","","","","",""
"","ISI","","html-keyboard-response","395","420843","0.0-1.0-552.0","0","0","96097","","null","","","null","61","NaN","","","","","","","","","","","","","","",""
"","S2","","html-keyboard-response","396","421102","0.0-1.0-553.0","0","0","96097","","null","","","null","61","","NaN","","","","","","","","","","","","","",""
"","response","","html-keyboard-response","397","421287","0.0-1.0-554.0-0.0","0","0","96097","","176","","","75","61","","","2","61","training","adjacent","FE","6","5","N.jpg","M.jpg","1","0","0","",""
"","feedback","","html-keyboard-response","398","422298","0.0-1.0-555.0-0.0","0","0","96097","","null","","","null","61","","","","","","","","","","","","","","","",""
"","time_out","","html-keyboard-response","399","424311","0.0-1.0-557.0-0.0","0","0","96097","","null","","","null","61","","","","","","","","","","","","","","","",""
"","ITI","","html-keyboard-response","400","425320","0.0-1.0-558.0","0","0","96097","","null","","","null","61","","","","","","","","","","","","","","","NaN",""
"","S1","","html-keyboard-response","401","425585","0.0-1.0-560.0","0","0","96097","","null","","","null","62","","","","","","","","","","","","","","","",""
"","ISI","","html-keyboard-response","402","426596","0.0-1.0-561.0","0","0","96097","","null","","","null","62","NaN","","","","","","","","","","","","","","",""
"","S2","","html-keyboard-response","403","426836","0.0-1.0-562.0","0","0","96097","","226","","","75","62","","k","2","62","training","adjacent","AB","1","2","P.jpg","L.jpg","1","1","1","",""
"","feedback","","html-keyboard-response","404","427849","0.0-1.0-564.0-0.0","0","0","96097","","null","","","null","62","","","","","","","","","","","","","","","",""
"","ITI","","html-keyboard-response","405","428863","0.0-1.0-567.0","0","0","96097","","null","","","null","62","","","","","","","","","","","","","","","NaN",""
"","S1","","html-keyboard-response","406","429123","0.0-1.0-569.0","0","0","96097","","null","","","null","63","","","","","","","","","","","","","","","",""
"","ISI","","html-keyboard-response","407","430136","0.0-1.0-570.0","0","0","96097","","null","","","null","63","NaN","","","","","","","","","","","","","","",""
"","S2","","html-keyboard-response","408","430399","0.0-1.0-571.0","0","0","96097","","null","","","null","63","","NaN","","","","","","","","","","","","","",""
"","response","","html-keyboard-response","409","430650","0.0-1.0-572.0-0.0","0","0","96097","","238","","","75","63","","","2","63","training","adjacent","ED","5","4","M.jpg","Q.jpg","1","0","0","",""
"","feedback","","html-keyboard-response","410","431659","0.0-1.0-573.0-0.0","0","0","96097","","null","","","null","63","","","","","","","","","","","","","","","",""
"","time_out","","html-keyboard-response","411","433669","0.0-1.0-575.0-0.0","0","0","96097","","null","","","null","63","","","","","","","","","","","","","","","",""
"","ITI","","html-keyboard-response","412","434683","0.0-1.0-576.0","0","0","96097","","null","","","null","63","","","","","","","","","","","","","","","NaN",""
"","S1","","html-keyboard-response","413","434943","0.0-1.0-578.0","0","0","96097","","null","","","null","64","","","","","","","","","","","","","","","",""
"","ISI","","html-keyboard-response","414","435956","0.0-1.0-579.0","0","0","96097","","null","","","null","64","NaN","","","","","","","","","","","","","","",""
"","S2","","html-keyboard-response","415","436218","0.0-1.0-580.0","0","0","96097","","null","","","null","64","","NaN","","","","","","","","","","","","","",""
"","response","","html-keyboard-response","416","436421","0.0-1.0-581.0-0.0","0","0","96097","","193","","","68","64","","","2","64","training","adjacent","BC","2","3","L.jpg","O.jpg","0","1","0","",""
"","feedback","","html-keyboard-response","417","437441","0.0-1.0-582.0-0.0","0","0","96097","","null","","","null","64","","","","","","","","","","","","","","","",""
"","time_out","","html-keyboard-response","418","439449","0.0-1.0-584.0-0.0","0","0","96097","","null","","","null","64","","","","","","","","","","","","","","","",""
"","ITI","","html-keyboard-response","419","440462","0.0-1.0-585.0","0","0","96097","","null","","","null","64","","","","","","","","","","","","","","","NaN",""
"","S1","","html-keyboard-response","420","440724","0.0-1.0-587.0","0","0","96097","","null","","","null","65","","","","","","","","","","","","","","","",""
"","ISI","","html-keyboard-response","421","441731","0.0-1.0-588.0","0","0","96097","","null","","","null","65","NaN","","","","","","","","","","","","","","",""
"","S2","","html-keyboard-response","422","441994","0.0-1.0-589.0","0","0","96097","","null","","","null","65","","NaN","","","","","","","","","","","","","",""
"","response","","html-keyboard-response","423","442512","0.0-1.0-590.0-0.0","0","0","96097","","507","","","75","65","","","2","65","training","adjacent","BC","2","3","L.jpg","O.jpg","1","1","1","",""
"","feedback","","html-keyboard-response","424","443524","0.0-1.0-591.0-0.0","0","0","96097","","null","","","null","65","","","","","","","","","","","","","","","",""
"","ITI","","html-keyboard-response","425","444537","0.0-1.0-594.0","0","0","96097","","null","","","null","65","","","","","","","","","","","","","","","NaN",""
"","S1","","html-keyboard-response","426","444801","0.0-1.0-596.0","0","0","96097","","null","","","null","66","","","","","","","","","","","","","","","",""
"","ISI","","html-keyboard-response","427","445814","0.0-1.0-597.0","0","0","96097","","null","","","null","66","NaN","","","","","","","","","","","","","","",""
"","S2","","html-keyboard-response","428","446077","0.0-1.0-598.0","0","0","96097","","null","","","null","66","","NaN","","","","","","","","","","","","","",""
"","response","","html-keyboard-response","429","446380","0.0-1.0-599.0-0.0","0","0","96097","","290","","","68","66","","","2","66","training","adjacent","BA","2","1","L.jpg","P.jpg","0","0","1","",""
"","feedback","","html-keyboard-response","430","447390","0.0-1.0-600.0-0.0","0","0","96097","","null","","","null","66","","","","","","","","","","","","","","","",""
"","ITI","","html-keyboard-response","431","448404","0.0-1.0-603.0","0","0","96097","","null","","","null","66","","","","","","","","","","","","","","","NaN",""
"","S1","","html-keyboard-response","432","448668","0.0-1.0-605.0","0","0","96097","","null","","","null","67","","","","","","","","","","","","","","","",""
"","ISI","","html-keyboard-response","433","449675","0.0-1.0-606.0","0","0","96097","","null","","","null","67","NaN","","","","","","","","","","","","","","",""
"","S2","","html-keyboard-response","434","449939","0.0-1.0-607.0","0","0","96097","","null","","","null","67","","NaN","","","","","","","","","","","","","",""
"","response","","html-keyboard-response","435","450027","0.0-1.0-608.0-0.0","0","0","96097","","77","","","68","67","","","2","67","training","adjacent","GF","7","6","R.jpg","N.jpg","0","0","1","",""
"","feedback","","html-keyboard-response","436","451041","0.0-1.0-609.0-0.0","0","0","96097","","null","","","null","67","","","","","","","","","","","","","","","",""
"","ITI","","html-keyboard-response","437","452056","0.0-1.0-612.0","0","0","96097","","null","","","null","67","","","","","","","","","","","","","","","NaN",""
"","S1","","html-keyboard-response","438","452320","0.0-1.0-614.0","0","0","96097","","null","","","null","68","","","","","","","","","","","","","","","",""
"","ISI","","html-keyboard-response","439","453330","0.0-1.0-615.0","0","0","96097","","null","","","null","68","NaN","","","","","","","","","","","","","","",""
"","S2","","html-keyboard-response","440","453593","0.0-1.0-616.0","0","0","96097","","null","","","null","68","","NaN","","","","","","","","","","","","","",""
"","response","","html-keyboard-response","441","453822","0.0-1.0-617.0-0.0","0","0","96097","","215","","","68","68","","","2","68","training","adjacent","CD","3","4","O.jpg","Q.jpg","0","1","0","",""
"","feedback","","html-keyboard-response","442","454837","0.0-1.0-618.0-0.0","0","0","96097","","null","","","null","68","","","","","","","","","","","","","","","",""
"","time_out","","html-keyboard-response","443","456854","0.0-1.0-620.0-0.0","0","0","96097","","null","","","null","68","","","","","","","","","","","","","","","",""
"","ITI","","html-keyboard-response","444","457868","0.0-1.0-621.0","0","0","96097","","null","","","null","68","","","","","","","","","","","","","","","NaN",""
"","S1","","html-keyboard-response","445","458133","0.0-1.0-623.0","0","0","96097","","null","","","null","69","","","","","","","","","","","","","","","",""
"","ISI","","html-keyboard-response","446","459142","0.0-1.0-624.0","0","0","96097","","null","","","null","69","NaN","","","","","","","","","","","","","","",""
"","S2","","html-keyboard-response","447","459403","0.0-1.0-625.0","0","0","96097","","null","","","null","69","","NaN","","","","","","","","","","","","","",""
"","response","","html-keyboard-response","448","459593","0.0-1.0-626.0-0.0","0","0","96097","","182","","","75","69","","","2","69","training","adjacent","EF","5","6","M.jpg","N.jpg","1","1","1","",""
"","feedback","","html-keyboard-response","449","460607","0.0-1.0-627.0-0.0","0","0","96097","","null","","","null","69","","","","","","","","","","","","","","","",""
"","ITI","","html-keyboard-response","450","461616","0.0-1.0-630.0","0","0","96097","","null","","","null","69","","","","","","","","","","","","","","","NaN",""
"","S1","","html-keyboard-response","451","461876","0.0-1.0-632.0","0","0","96097","","null","","","null","70","","","","","","","","","","","","","","","",""
"","ISI","","html-keyboard-response","452","462888","0.0-1.0-633.0","0","0","96097","","null","","","null","70","NaN","","","","","","","","","","","","","","",""
"","S2","","html-keyboard-response","453","463147","0.0-1.0-634.0","0","0","96097","","null","","","null","70","","NaN","","","","","","","","","","","","","",""
"","response","","html-keyboard-response","454","463357","0.0-1.0-635.0-0.0","0","0","96097","","201","","","75","70","","","2","70","training","adjacent","ED","5","4","M.jpg","Q.jpg","1","0","0","",""
"","feedback","","html-keyboard-response","455","464370","0.0-1.0-636.0-0.0","0","0","96097","","null","","","null","70","","","","","","","","","","","","","","","",""
"","time_out","","html-keyboard-response","456","466384","0.0-1.0-638.0-0.0","0","0","96097","","null","","","null","70","","","","","","","","","","","","","","","",""
"","ITI","","html-keyboard-response","457","467392","0.0-1.0-639.0","0","0","96097","","null","","","null","70","","","","","","","","","","","","","","","NaN",""
"","S1","","html-keyboard-response","458","467656","0.0-1.0-641.0","0","0","96097","","null","","","null","71","","","","","","","","","","","","","","","",""
"","ISI","","html-keyboard-response","459","468670","0.0-1.0-642.0","0","0","96097","","null","","","null","71","NaN","","","","","","","","","","","","","","",""
"","S2","","html-keyboard-response","460","468931","0.0-1.0-643.0","0","0","96097","","null","","","null","71","","NaN","","","","","","","","","","","","","",""
"","response","","html-keyboard-response","461","469057","0.0-1.0-644.0-0.0","0","0","96097","","112","","","75","71","","","2","71","training","adjacent","ED","5","4","M.jpg","Q.jpg","1","0","0","",""
"","feedback","","html-keyboard-response","462","470070","0.0-1.0-645.0-0.0","0","0","96097","","null","","","null","71","","","","","","","","","","","","","","","",""
"","time_out","","html-keyboard-response","463","472086","0.0-1.0-647.0-0.0","0","0","96097","","null","","","null","71","","","","","","","","","","","","","","","",""
"","ITI","","html-keyboard-response","464","473093","0.0-1.0-648.0","0","0","96097","","null","","","null","71","","","","","","","","","","","","","","","NaN",""
"","S1","","html-keyboard-response","465","473355","0.0-1.0-650.0","0","0","96097","","null","","","null","72","","","","","","","","","","","","","","","",""
"","ISI","","html-keyboard-response","466","474362","0.0-1.0-651.0","0","0","96097","","null","","","null","72","NaN","","","","","","","","","","","","","","",""
"","S2","","html-keyboard-response","467","474624","0.0-1.0-652.0","0","0","96097","","null","","","null","72","","NaN","","","","","","","","","","","","","",""
"","response","","html-keyboard-response","468","474719","0.0-1.0-653.0-0.0","0","0","96097","","83","","","75","72","","","2","72","training","adjacent","CD","3","4","O.jpg","Q.jpg","1","1","1","",""
"","feedback","","html-keyboard-response","469","475732","0.0-1.0-654.0-0.0","0","0","96097","","null","","","null","72","","","","","","","","","","","","","","","",""
"","ITI","","html-keyboard-response","470","476744","0.0-1.0-657.0","0","0","96097","","null","","","null","72","","","","","","","","","","","","","","","NaN",""
"","S1","","html-keyboard-response","471","477006","0.0-1.0-659.0","0","0","96097","","null","","","null","73","","","","","","","","","","","","","","","",""
"","ISI","","html-keyboard-response","472","478017","0.0-1.0-660.0","0","0","96097","","null","","","null","73","NaN","","","","","","","","","","","","","","",""
"","S2","","html-keyboard-response","473","478278","0.0-1.0-661.0","0","0","96097","","null","","","null","73","","NaN","","","","","","","","","","","","","",""
"","response","","html-keyboard-response","474","478461","0.0-1.0-662.0-0.0","0","0","96097","","172","","","75","73","","","2","73","training","adjacent","DE","4","5","Q.jpg","M.jpg","1","1","1","",""
"","feedback","","html-keyboard-response","475","479474","0.0-1.0-663.0-0.0","0","0","96097","","null","","","null","73","","","","","","","","","","","","","","","",""
"","ITI","","html-keyboard-response","476","480486","0.0-1.0-666.0","0","0","96097","","null","","","null","73","","","","","","","","","","","","","","","NaN",""
"","S1","","html-keyboard-response","477","480747","0.0-1.0-668.0","0","0","96097","","null","","","null","74","","","","","","","","","","","","","","","",""
"","ISI","","html-keyboard-response","478","481759","0.0-1.0-669.0","0","0","96097","","null","","","null","74","NaN","","","","","","","","","","","","","","",""
"","S2","","html-keyboard-response","479","482024","0.0-1.0-670.0","0","0","96097","","null","","","null","74","","NaN","","","","","","","","","","","","","",""
"","response","","html-keyboard-response","480","482208","0.0-1.0-671.0-0.0","0","0","96097","","176","","","68","74","","","2","74","training","adjacent","CB","3","2","O.jpg","L.jpg","0","0","1","",""
"","feedback","","html-keyboard-response","481","483221","0.0-1.0-672.0-0.0","0","0","96097","","null","","","null","74","","","","","","","","","","","","","","","",""
"","ITI","","html-keyboard-response","482","484231","0.0-1.0-675.0","0","0","96097","","null","","","null","74","","","","","","","","","","","","","","","NaN",""
"","S1","","html-keyboard-response","483","484490","0.0-1.0-677.0","0","0","96097","","null","","","null","75","","","","","","","","","","","","","","","",""
"","ISI","","html-keyboard-response","484","485504","0.0-1.0-678.0","0","0","96097","","null","","","null","75","NaN","","","","","","","","","","","","","","",""
"","S2","","html-keyboard-response","485","485768","0.0-1.0-679.0","0","0","96097","","null","","","null","75","","NaN","","","","","","","","","","","","","",""
"","response","","html-keyboard-response","486","486441","0.0-1.0-680.0-0.0","0","0","96097","","664","","","75","75","","","2","75","training","adjacent","DC","4","3","Q.jpg","O.jpg","1","0","0","",""
"","feedback","","html-keyboard-response","487","487456","0.0-1.0-681.0-0.0","0","0","96097","","null","","","null","75","","","","","","","","","","","","","","","",""
"","time_out","","html-keyboard-response","488","489466","0.0-1.0-683.0-0.0","0","0","96097","","null","","","null","75","","","","","","","","","","","","","","","",""
"","ITI","","html-keyboard-response","489","490475","0.0-1.0-684.0","0","0","96097","","null","","","null","75","","","","","","","","","","","","","","","NaN",""
"","S1","","html-keyboard-response","490","490734","0.0-1.0-686.0","0","0","96097","","null","","","null","76","","","","","","","","","","","","","","","",""
"","ISI","","html-keyboard-response","491","491744","0.0-1.0-687.0","0","0","96097","","null","","","null","76","NaN","","","","","","","","","","","","","","",""
"","S2","","html-keyboard-response","492","491958","0.0-1.0-688.0","0","0","96097","","200","","","75","76","","k","2","76","training","adjacent","AB","1","2","P.jpg","L.jpg","1","1","1","",""
"","feedback","","html-keyboard-response","493","492970","0.0-1.0-690.0-0.0","0","0","96097","","null","","","null","76","","","","","","","","","","","","","","","",""
"","ITI","","html-keyboard-response","494","493983","0.0-1.0-693.0","0","0","96097","","null","","","null","76","","","","","","","","","","","","","","","NaN",""
"","S1","","html-keyboard-response","495","494244","0.0-1.0-695.0","0","0","96097","","null","","","null","77","","","","","","","","","","","","","","","",""
"","ISI","","html-keyboard-response","496","495256","0.0-1.0-696.0","0","0","96097","","null","","","null","77","NaN","","","","","","","","","","","","","","",""
"","S2","","html-keyboard-response","497","495519","0.0-1.0-697.0","0","0","96097","","null","","","null","77","","NaN","","","","","","","","","","","","","",""
"","response","","html-keyboard-response","498","495781","0.0-1.0-698.0-0.0","0","0","96097","","254","","","68","77","","","2","77","training","adjacent","DE","4","5","Q.jpg","M.jpg","0","1","0","",""
"","feedback","","html-keyboard-response","499","496791","0.0-1.0-699.0-0.0","0","0","96097","","null","","","null","77","","","","","","","","","","","","","","","",""
"","time_out","","html-keyboard-response","500","498805","0.0-1.0-701.0-0.0","0","0","96097","","null","","","null","77","","","","","","","","","","","","","","","",""
"","ITI","","html-keyboard-response","501","499818","0.0-1.0-702.0","0","0","96097","","null","","","null","77","","","","","","","","","","","","","","","NaN",""
"","S1","","html-keyboard-response","502","500079","0.0-1.0-704.0","0","0","96097","","null","","","null","78","","","","","","","","","","","","","","","",""
"","ISI","","html-keyboard-response","503","501091","0.0-1.0-705.0","0","0","96097","","null","","","null","78","NaN","","","","","","","","","","","","","","",""
"","S2","","html-keyboard-response","504","501350","0.0-1.0-706.0","0","0","96097","","null","","","null","78","","NaN","","","","","","","","","","","","","",""
"","response","","html-keyboard-response","505","501812","0.0-1.0-707.0-0.0","0","0","96097","","452","","","75","78","","","2","78","training","adjacent","DE","4","5","Q.jpg","M.jpg","1","1","1","",""
"","feedback","","html-keyboard-response","506","502825","0.0-1.0-708.0-0.0","0","0","96097","","null","","","null","78","","","","","","","","","","","","","","","",""
"","ITI","","html-keyboard-response","507","503838","0.0-1.0-711.0","0","0","96097","","null","","","null","78","","","","","","","","","","","","","","","NaN",""
"","S1","","html-keyboard-response","508","504101","0.0-1.0-713.0","0","0","96097","","null","","","null","79","","","","","","","","","","","","","","","",""
"","ISI","","html-keyboard-response","509","505113","0.0-1.0-714.0","0","0","96097","","null","","","null","79","NaN","","","","","","","","","","","","","","",""
"","S2","","html-keyboard-response","510","505372","0.0-1.0-715.0","0","0","96097","","null","","","null","79","","NaN","","","","","","","","","","","","","",""
"","response","","html-keyboard-response","511","505494","0.0-1.0-716.0-0.0","0","0","96097","","111","","","68","79","","","2","79","training","adjacent","BA","2","1","L.jpg","P.jpg","0","0","1","",""
"","feedback","","html-keyboard-response","512","506505","0.0-1.0-717.0-0.0","0","0","96097","","null","","","null","79","","","","","","","","","","","","","","","",""
"","ITI","","html-keyboard-response","513","507519","0.0-1.0-720.0","0","0","96097","","null","","","null","79","","","","","","","","","","","","","","","NaN",""
"","S1","","html-keyboard-response","514","507783","0.0-1.0-722.0","0","0","96097","","null","","","null","80","","","","","","","","","","","","","","","",""
"","ISI","","html-keyboard-response","515","508796","0.0-1.0-723.0","0","0","96097","","null","","","null","80","NaN","","","","","","","","","","","","","","",""
"","S2","","html-keyboard-response","516","509057","0.0-1.0-724.0","0","0","96097","","null","","","null","80","","NaN","","","","","","","","","","","","","",""
"","response","","html-keyboard-response","517","509515","0.0-1.0-725.0-0.0","0","0","96097","","442","","","68","80","","","2","80","training","adjacent","GF","7","6","R.jpg","N.jpg","0","0","1","",""
"","feedback","","html-keyboard-response","518","510525","0.0-1.0-726.0-0.0","0","0","96097","","null","","","null","80","","","","","","","","","","","","","","","",""
"","ITI","","html-keyboard-response","519","511539","0.0-1.0-729.0","0","0","96097","","null","","","null","80","","","","","","","","","","","","","","","NaN",""
"","S1","","html-keyboard-response","520","511803","0.0-1.0-731.0","0","0","96097","","null","","","null","81","","","","","","","","","","","","","","","",""
"","ISI","","html-keyboard-response","521","512816","0.0-1.0-732.0","0","0","96097","","null","","","null","81","NaN","","","","","","","","","","","","","","",""
"","S2","","html-keyboard-response","522","513076","0.0-1.0-733.0","0","0","96097","","null","","","null","81","","NaN","","","","","","","","","","","","","",""
"","response","","html-keyboard-response","523","513580","0.0-1.0-734.0-0.0","0","0","96097","","493","","","75","81","","","2","81","training","adjacent","DC","4","3","Q.jpg","O.jpg","1","0","0","",""
"","feedback","","html-keyboard-response","524","514592","0.0-1.0-735.0-0.0","0","0","96097","","null","","","null","81","","","","","","","","","","","","","","","",""
"","time_out","","html-keyboard-response","525","516601","0.0-1.0-737.0-0.0","0","0","96097","","null","","","null","81","","","","","","","","","","","","","","","",""
"","ITI","","html-keyboard-response","526","517610","0.0-1.0-738.0","0","0","96097","","null","","","null","81","","","","","","","","","","","","","","","NaN",""
"","S1","","html-keyboard-response","527","517875","0.0-1.0-740.0","0","0","96097","","null","","","null","82","","","","","","","","","","","","","","","",""
"","ISI","","html-keyboard-response","528","518884","0.0-1.0-741.0","0","0","96097","","null","","","null","82","NaN","","","","","","","","","","","","","","",""
"","S2","","html-keyboard-response","529","519148","0.0-1.0-742.0","0","0","96097","","null","","","null","82","","NaN","","","","","","","","","","","","","",""
"","response","","html-keyboard-response","530","519599","0.0-1.0-743.0-0.0","0","0","96097","","442","","","75","82","","","2","82","training","adjacent","CB","3","2","O.jpg","L.jpg","1","0","0","",""
"","feedback","","html-keyboard-response","531","520611","0.0-1.0-744.0-0.0","0","0","96097","","null","","","null","82","","","","","","","","","","","","","","","",""
"","time_out","","html-keyboard-response","532","522621","0.0-1.0-746.0-0.0","0","0","96097","","null","","","null","82","","","","","","","","","","","","","","","",""
"","ITI","","html-keyboard-response","533","523635","0.0-1.0-747.0","0","0","96097","","null","","","null","82","","","","","","","","","","","","","","","NaN",""
"","S1","","html-keyboard-response","534","523898","0.0-1.0-749.0","0","0","96097","","null","","","null","83","","","","","","","","","","","","","","","",""
"","ISI","","html-keyboard-response","535","524906","0.0-1.0-750.0","0","0","96097","","null","","","null","83","NaN","","","","","","","","","","","","","","",""
"","S2","","html-keyboard-response","536","525167","0.0-1.0-751.0","0","0","96097","","null","","","null","83","","NaN","","","","","","","","","","","","","",""
"","response","","html-keyboard-response","537","525502","0.0-1.0-752.0-0.0","0","0","96097","","322","","","68","83","","","2","83","training","adjacent","FE","6","5","N.jpg","M.jpg","0","0","1","",""
"","feedback","","html-keyboard-response","538","526512","0.0-1.0-753.0-0.0","0","0","96097","","null","","","null","83","","","","","","","","","","","","","","","",""
"","ITI","","html-keyboard-response","539","527523","0.0-1.0-756.0","0","0","96097","","null","","","null","83","","","","","","","","","","","","","","","NaN",""
"","S1","","html-keyboard-response","540","527788","0.0-1.0-758.0","0","0","96097","","null","","","null","84","","","","","","","","","","","","","","","",""
"","ISI","","html-keyboard-response","541","528800","0.0-1.0-759.0","0","0","96097","","null","","","null","84","NaN","","","","","","","","","","","","","","",""
"","S2","","html-keyboard-response","542","529060","0.0-1.0-760.0","0","0","96097","","null","","","null","84","","NaN","","","","","","","","","","","","","",""
"","response","","html-keyboard-response","543","529617","0.0-1.0-761.0-0.0","0","0","96097","","543","","","75","84","","","2","84","training","adjacent","GF","7","6","R.jpg","N.jpg","1","0","0","",""
"","feedback","","html-keyboard-response","544","530635","0.0-1.0-762.0-0.0","0","0","96097","","null","","","null","84","","","","","","","","","","","","","","","",""
"","time_out","","html-keyboard-response","545","532646","0.0-1.0-764.0-0.0","0","0","96097","","null","","","null","84","","","","","","","","","","","","","","","",""
"","ITI","","html-keyboard-response","546","533658","0.0-1.0-765.0","0","0","96097","","null","","","null","84","","","","","","","","","","","","","","","NaN",""
"","S1","","html-keyboard-response","547","533921","0.0-1.0-767.0","0","0","96097","","null","","","null","85","","","","","","","","","","","","","","","",""
"","ISI","","html-keyboard-response","548","534932","0.0-1.0-768.0","0","0","96097","","null","","","null","85","NaN","","","","","","","","","","","","","","",""
"","S2","","html-keyboard-response","549","535195","0.0-1.0-769.0","0","0","96097","","null","","","null","85","","NaN","","","","","","","","","","","","","",""
"","response","","html-keyboard-response","550","535330","0.0-1.0-770.0-0.0","0","0","96097","","124","","","68","85","","","2","85","training","adjacent","DE","4","5","Q.jpg","M.jpg","0","1","0","",""
"","feedback","","html-keyboard-response","551","536341","0.0-1.0-771.0-0.0","0","0","96097","","null","","","null","85","","","","","","","","","","","","","","","",""
"","time_out","","html-keyboard-response","552","538351","0.0-1.0-773.0-0.0","0","0","96097","","null","","","null","85","","","","","","","","","","","","","","","",""
"","ITI","","html-keyboard-response","553","539366","0.0-1.0-774.0","0","0","96097","","null","","","null","85","","","","","","","","","","","","","","","NaN",""
"","S1","","html-keyboard-response","554","539631","0.0-1.0-776.0","0","0","96097","","null","","","null","86","","","","","","","","","","","","","","","",""
"","ISI","","html-keyboard-response","555","540642","0.0-1.0-777.0","0","0","96097","","null","","","null","86","NaN","","","","","","","","","","","","","","",""
"","S2","","html-keyboard-response","556","540901","0.0-1.0-778.0","0","0","96097","","null","","","null","86","","NaN","","","","","","","","","","","","","",""
"","response","","html-keyboard-response","557","541228","0.0-1.0-779.0-0.0","0","0","96097","","318","","","68","86","","","2","86","training","adjacent","BA","2","1","L.jpg","P.jpg","0","0","1","",""
"","feedback","","html-keyboard-response","558","542241","0.0-1.0-780.0-0.0","0","0","96097","","null","","","null","86","","","","","","","","","","","","","","","",""
"","ITI","","html-keyboard-response","559","543255","0.0-1.0-783.0","0","0","96097","","null","","","null","86","","","","","","","","","","","","","","","NaN",""
"","S1","","html-keyboard-response","560","543520","0.0-1.0-785.0","0","0","96097","","null","","","null","87","","","","","","","","","","","","","","","",""
"","ISI","","html-keyboard-response","561","544530","0.0-1.0-786.0","0","0","96097","","null","","","null","87","NaN","","","","","","","","","","","","","","",""
"","S2","","html-keyboard-response","562","544795","0.0-1.0-787.0","0","0","96097","","null","","","null","87","","NaN","","","","","","","","","","","","","",""
"","response","","html-keyboard-response","563","545057","0.0-1.0-788.0-0.0","0","0","96097","","253","","","68","87","","","2","87","training","adjacent","CB","3","2","O.jpg","L.jpg","0","0","1","",""
"","feedback","","html-keyboard-response","564","546072","0.0-1.0-789.0-0.0","0","0","96097","","null","","","null","87","","","","","","","","","","","","","","","",""
"","ITI","","html-keyboard-response","565","547081","0.0-1.0-792.0","0","0","96097","","null","","","null","87","","","","","","","","","","","","","","","NaN",""
"","S1","","html-keyboard-response","566","547342","0.0-1.0-794.0","0","0","96097","","null","","","null","88","","","","","","","","","","","","","","","",""
"","ISI","","html-keyboard-response","567","548355","0.0-1.0-795.0","0","0","96097","","null","","","null","88","NaN","","","","","","","","","","","","","","",""
"","S2","","html-keyboard-response","568","548615","0.0-1.0-796.0","0","0","96097","","null","","","null","88","","NaN","","","","","","","","","","","","","",""
"","response","","html-keyboard-response","569","548948","0.0-1.0-797.0-0.0","0","0","96097","","323","","","68","88","","","2","88","training","adjacent","BC","2","3","L.jpg","O.jpg","0","1","0","",""
"","feedback","","html-keyboard-response","570","549964","0.0-1.0-798.0-0.0","0","0","96097","","null","","","null","88","","","","","","","","","","","","","","","",""
"","time_out","","html-keyboard-response","571","551977","0.0-1.0-800.0-0.0","0","0","96097","","null","","","null","88","","","","","","","","","","","","","","","",""
"","ITI","","html-keyboard-response","572","552988","0.0-1.0-801.0","0","0","96097","","null","","","null","88","","","","","","","","","","","","","","","NaN",""
"","S1","","html-keyboard-response","573","553249","0.0-1.0-803.0","0","0","96097","","null","","","null","89","","","","","","","","","","","","","","","",""
"","ISI","","html-keyboard-response","574","554259","0.0-1.0-804.0","0","0","96097","","null","","","null","89","NaN","","","","","","","","","","","","","","",""
"","S2","","html-keyboard-response","575","554519","0.0-1.0-805.0","0","0","96097","","null","","","null","89","","NaN","","","","","","","","","","","","","",""
"","response","","html-keyboard-response","576","554803","0.0-1.0-806.0-0.0","0","0","96097","","266","","","75","89","","","2","89","training","adjacent","DC","4","3","Q.jpg","O.jpg","1","0","0","",""
"","feedback","","html-keyboard-response","577","555815","0.0-1.0-807.0-0.0","0","0","96097","","null","","","null","89","","","","","","","","","","","","","","","",""
"","time_out","","html-keyboard-response","578","557829","0.0-1.0-809.0-0.0","0","0","96097","","null","","","null","89","","","","","","","","","","","","","","","",""
"","ITI","","html-keyboard-response","579","558840","0.0-1.0-810.0","0","0","96097","","null","","","null","89","","","","","","","","","","","","","","","NaN",""
"","S1","","html-keyboard-response","580","559101","0.0-1.0-812.0","0","0","96097","","null","","","null","90","","","","","","","","","","","","","","","",""
"","ISI","","html-keyboard-response","581","560115","0.0-1.0-813.0","0","0","96097","","null","","","null","90","NaN","","","","","","","","","","","","","","",""
