"success","ttype","start_time","trial_type","trial_index","time_elapsed","internal_node_id","warning","missed_checkup","PID","view_history","rt","responses","repeat_instructions","key_press","index","keypress_isi","keypress_S2","block","trial_num","phase","group_type","pair_type","S1_stim","S2_stim","S1_img","S2_img","S1_chosen","S1_higher","accuracy","keypress_iti","total_bonus_tally"
"true","full_screen","d04142023hr1512","fullscreen","0","12763","0.0-0.0","0","0","77862","","","","","","","","","","","","","","","","","","","","","",""
"","instructions","","instructions","1","61733","0.0-1.0-0.0-0.0","0","0","77862","[{""page_index"":0,""viewing_time"":5901},{""page_index"":1,""viewing_time"":27585},{""page_index"":2,""viewing_time"":12899},{""page_index"":3,""viewing_time"":2582}]","48967","","","","","","","","","","","","","","","","","","","",""
"","comprehension_check","","survey-multi-choice","2","90958","0.0-1.0-0.0-1.0","0","0","77862","","29221","{""Q0"":""True"",""Q1"":""D"",""Q2"":""Only when the screen 'MAKE A CHOICE' is shown"",""Q3"":""Green mark"",""Q4"":""either D or K""}","1","","","","","","","","","","","","","","","","","",""
"","missed_instruction_checkup","","html-keyboard-response","3","93283","0.0-1.0-0.0-2.0-0.0","0","1","77862","","2322","","","32","","","","","","","","","","","","","","","","",""
"","instructions","","instructions","4","131169","0.0-1.0-0.1-0.1","0","0","77862","[{""page_index"":0,""viewing_time"":3297},{""page_index"":1,""viewing_time"":17201},{""page_index"":2,""viewing_time"":2244},{""page_index"":1,""viewing_time"":7955},{""page_index"":2,""viewing_time"":5899},{""page_index"":3,""viewing_time"":1287}]","37884","","","","","","","","","","","","","","","","","","","",""
"","comprehension_check","","survey-multi-choice","5","141836","0.0-1.0-0.1-1.1","0","0","77862","","10663","{""Q0"":""True"",""Q1"":""D"",""Q2"":""Once the second image appears and while the screen 'MAKE A CHOICE' is shown"",""Q3"":""Green mark"",""Q4"":""either D or K""}","0","","","","","","","","","","","","","","","","","",""
"","start_exp","","html-keyboard-response","6","182816","0.0-1.0-1.0","0","0","77862","","40976","","","32","","","","","","","","","","","","","","","","",""
"","S1","","html-keyboard-response","7","183071","0.0-1.0-2.0","0","0","77862","","null","","","null","0","","","","","","","","","","","","","","","",""
"","ISI","","html-keyboard-response","8","184075","0.0-1.0-3.0","0","0","77862","","null","","","null","0","NaN","","","","","","","","","","","","","","",""
"","S2","","html-keyboard-response","9","184330","0.0-1.0-4.0","0","0","77862","","null","","","null","0","","NaN","","","","","","","","","","","","","",""
"","response","","html-keyboard-response","10","184738","0.0-1.0-5.0-0.0","0","0","77862","","402","","","75","0","","","1","0","training","adjacent","AB","1","2","O.jpg","R.jpg","0","1","0","",""
"","feedback","","html-keyboard-response","11","185743","0.0-1.0-6.0-0.0","0","0","77862","","null","","","null","0","","","","","","","","","","","","","","","",""
"","time_out","","html-keyboard-response","12","187747","0.0-1.0-8.0-0.0","0","0","77862","","null","","","null","0","","","","","","","","","","","","","","","",""
"","ITI","","html-keyboard-response","13","188751","0.0-1.0-9.0","0","0","77862","","null","","","null","0","","","","","","","","","","","","","","","NaN",""
"","S1","","html-keyboard-response","14","189006","0.0-1.0-11.0","0","0","77862","","null","","","null","1","","","","","","","","","","","","","","","",""
"","ISI","","html-keyboard-response","15","190010","0.0-1.0-12.0","0","0","77862","","null","","","null","1","NaN","","","","","","","","","","","","","","",""
"","S2","","html-keyboard-response","16","190265","0.0-1.0-13.0","0","0","77862","","null","","","null","1","","NaN","","","","","","","","","","","","","",""
"","response","","html-keyboard-response","17","190536","0.0-1.0-14.0-0.0","0","0","77862","","268","","","68","1","","","1","1","training","adjacent","ED","5","4","P.jpg","Q.jpg","1","0","0","",""
"","feedback","","html-keyboard-response","18","191541","0.0-1.0-15.0-0.0","0","0","77862","","null","","","null","1","","","","","","","","","","","","","","","",""
"","time_out","","html-keyboard-response","19","193545","0.0-1.0-17.0-0.0","0","0","77862","","null","","","null","1","","","","","","","","","","","","","","","",""
"","ITI","","html-keyboard-response","20","194549","0.0-1.0-18.0","0","0","77862","","null","","","null","1","","","","","","","","","","","","","","","NaN",""
"","S1","","html-keyboard-response","21","194805","0.0-1.0-20.0","0","0","77862","","null","","","null","2","","","","","","","","","","","","","","","",""
"","ISI","","html-keyboard-response","22","195809","0.0-1.0-21.0","0","0","77862","","null","","","null","2","NaN","","","","","","","","","","","","","","",""
"","S2","","html-keyboard-response","23","196063","0.0-1.0-22.0","0","0","77862","","null","","","null","2","","NaN","","","","","","","","","","","","","",""
"","response","","html-keyboard-response","24","196476","0.0-1.0-23.0-0.0","0","0","77862","","410","","","68","2","","","1","2","training","adjacent","DE","4","5","Q.jpg","P.jpg","1","1","1","",""
"","feedback","","html-keyboard-response","25","197480","0.0-1.0-24.0-0.0","0","0","77862","","null","","","null","2","","","","","","","","","","","","","","","",""
"","ITI","","html-keyboard-response","26","198484","0.0-1.0-27.0","0","0","77862","","null","","","null","2","","","","","","","","","","","","","","","NaN",""
"","S1","","html-keyboard-response","27","198738","0.0-1.0-29.0","0","0","77862","","null","","","null","3","","","","","","","","","","","","","","","",""
"","ISI","","html-keyboard-response","28","199743","0.0-1.0-30.0","0","0","77862","","null","","","null","3","NaN","","","","","","","","","","","","","","",""
"","S2","","html-keyboard-response","29","199998","0.0-1.0-31.0","0","0","77862","","null","","","null","3","","NaN","","","","","","","","","","","","","",""
"","response","","html-keyboard-response","30","200335","0.0-1.0-32.0-0.0","0","0","77862","","333","","","75","3","","","1","3","training","adjacent","FE","6","5","M.jpg","P.jpg","0","0","1","",""
"","feedback","","html-keyboard-response","31","201340","0.0-1.0-33.0-0.0","0","0","77862","","null","","","null","3","","","","","","","","","","","","","","","",""
"","ITI","","html-keyboard-response","32","202343","0.0-1.0-36.0","0","0","77862","","null","","","null","3","","","","","","","","","","","","","","","NaN",""
"","S1","","html-keyboard-response","33","202597","0.0-1.0-38.0","0","0","77862","","null","","","null","4","","","","","","","","","","","","","","","",""
"","ISI","","html-keyboard-response","34","203600","0.0-1.0-39.0","0","0","77862","","null","","","null","4","NaN","","","","","","","","","","","","","","",""
"","S2","","html-keyboard-response","35","203855","0.0-1.0-40.0","0","0","77862","","null","","","null","4","","NaN","","","","","","","","","","","","","",""
"","response","","html-keyboard-response","36","204144","0.0-1.0-41.0-0.0","0","0","77862","","285","","","68","4","","","1","4","training","adjacent","EF","5","6","P.jpg","M.jpg","1","1","1","",""
"","feedback","","html-keyboard-response","37","205149","0.0-1.0-42.0-0.0","0","0","77862","","null","","","null","4","","","","","","","","","","","","","","","",""
"","ITI","","html-keyboard-response","38","206153","0.0-1.0-45.0","0","0","77862","","null","","","null","4","","","","","","","","","","","","","","","NaN",""
"","S1","","html-keyboard-response","39","206408","0.0-1.0-47.0","0","0","77862","","null","","","null","5","","","","","","","","","","","","","","","",""
"","ISI","","html-keyboard-response","40","207412","0.0-1.0-48.0","0","0","77862","","null","","","null","5","NaN","","","","","","","","","","","","","","",""
"","S2","","html-keyboard-response","41","207666","0.0-1.0-49.0","0","0","77862","","null","","","null","5","","NaN","","","","","","","","","","","","","",""
"","response","","html-keyboard-response","42","208118","0.0-1.0-50.0-0.0","0","0","77862","","448","","","75","5","","","1","5","training","adjacent","GF","7","6","L.jpg","M.jpg","0","0","1","",""
"","feedback","","html-keyboard-response","43","209122","0.0-1.0-51.0-0.0","0","0","77862","","null","","","null","5","","","","","","","","","","","","","","","",""
"","ITI","","html-keyboard-response","44","210128","0.0-1.0-54.0","0","0","77862","","null","","","null","5","","","","","","","","","","","","","","","NaN",""
"","S1","","html-keyboard-response","45","210383","0.0-1.0-56.0","0","0","77862","","null","","","null","6","","","","","","","","","","","","","","","",""
"","ISI","","html-keyboard-response","46","211386","0.0-1.0-57.0","0","0","77862","","null","","","null","6","NaN","","","","","","","","","","","","","","",""
"","S2","","html-keyboard-response","47","211640","0.0-1.0-58.0","0","0","77862","","null","","","null","6","","NaN","","","","","","","","","","","","","",""
"","response","","html-keyboard-response","48","211911","0.0-1.0-59.0-0.0","0","0","77862","","268","","","75","6","","","1","6","training","adjacent","GF","7","6","L.jpg","M.jpg","0","0","1","",""
"","feedback","","html-keyboard-response","49","212916","0.0-1.0-60.0-0.0","0","0","77862","","null","","","null","6","","","","","","","","","","","","","","","",""
"","ITI","","html-keyboard-response","50","213920","0.0-1.0-63.0","0","0","77862","","null","","","null","6","","","","","","","","","","","","","","","NaN",""
"","S1","","html-keyboard-response","51","214175","0.0-1.0-65.0","0","0","77862","","null","","","null","7","","","","","","","","","","","","","","","",""
"","ISI","","html-keyboard-response","52","215178","0.0-1.0-66.0","0","0","77862","","null","","","null","7","NaN","","","","","","","","","","","","","","",""
"","S2","","html-keyboard-response","53","215432","0.0-1.0-67.0","0","0","77862","","null","","","null","7","","NaN","","","","","","","","","","","","","",""
"","response","","html-keyboard-response","54","215702","0.0-1.0-68.0-0.0","0","0","77862","","267","","","68","7","","","1","7","training","adjacent","FG","6","7","M.jpg","L.jpg","1","1","1","",""
"","feedback","","html-keyboard-response","55","216707","0.0-1.0-69.0-0.0","0","0","77862","","null","","","null","7","","","","","","","","","","","","","","","",""
"","ITI","","html-keyboard-response","56","217712","0.0-1.0-72.0","0","0","77862","","null","","","null","7","","","","","","","","","","","","","","","NaN",""
"","S1","","html-keyboard-response","57","217967","0.0-1.0-74.0","0","0","77862","","null","","","null","8","","","","","","","","","","","","","","","",""
"","ISI","","html-keyboard-response","58","218971","0.0-1.0-75.0","0","0","77862","","null","","","null","8","NaN","","","","","","","","","","","","","","",""
"","S2","","html-keyboard-response","59","219226","0.0-1.0-76.0","0","0","77862","","null","","","null","8","","NaN","","","","","","","","","","","","","",""
"","response","","html-keyboard-response","60","219444","0.0-1.0-77.0-0.0","0","0","77862","","214","","","68","8","","","1","8","training","adjacent","DC","4","3","Q.jpg","N.jpg","1","0","0","",""
"","feedback","","html-keyboard-response","61","220448","0.0-1.0-78.0-0.0","0","0","77862","","null","","","null","8","","","","","","","","","","","","","","","",""
"","time_out","","html-keyboard-response","62","222451","0.0-1.0-80.0-0.0","0","0","77862","","null","","","null","8","","","","","","","","","","","","","","","",""
"","ITI","","html-keyboard-response","63","223455","0.0-1.0-81.0","0","0","77862","","null","","","null","8","","","","","","","","","","","","","","","NaN",""
"","S1","","html-keyboard-response","64","223709","0.0-1.0-83.0","0","0","77862","","null","","","null","9","","","","","","","","","","","","","","","",""
"","ISI","","html-keyboard-response","65","224713","0.0-1.0-84.0","0","0","77862","","null","","","null","9","NaN","","","","","","","","","","","","","","",""
"","S2","","html-keyboard-response","66","224968","0.0-1.0-85.0","0","0","77862","","null","","","null","9","","NaN","","","","","","","","","","","","","",""
"","response","","html-keyboard-response","67","225248","0.0-1.0-86.0-0.0","0","0","77862","","277","","","75","9","","","1","9","training","adjacent","GF","7","6","L.jpg","M.jpg","0","0","1","",""
"","feedback","","html-keyboard-response","68","226253","0.0-1.0-87.0-0.0","0","0","77862","","null","","","null","9","","","","","","","","","","","","","","","",""
"","ITI","","html-keyboard-response","69","227258","0.0-1.0-90.0","0","0","77862","","null","","","null","9","","","","","","","","","","","","","","","NaN",""
"","S1","","html-keyboard-response","70","227512","0.0-1.0-92.0","0","0","77862","","null","","","null","10","","","","","","","","","","","","","","","",""
"","ISI","","html-keyboard-response","71","228515","0.0-1.0-93.0","0","0","77862","","null","","","null","10","NaN","","","","","","","","","","","","","","",""
"","S2","","html-keyboard-response","72","228769","0.0-1.0-94.0","0","0","77862","","null","","","null","10","","NaN","","","","","","","","","","","","","",""
"","response","","html-keyboard-response","73","228986","0.0-1.0-95.0-0.0","0","0","77862","","215","","","75","10","","","1","10","training","adjacent","BA","2","1","R.jpg","O.jpg","0","0","1","",""
"","feedback","","html-keyboard-response","74","229991","0.0-1.0-96.0-0.0","0","0","77862","","null","","","null","10","","","","","","","","","","","","","","","",""
"","ITI","","html-keyboard-response","75","231010","0.0-1.0-99.0","0","0","77862","","null","","","null","10","","","","","","","","","","","","","","","NaN",""
"","S1","","html-keyboard-response","76","231264","0.0-1.0-101.0","0","0","77862","","null","","","null","11","","","","","","","","","","","","","","","",""
"","ISI","","html-keyboard-response","77","232268","0.0-1.0-102.0","0","0","77862","","null","","","null","11","NaN","","","","","","","","","","","","","","",""
"","S2","","html-keyboard-response","78","232523","0.0-1.0-103.0","0","0","77862","","null","","","null","11","","NaN","","","","","","","","","","","","","",""
"","response","","html-keyboard-response","79","232777","0.0-1.0-104.0-0.0","0","0","77862","","250","","","68","11","","","1","11","training","adjacent","FG","6","7","M.jpg","L.jpg","1","1","1","",""
"","feedback","","html-keyboard-response","80","233783","0.0-1.0-105.0-0.0","0","0","77862","","null","","","null","11","","","","","","","","","","","","","","","",""
"","ITI","","html-keyboard-response","81","234788","0.0-1.0-108.0","0","0","77862","","null","","","null","11","","","","","","","","","","","","","","","NaN",""
"","S1","","html-keyboard-response","82","235043","0.0-1.0-110.0","0","0","77862","","null","","","null","12","","","","","","","","","","","","","","","",""
"","ISI","","html-keyboard-response","83","236047","0.0-1.0-111.0","0","0","77862","","null","","","null","12","NaN","","","","","","","","","","","","","","",""
"","S2","","html-keyboard-response","84","236301","0.0-1.0-112.0","0","0","77862","","null","","","null","12","","NaN","","","","","","","","","","","","","",""
"","response","","html-keyboard-response","85","236539","0.0-1.0-113.0-0.0","0","0","77862","","237","","","75","12","","","1","12","training","adjacent","CB","3","2","N.jpg","R.jpg","0","0","1","",""
"","feedback","","html-keyboard-response","86","237543","0.0-1.0-114.0-0.0","0","0","77862","","null","","","null","12","","","","","","","","","","","","","","","",""
"","ITI","","html-keyboard-response","87","238547","0.0-1.0-117.0","0","0","77862","","null","","","null","12","","","","","","","","","","","","","","","NaN",""
"","S1","","html-keyboard-response","88","238801","0.0-1.0-119.0","0","0","77862","","null","","","null","13","","","","","","","","","","","","","","","",""
"","ISI","","html-keyboard-response","89","239805","0.0-1.0-120.0","0","0","77862","","null","","","null","13","NaN","","","","","","","","","","","","","","",""
"","S2","","html-keyboard-response","90","240060","0.0-1.0-121.0","0","0","77862","","null","","","null","13","","NaN","","","","","","","","","","","","","",""
"","response","","html-keyboard-response","91","240363","0.0-1.0-122.0-0.0","0","0","77862","","301","","","75","13","","","1","13","training","adjacent","CB","3","2","N.jpg","R.jpg","0","0","1","",""
"","feedback","","html-keyboard-response","92","241367","0.0-1.0-123.0-0.0","0","0","77862","","null","","","null","13","","","","","","","","","","","","","","","",""
"","ITI","","html-keyboard-response","93","242372","0.0-1.0-126.0","0","0","77862","","null","","","null","13","","","","","","","","","","","","","","","NaN",""
"","S1","","html-keyboard-response","94","242626","0.0-1.0-128.0","0","0","77862","","null","","","null","14","","","","","","","","","","","","","","","",""
"","ISI","","html-keyboard-response","95","243636","0.0-1.0-129.0","0","0","77862","","null","","","null","14","NaN","","","","","","","","","","","","","","",""
"","S2","","html-keyboard-response","96","243891","0.0-1.0-130.0","0","0","77862","","null","","","null","14","","NaN","","","","","","","","","","","","","",""
"","response","","html-keyboard-response","97","244152","0.0-1.0-131.0-0.0","0","0","77862","","257","","","68","14","","","1","14","training","adjacent","FG","6","7","M.jpg","L.jpg","1","1","1","",""
"","feedback","","html-keyboard-response","98","245158","0.0-1.0-132.0-0.0","0","0","77862","","null","","","null","14","","","","","","","","","","","","","","","",""
"","ITI","","html-keyboard-response","99","246161","0.0-1.0-135.0","0","0","77862","","null","","","null","14","","","","","","","","","","","","","","","NaN",""
"","S1","","html-keyboard-response","100","246415","0.0-1.0-137.0","0","0","77862","","null","","","null","15","","","","","","","","","","","","","","","",""
"","ISI","","html-keyboard-response","101","247419","0.0-1.0-138.0","0","0","77862","","null","","","null","15","NaN","","","","","","","","","","","","","","",""
"","S2","","html-keyboard-response","102","247673","0.0-1.0-139.0","0","0","77862","","null","","","null","15","","NaN","","","","","","","","","","","","","",""
"","response","","html-keyboard-response","103","247800","0.0-1.0-140.0-0.0","0","0","77862","","123","","","68","15","","","1","15","training","adjacent","DC","4","3","Q.jpg","N.jpg","1","0","0","",""
"","feedback","","html-keyboard-response","104","248805","0.0-1.0-141.0-0.0","0","0","77862","","null","","","null","15","","","","","","","","","","","","","","","",""
"","time_out","","html-keyboard-response","105","250810","0.0-1.0-143.0-0.0","0","0","77862","","null","","","null","15","","","","","","","","","","","","","","","",""
"","ITI","","html-keyboard-response","106","251814","0.0-1.0-144.0","0","0","77862","","null","","","null","15","","","","","","","","","","","","","","","NaN",""
"","S1","","html-keyboard-response","107","252070","0.0-1.0-146.0","0","0","77862","","null","","","null","16","","","","","","","","","","","","","","","",""
"","ISI","","html-keyboard-response","108","253074","0.0-1.0-147.0","0","0","77862","","null","","","null","16","NaN","","","","","","","","","","","","","","",""
"","S2","","html-keyboard-response","109","253329","0.0-1.0-148.0","0","0","77862","","null","","","null","16","","NaN","","","","","","","","","","","","","",""
"","response","","html-keyboard-response","110","253600","0.0-1.0-149.0-0.0","0","0","77862","","268","","","68","16","","","1","16","training","adjacent","BC","2","3","R.jpg","N.jpg","1","1","1","",""
"","feedback","","html-keyboard-response","111","254605","0.0-1.0-150.0-0.0","0","0","77862","","null","","","null","16","","","","","","","","","","","","","","","",""
"","ITI","","html-keyboard-response","112","255610","0.0-1.0-153.0","0","0","77862","","null","","","null","16","","","","","","","","","","","","","","","NaN",""
"","S1","","html-keyboard-response","113","255865","0.0-1.0-155.0","0","0","77862","","null","","","null","17","","","","","","","","","","","","","","","",""
"","ISI","","html-keyboard-response","114","256870","0.0-1.0-156.0","0","0","77862","","null","","","null","17","NaN","","","","","","","","","","","","","","",""
"","S2","","html-keyboard-response","115","257129","0.0-1.0-157.0","0","0","77862","","null","","","null","17","","NaN","","","","","","","","","","","","","",""
"","response","","html-keyboard-response","116","257267","0.0-1.0-158.0-0.0","0","0","77862","","135","","","68","17","","","1","17","training","adjacent","FE","6","5","M.jpg","P.jpg","1","0","0","",""
"","feedback","","html-keyboard-response","117","258272","0.0-1.0-159.0-0.0","0","0","77862","","null","","","null","17","","","","","","","","","","","","","","","",""
"","time_out","","html-keyboard-response","118","260277","0.0-1.0-161.0-0.0","0","0","77862","","null","","","null","17","","","","","","","","","","","","","","","",""
"","ITI","","html-keyboard-response","119","261292","0.0-1.0-162.0","0","0","77862","","null","","","null","17","","","","","","","","","","","","","","","NaN",""
"","S1","","html-keyboard-response","120","261547","0.0-1.0-164.0","0","0","77862","","null","","","null","18","","","","","","","","","","","","","","","",""
"","ISI","","html-keyboard-response","121","262551","0.0-1.0-165.0","0","0","77862","","null","","","null","18","NaN","","","","","","","","","","","","","","",""
"","S2","","html-keyboard-response","122","262806","0.0-1.0-166.0","0","0","77862","","null","","","null","18","","NaN","","","","","","","","","","","","","",""
"","response","","html-keyboard-response","123","263025","0.0-1.0-167.0-0.0","0","0","77862","","216","","","75","18","","","1","18","training","adjacent","CD","3","4","N.jpg","Q.jpg","0","1","0","",""
"","feedback","","html-keyboard-response","124","264044","0.0-1.0-168.0-0.0","0","0","77862","","null","","","null","18","","","","","","","","","","","","","","","",""
"","time_out","","html-keyboard-response","125","266050","0.0-1.0-170.0-0.0","0","0","77862","","null","","","null","18","","","","","","","","","","","","","","","",""
"","ITI","","html-keyboard-response","126","267054","0.0-1.0-171.0","0","0","77862","","null","","","null","18","","","","","","","","","","","","","","","NaN",""
"","S1","","html-keyboard-response","127","267309","0.0-1.0-173.0","0","0","77862","","null","","","null","19","","","","","","","","","","","","","","","",""
"","ISI","","html-keyboard-response","128","268314","0.0-1.0-174.0","0","0","77862","","null","","","null","19","NaN","","","","","","","","","","","","","","",""
"","S2","","html-keyboard-response","129","268569","0.0-1.0-175.0","0","0","77862","","null","","","null","19","","NaN","","","","","","","","","","","","","",""
"","response","","html-keyboard-response","130","268854","0.0-1.0-176.0-0.0","0","0","77862","","282","","","68","19","","","1","19","training","adjacent","FG","6","7","M.jpg","L.jpg","1","1","1","",""
"","feedback","","html-keyboard-response","131","269858","0.0-1.0-177.0-0.0","0","0","77862","","null","","","null","19","","","","","","","","","","","","","","","",""
"","ITI","","html-keyboard-response","132","270863","0.0-1.0-180.0","0","0","77862","","null","","","null","19","","","","","","","","","","","","","","","NaN",""
"","S1","","html-keyboard-response","133","271118","0.0-1.0-182.0","0","0","77862","","null","","","null","20","","","","","","","","","","","","","","","",""
"","ISI","","html-keyboard-response","134","272121","0.0-1.0-183.0","0","0","77862","","null","","","null","20","NaN","","","","","","","","","","","","","","",""
"","S2","","html-keyboard-response","135","272375","0.0-1.0-184.0","0","0","77862","","null","","","null","20","","NaN","","","","","","","","","","","","","",""
"","response","","html-keyboard-response","136","272599","0.0-1.0-185.0-0.0","0","0","77862","","223","","","68","20","","","1","20","training","adjacent","CB","3","2","N.jpg","R.jpg","1","0","0","",""
"","feedback","","html-keyboard-response","137","273602","0.0-1.0-186.0-0.0","0","0","77862","","null","","","null","20","","","","","","","","","","","","","","","",""
"","time_out","","html-keyboard-response","138","275604","0.0-1.0-188.0-0.0","0","0","77862","","null","","","null","20","","","","","","","","","","","","","","","",""
"","ITI","","html-keyboard-response","139","276608","0.0-1.0-189.0","0","0","77862","","null","","","null","20","","","","","","","","","","","","","","","NaN",""
"","S1","","html-keyboard-response","140","276861","0.0-1.0-191.0","0","0","77862","","null","","","null","21","","","","","","","","","","","","","","","",""
"","ISI","","html-keyboard-response","141","277867","0.0-1.0-192.0","0","0","77862","","null","","","null","21","NaN","","","","","","","","","","","","","","",""
"","S2","","html-keyboard-response","142","278122","0.0-1.0-193.0","0","0","77862","","null","","","null","21","","NaN","","","","","","","","","","","","","",""
"","response","","html-keyboard-response","143","278454","0.0-1.0-194.0-0.0","0","0","77862","","328","","","68","21","","","1","21","training","adjacent","ED","5","4","P.jpg","Q.jpg","1","0","0","",""
"","feedback","","html-keyboard-response","144","279459","0.0-1.0-195.0-0.0","0","0","77862","","null","","","null","21","","","","","","","","","","","","","","","",""
"","time_out","","html-keyboard-response","145","281464","0.0-1.0-197.0-0.0","0","0","77862","","null","","","null","21","","","","","","","","","","","","","","","",""
"","ITI","","html-keyboard-response","146","282469","0.0-1.0-198.0","0","0","77862","","null","","","null","21","","","","","","","","","","","","","","","NaN",""
"","S1","","html-keyboard-response","147","282722","0.0-1.0-200.0","0","0","77862","","null","","","null","22","","","","","","","","","","","","","","","",""
"","ISI","","html-keyboard-response","148","283727","0.0-1.0-201.0","0","0","77862","","null","","","null","22","NaN","","","","","","","","","","","","","","",""
"","S2","","html-keyboard-response","149","283982","0.0-1.0-202.0","0","0","77862","","null","","","null","22","","NaN","","","","","","","","","","","","","",""
"","response","","html-keyboard-response","150","284152","0.0-1.0-203.0-0.0","0","0","77862","","166","","","68","22","","","1","22","training","adjacent","AB","1","2","O.jpg","R.jpg","1","1","1","",""
"","feedback","","html-keyboard-response","151","285155","0.0-1.0-204.0-0.0","0","0","77862","","null","","","null","22","","","","","","","","","","","","","","","",""
"","ITI","","html-keyboard-response","152","286157","0.0-1.0-207.0","0","0","77862","","null","","","null","22","","","","","","","","","","","","","","","NaN",""
"","S1","","html-keyboard-response","153","286410","0.0-1.0-209.0","0","0","77862","","null","","","null","23","","","","","","","","","","","","","","","",""
"","ISI","","html-keyboard-response","154","287414","0.0-1.0-210.0","0","0","77862","","null","","","null","23","NaN","","","","","","","","","","","","","","",""
"","S2","","html-keyboard-response","155","287669","0.0-1.0-211.0","0","0","77862","","null","","","null","23","","NaN","","","","","","","","","","","","","",""
"","response","","html-keyboard-response","156","287675","0.0-1.0-212.0-0.0","0","0","77862","","3","","","75","23","","","1","23","training","adjacent","CB","3","2","N.jpg","R.jpg","0","0","1","",""
"","feedback","","html-keyboard-response","157","288681","0.0-1.0-213.0-0.0","0","0","77862","","null","","","null","23","","","","","","","","","","","","","","","",""
"","ITI","","html-keyboard-response","158","289685","0.0-1.0-216.0","0","0","77862","","null","","","null","23","","","","","","","","","","","","","","","NaN",""
"","S1","","html-keyboard-response","159","289940","0.0-1.0-218.0","0","0","77862","","null","","","null","24","","","","","","","","","","","","","","","",""
"","ISI","","html-keyboard-response","160","290944","0.0-1.0-219.0","0","0","77862","","null","","","null","24","NaN","","","","","","","","","","","","","","",""
"","S2","","html-keyboard-response","161","291199","0.0-1.0-220.0","0","0","77862","","null","","","null","24","","NaN","","","","","","","","","","","","","",""
"","response","","html-keyboard-response","162","291281","0.0-1.0-221.0-0.0","0","0","77862","","79","","","75","24","","","1","24","training","adjacent","CD","3","4","N.jpg","Q.jpg","0","1","0","",""
"","feedback","","html-keyboard-response","163","292286","0.0-1.0-222.0-0.0","0","0","77862","","null","","","null","24","","","","","","","","","","","","","","","",""
"","time_out","","html-keyboard-response","164","294291","0.0-1.0-224.0-0.0","0","0","77862","","null","","","null","24","","","","","","","","","","","","","","","",""
"","ITI","","html-keyboard-response","165","295294","0.0-1.0-225.0","0","0","77862","","null","","","null","24","","","","","","","","","","","","","","","NaN",""
"","S1","","html-keyboard-response","166","295548","0.0-1.0-227.0","0","0","77862","","null","","","null","25","","","","","","","","","","","","","","","",""
"","ISI","","html-keyboard-response","167","296552","0.0-1.0-228.0","0","0","77862","","null","","","null","25","NaN","","","","","","","","","","","","","","",""
"","S2","","html-keyboard-response","168","296807","0.0-1.0-229.0","0","0","77862","","null","","","null","25","","NaN","","","","","","","","","","","","","",""
"","response","","html-keyboard-response","169","297043","0.0-1.0-230.0-0.0","0","0","77862","","233","","","68","25","","","1","25","training","adjacent","AB","1","2","O.jpg","R.jpg","1","1","1","",""
"","feedback","","html-keyboard-response","170","298048","0.0-1.0-231.0-0.0","0","0","77862","","null","","","null","25","","","","","","","","","","","","","","","",""
"","ITI","","html-keyboard-response","171","299052","0.0-1.0-234.0","0","0","77862","","null","","","null","25","","","","","","","","","","","","","","","NaN",""
"","S1","","html-keyboard-response","172","299306","0.0-1.0-236.0","0","0","77862","","null","","","null","26","","","","","","","","","","","","","","","",""
"","ISI","","html-keyboard-response","173","300310","0.0-1.0-237.0","0","0","77862","","null","","","null","26","NaN","","","","","","","","","","","","","","",""
"","S2","","html-keyboard-response","174","300565","0.0-1.0-238.0","0","0","77862","","null","","","null","26","","NaN","","","","","","","","","","","","","",""
"","response","","html-keyboard-response","175","300594","0.0-1.0-239.0-0.0","0","0","77862","","26","","","75","26","","","1","26","training","adjacent","EF","5","6","P.jpg","M.jpg","0","1","0","",""
"","feedback","","html-keyboard-response","176","301598","0.0-1.0-240.0-0.0","0","0","77862","","null","","","null","26","","","","","","","","","","","","","","","",""
"","time_out","","html-keyboard-response","177","303601","0.0-1.0-242.0-0.0","0","0","77862","","null","","","null","26","","","","","","","","","","","","","","","",""
"","ITI","","html-keyboard-response","178","304605","0.0-1.0-243.0","0","0","77862","","null","","","null","26","","","","","","","","","","","","","","","NaN",""
"","S1","","html-keyboard-response","179","304859","0.0-1.0-245.0","0","0","77862","","null","","","null","27","","","","","","","","","","","","","","","",""
"","ISI","","html-keyboard-response","180","305864","0.0-1.0-246.0","0","0","77862","","null","","","null","27","NaN","","","","","","","","","","","","","","",""
"","S2","","html-keyboard-response","181","306118","0.0-1.0-247.0","0","0","77862","","null","","","null","27","","NaN","","","","","","","","","","","","","",""
"","response","","html-keyboard-response","182","306327","0.0-1.0-248.0-0.0","0","0","77862","","205","","","68","27","","","1","27","training","adjacent","DC","4","3","Q.jpg","N.jpg","1","0","0","",""
"","feedback","","html-keyboard-response","183","307331","0.0-1.0-249.0-0.0","0","0","77862","","null","","","null","27","","","","","","","","","","","","","","","",""
"","time_out","","html-keyboard-response","184","309335","0.0-1.0-251.0-0.0","0","0","77862","","null","","","null","27","","","","","","","","","","","","","","","",""
"","ITI","","html-keyboard-response","185","310340","0.0-1.0-252.0","0","0","77862","","null","","","null","27","","","","","","","","","","","","","","","NaN",""
"","S1","","html-keyboard-response","186","310594","0.0-1.0-254.0","0","0","77862","","null","","","null","28","","","","","","","","","","","","","","","",""
"","ISI","","html-keyboard-response","187","311596","0.0-1.0-255.0","0","0","77862","","null","","","null","28","NaN","","","","","","","","","","","","","","",""
"","S2","","html-keyboard-response","188","311850","0.0-1.0-256.0","0","0","77862","","null","","","null","28","","NaN","","","","","","","","","","","","","",""
"","response","","html-keyboard-response","189","311937","0.0-1.0-257.0-0.0","0","0","77862","","85","","","68","28","","","1","28","training","adjacent","AB","1","2","O.jpg","R.jpg","1","1","1","",""
"","feedback","","html-keyboard-response","190","312954","0.0-1.0-258.0-0.0","0","0","77862","","null","","","null","28","","","","","","","","","","","","","","","",""
"","ITI","","html-keyboard-response","191","313959","0.0-1.0-261.0","0","0","77862","","null","","","null","28","","","","","","","","","","","","","","","NaN",""
"","S1","","html-keyboard-response","192","314213","0.0-1.0-263.0","0","0","77862","","null","","","null","29","","","","","","","","","","","","","","","",""
"","ISI","","html-keyboard-response","193","315232","0.0-1.0-264.0","0","0","77862","","null","","","null","29","NaN","","","","","","","","","","","","","","",""
"","S2","","html-keyboard-response","194","315486","0.0-1.0-265.0","0","0","77862","","null","","","null","29","","NaN","","","","","","","","","","","","","",""
"","response","","html-keyboard-response","195","315559","0.0-1.0-266.0-0.0","0","0","77862","","71","","","68","29","","","1","29","training","adjacent","FE","6","5","M.jpg","P.jpg","1","0","0","",""
"","feedback","","html-keyboard-response","196","316564","0.0-1.0-267.0-0.0","0","0","77862","","null","","","null","29","","","","","","","","","","","","","","","",""
"","time_out","","html-keyboard-response","197","318569","0.0-1.0-269.0-0.0","0","0","77862","","null","","","null","29","","","","","","","","","","","","","","","",""
"","ITI","","html-keyboard-response","198","319574","0.0-1.0-270.0","0","0","77862","","null","","","null","29","","","","","","","","","","","","","","","NaN",""
"","S1","","html-keyboard-response","199","319829","0.0-1.0-272.0","0","0","77862","","null","","","null","30","","","","","","","","","","","","","","","",""
"","ISI","","html-keyboard-response","200","320831","0.0-1.0-273.0","0","0","77862","","null","","","null","30","NaN","","","","","","","","","","","","","","",""
"","S2","","html-keyboard-response","201","321084","0.0-1.0-274.0","0","0","77862","","null","","","null","30","","NaN","","","","","","","","","","","","","",""
"","response","","html-keyboard-response","202","321375","0.0-1.0-275.0-0.0","0","0","77862","","287","","","68","30","","","1","30","training","adjacent","ED","5","4","P.jpg","Q.jpg","1","0","0","",""
"","feedback","","html-keyboard-response","203","322379","0.0-1.0-276.0-0.0","0","0","77862","","null","","","null","30","","","","","","","","","","","","","","","",""
"","time_out","","html-keyboard-response","204","324383","0.0-1.0-278.0-0.0","0","0","77862","","null","","","null","30","","","","","","","","","","","","","","","",""
"","ITI","","html-keyboard-response","205","325388","0.0-1.0-279.0","0","0","77862","","null","","","null","30","","","","","","","","","","","","","","","NaN",""
"","S1","","html-keyboard-response","206","325643","0.0-1.0-281.0","0","0","77862","","null","","","null","31","","","","","","","","","","","","","","","",""
"","ISI","","html-keyboard-response","207","326648","0.0-1.0-282.0","0","0","77862","","null","","","null","31","NaN","","","","","","","","","","","","","","",""
"","S2","","html-keyboard-response","208","326903","0.0-1.0-283.0","0","0","77862","","null","","","null","31","","NaN","","","","","","","","","","","","","",""
"","response","","html-keyboard-response","209","327087","0.0-1.0-284.0-0.0","0","0","77862","","180","","","68","31","","","1","31","training","adjacent","BA","2","1","R.jpg","O.jpg","1","0","0","",""
"","feedback","","html-keyboard-response","210","328092","0.0-1.0-285.0-0.0","0","0","77862","","null","","","null","31","","","","","","","","","","","","","","","",""
"","time_out","","html-keyboard-response","211","330098","0.0-1.0-287.0-0.0","0","0","77862","","null","","","null","31","","","","","","","","","","","","","","","",""
"","ITI","","html-keyboard-response","212","331102","0.0-1.0-288.0","0","0","77862","","null","","","null","31","","","","","","","","","","","","","","","NaN",""
"","S1","","html-keyboard-response","213","331355","0.0-1.0-290.0","0","0","77862","","null","","","null","32","","","","","","","","","","","","","","","",""
"","ISI","","html-keyboard-response","214","332359","0.0-1.0-291.0","0","0","77862","","null","","","null","32","NaN","","","","","","","","","","","","","","",""
"","S2","","html-keyboard-response","215","332613","0.0-1.0-292.0","0","0","77862","","null","","","null","32","","NaN","","","","","","","","","","","","","",""
"","response","","html-keyboard-response","216","332825","0.0-1.0-293.0-0.0","0","0","77862","","209","","","75","32","","","1","32","training","adjacent","DE","4","5","Q.jpg","P.jpg","0","1","0","",""
"","feedback","","html-keyboard-response","217","333829","0.0-1.0-294.0-0.0","0","0","77862","","null","","","null","32","","","","","","","","","","","","","","","",""
"","time_out","","html-keyboard-response","218","335834","0.0-1.0-296.0-0.0","0","0","77862","","null","","","null","32","","","","","","","","","","","","","","","",""
"","ITI","","html-keyboard-response","219","336836","0.0-1.0-297.0","0","0","77862","","null","","","null","32","","","","","","","","","","","","","","","NaN",""
"","S1","","html-keyboard-response","220","337091","0.0-1.0-299.0","0","0","77862","","null","","","null","33","","","","","","","","","","","","","","","",""
"","ISI","","html-keyboard-response","221","338095","0.0-1.0-300.0","0","0","77862","","null","","","null","33","NaN","","","","","","","","","","","","","","",""
"","S2","","html-keyboard-response","222","338349","0.0-1.0-301.0","0","0","77862","","null","","","null","33","","NaN","","","","","","","","","","","","","",""
"","response","","html-keyboard-response","223","338645","0.0-1.0-302.0-0.0","0","0","77862","","292","","","68","33","","","1","33","training","adjacent","DE","4","5","Q.jpg","P.jpg","1","1","1","",""
"","feedback","","html-keyboard-response","224","339649","0.0-1.0-303.0-0.0","0","0","77862","","null","","","null","33","","","","","","","","","","","","","","","",""
"","ITI","","html-keyboard-response","225","340654","0.0-1.0-306.0","0","0","77862","","null","","","null","33","","","","","","","","","","","","","","","NaN",""
"","S1","","html-keyboard-response","226","340908","0.0-1.0-308.0","0","0","77862","","null","","","null","34","","","","","","","","","","","","","","","",""
"","ISI","","html-keyboard-response","227","341911","0.0-1.0-309.0","0","0","77862","","null","","","null","34","NaN","","","","","","","","","","","","","","",""
"","S2","","html-keyboard-response","228","342165","0.0-1.0-310.0","0","0","77862","","null","","","null","34","","NaN","","","","","","","","","","","","","",""
"","response","","html-keyboard-response","229","342592","0.0-1.0-311.0-0.0","0","0","77862","","425","","","68","34","","","1","34","training","adjacent","EF","5","6","P.jpg","M.jpg","1","1","1","",""
"","feedback","","html-keyboard-response","230","343598","0.0-1.0-312.0-0.0","0","0","77862","","null","","","null","34","","","","","","","","","","","","","","","",""
"","ITI","","html-keyboard-response","231","344602","0.0-1.0-315.0","0","0","77862","","null","","","null","34","","","","","","","","","","","","","","","NaN",""
"","S1","","html-keyboard-response","232","344855","0.0-1.0-317.0","0","0","77862","","null","","","null","35","","","","","","","","","","","","","","","",""
"","ISI","","html-keyboard-response","233","345858","0.0-1.0-318.0","0","0","77862","","null","","","null","35","NaN","","","","","","","","","","","","","","",""
"","S2","","html-keyboard-response","234","346113","0.0-1.0-319.0","0","0","77862","","null","","","null","35","","NaN","","","","","","","","","","","","","",""
"","response","","html-keyboard-response","235","346419","0.0-1.0-320.0-0.0","0","0","77862","","303","","","68","35","","","1","35","training","adjacent","BC","2","3","R.jpg","N.jpg","1","1","1","",""
"","feedback","","html-keyboard-response","236","347424","0.0-1.0-321.0-0.0","0","0","77862","","null","","","null","35","","","","","","","","","","","","","","","",""
"","ITI","","html-keyboard-response","237","348428","0.0-1.0-324.0","0","0","77862","","null","","","null","35","","","","","","","","","","","","","","","NaN",""
"","S1","","html-keyboard-response","238","348684","0.0-1.0-326.0","0","0","77862","","null","","","null","36","","","","","","","","","","","","","","","",""
"","ISI","","html-keyboard-response","239","349688","0.0-1.0-327.0","0","0","77862","","null","","","null","36","NaN","","","","","","","","","","","","","","",""
"","S2","","html-keyboard-response","240","349942","0.0-1.0-328.0","0","0","77862","","null","","","null","36","","NaN","","","","","","","","","","","","","",""
"","response","","html-keyboard-response","241","350255","0.0-1.0-329.0-0.0","0","0","77862","","309","","","68","36","","","1","36","training","adjacent","BC","2","3","R.jpg","N.jpg","1","1","1","",""
"","feedback","","html-keyboard-response","242","351259","0.0-1.0-330.0-0.0","0","0","77862","","null","","","null","36","","","","","","","","","","","","","","","",""
"","ITI","","html-keyboard-response","243","352263","0.0-1.0-333.0","0","0","77862","","null","","","null","36","","","","","","","","","","","","","","","NaN",""
"","S1","","html-keyboard-response","244","352517","0.0-1.0-335.0","0","0","77862","","null","","","null","37","","","","","","","","","","","","","","","",""
"","ISI","","html-keyboard-response","245","353521","0.0-1.0-336.0","0","0","77862","","null","","","null","37","NaN","","","","","","","","","","","","","","",""
"","S2","","html-keyboard-response","246","353776","0.0-1.0-337.0","0","0","77862","","null","","","null","37","","NaN","","","","","","","","","","","","","",""
"","response","","html-keyboard-response","247","354086","0.0-1.0-338.0-0.0","0","0","77862","","307","","","68","37","","","1","37","training","adjacent","DC","4","3","Q.jpg","N.jpg","1","0","0","",""
"","feedback","","html-keyboard-response","248","355090","0.0-1.0-339.0-0.0","0","0","77862","","null","","","null","37","","","","","","","","","","","","","","","",""
"","time_out","","html-keyboard-response","249","357095","0.0-1.0-341.0-0.0","0","0","77862","","null","","","null","37","","","","","","","","","","","","","","","",""
"","ITI","","html-keyboard-response","250","358100","0.0-1.0-342.0","0","0","77862","","null","","","null","37","","","","","","","","","","","","","","","NaN",""
"","S1","","html-keyboard-response","251","358355","0.0-1.0-344.0","0","0","77862","","null","","","null","38","","","","","","","","","","","","","","","",""
"","ISI","","html-keyboard-response","252","359360","0.0-1.0-345.0","0","0","77862","","null","","","null","38","NaN","","","","","","","","","","","","","","",""
"","S2","","html-keyboard-response","253","359616","0.0-1.0-346.0","0","0","77862","","null","","","null","38","","NaN","","","","","","","","","","","","","",""
"","response","","html-keyboard-response","254","359943","0.0-1.0-347.0-0.0","0","0","77862","","324","","","68","38","","","1","38","training","adjacent","DE","4","5","Q.jpg","P.jpg","1","1","1","",""
"","feedback","","html-keyboard-response","255","360947","0.0-1.0-348.0-0.0","0","0","77862","","null","","","null","38","","","","","","","","","","","","","","","",""
"","ITI","","html-keyboard-response","256","361952","0.0-1.0-351.0","0","0","77862","","null","","","null","38","","","","","","","","","","","","","","","NaN",""
"","S1","","html-keyboard-response","257","362206","0.0-1.0-353.0","0","0","77862","","null","","","null","39","","","","","","","","","","","","","","","",""
"","ISI","","html-keyboard-response","258","363211","0.0-1.0-354.0","0","0","77862","","null","","","null","39","NaN","","","","","","","","","","","","","","",""
"","S2","","html-keyboard-response","259","363465","0.0-1.0-355.0","0","0","77862","","null","","","null","39","","NaN","","","","","","","","","","","","","",""
"","response","","html-keyboard-response","260","363985","0.0-1.0-356.0-0.0","0","0","77862","","517","","","68","39","","","1","39","training","adjacent","EF","5","6","P.jpg","M.jpg","1","1","1","",""
"","feedback","","html-keyboard-response","261","364991","0.0-1.0-357.0-0.0","0","0","77862","","null","","","null","39","","","","","","","","","","","","","","","",""
"","ITI","","html-keyboard-response","262","365996","0.0-1.0-360.0","0","0","77862","","null","","","null","39","","","","","","","","","","","","","","","NaN",""
"","S1","","html-keyboard-response","263","366250","0.0-1.0-362.0","0","0","77862","","null","","","null","40","","","","","","","","","","","","","","","",""
"","ISI","","html-keyboard-response","264","367254","0.0-1.0-363.0","0","0","77862","","null","","","null","40","NaN","","","","","","","","","","","","","","",""
"","S2","","html-keyboard-response","265","367509","0.0-1.0-364.0","0","0","77862","","null","","","null","40","","NaN","","","","","","","","","","","","","",""
"","response","","html-keyboard-response","266","367757","0.0-1.0-365.0-0.0","0","0","77862","","244","","","68","40","","","1","40","training","adjacent","CD","3","4","N.jpg","Q.jpg","1","1","1","",""
"","feedback","","html-keyboard-response","267","368763","0.0-1.0-366.0-0.0","0","0","77862","","null","","","null","40","","","","","","","","","","","","","","","",""
"","ITI","","html-keyboard-response","268","369778","0.0-1.0-369.0","0","0","77862","","null","","","null","40","","","","","","","","","","","","","","","NaN",""
"","S1","","html-keyboard-response","269","370033","0.0-1.0-371.0","0","0","77862","","null","","","null","41","","","","","","","","","","","","","","","",""
"","ISI","","html-keyboard-response","270","371036","0.0-1.0-372.0","0","0","77862","","null","","","null","41","NaN","","","","","","","","","","","","","","",""
"","S2","","html-keyboard-response","271","371291","0.0-1.0-373.0","0","0","77862","","null","","","null","41","","NaN","","","","","","","","","","","","","",""
"","response","","html-keyboard-response","272","371654","0.0-1.0-374.0-0.0","0","0","77862","","359","","","75","41","","","1","41","training","adjacent","FE","6","5","M.jpg","P.jpg","0","0","1","",""
"","feedback","","html-keyboard-response","273","372658","0.0-1.0-375.0-0.0","0","0","77862","","null","","","null","41","","","","","","","","","","","","","","","",""
"","ITI","","html-keyboard-response","274","373663","0.0-1.0-378.0","0","0","77862","","null","","","null","41","","","","","","","","","","","","","","","NaN",""
"","S1","","html-keyboard-response","275","373918","0.0-1.0-380.0","0","0","77862","","null","","","null","42","","","","","","","","","","","","","","","",""
"","ISI","","html-keyboard-response","276","374922","0.0-1.0-381.0","0","0","77862","","null","","","null","42","NaN","","","","","","","","","","","","","","",""
"","S2","","html-keyboard-response","277","375177","0.0-1.0-382.0","0","0","77862","","null","","","null","42","","NaN","","","","","","","","","","","","","",""
"","response","","html-keyboard-response","278","375509","0.0-1.0-383.0-0.0","0","0","77862","","328","","","68","42","","","1","42","training","adjacent","ED","5","4","P.jpg","Q.jpg","1","0","0","",""
"","feedback","","html-keyboard-response","279","376513","0.0-1.0-384.0-0.0","0","0","77862","","null","","","null","42","","","","","","","","","","","","","","","",""
"","time_out","","html-keyboard-response","280","378518","0.0-1.0-386.0-0.0","0","0","77862","","null","","","null","42","","","","","","","","","","","","","","","",""
"","ITI","","html-keyboard-response","281","379522","0.0-1.0-387.0","0","0","77862","","null","","","null","42","","","","","","","","","","","","","","","NaN",""
"","S1","","html-keyboard-response","282","379778","0.0-1.0-389.0","0","0","77862","","null","","","null","43","","","","","","","","","","","","","","","",""
"","ISI","","html-keyboard-response","283","380783","0.0-1.0-390.0","0","0","77862","","null","","","null","43","NaN","","","","","","","","","","","","","","",""
"","S2","","html-keyboard-response","284","381037","0.0-1.0-391.0","0","0","77862","","null","","","null","43","","NaN","","","","","","","","","","","","","",""
"","response","","html-keyboard-response","285","381323","0.0-1.0-392.0-0.0","0","0","77862","","284","","","68","43","","","1","43","training","adjacent","BC","2","3","R.jpg","N.jpg","1","1","1","",""
"","feedback","","html-keyboard-response","286","382327","0.0-1.0-393.0-0.0","0","0","77862","","null","","","null","43","","","","","","","","","","","","","","","",""
"","ITI","","html-keyboard-response","287","383331","0.0-1.0-396.0","0","0","77862","","null","","","null","43","","","","","","","","","","","","","","","NaN",""
"","S1","","html-keyboard-response","288","383585","0.0-1.0-398.0","0","0","77862","","null","","","null","44","","","","","","","","","","","","","","","",""
"","ISI","","html-keyboard-response","289","384590","0.0-1.0-399.0","0","0","77862","","null","","","null","44","NaN","","","","","","","","","","","","","","",""
"","S2","","html-keyboard-response","290","384842","0.0-1.0-400.0","0","0","77862","","247","","","75","44","","k","1","44","training","adjacent","GF","7","6","L.jpg","M.jpg","0","0","1","",""
"","feedback","","html-keyboard-response","291","385847","0.0-1.0-402.0-0.0","0","0","77862","","null","","","null","44","","","","","","","","","","","","","","","",""
"","ITI","","html-keyboard-response","292","386852","0.0-1.0-405.0","0","0","77862","","null","","","null","44","","","","","","","","","","","","","","","NaN",""
"","S1","","html-keyboard-response","293","387107","0.0-1.0-407.0","0","0","77862","","null","","","null","45","","","","","","","","","","","","","","","",""
"","ISI","","html-keyboard-response","294","388111","0.0-1.0-408.0","0","0","77862","","null","","","null","45","NaN","","","","","","","","","","","","","","",""
"","S2","","html-keyboard-response","295","388365","0.0-1.0-409.0","0","0","77862","","null","","","null","45","","NaN","","","","","","","","","","","","","",""
"","response","","html-keyboard-response","296","388666","0.0-1.0-410.0-0.0","0","0","77862","","297","","","75","45","","","1","45","training","adjacent","BA","2","1","R.jpg","O.jpg","0","0","1","",""
"","feedback","","html-keyboard-response","297","389671","0.0-1.0-411.0-0.0","0","0","77862","","null","","","null","45","","","","","","","","","","","","","","","",""
"","ITI","","html-keyboard-response","298","390675","0.0-1.0-414.0","0","0","77862","","null","","","null","45","","","","","","","","","","","","","","","NaN",""
"","S1","","html-keyboard-response","299","390929","0.0-1.0-416.0","0","0","77862","","null","","","null","46","","","","","","","","","","","","","","","",""
"","ISI","","html-keyboard-response","300","391934","0.0-1.0-417.0","0","0","77862","","null","","","null","46","NaN","","","","","","","","","","","","","","",""
"","S2","","html-keyboard-response","301","392188","0.0-1.0-418.0","0","0","77862","","null","","","null","46","","NaN","","","","","","","","","","","","","",""
"","response","","html-keyboard-response","302","392369","0.0-1.0-419.0-0.0","0","0","77862","","177","","","68","46","","","1","46","training","adjacent","CD","3","4","N.jpg","Q.jpg","1","1","1","",""
"","feedback","","html-keyboard-response","303","393374","0.0-1.0-420.0-0.0","0","0","77862","","null","","","null","46","","","","","","","","","","","","","","","",""
"","ITI","","html-keyboard-response","304","394378","0.0-1.0-423.0","0","0","77862","","null","","","null","46","","","","","","","","","","","","","","","NaN",""
"","S1","","html-keyboard-response","305","394640","0.0-1.0-425.0","0","0","77862","","null","","","null","47","","","","","","","","","","","","","","","",""
"","ISI","","html-keyboard-response","306","395644","0.0-1.0-426.0","0","0","77862","","null","","","null","47","NaN","","","","","","","","","","","","","","",""
"","S2","","html-keyboard-response","307","395899","0.0-1.0-427.0","0","0","77862","","null","","","null","47","","NaN","","","","","","","","","","","","","",""
"","response","","html-keyboard-response","308","396144","0.0-1.0-428.0-0.0","0","0","77862","","242","","","75","47","","","1","47","training","adjacent","BA","2","1","R.jpg","O.jpg","0","0","1","",""
"","feedback","","html-keyboard-response","309","397149","0.0-1.0-429.0-0.0","0","0","77862","","null","","","null","47","","","","","","","","","","","","","","","",""
"","ITI","","html-keyboard-response","310","398155","0.0-1.0-432.0","0","0","77862","","null","","","null","47","","","","","","","","","","","","","","","NaN",""
"","block_over","","html-keyboard-response","311","409344","0.0-1.0-433.0-0.0","0","0","77862","","11184","","","32","47","","","","","","","","","","","","","","","",""
"","S1","","html-keyboard-response","312","409599","0.0-1.0-434.0","0","0","77862","","null","","","null","48","","","","","","","","","","","","","","","",""
"","ISI","","html-keyboard-response","313","410603","0.0-1.0-435.0","0","0","77862","","null","","","null","48","NaN","","","","","","","","","","","","","","",""
"","S2","","html-keyboard-response","314","410857","0.0-1.0-436.0","0","0","77862","","null","","","null","48","","NaN","","","","","","","","","","","","","",""
"","response","","html-keyboard-response","315","411092","0.0-1.0-437.0-0.0","0","0","77862","","232","","","68","48","","","2","48","training","adjacent","CD","3","4","N.jpg","Q.jpg","1","1","1","",""
"","feedback","","html-keyboard-response","316","412097","0.0-1.0-438.0-0.0","0","0","77862","","null","","","null","48","","","","","","","","","","","","","","","",""
"","ITI","","html-keyboard-response","317","413102","0.0-1.0-441.0","0","0","77862","","null","","","null","48","","","","","","","","","","","","","","","NaN",""
"","S1","","html-keyboard-response","318","413358","0.0-1.0-443.0","0","0","77862","","null","","","null","49","","","","","","","","","","","","","","","",""
"","ISI","","html-keyboard-response","319","414362","0.0-1.0-444.0","0","0","77862","","null","","","null","49","NaN","","","","","","","","","","","","","","",""
"","S2","","html-keyboard-response","320","414618","0.0-1.0-445.0","0","0","77862","","null","","","null","49","","NaN","","","","","","","","","","","","","",""
"","response","","html-keyboard-response","321","414667","0.0-1.0-446.0-0.0","0","0","77862","","45","","","75","49","","","2","49","training","adjacent","EF","5","6","P.jpg","M.jpg","0","1","0","",""
"","feedback","","html-keyboard-response","322","415671","0.0-1.0-447.0-0.0","0","0","77862","","null","","","null","49","","","","","","","","","","","","","","","",""
"","time_out","","html-keyboard-response","323","417676","0.0-1.0-449.0-0.0","0","0","77862","","null","","","null","49","","","","","","","","","","","","","","","",""
"","ITI","","html-keyboard-response","324","418679","0.0-1.0-450.0","0","0","77862","","null","","","null","49","","","","","","","","","","","","","","","NaN",""
"","S1","","html-keyboard-response","325","418934","0.0-1.0-452.0","0","0","77862","","null","","","null","50","","","","","","","","","","","","","","","",""
"","ISI","","html-keyboard-response","326","419939","0.0-1.0-453.0","0","0","77862","","null","","","null","50","NaN","","","","","","","","","","","","","","",""
"","S2","","html-keyboard-response","327","420194","0.0-1.0-454.0","0","0","77862","","null","","","null","50","","NaN","","","","","","","","","","","","","",""
"","response","","html-keyboard-response","328","420315","0.0-1.0-455.0-0.0","0","0","77862","","118","","","75","50","","","2","50","training","adjacent","DC","4","3","Q.jpg","N.jpg","0","0","1","",""
"","feedback","","html-keyboard-response","329","421322","0.0-1.0-456.0-0.0","0","0","77862","","null","","","null","50","","","","","","","","","","","","","","","",""
"","ITI","","html-keyboard-response","330","422327","0.0-1.0-459.0","0","0","77862","","null","","","null","50","","","","","","","","","","","","","","","NaN",""
"","S1","","html-keyboard-response","331","422582","0.0-1.0-461.0","0","0","77862","","null","","","null","51","","","","","","","","","","","","","","","",""
"","ISI","","html-keyboard-response","332","423587","0.0-1.0-462.0","0","0","77862","","null","","","null","51","NaN","","","","","","","","","","","","","","",""
"","S2","","html-keyboard-response","333","423842","0.0-1.0-463.0","0","0","77862","","null","","","null","51","","NaN","","","","","","","","","","","","","",""
"","response","","html-keyboard-response","334","423862","0.0-1.0-464.0-0.0","0","0","77862","","18","","","68","51","","","2","51","training","adjacent","FE","6","5","M.jpg","P.jpg","1","0","0","",""
"","feedback","","html-keyboard-response","335","424867","0.0-1.0-465.0-0.0","0","0","77862","","null","","","null","51","","","","","","","","","","","","","","","",""
"","time_out","","html-keyboard-response","336","426871","0.0-1.0-467.0-0.0","0","0","77862","","null","","","null","51","","","","","","","","","","","","","","","",""
"","ITI","","html-keyboard-response","337","427880","0.0-1.0-468.0","0","0","77862","","null","","","null","51","","","","","","","","","","","","","","","NaN",""
"","S1","","html-keyboard-response","338","428135","0.0-1.0-470.0","0","0","77862","","null","","","null","52","","","","","","","","","","","","","","","",""
"","ISI","","html-keyboard-response","339","429139","0.0-1.0-471.0","0","0","77862","","null","","","null","52","NaN","","","","","","","","","","","","","","",""
"","S2","","html-keyboard-response","340","429393","0.0-1.0-472.0","0","0","77862","","null","","","null","52","","NaN","","","","","","","","","","","","","",""
"","response","","html-keyboard-response","341","429818","0.0-1.0-473.0-0.0","0","0","77862","","422","","","68","52","","","2","52","training","adjacent","DE","4","5","Q.jpg","P.jpg","1","1","1","",""
"","feedback","","html-keyboard-response","342","430823","0.0-1.0-474.0-0.0","0","0","77862","","null","","","null","52","","","","","","","","","","","","","","","",""
"","ITI","","html-keyboard-response","343","431828","0.0-1.0-477.0","0","0","77862","","null","","","null","52","","","","","","","","","","","","","","","NaN",""
"","S1","","html-keyboard-response","344","432082","0.0-1.0-479.0","0","0","77862","","null","","","null","53","","","","","","","","","","","","","","","",""
"","ISI","","html-keyboard-response","345","433085","0.0-1.0-480.0","0","0","77862","","null","","","null","53","NaN","","","","","","","","","","","","","","",""
"","S2","","html-keyboard-response","346","433339","0.0-1.0-481.0","0","0","77862","","null","","","null","53","","NaN","","","","","","","","","","","","","",""
"","response","","html-keyboard-response","347","433557","0.0-1.0-482.0-0.0","0","0","77862","","215","","","68","53","","","2","53","training","adjacent","FE","6","5","M.jpg","P.jpg","1","0","0","",""
"","feedback","","html-keyboard-response","348","434563","0.0-1.0-483.0-0.0","0","0","77862","","null","","","null","53","","","","","","","","","","","","","","","",""
"","time_out","","html-keyboard-response","349","436567","0.0-1.0-485.0-0.0","0","0","77862","","null","","","null","53","","","","","","","","","","","","","","","",""
"","ITI","","html-keyboard-response","350","437571","0.0-1.0-486.0","0","0","77862","","null","","","null","53","","","","","","","","","","","","","","","NaN",""
"","S1","","html-keyboard-response","351","437826","0.0-1.0-488.0","0","0","77862","","null","","","null","54","","","","","","","","","","","","","","","",""
"","ISI","","html-keyboard-response","352","438831","0.0-1.0-489.0","0","0","77862","","null","","","null","54","NaN","","","","","","","","","","","","","","",""
"","S2","","html-keyboard-response","353","439058","0.0-1.0-490.0","0","0","77862","","224","","","75","54","","k","2","54","training","adjacent","GF","7","6","L.jpg","M.jpg","0","0","1","",""
"","feedback","","html-keyboard-response","354","440065","0.0-1.0-492.0-0.0","0","0","77862","","null","","","null","54","","","","","","","","","","","","","","","",""
"","ITI","","html-keyboard-response","355","441070","0.0-1.0-495.0","0","0","77862","","null","","","null","54","","","","","","","","","","","","","","","NaN",""
"","S1","","html-keyboard-response","356","441330","0.0-1.0-497.0","0","0","77862","","null","","","null","55","","","","","","","","","","","","","","","",""
"","ISI","","html-keyboard-response","357","442334","0.0-1.0-498.0","0","0","77862","","null","","","null","55","NaN","","","","","","","","","","","","","","",""
"","S2","","html-keyboard-response","358","442587","0.0-1.0-499.0","0","0","77862","","null","","","null","55","","NaN","","","","","","","","","","","","","",""
"","response","","html-keyboard-response","359","442816","0.0-1.0-500.0-0.0","0","0","77862","","226","","","75","55","","","2","55","training","adjacent","BA","2","1","R.jpg","O.jpg","0","0","1","",""
"","feedback","","html-keyboard-response","360","443822","0.0-1.0-501.0-0.0","0","0","77862","","null","","","null","55","","","","","","","","","","","","","","","",""
"","ITI","","html-keyboard-response","361","444827","0.0-1.0-504.0","0","0","77862","","null","","","null","55","","","","","","","","","","","","","","","NaN",""
"","S1","","html-keyboard-response","362","445082","0.0-1.0-506.0","0","0","77862","","null","","","null","56","","","","","","","","","","","","","","","",""
"","ISI","","html-keyboard-response","363","446085","0.0-1.0-507.0","0","0","77862","","null","","","null","56","NaN","","","","","","","","","","","","","","",""
"","S2","","html-keyboard-response","364","446339","0.0-1.0-508.0","0","0","77862","","null","","","null","56","","NaN","","","","","","","","","","","","","",""
"","response","","html-keyboard-response","365","446415","0.0-1.0-509.0-0.0","0","0","77862","","73","","","68","56","","","2","56","training","adjacent","AB","1","2","O.jpg","R.jpg","1","1","1","",""
"","feedback","","html-keyboard-response","366","447421","0.0-1.0-510.0-0.0","0","0","77862","","null","","","null","56","","","","","","","","","","","","","","","",""
"","ITI","","html-keyboard-response","367","448427","0.0-1.0-513.0","0","0","77862","","null","","","null","56","","","","","","","","","","","","","","","NaN",""
"","S1","","html-keyboard-response","368","448688","0.0-1.0-515.0","0","0","77862","","null","","","null","57","","","","","","","","","","","","","","","",""
"","ISI","","html-keyboard-response","369","449693","0.0-1.0-516.0","0","0","77862","","null","","","null","57","NaN","","","","","","","","","","","","","","",""
"","S2","","html-keyboard-response","370","449949","0.0-1.0-517.0","0","0","77862","","null","","","null","57","","NaN","","","","","","","","","","","","","",""
"","response","","html-keyboard-response","371","450056","0.0-1.0-518.0-0.0","0","0","77862","","104","","","75","57","","","2","57","training","adjacent","DC","4","3","Q.jpg","N.jpg","0","0","1","",""
"","feedback","","html-keyboard-response","372","451061","0.0-1.0-519.0-0.0","0","0","77862","","null","","","null","57","","","","","","","","","","","","","","","",""
"","ITI","","html-keyboard-response","373","452065","0.0-1.0-522.0","0","0","77862","","null","","","null","57","","","","","","","","","","","","","","","NaN",""
"","S1","","html-keyboard-response","374","452320","0.0-1.0-524.0","0","0","77862","","null","","","null","58","","","","","","","","","","","","","","","",""
"","ISI","","html-keyboard-response","375","453325","0.0-1.0-525.0","0","0","77862","","null","","","null","58","NaN","","","","","","","","","","","","","","",""
"","S2","","html-keyboard-response","376","453580","0.0-1.0-526.0","0","0","77862","","null","","","null","58","","NaN","","","","","","","","","","","","","",""
"","response","","html-keyboard-response","377","453674","0.0-1.0-527.0-0.0","0","0","77862","","91","","","75","58","","","2","58","training","adjacent","FE","6","5","M.jpg","P.jpg","0","0","1","",""
"","feedback","","html-keyboard-response","378","454679","0.0-1.0-528.0-0.0","0","0","77862","","null","","","null","58","","","","","","","","","","","","","","","",""
"","ITI","","html-keyboard-response","379","455684","0.0-1.0-531.0","0","0","77862","","null","","","null","58","","","","","","","","","","","","","","","NaN",""
"","S1","","html-keyboard-response","380","455939","0.0-1.0-533.0","0","0","77862","","null","","","null","59","","","","","","","","","","","","","","","",""
"","ISI","","html-keyboard-response","381","456944","0.0-1.0-534.0","0","0","77862","","null","","","null","59","NaN","","","","","","","","","","","","","","",""
"","S2","","html-keyboard-response","382","457200","0.0-1.0-535.0","0","0","77862","","null","","","null","59","","NaN","","","","","","","","","","","","","",""
"","response","","html-keyboard-response","383","457432","0.0-1.0-536.0-0.0","0","0","77862","","228","","","68","59","","","2","59","training","adjacent","DE","4","5","Q.jpg","P.jpg","1","1","1","",""
"","feedback","","html-keyboard-response","384","458437","0.0-1.0-537.0-0.0","0","0","77862","","null","","","null","59","","","","","","","","","","","","","","","",""
"","ITI","","html-keyboard-response","385","459442","0.0-1.0-540.0","0","0","77862","","null","","","null","59","","","","","","","","","","","","","","","NaN",""
"","S1","","html-keyboard-response","386","459698","0.0-1.0-542.0","0","0","77862","","null","","","null","60","","","","","","","","","","","","","","","",""
"","ISI","","html-keyboard-response","387","460703","0.0-1.0-543.0","0","0","77862","","null","","","null","60","NaN","","","","","","","","","","","","","","",""
"","S2","","html-keyboard-response","388","460958","0.0-1.0-544.0","0","0","77862","","null","","","null","60","","NaN","","","","","","","","","","","","","",""
"","response","","html-keyboard-response","389","460988","0.0-1.0-545.0-0.0","0","0","77862","","29","","","75","60","","","2","60","training","adjacent","CD","3","4","N.jpg","Q.jpg","0","1","0","",""
"","feedback","","html-keyboard-response","390","461993","0.0-1.0-546.0-0.0","0","0","77862","","null","","","null","60","","","","","","","","","","","","","","","",""
"","time_out","","html-keyboard-response","391","463998","0.0-1.0-548.0-0.0","0","0","77862","","null","","","null","60","","","","","","","","","","","","","","","",""
"","ITI","","html-keyboard-response","392","465004","0.0-1.0-549.0","0","0","77862","","null","","","null","60","","","","","","","","","","","","","","","NaN",""
"","S1","","html-keyboard-response","393","465257","0.0-1.0-551.0","0","0","77862","","null","","","null","61","","","","","","","","","","","","","","","",""
"","ISI","","html-keyboard-response","394","466261","0.0-1.0-552.0","0","0","77862","","null","","","null","61","NaN","","","","","","","","","","","","","","",""
"","S2","","html-keyboard-response","395","466516","0.0-1.0-553.0","0","0","77862","","null","","","null","61","","NaN","","","","","","","","","","","","","",""
"","response","","html-keyboard-response","396","467009","0.0-1.0-554.0-0.0","0","0","77862","","491","","","75","61","","","2","61","training","adjacent","CB","3","2","N.jpg","R.jpg","0","0","1","",""
"","feedback","","html-keyboard-response","397","468013","0.0-1.0-555.0-0.0","0","0","77862","","null","","","null","61","","","","","","","","","","","","","","","",""
"","ITI","","html-keyboard-response","398","469018","0.0-1.0-558.0","0","0","77862","","null","","","null","61","","","","","","","","","","","","","","","NaN",""
"","S1","","html-keyboard-response","399","469272","0.0-1.0-560.0","0","0","77862","","null","","","null","62","","","","","","","","","","","","","","","",""
"","ISI","","html-keyboard-response","400","470275","0.0-1.0-561.0","0","0","77862","","null","","","null","62","NaN","","","","","","","","","","","","","","",""
"","S2","","html-keyboard-response","401","470530","0.0-1.0-562.0","0","0","77862","","null","","","null","62","","NaN","","","","","","","","","","","","","",""
"","response","","html-keyboard-response","402","470798","0.0-1.0-563.0-0.0","0","0","77862","","264","","","75","62","","","2","62","training","adjacent","ED","5","4","P.jpg","Q.jpg","0","0","1","",""
"","feedback","","html-keyboard-response","403","471802","0.0-1.0-564.0-0.0","0","0","77862","","null","","","null","62","","","","","","","","","","","","","","","",""
"","ITI","","html-keyboard-response","404","472817","0.0-1.0-567.0","0","0","77862","","null","","","null","62","","","","","","","","","","","","","","","NaN",""
"","S1","","html-keyboard-response","405","473072","0.0-1.0-569.0","0","0","77862","","null","","","null","63","","","","","","","","","","","","","","","",""
"","ISI","","html-keyboard-response","406","474077","0.0-1.0-570.0","0","0","77862","","null","","","null","63","NaN","","","","","","","","","","","","","","",""
"","S2","","html-keyboard-response","407","474326","0.0-1.0-571.0","0","0","77862","","246","","","68","63","","d","2","63","training","adjacent","AB","1","2","O.jpg","R.jpg","1","1","1","",""
"","feedback","","html-keyboard-response","408","475332","0.0-1.0-573.0-0.0","0","0","77862","","null","","","null","63","","","","","","","","","","","","","","","",""
"","ITI","","html-keyboard-response","409","476336","0.0-1.0-576.0","0","0","77862","","null","","","null","63","","","","","","","","","","","","","","","NaN",""
"","S1","","html-keyboard-response","410","476591","0.0-1.0-578.0","0","0","77862","","null","","","null","64","","","","","","","","","","","","","","","",""
"","ISI","","html-keyboard-response","411","477595","0.0-1.0-579.0","0","0","77862","","null","","","null","64","NaN","","","","","","","","","","","","","","",""
"","S2","","html-keyboard-response","412","477848","0.0-1.0-580.0","0","0","77862","","null","","","null","64","","NaN","","","","","","","","","","","","","",""
"","response","","html-keyboard-response","413","478177","0.0-1.0-581.0-0.0","0","0","77862","","325","","","75","64","","","2","64","training","adjacent","EF","5","6","P.jpg","M.jpg","0","1","0","",""
"","feedback","","html-keyboard-response","414","479181","0.0-1.0-582.0-0.0","0","0","77862","","null","","","null","64","","","","","","","","","","","","","","","",""
"","time_out","","html-keyboard-response","415","481187","0.0-1.0-584.0-0.0","0","0","77862","","null","","","null","64","","","","","","","","","","","","","","","",""
"","ITI","","html-keyboard-response","416","482191","0.0-1.0-585.0","0","0","77862","","null","","","null","64","","","","","","","","","","","","","","","NaN",""
"","S1","","html-keyboard-response","417","482446","0.0-1.0-587.0","0","0","77862","","null","","","null","65","","","","","","","","","","","","","","","",""
"","ISI","","html-keyboard-response","418","483450","0.0-1.0-588.0","0","0","77862","","null","","","null","65","NaN","","","","","","","","","","","","","","",""
"","S2","","html-keyboard-response","419","483705","0.0-1.0-589.0","0","0","77862","","null","","","null","65","","NaN","","","","","","","","","","","","","",""
"","response","","html-keyboard-response","420","483908","0.0-1.0-590.0-0.0","0","0","77862","","199","","","75","65","","","2","65","training","adjacent","BA","2","1","R.jpg","O.jpg","0","0","1","",""
"","feedback","","html-keyboard-response","421","484913","0.0-1.0-591.0-0.0","0","0","77862","","null","","","null","65","","","","","","","","","","","","","","","",""
"","ITI","","html-keyboard-response","422","485919","0.0-1.0-594.0","0","0","77862","","null","","","null","65","","","","","","","","","","","","","","","NaN",""
"","S1","","html-keyboard-response","423","486173","0.0-1.0-596.0","0","0","77862","","null","","","null","66","","","","","","","","","","","","","","","",""
"","ISI","","html-keyboard-response","424","487177","0.0-1.0-597.0","0","0","77862","","null","","","null","66","NaN","","","","","","","","","","","","","","",""
"","S2","","html-keyboard-response","425","487431","0.0-1.0-598.0","0","0","77862","","null","","","null","66","","NaN","","","","","","","","","","","","","",""
"","response","","html-keyboard-response","426","487540","0.0-1.0-599.0-0.0","0","0","77862","","105","","","68","66","","","2","66","training","adjacent","AB","1","2","O.jpg","R.jpg","1","1","1","",""
"","feedback","","html-keyboard-response","427","488545","0.0-1.0-600.0-0.0","0","0","77862","","null","","","null","66","","","","","","","","","","","","","","","",""
"","ITI","","html-keyboard-response","428","489549","0.0-1.0-603.0","0","0","77862","","null","","","null","66","","","","","","","","","","","","","","","NaN",""
"","S1","","html-keyboard-response","429","489804","0.0-1.0-605.0","0","0","77862","","null","","","null","67","","","","","","","","","","","","","","","",""
"","ISI","","html-keyboard-response","430","490808","0.0-1.0-606.0","0","0","77862","","null","","","null","67","NaN","","","","","","","","","","","","","","",""
"","S2","","html-keyboard-response","431","491064","0.0-1.0-607.0","0","0","77862","","null","","","null","67","","NaN","","","","","","","","","","","","","",""
"","response","","html-keyboard-response","432","491343","0.0-1.0-608.0-0.0","0","0","77862","","276","","","68","67","","","2","67","training","adjacent","FG","6","7","M.jpg","L.jpg","1","1","1","",""
"","feedback","","html-keyboard-response","433","492348","0.0-1.0-609.0-0.0","0","0","77862","","null","","","null","67","","","","","","","","","","","","","","","",""
"","ITI","","html-keyboard-response","434","493352","0.0-1.0-612.0","0","0","77862","","null","","","null","67","","","","","","","","","","","","","","","NaN",""
"","S1","","html-keyboard-response","435","493608","0.0-1.0-614.0","0","0","77862","","null","","","null","68","","","","","","","","","","","","","","","",""
"","ISI","","html-keyboard-response","436","494613","0.0-1.0-615.0","0","0","77862","","null","","","null","68","NaN","","","","","","","","","","","","","","",""
"","S2","","html-keyboard-response","437","494869","0.0-1.0-616.0","0","0","77862","","null","","","null","68","","NaN","","","","","","","","","","","","","",""
"","response","","html-keyboard-response","438","495254","0.0-1.0-617.0-0.0","0","0","77862","","381","","","75","68","","","2","68","training","adjacent","DC","4","3","Q.jpg","N.jpg","0","0","1","",""
"","feedback","","html-keyboard-response","439","496259","0.0-1.0-618.0-0.0","0","0","77862","","null","","","null","68","","","","","","","","","","","","","","","",""
"","ITI","","html-keyboard-response","440","497264","0.0-1.0-621.0","0","0","77862","","null","","","null","68","","","","","","","","","","","","","","","NaN",""
"","S1","","html-keyboard-response","441","497529","0.0-1.0-623.0","0","0","77862","","null","","","null","69","","","","","","","","","","","","","","","",""
"","ISI","","html-keyboard-response","442","498534","0.0-1.0-624.0","0","0","77862","","null","","","null","69","NaN","","","","","","","","","","","","","","",""
"","S2","","html-keyboard-response","443","498789","0.0-1.0-625.0","0","0","77862","","null","","","null","69","","NaN","","","","","","","","","","","","","",""
"","response","","html-keyboard-response","444","499016","0.0-1.0-626.0-0.0","0","0","77862","","222","","","68","69","","","2","69","training","adjacent","CB","3","2","N.jpg","R.jpg","1","0","0","",""
"","feedback","","html-keyboard-response","445","500022","0.0-1.0-627.0-0.0","0","0","77862","","null","","","null","69","","","","","","","","","","","","","","","",""
"","time_out","","html-keyboard-response","446","502028","0.0-1.0-629.0-0.0","0","0","77862","","null","","","null","69","","","","","","","","","","","","","","","",""
"","ITI","","html-keyboard-response","447","503033","0.0-1.0-630.0","0","0","77862","","null","","","null","69","","","","","","","","","","","","","","","NaN",""
"","S1","","html-keyboard-response","448","503287","0.0-1.0-632.0","0","0","77862","","null","","","null","70","","","","","","","","","","","","","","","",""
"","ISI","","html-keyboard-response","449","504291","0.0-1.0-633.0","0","0","77862","","null","","","null","70","NaN","","","","","","","","","","","","","","",""
"","S2","","html-keyboard-response","450","504545","0.0-1.0-634.0","0","0","77862","","null","","","null","70","","NaN","","","","","","","","","","","","","",""
"","response","","html-keyboard-response","451","505053","0.0-1.0-635.0-0.0","0","0","77862","","504","","","75","70","","","2","70","training","adjacent","BC","2","3","R.jpg","N.jpg","0","1","0","",""
"","feedback","","html-keyboard-response","452","506059","0.0-1.0-636.0-0.0","0","0","77862","","null","","","null","70","","","","","","","","","","","","","","","",""
"","time_out","","html-keyboard-response","453","508064","0.0-1.0-638.0-0.0","0","0","77862","","null","","","null","70","","","","","","","","","","","","","","","",""
"","ITI","","html-keyboard-response","454","509069","0.0-1.0-639.0","0","0","77862","","null","","","null","70","","","","","","","","","","","","","","","NaN",""
"","S1","","html-keyboard-response","455","509323","0.0-1.0-641.0","0","0","77862","","null","","","null","71","","","","","","","","","","","","","","","",""
"","ISI","","html-keyboard-response","456","510327","0.0-1.0-642.0","0","0","77862","","null","","","null","71","NaN","","","","","","","","","","","","","","",""
"","S2","","html-keyboard-response","457","510582","0.0-1.0-643.0","0","0","77862","","null","","","null","71","","NaN","","","","","","","","","","","","","",""
"","response","","html-keyboard-response","458","511159","0.0-1.0-644.0-0.0","0","0","77862","","572","","","68","71","","","2","71","training","adjacent","BC","2","3","R.jpg","N.jpg","1","1","1","",""
"","feedback","","html-keyboard-response","459","512164","0.0-1.0-645.0-0.0","0","0","77862","","null","","","null","71","","","","","","","","","","","","","","","",""
"","ITI","","html-keyboard-response","460","513170","0.0-1.0-648.0","0","0","77862","","null","","","null","71","","","","","","","","","","","","","","","NaN",""
"","S1","","html-keyboard-response","461","513424","0.0-1.0-650.0","0","0","77862","","null","","","null","72","","","","","","","","","","","","","","","",""
"","ISI","","html-keyboard-response","462","514428","0.0-1.0-651.0","0","0","77862","","null","","","null","72","NaN","","","","","","","","","","","","","","",""
"","S2","","html-keyboard-response","463","514683","0.0-1.0-652.0","0","0","77862","","null","","","null","72","","NaN","","","","","","","","","","","","","",""
"","response","","html-keyboard-response","464","514927","0.0-1.0-653.0-0.0","0","0","77862","","240","","","75","72","","","2","72","training","adjacent","BA","2","1","R.jpg","O.jpg","0","0","1","",""
"","feedback","","html-keyboard-response","465","515932","0.0-1.0-654.0-0.0","0","0","77862","","null","","","null","72","","","","","","","","","","","","","","","",""
"","ITI","","html-keyboard-response","466","516936","0.0-1.0-657.0","0","0","77862","","null","","","null","72","","","","","","","","","","","","","","","NaN",""
"","S1","","html-keyboard-response","467","517190","0.0-1.0-659.0","0","0","77862","","null","","","null","73","","","","","","","","","","","","","","","",""
"","ISI","","html-keyboard-response","468","518195","0.0-1.0-660.0","0","0","77862","","null","","","null","73","NaN","","","","","","","","","","","","","","",""
"","S2","","html-keyboard-response","469","518449","0.0-1.0-661.0","0","0","77862","","null","","","null","73","","NaN","","","","","","","","","","","","","",""
"","response","","html-keyboard-response","470","518479","0.0-1.0-662.0-0.0","0","0","77862","","28","","","68","73","","","2","73","training","adjacent","AB","1","2","O.jpg","R.jpg","1","1","1","",""
"","feedback","","html-keyboard-response","471","519483","0.0-1.0-663.0-0.0","0","0","77862","","null","","","null","73","","","","","","","","","","","","","","","",""
"","ITI","","html-keyboard-response","472","520487","0.0-1.0-666.0","0","0","77862","","null","","","null","73","","","","","","","","","","","","","","","NaN",""
"","S1","","html-keyboard-response","473","520742","0.0-1.0-668.0","0","0","77862","","null","","","null","74","","","","","","","","","","","","","","","",""
"","ISI","","html-keyboard-response","474","521746","0.0-1.0-669.0","0","0","77862","","null","","","null","74","NaN","","","","","","","","","","","","","","",""
"","S2","","html-keyboard-response","475","522000","0.0-1.0-670.0","0","0","77862","","null","","","null","74","","NaN","","","","","","","","","","","","","",""
"","response","","html-keyboard-response","476","522187","0.0-1.0-671.0-0.0","0","0","77862","","183","","","75","74","","","2","74","training","adjacent","BA","2","1","R.jpg","O.jpg","0","0","1","",""
"","feedback","","html-keyboard-response","477","523194","0.0-1.0-672.0-0.0","0","0","77862","","null","","","null","74","","","","","","","","","","","","","","","",""
"","ITI","","html-keyboard-response","478","524199","0.0-1.0-675.0","0","0","77862","","null","","","null","74","","","","","","","","","","","","","","","NaN",""
"","S1","","html-keyboard-response","479","524454","0.0-1.0-677.0","0","0","77862","","null","","","null","75","","","","","","","","","","","","","","","",""
"","ISI","","html-keyboard-response","480","525458","0.0-1.0-678.0","0","0","77862","","null","","","null","75","NaN","","","","","","","","","","","","","","",""
"","S2","","html-keyboard-response","481","525714","0.0-1.0-679.0","0","0","77862","","null","","","null","75","","NaN","","","","","","","","","","","","","",""
"","response","","html-keyboard-response","482","526243","0.0-1.0-680.0-0.0","0","0","77862","","525","","","68","75","","","2","75","training","adjacent","EF","5","6","P.jpg","M.jpg","1","1","1","",""
"","feedback","","html-keyboard-response","483","527248","0.0-1.0-681.0-0.0","0","0","77862","","null","","","null","75","","","","","","","","","","","","","","","",""
"","ITI","","html-keyboard-response","484","528254","0.0-1.0-684.0","0","0","77862","","null","","","null","75","","","","","","","","","","","","","","","NaN",""
"","S1","","html-keyboard-response","485","528508","0.0-1.0-686.0","0","0","77862","","null","","","null","76","","","","","","","","","","","","","","","",""
"","ISI","","html-keyboard-response","486","529512","0.0-1.0-687.0","0","0","77862","","null","","","null","76","NaN","","","","","","","","","","","","","","",""
"","S2","","html-keyboard-response","487","529767","0.0-1.0-688.0","0","0","77862","","null","","","null","76","","NaN","","","","","","","","","","","","","",""
"","response","","html-keyboard-response","488","530278","0.0-1.0-689.0-0.0","0","0","77862","","508","","","75","76","","","2","76","training","adjacent","BC","2","3","R.jpg","N.jpg","0","1","0","",""
"","feedback","","html-keyboard-response","489","531283","0.0-1.0-690.0-0.0","0","0","77862","","null","","","null","76","","","","","","","","","","","","","","","",""
"","time_out","","html-keyboard-response","490","533289","0.0-1.0-692.0-0.0","0","0","77862","","null","","","null","76","","","","","","","","","","","","","","","",""
"","ITI","","html-keyboard-response","491","534293","0.0-1.0-693.0","0","0","77862","","null","","","null","76","","","","","","","","","","","","","","","NaN",""
"","S1","","html-keyboard-response","492","534548","0.0-1.0-695.0","0","0","77862","","null","","","null","77","","","","","","","","","","","","","","","",""
"","ISI","","html-keyboard-response","493","535553","0.0-1.0-696.0","0","0","77862","","null","","","null","77","NaN","","","","","","","","","","","","","","",""
"","S2","","html-keyboard-response","494","535808","0.0-1.0-697.0","0","0","77862","","null","","","null","77","","NaN","","","","","","","","","","","","","",""
"","response","","html-keyboard-response","495","536092","0.0-1.0-698.0-0.0","0","0","77862","","280","","","75","77","","","2","77","training","adjacent","FE","6","5","M.jpg","P.jpg","0","0","1","",""
"","feedback","","html-keyboard-response","496","537098","0.0-1.0-699.0-0.0","0","0","77862","","null","","","null","77","","","","","","","","","","","","","","","",""
"","ITI","","html-keyboard-response","497","538103","0.0-1.0-702.0","0","0","77862","","null","","","null","77","","","","","","","","","","","","","","","NaN",""
"","S1","","html-keyboard-response","498","538358","0.0-1.0-704.0","0","0","77862","","null","","","null","78","","","","","","","","","","","","","","","",""
"","ISI","","html-keyboard-response","499","539362","0.0-1.0-705.0","0","0","77862","","null","","","null","78","NaN","","","","","","","","","","","","","","",""
"","S2","","html-keyboard-response","500","539617","0.0-1.0-706.0","0","0","77862","","null","","","null","78","","NaN","","","","","","","","","","","","","",""
"","response","","html-keyboard-response","501","540030","0.0-1.0-707.0-0.0","0","0","77862","","410","","","68","78","","","2","78","training","adjacent","EF","5","6","P.jpg","M.jpg","1","1","1","",""
"","feedback","","html-keyboard-response","502","541034","0.0-1.0-708.0-0.0","0","0","77862","","null","","","null","78","","","","","","","","","","","","","","","",""
"","ITI","","html-keyboard-response","503","542039","0.0-1.0-711.0","0","0","77862","","null","","","null","78","","","","","","","","","","","","","","","NaN",""
"","S1","","html-keyboard-response","504","542295","0.0-1.0-713.0","0","0","77862","","null","","","null","79","","","","","","","","","","","","","","","",""
"","ISI","","html-keyboard-response","505","543299","0.0-1.0-714.0","0","0","77862","","null","","","null","79","NaN","","","","","","","","","","","","","","",""
"","S2","","html-keyboard-response","506","543553","0.0-1.0-715.0","0","0","77862","","null","","","null","79","","NaN","","","","","","","","","","","","","",""
"","response","","html-keyboard-response","507","543881","0.0-1.0-716.0-0.0","0","0","77862","","324","","","75","79","","","2","79","training","adjacent","CD","3","4","N.jpg","Q.jpg","0","1","0","",""
"","feedback","","html-keyboard-response","508","544887","0.0-1.0-717.0-0.0","0","0","77862","","null","","","null","79","","","","","","","","","","","","","","","",""
"","time_out","","html-keyboard-response","509","546893","0.0-1.0-719.0-0.0","0","0","77862","","null","","","null","79","","","","","","","","","","","","","","","",""
"","ITI","","html-keyboard-response","510","547898","0.0-1.0-720.0","0","0","77862","","null","","","null","79","","","","","","","","","","","","","","","NaN",""
"","S1","","html-keyboard-response","511","548152","0.0-1.0-722.0","0","0","77862","","null","","","null","80","","","","","","","","","","","","","","","",""
"","ISI","","html-keyboard-response","512","549155","0.0-1.0-723.0","0","0","77862","","null","","","null","80","NaN","","","","","","","","","","","","","","",""
"","S2","","html-keyboard-response","513","549410","0.0-1.0-724.0","0","0","77862","","null","","","null","80","","NaN","","","","","","","","","","","","","",""
"","response","","html-keyboard-response","514","549853","0.0-1.0-725.0-0.0","0","0","77862","","440","","","75","80","","","2","80","training","adjacent","ED","5","4","P.jpg","Q.jpg","0","0","1","",""
"","feedback","","html-keyboard-response","515","550859","0.0-1.0-726.0-0.0","0","0","77862","","null","","","null","80","","","","","","","","","","","","","","","",""
"","ITI","","html-keyboard-response","516","551864","0.0-1.0-729.0","0","0","77862","","null","","","null","80","","","","","","","","","","","","","","","NaN",""
"","S1","","html-keyboard-response","517","552118","0.0-1.0-731.0","0","0","77862","","null","","","null","81","","","","","","","","","","","","","","","",""
"","ISI","","html-keyboard-response","518","553122","0.0-1.0-732.0","0","0","77862","","null","","","null","81","NaN","","","","","","","","","","","","","","",""
"","S2","","html-keyboard-response","519","553377","0.0-1.0-733.0","0","0","77862","","null","","","null","81","","NaN","","","","","","","","","","","","","",""
"","response","","html-keyboard-response","520","553688","0.0-1.0-734.0-0.0","0","0","77862","","307","","","68","81","","","2","81","training","adjacent","DE","4","5","Q.jpg","P.jpg","1","1","1","",""
"","feedback","","html-keyboard-response","521","554693","0.0-1.0-735.0-0.0","0","0","77862","","null","","","null","81","","","","","","","","","","","","","","","",""
"","ITI","","html-keyboard-response","522","555698","0.0-1.0-738.0","0","0","77862","","null","","","null","81","","","","","","","","","","","","","","","NaN",""
"","S1","","html-keyboard-response","523","555954","0.0-1.0-740.0","0","0","77862","","null","","","null","82","","","","","","","","","","","","","","","",""
"","ISI","","html-keyboard-response","524","556958","0.0-1.0-741.0","0","0","77862","","null","","","null","82","NaN","","","","","","","","","","","","","","",""
"","S2","","html-keyboard-response","525","557213","0.0-1.0-742.0","0","0","77862","","null","","","null","82","","NaN","","","","","","","","","","","","","",""
"","response","","html-keyboard-response","526","557407","0.0-1.0-743.0-0.0","0","0","77862","","191","","","68","82","","","2","82","training","adjacent","FG","6","7","M.jpg","L.jpg","1","1","1","",""
"","feedback","","html-keyboard-response","527","558413","0.0-1.0-744.0-0.0","0","0","77862","","null","","","null","82","","","","","","","","","","","","","","","",""
"","ITI","","html-keyboard-response","528","559418","0.0-1.0-747.0","0","0","77862","","null","","","null","82","","","","","","","","","","","","","","","NaN",""
"","S1","","html-keyboard-response","529","559673","0.0-1.0-749.0","0","0","77862","","null","","","null","83","","","","","","","","","","","","","","","",""
"","ISI","","html-keyboard-response","530","560677","0.0-1.0-750.0","0","0","77862","","null","","","null","83","NaN","","","","","","","","","","","","","","",""
"","S2","","html-keyboard-response","531","560931","0.0-1.0-751.0","0","0","77862","","null","","","null","83","","NaN","","","","","","","","","","","","","",""
"","response","","html-keyboard-response","532","561303","0.0-1.0-752.0-0.0","0","0","77862","","368","","","75","83","","","2","83","training","adjacent","ED","5","4","P.jpg","Q.jpg","0","0","1","",""
"","feedback","","html-keyboard-response","533","562309","0.0-1.0-753.0-0.0","0","0","77862","","null","","","null","83","","","","","","","","","","","","","","","",""
"","ITI","","html-keyboard-response","534","563313","0.0-1.0-756.0","0","0","77862","","null","","","null","83","","","","","","","","","","","","","","","NaN",""
"","S1","","html-keyboard-response","535","563569","0.0-1.0-758.0","0","0","77862","","null","","","null","84","","","","","","","","","","","","","","","",""
"","ISI","","html-keyboard-response","536","564577","0.0-1.0-759.0","0","0","77862","","null","","","null","84","NaN","","","","","","","","","","","","","","",""
"","S2","","html-keyboard-response","537","564832","0.0-1.0-760.0","0","0","77862","","null","","","null","84","","NaN","","","","","","","","","","","","","",""
"","response","","html-keyboard-response","538","564993","0.0-1.0-761.0-0.0","0","0","77862","","157","","","75","84","","","2","84","training","adjacent","DC","4","3","Q.jpg","N.jpg","0","0","1","",""
"","feedback","","html-keyboard-response","539","565998","0.0-1.0-762.0-0.0","0","0","77862","","null","","","null","84","","","","","","","","","","","","","","","",""
"","ITI","","html-keyboard-response","540","567001","0.0-1.0-765.0","0","0","77862","","null","","","null","84","","","","","","","","","","","","","","","NaN",""
"","S1","","html-keyboard-response","541","567259","0.0-1.0-767.0","0","0","77862","","null","","","null","85","","","","","","","","","","","","","","","",""
"","ISI","","html-keyboard-response","542","568262","0.0-1.0-768.0","0","0","77862","","null","","","null","85","NaN","","","","","","","","","","","","","","",""
"","S2","","html-keyboard-response","543","568518","0.0-1.0-769.0","0","0","77862","","null","","","null","85","","NaN","","","","","","","","","","","","","",""
"","response","","html-keyboard-response","544","568979","0.0-1.0-770.0-0.0","0","0","77862","","458","","","75","85","","","2","85","training","adjacent","CB","3","2","N.jpg","R.jpg","0","0","1","",""
"","feedback","","html-keyboard-response","545","569985","0.0-1.0-771.0-0.0","0","0","77862","","null","","","null","85","","","","","","","","","","","","","","","",""
"","ITI","","html-keyboard-response","546","570990","0.0-1.0-774.0","0","0","77862","","null","","","null","85","","","","","","","","","","","","","","","NaN",""
"","S1","","html-keyboard-response","547","571244","0.0-1.0-776.0","0","0","77862","","null","","","null","86","","","","","","","","","","","","","","","",""
"","ISI","","html-keyboard-response","548","572248","0.0-1.0-777.0","0","0","77862","","null","","","null","86","NaN","","","","","","","","","","","","","","",""
"","S2","","html-keyboard-response","549","572503","0.0-1.0-778.0","0","0","77862","","null","","","null","86","","NaN","","","","","","","","","","","","","",""
"","response","","html-keyboard-response","550","572799","0.0-1.0-779.0-0.0","0","0","77862","","293","","","75","86","","","2","86","training","adjacent","CB","3","2","N.jpg","R.jpg","0","0","1","",""
"","feedback","","html-keyboard-response","551","573803","0.0-1.0-780.0-0.0","0","0","77862","","null","","","null","86","","","","","","","","","","","","","","","",""
"","ITI","","html-keyboard-response","552","574807","0.0-1.0-783.0","0","0","77862","","null","","","null","86","","","","","","","","","","","","","","","NaN",""
"","S1","","html-keyboard-response","553","575063","0.0-1.0-785.0","0","0","77862","","null","","","null","87","","","","","","","","","","","","","","","",""
"","ISI","","html-keyboard-response","554","576067","0.0-1.0-786.0","0","0","77862","","null","","","null","87","NaN","","","","","","","","","","","","","","",""
"","S2","","html-keyboard-response","555","576322","0.0-1.0-787.0","0","0","77862","","null","","","null","87","","NaN","","","","","","","","","","","","","",""
"","response","","html-keyboard-response","556","576516","0.0-1.0-788.0-0.0","0","0","77862","","191","","","68","87","","","2","87","training","adjacent","BC","2","3","R.jpg","N.jpg","1","1","1","",""
"","feedback","","html-keyboard-response","557","577522","0.0-1.0-789.0-0.0","0","0","77862","","null","","","null","87","","","","","","","","","","","","","","","",""
"","ITI","","html-keyboard-response","558","578527","0.0-1.0-792.0","0","0","77862","","null","","","null","87","","","","","","","","","","","","","","","NaN",""
"","S1","","html-keyboard-response","559","578781","0.0-1.0-794.0","0","0","77862","","null","","","null","88","","","","","","","","","","","","","","","",""
"","ISI","","html-keyboard-response","560","579786","0.0-1.0-795.0","0","0","77862","","null","","","null","88","NaN","","","","","","","","","","","","","","",""
"","S2","","html-keyboard-response","561","580040","0.0-1.0-796.0","0","0","77862","","null","","","null","88","","NaN","","","","","","","","","","","","","",""
"","response","","html-keyboard-response","562","580713","0.0-1.0-797.0-0.0","0","0","77862","","670","","","68","88","","","2","88","training","adjacent","DE","4","5","Q.jpg","P.jpg","1","1","1","",""
"","feedback","","html-keyboard-response","563","581719","0.0-1.0-798.0-0.0","0","0","77862","","null","","","null","88","","","","","","","","","","","","","","","",""
"","ITI","","html-keyboard-response","564","582724","0.0-1.0-801.0","0","0","77862","","null","","","null","88","","","","","","","","","","","","","","","NaN",""
"","S1","","html-keyboard-response","565","582983","0.0-1.0-803.0","0","0","77862","","null","","","null","89","","","","","","","","","","","","","","","",""
"","ISI","","html-keyboard-response","566","583987","0.0-1.0-804.0","0","0","77862","","null","","","null","89","NaN","","","","","","","","","","","","","","",""
"","S2","","html-keyboard-response","567","584244","0.0-1.0-805.0","0","0","77862","","null","","","null","89","","NaN","","","","","","","","","","","","","",""
"","response","","html-keyboard-response","568","584391","0.0-1.0-806.0-0.0","0","0","77862","","144","","","68","89","","","2","89","training","adjacent","FG","6","7","M.jpg","L.jpg","1","1","1","",""
"","feedback","","html-keyboard-response","569","585398","0.0-1.0-807.0-0.0","0","0","77862","","null","","","null","89","","","","","","","","","","","","","","","",""
"","ITI","","html-keyboard-response","570","586403","0.0-1.0-810.0","0","0","77862","","null","","","null","89","","","","","","","","","","","","","","","NaN",""
"","S1","","html-keyboard-response","571","586656","0.0-1.0-812.0","0","0","77862","","null","","","null","90","","","","","","","","","","","","","","","",""
"","ISI","","html-keyboard-response","572","587660","0.0-1.0-813.0","0","0","77862","","null","","","null","90","NaN","","","","","","","","","","","","","","",""
"","S2","","html-keyboard-response","573","587916","0.0-1.0-814.0","0","0","77862","","null","","","null","90","","NaN","","","","","","","","","","","","","",""
"","response","","html-keyboard-response","574","588064","0.0-1.0-815.0-0.0","0","0","77862","","144","","","75","90","","","2","90","training","adjacent","GF","7","6","L.jpg","M.jpg","0","0","1","",""
"","feedback","","html-keyboard-response","575","589069","0.0-1.0-816.0-0.0","0","0","77862","","null","","","null","90","","","","","","","","","","","","","","","",""
"","ITI","","html-keyboard-response","576","590074","0.0-1.0-819.0","0","0","77862","","null","","","null","90","","","","","","","","","","","","","","","NaN",""
"","S1","","html-keyboard-response","577","590329","0.0-1.0-821.0","0","0","77862","","null","","","null","91","","","","","","","","","","","","","","","",""
"","ISI","","html-keyboard-response","578","591334","0.0-1.0-822.0","0","0","77862","","null","","","null","91","NaN","","","","","","","","","","","","","","",""
"","S2","","html-keyboard-response","579","591588","0.0-1.0-823.0","0","0","77862","","null","","","null","91","","NaN","","","","","","","","","","","","","",""
"","response","","html-keyboard-response","580","591754","0.0-1.0-824.0-0.0","0","0","77862","","163","","","75","91","","","2","91","training","adjacent","ED","5","4","P.jpg","Q.jpg","0","0","1","",""
