"success","ttype","start_time","trial_type","trial_index","time_elapsed","internal_node_id","warning","missed_checkup","PID","view_history","rt","responses","repeat_instructions","key_press","index","keypress_isi","keypress_S2","block","trial_num","phase","group_type","pair_type","S1_stim","S2_stim","S1_img","S2_img","S1_chosen","S1_higher","accuracy","keypress_iti","total_bonus_tally"
"true","full_screen","d08012022hr1354","fullscreen","0","7396","0.0-0.0","0","0","41416","","","","","","","","","","","","","","","","","","","","","",""
"","instructions","","instructions","1","27184","0.0-1.0-0.0-0.0","0","0","41416","[{""page_index"":0,""viewing_time"":2982},{""page_index"":1,""viewing_time"":8811},{""page_index"":2,""viewing_time"":6724},{""page_index"":3,""viewing_time"":1266}]","19785","","","","","","","","","","","","","","","","","","","",""
"","comprehension_check","","survey-multi-choice","2","39507","0.0-1.0-0.0-1.0","0","0","41416","","12315","{""Q0"":""True"",""Q1"":""D"",""Q2"":""When you see the prompt 'MAKE A CHOICE' after the second image was presented"",""Q3"":""Green mark"",""Q4"":""either D or K""}","0","","","","","","","","","","","","","","","","","",""
"","start_exp","","html-keyboard-response","3","41153","0.0-1.0-1.0","0","0","41416","","1640","","","32","","","","","","","","","","","","","","","","",""
"","S1","","html-keyboard-response","4","41409","0.0-1.0-2.0","0","0","41416","","null","","","null","0","","","","","","","","","","","","","","","",""
"","ISI","","html-keyboard-response","5","43413","0.0-1.0-3.0","0","0","41416","","null","","","null","0","NaN","","","","","","","","","","","","","","",""
"","S2","","html-keyboard-response","6","43669","0.0-1.0-4.0","0","0","41416","","null","","","null","0","","NaN","","","","","","","","","","","","","",""
"","response","","html-keyboard-response","7","44653","0.0-1.0-5.0","0","0","41416","","980","","","68","0","","","1","0","training","adjacent","DC","4","3","Q.jpg","P.jpg","1","0","0","",""
"","feedback","","html-keyboard-response","8","45658","0.0-1.0-6.0-0.0","0","0","41416","","null","","","null","0","","","","","","","","","","","","","","","",""
"","time_out","","html-keyboard-response","9","47663","0.0-1.0-8.0-0.0","0","0","41416","","null","","","null","0","","","","","","","","","","","","","","","",""
"","ITI","","html-keyboard-response","10","48668","0.0-1.0-9.0","0","0","41416","","null","","","null","0","","","","","","","","","","","","","","","NaN",""
"","S1","","html-keyboard-response","11","48924","0.0-1.0-11.0","0","0","41416","","null","","","null","1","","","","","","","","","","","","","","","",""
"","ISI","","html-keyboard-response","12","50928","0.0-1.0-12.0","0","0","41416","","null","","","null","1","NaN","","","","","","","","","","","","","","",""
"","S2","","html-keyboard-response","13","51183","0.0-1.0-13.0","0","0","41416","","null","","","null","1","","NaN","","","","","","","","","","","","","",""
"","response","","html-keyboard-response","14","51850","0.0-1.0-14.0","0","0","41416","","662","","","75","1","","","1","1","training","adjacent","AB","1","2","N.jpg","O.jpg","0","1","0","",""
"","feedback","","html-keyboard-response","15","52855","0.0-1.0-15.0-0.0","0","0","41416","","null","","","null","1","","","","","","","","","","","","","","","",""
"","time_out","","html-keyboard-response","16","54859","0.0-1.0-17.0-0.0","0","0","41416","","null","","","null","1","","","","","","","","","","","","","","","",""
"","ITI","","html-keyboard-response","17","55863","0.0-1.0-18.0","0","0","41416","","null","","","null","1","","","","","","","","","","","","","","","NaN",""
"","S1","","html-keyboard-response","18","56118","0.0-1.0-20.0","0","0","41416","","null","","","null","2","","","","","","","","","","","","","","","",""
"","ISI","","html-keyboard-response","19","58123","0.0-1.0-21.0","0","0","41416","","null","","","null","2","NaN","","","","","","","","","","","","","","",""
"","S2","","html-keyboard-response","20","58377","0.0-1.0-22.0","0","0","41416","","null","","","null","2","","NaN","","","","","","","","","","","","","",""
"","response","","html-keyboard-response","21","59030","0.0-1.0-23.0","0","0","41416","","649","","","75","2","","","1","2","training","adjacent","DC","4","3","Q.jpg","P.jpg","0","0","1","",""
"","feedback","","html-keyboard-response","22","60034","0.0-1.0-24.0-0.0","0","0","41416","","null","","","null","2","","","","","","","","","","","","","","","",""
"","ITI","","html-keyboard-response","23","61039","0.0-1.0-27.0","0","0","41416","","null","","","null","2","","","","","","","","","","","","","","","NaN",""
"","S1","","html-keyboard-response","24","61294","0.0-1.0-29.0","0","0","41416","","null","","","null","3","","","","","","","","","","","","","","","",""
"","ISI","","html-keyboard-response","25","63298","0.0-1.0-30.0","0","0","41416","","null","","","null","3","NaN","","","","","","","","","","","","","","",""
"","S2","","html-keyboard-response","26","63552","0.0-1.0-31.0","0","0","41416","","null","","","null","3","","NaN","","","","","","","","","","","","","",""
"","response","","html-keyboard-response","27","64192","0.0-1.0-32.0","0","0","41416","","635","","","68","3","","","1","3","training","adjacent","BC","2","3","O.jpg","P.jpg","1","1","1","",""
"","feedback","","html-keyboard-response","28","65197","0.0-1.0-33.0-0.0","0","0","41416","","null","","","null","3","","","","","","","","","","","","","","","",""
"","ITI","","html-keyboard-response","29","66202","0.0-1.0-36.0","0","0","41416","","null","","","null","3","","","","","","","","","","","","","","","NaN",""
"","S1","","html-keyboard-response","30","66458","0.0-1.0-38.0","0","0","41416","","null","","","null","4","","","","","","","","","","","","","","","",""
"","ISI","","html-keyboard-response","31","68463","0.0-1.0-39.0","0","0","41416","","null","","","null","4","NaN","","","","","","","","","","","","","","",""
"","S2","","html-keyboard-response","32","68717","0.0-1.0-40.0","0","0","41416","","null","","","null","4","","NaN","","","","","","","","","","","","","",""
"","response","","html-keyboard-response","33","69530","0.0-1.0-41.0","0","0","41416","","808","","","68","4","","","1","4","training","adjacent","CB","3","2","P.jpg","O.jpg","1","0","0","",""
"","feedback","","html-keyboard-response","34","70535","0.0-1.0-42.0-0.0","0","0","41416","","null","","","null","4","","","","","","","","","","","","","","","",""
"","time_out","","html-keyboard-response","35","72540","0.0-1.0-44.0-0.0","0","0","41416","","null","","","null","4","","","","","","","","","","","","","","","",""
"","ITI","","html-keyboard-response","36","73543","0.0-1.0-45.0","0","0","41416","","null","","","null","4","","","","","","","","","","","","","","","NaN",""
"","S1","","html-keyboard-response","37","73797","0.0-1.0-47.0","0","0","41416","","null","","","null","5","","","","","","","","","","","","","","","",""
"","ISI","","html-keyboard-response","38","75802","0.0-1.0-48.0","0","0","41416","","null","","","null","5","NaN","","","","","","","","","","","","","","",""
"","S2","","html-keyboard-response","39","76057","0.0-1.0-49.0","0","0","41416","","null","","","null","5","","NaN","","","","","","","","","","","","","",""
"","response","","html-keyboard-response","40","76773","0.0-1.0-50.0","0","0","41416","","713","","","68","5","","","1","5","training","adjacent","EF","5","6","R.jpg","L.jpg","1","1","1","",""
"","feedback","","html-keyboard-response","41","77779","0.0-1.0-51.0-0.0","0","0","41416","","null","","","null","5","","","","","","","","","","","","","","","",""
"","ITI","","html-keyboard-response","42","78782","0.0-1.0-54.0","0","0","41416","","null","","","null","5","","","","","","","","","","","","","","","NaN",""
"","S1","","html-keyboard-response","43","79036","0.0-1.0-56.0","0","0","41416","","null","","","null","6","","","","","","","","","","","","","","","",""
"","ISI","","html-keyboard-response","44","81041","0.0-1.0-57.0","0","0","41416","","null","","","null","6","NaN","","","","","","","","","","","","","","",""
"","S2","","html-keyboard-response","45","81297","0.0-1.0-58.0","0","0","41416","","null","","","null","6","","NaN","","","","","","","","","","","","","",""
"","response","","html-keyboard-response","46","81959","0.0-1.0-59.0","0","0","41416","","658","","","75","6","","","1","6","training","adjacent","FG","6","7","L.jpg","M.jpg","0","1","0","",""
"","feedback","","html-keyboard-response","47","82964","0.0-1.0-60.0-0.0","0","0","41416","","null","","","null","6","","","","","","","","","","","","","","","",""
"","time_out","","html-keyboard-response","48","84968","0.0-1.0-62.0-0.0","0","0","41416","","null","","","null","6","","","","","","","","","","","","","","","",""
"","ITI","","html-keyboard-response","49","85971","0.0-1.0-63.0","0","0","41416","","null","","","null","6","","","","","","","","","","","","","","","NaN",""
"","S1","","html-keyboard-response","50","86225","0.0-1.0-65.0","0","0","41416","","null","","","null","7","","","","","","","","","","","","","","","",""
"","ISI","","html-keyboard-response","51","88230","0.0-1.0-66.0","0","0","41416","","null","","","null","7","NaN","","","","","","","","","","","","","","",""
"","S2","","html-keyboard-response","52","88485","0.0-1.0-67.0","0","0","41416","","null","","","null","7","","NaN","","","","","","","","","","","","","",""
"","response","","html-keyboard-response","53","88995","0.0-1.0-68.0","0","0","41416","","505","","","68","7","","","1","7","training","adjacent","BC","2","3","O.jpg","P.jpg","1","1","1","",""
"","feedback","","html-keyboard-response","54","90000","0.0-1.0-69.0-0.0","0","0","41416","","null","","","null","7","","","","","","","","","","","","","","","",""
"","ITI","","html-keyboard-response","55","91005","0.0-1.0-72.0","0","0","41416","","null","","","null","7","","","","","","","","","","","","","","","NaN",""
"","S1","","html-keyboard-response","56","91260","0.0-1.0-74.0","0","0","41416","","null","","","null","8","","","","","","","","","","","","","","","",""
"","ISI","","html-keyboard-response","57","93265","0.0-1.0-75.0","0","0","41416","","null","","","null","8","NaN","","","","","","","","","","","","","","",""
"","S2","","html-keyboard-response","58","93519","0.0-1.0-76.0","0","0","41416","","null","","","null","8","","NaN","","","","","","","","","","","","","",""
"","response","","html-keyboard-response","59","93995","0.0-1.0-77.0","0","0","41416","","472","","","68","8","","","1","8","training","adjacent","FE","6","5","L.jpg","R.jpg","1","0","0","",""
"","feedback","","html-keyboard-response","60","94998","0.0-1.0-78.0-0.0","0","0","41416","","null","","","null","8","","","","","","","","","","","","","","","",""
"","time_out","","html-keyboard-response","61","97000","0.0-1.0-80.0-0.0","0","0","41416","","null","","","null","8","","","","","","","","","","","","","","","",""
"","ITI","","html-keyboard-response","62","98003","0.0-1.0-81.0","0","0","41416","","null","","","null","8","","","","","","","","","","","","","","","NaN",""
"","S1","","html-keyboard-response","63","98257","0.0-1.0-83.0","0","0","41416","","null","","","null","9","","","","","","","","","","","","","","","",""
"","ISI","","html-keyboard-response","64","100262","0.0-1.0-84.0","0","0","41416","","null","","","null","9","NaN","","","","","","","","","","","","","","",""
"","S2","","html-keyboard-response","65","100517","0.0-1.0-85.0","0","0","41416","","null","","","null","9","","NaN","","","","","","","","","","","","","",""
"","response","","html-keyboard-response","66","100961","0.0-1.0-86.0","0","0","41416","","440","","","75","9","","","1","9","training","adjacent","AB","1","2","N.jpg","O.jpg","0","1","0","",""
"","feedback","","html-keyboard-response","67","101966","0.0-1.0-87.0-0.0","0","0","41416","","null","","","null","9","","","","","","","","","","","","","","","",""
"","time_out","","html-keyboard-response","68","103970","0.0-1.0-89.0-0.0","0","0","41416","","null","","","null","9","","","","","","","","","","","","","","","",""
"","ITI","","html-keyboard-response","69","104974","0.0-1.0-90.0","0","0","41416","","null","","","null","9","","","","","","","","","","","","","","","NaN",""
"","S1","","html-keyboard-response","70","105229","0.0-1.0-92.0","0","0","41416","","null","","","null","10","","","","","","","","","","","","","","","",""
"","ISI","","html-keyboard-response","71","107234","0.0-1.0-93.0","0","0","41416","","null","","","null","10","NaN","","","","","","","","","","","","","","",""
"","S2","","html-keyboard-response","72","107490","0.0-1.0-94.0","0","0","41416","","null","","","null","10","","NaN","","","","","","","","","","","","","",""
"","response","","html-keyboard-response","73","108071","0.0-1.0-95.0","0","0","41416","","577","","","68","10","","","1","10","training","adjacent","FG","6","7","L.jpg","M.jpg","1","1","1","",""
"","feedback","","html-keyboard-response","74","109076","0.0-1.0-96.0-0.0","0","0","41416","","null","","","null","10","","","","","","","","","","","","","","","",""
"","ITI","","html-keyboard-response","75","110081","0.0-1.0-99.0","0","0","41416","","null","","","null","10","","","","","","","","","","","","","","","NaN",""
"","S1","","html-keyboard-response","76","110336","0.0-1.0-101.0","0","0","41416","","null","","","null","11","","","","","","","","","","","","","","","",""
"","ISI","","html-keyboard-response","77","112341","0.0-1.0-102.0","0","0","41416","","null","","","null","11","NaN","","","","","","","","","","","","","","",""
"","S2","","html-keyboard-response","78","112596","0.0-1.0-103.0","0","0","41416","","null","","","null","11","","NaN","","","","","","","","","","","","","",""
"","response","","html-keyboard-response","79","113053","0.0-1.0-104.0","0","0","41416","","452","","","68","11","","","1","11","training","adjacent","BC","2","3","O.jpg","P.jpg","1","1","1","",""
"","feedback","","html-keyboard-response","80","114058","0.0-1.0-105.0-0.0","0","0","41416","","null","","","null","11","","","","","","","","","","","","","","","",""
"","ITI","","html-keyboard-response","81","115061","0.0-1.0-108.0","0","0","41416","","null","","","null","11","","","","","","","","","","","","","","","NaN",""
"","S1","","html-keyboard-response","82","115314","0.0-1.0-110.0","0","0","41416","","null","","","null","12","","","","","","","","","","","","","","","",""
"","ISI","","html-keyboard-response","83","117316","0.0-1.0-111.0","0","0","41416","","null","","","null","12","NaN","","","","","","","","","","","","","","",""
"","S2","","html-keyboard-response","84","117571","0.0-1.0-112.0","0","0","41416","","null","","","null","12","","NaN","","","","","","","","","","","","","",""
"","response","","html-keyboard-response","85","118651","0.0-1.0-113.0","0","0","41416","","1075","","","68","12","","","1","12","training","adjacent","GF","7","6","M.jpg","L.jpg","1","0","0","",""
"","feedback","","html-keyboard-response","86","119656","0.0-1.0-114.0-0.0","0","0","41416","","null","","","null","12","","","","","","","","","","","","","","","",""
"","time_out","","html-keyboard-response","87","121660","0.0-1.0-116.0-0.0","0","0","41416","","null","","","null","12","","","","","","","","","","","","","","","",""
"","ITI","","html-keyboard-response","88","122666","0.0-1.0-117.0","0","0","41416","","null","","","null","12","","","","","","","","","","","","","","","NaN",""
"","S1","","html-keyboard-response","89","122921","0.0-1.0-119.0","0","0","41416","","null","","","null","13","","","","","","","","","","","","","","","",""
"","ISI","","html-keyboard-response","90","124926","0.0-1.0-120.0","0","0","41416","","null","","","null","13","NaN","","","","","","","","","","","","","","",""
"","S2","","html-keyboard-response","91","125180","0.0-1.0-121.0","0","0","41416","","null","","","null","13","","NaN","","","","","","","","","","","","","",""
"","response","","html-keyboard-response","92","126427","0.0-1.0-122.0","0","0","41416","","1243","","","68","13","","","1","13","training","adjacent","CD","3","4","P.jpg","Q.jpg","1","1","1","",""
"","feedback","","html-keyboard-response","93","127432","0.0-1.0-123.0-0.0","0","0","41416","","null","","","null","13","","","","","","","","","","","","","","","",""
"","ITI","","html-keyboard-response","94","128436","0.0-1.0-126.0","0","0","41416","","null","","","null","13","","","","","","","","","","","","","","","NaN",""
"","S1","","html-keyboard-response","95","128691","0.0-1.0-128.0","0","0","41416","","null","","","null","14","","","","","","","","","","","","","","","",""
"","ISI","","html-keyboard-response","96","130696","0.0-1.0-129.0","0","0","41416","","null","","","null","14","NaN","","","","","","","","","","","","","","",""
"","S2","","html-keyboard-response","97","130951","0.0-1.0-130.0","0","0","41416","","null","","","null","14","","NaN","","","","","","","","","","","","","",""
"","response","","html-keyboard-response","98","131447","0.0-1.0-131.0","0","0","41416","","492","","","68","14","","","1","14","training","adjacent","ED","5","4","R.jpg","Q.jpg","1","0","0","",""
"","feedback","","html-keyboard-response","99","132451","0.0-1.0-132.0-0.0","0","0","41416","","null","","","null","14","","","","","","","","","","","","","","","",""
"","time_out","","html-keyboard-response","100","134456","0.0-1.0-134.0-0.0","0","0","41416","","null","","","null","14","","","","","","","","","","","","","","","",""
"","ITI","","html-keyboard-response","101","135463","0.0-1.0-135.0","0","0","41416","","null","","","null","14","","","","","","","","","","","","","","","NaN",""
"","S1","","html-keyboard-response","102","135718","0.0-1.0-137.0","0","0","41416","","null","","","null","15","","","","","","","","","","","","","","","",""
"","ISI","","html-keyboard-response","103","137721","0.0-1.0-138.0","0","0","41416","","null","","","null","15","NaN","","","","","","","","","","","","","","",""
"","S2","","html-keyboard-response","104","137975","0.0-1.0-139.0","0","0","41416","","null","","","null","15","","NaN","","","","","","","","","","","","","",""
"","response","","html-keyboard-response","105","138521","0.0-1.0-140.0","0","0","41416","","541","","","68","15","","","1","15","training","adjacent","FG","6","7","L.jpg","M.jpg","1","1","1","",""
"","feedback","","html-keyboard-response","106","139525","0.0-1.0-141.0-0.0","0","0","41416","","null","","","null","15","","","","","","","","","","","","","","","",""
"","ITI","","html-keyboard-response","107","140529","0.0-1.0-144.0","0","0","41416","","null","","","null","15","","","","","","","","","","","","","","","NaN",""
"","S1","","html-keyboard-response","108","140783","0.0-1.0-146.0","0","0","41416","","null","","","null","16","","","","","","","","","","","","","","","",""
"","ISI","","html-keyboard-response","109","142788","0.0-1.0-147.0","0","0","41416","","null","","","null","16","NaN","","","","","","","","","","","","","","",""
"","S2","","html-keyboard-response","110","143043","0.0-1.0-148.0","0","0","41416","","null","","","null","16","","NaN","","","","","","","","","","","","","",""
"","response","","html-keyboard-response","111","144089","0.0-1.0-149.0","0","0","41416","","1044","","","68","16","","","1","16","training","adjacent","FE","6","5","L.jpg","R.jpg","1","0","0","",""
"","feedback","","html-keyboard-response","112","145093","0.0-1.0-150.0-0.0","0","0","41416","","null","","","null","16","","","","","","","","","","","","","","","",""
"","time_out","","html-keyboard-response","113","147097","0.0-1.0-152.0-0.0","0","0","41416","","null","","","null","16","","","","","","","","","","","","","","","",""
"","ITI","","html-keyboard-response","114","148100","0.0-1.0-153.0","0","0","41416","","null","","","null","16","","","","","","","","","","","","","","","NaN",""
"","S1","","html-keyboard-response","115","148353","0.0-1.0-155.0","0","0","41416","","null","","","null","17","","","","","","","","","","","","","","","",""
"","ISI","","html-keyboard-response","116","150358","0.0-1.0-156.0","0","0","41416","","null","","","null","17","NaN","","","","","","","","","","","","","","",""
"","S2","","html-keyboard-response","117","150613","0.0-1.0-157.0","0","0","41416","","null","","","null","17","","NaN","","","","","","","","","","","","","",""
"","response","","html-keyboard-response","118","151180","0.0-1.0-158.0","0","0","41416","","563","","","68","17","","","1","17","training","adjacent","BA","2","1","O.jpg","N.jpg","1","0","0","",""
"","feedback","","html-keyboard-response","119","152186","0.0-1.0-159.0-0.0","0","0","41416","","null","","","null","17","","","","","","","","","","","","","","","",""
"","time_out","","html-keyboard-response","120","154190","0.0-1.0-161.0-0.0","0","0","41416","","null","","","null","17","","","","","","","","","","","","","","","",""
"","ITI","","html-keyboard-response","121","155195","0.0-1.0-162.0","0","0","41416","","null","","","null","17","","","","","","","","","","","","","","","NaN",""
"","S1","","html-keyboard-response","122","155450","0.0-1.0-164.0","0","0","41416","","null","","","null","18","","","","","","","","","","","","","","","",""
"","ISI","","html-keyboard-response","123","157455","0.0-1.0-165.0","0","0","41416","","null","","","null","18","NaN","","","","","","","","","","","","","","",""
"","S2","","html-keyboard-response","124","157711","0.0-1.0-166.0","0","0","41416","","null","","","null","18","","NaN","","","","","","","","","","","","","",""
"","response","","html-keyboard-response","125","158355","0.0-1.0-167.0","0","0","41416","","642","","","75","18","","","1","18","training","adjacent","CB","3","2","P.jpg","O.jpg","0","0","1","",""
"","feedback","","html-keyboard-response","126","159359","0.0-1.0-168.0-0.0","0","0","41416","","null","","","null","18","","","","","","","","","","","","","","","",""
"","ITI","","html-keyboard-response","127","160363","0.0-1.0-171.0","0","0","41416","","null","","","null","18","","","","","","","","","","","","","","","NaN",""
"","S1","","html-keyboard-response","128","160619","0.0-1.0-173.0","0","0","41416","","null","","","null","19","","","","","","","","","","","","","","","",""
"","ISI","","html-keyboard-response","129","162624","0.0-1.0-174.0","0","0","41416","","null","","","null","19","NaN","","","","","","","","","","","","","","",""
"","S2","","html-keyboard-response","130","162880","0.0-1.0-175.0","0","0","41416","","null","","","null","19","","NaN","","","","","","","","","","","","","",""
"","response","","html-keyboard-response","131","163544","0.0-1.0-176.0","0","0","41416","","661","","","68","19","","","1","19","training","adjacent","AB","1","2","N.jpg","O.jpg","1","1","1","",""
"","feedback","","html-keyboard-response","132","164550","0.0-1.0-177.0-0.0","0","0","41416","","null","","","null","19","","","","","","","","","","","","","","","",""
"","ITI","","html-keyboard-response","133","165555","0.0-1.0-180.0","0","0","41416","","null","","","null","19","","","","","","","","","","","","","","","NaN",""
"","S1","","html-keyboard-response","134","165810","0.0-1.0-182.0","0","0","41416","","null","","","null","20","","","","","","","","","","","","","","","",""
"","ISI","","html-keyboard-response","135","167815","0.0-1.0-183.0","0","0","41416","","null","","","null","20","NaN","","","","","","","","","","","","","","",""
"","S2","","html-keyboard-response","136","168069","0.0-1.0-184.0","0","0","41416","","null","","","null","20","","NaN","","","","","","","","","","","","","",""
"","response","","html-keyboard-response","137","168536","0.0-1.0-185.0","0","0","41416","","463","","","68","20","","","1","20","training","adjacent","AB","1","2","N.jpg","O.jpg","1","1","1","",""
"","feedback","","html-keyboard-response","138","169541","0.0-1.0-186.0-0.0","0","0","41416","","null","","","null","20","","","","","","","","","","","","","","","",""
"","ITI","","html-keyboard-response","139","170544","0.0-1.0-189.0","0","0","41416","","null","","","null","20","","","","","","","","","","","","","","","NaN",""
"","S1","","html-keyboard-response","140","170799","0.0-1.0-191.0","0","0","41416","","null","","","null","21","","","","","","","","","","","","","","","",""
"","ISI","","html-keyboard-response","141","172804","0.0-1.0-192.0","0","0","41416","","null","","","null","21","NaN","","","","","","","","","","","","","","",""
"","S2","","html-keyboard-response","142","173060","0.0-1.0-193.0","0","0","41416","","null","","","null","21","","NaN","","","","","","","","","","","","","",""
"","response","","html-keyboard-response","143","173311","0.0-1.0-194.0","0","0","41416","","248","","","75","21","","","1","21","training","adjacent","FE","6","5","L.jpg","R.jpg","0","0","1","",""
"","feedback","","html-keyboard-response","144","174316","0.0-1.0-195.0-0.0","0","0","41416","","null","","","null","21","","","","","","","","","","","","","","","",""
"","ITI","","html-keyboard-response","145","175321","0.0-1.0-198.0","0","0","41416","","null","","","null","21","","","","","","","","","","","","","","","NaN",""
"","S1","","html-keyboard-response","146","175576","0.0-1.0-200.0","0","0","41416","","null","","","null","22","","","","","","","","","","","","","","","",""
"","ISI","","html-keyboard-response","147","177580","0.0-1.0-201.0","0","0","41416","","null","","","null","22","NaN","","","","","","","","","","","","","","",""
"","S2","","html-keyboard-response","148","177835","0.0-1.0-202.0","0","0","41416","","null","","","null","22","","NaN","","","","","","","","","","","","","",""
"","response","","html-keyboard-response","149","178318","0.0-1.0-203.0","0","0","41416","","479","","","68","22","","","1","22","training","adjacent","BA","2","1","O.jpg","N.jpg","1","0","0","",""
"","feedback","","html-keyboard-response","150","179322","0.0-1.0-204.0-0.0","0","0","41416","","null","","","null","22","","","","","","","","","","","","","","","",""
"","time_out","","html-keyboard-response","151","181327","0.0-1.0-206.0-0.0","0","0","41416","","null","","","null","22","","","","","","","","","","","","","","","",""
"","ITI","","html-keyboard-response","152","182331","0.0-1.0-207.0","0","0","41416","","null","","","null","22","","","","","","","","","","","","","","","NaN",""
"","S1","","html-keyboard-response","153","182587","0.0-1.0-209.0","0","0","41416","","null","","","null","23","","","","","","","","","","","","","","","",""
"","ISI","","html-keyboard-response","154","184591","0.0-1.0-210.0","0","0","41416","","null","","","null","23","NaN","","","","","","","","","","","","","","",""
"","S2","","html-keyboard-response","155","184846","0.0-1.0-211.0","0","0","41416","","null","","","null","23","","NaN","","","","","","","","","","","","","",""
"","response","","html-keyboard-response","156","185225","0.0-1.0-212.0","0","0","41416","","374","","","68","23","","","1","23","training","adjacent","CD","3","4","P.jpg","Q.jpg","1","1","1","",""
"","feedback","","html-keyboard-response","157","186230","0.0-1.0-213.0-0.0","0","0","41416","","null","","","null","23","","","","","","","","","","","","","","","",""
"","ITI","","html-keyboard-response","158","187235","0.0-1.0-216.0","0","0","41416","","null","","","null","23","","","","","","","","","","","","","","","NaN",""
"","S1","","html-keyboard-response","159","187490","0.0-1.0-218.0","0","0","41416","","null","","","null","24","","","","","","","","","","","","","","","",""
"","ISI","","html-keyboard-response","160","189495","0.0-1.0-219.0","0","0","41416","","null","","","null","24","NaN","","","","","","","","","","","","","","",""
"","S2","","html-keyboard-response","161","189750","0.0-1.0-220.0","0","0","41416","","null","","","null","24","","NaN","","","","","","","","","","","","","",""
"","response","","html-keyboard-response","162","190227","0.0-1.0-221.0","0","0","41416","","473","","","75","24","","","1","24","training","adjacent","GF","7","6","M.jpg","L.jpg","0","0","1","",""
"","feedback","","html-keyboard-response","163","191232","0.0-1.0-222.0-0.0","0","0","41416","","null","","","null","24","","","","","","","","","","","","","","","",""
"","ITI","","html-keyboard-response","164","192234","0.0-1.0-225.0","0","0","41416","","null","","","null","24","","","","","","","","","","","","","","","NaN",""
"","S1","","html-keyboard-response","165","192489","0.0-1.0-227.0","0","0","41416","","null","","","null","25","","","","","","","","","","","","","","","",""
"","ISI","","html-keyboard-response","166","194492","0.0-1.0-228.0","0","0","41416","","null","","","null","25","NaN","","","","","","","","","","","","","","",""
"","S2","","html-keyboard-response","167","194747","0.0-1.0-229.0","0","0","41416","","null","","","null","25","","NaN","","","","","","","","","","","","","",""
"","response","","html-keyboard-response","168","195302","0.0-1.0-230.0","0","0","41416","","551","","","68","25","","","1","25","training","adjacent","EF","5","6","R.jpg","L.jpg","1","1","1","",""
"","feedback","","html-keyboard-response","169","196309","0.0-1.0-231.0-0.0","0","0","41416","","null","","","null","25","","","","","","","","","","","","","","","",""
"","ITI","","html-keyboard-response","170","197311","0.0-1.0-234.0","0","0","41416","","null","","","null","25","","","","","","","","","","","","","","","NaN",""
"","S1","","html-keyboard-response","171","197564","0.0-1.0-236.0","0","0","41416","","null","","","null","26","","","","","","","","","","","","","","","",""
"","ISI","","html-keyboard-response","172","199568","0.0-1.0-237.0","0","0","41416","","null","","","null","26","NaN","","","","","","","","","","","","","","",""
"","S2","","html-keyboard-response","173","199823","0.0-1.0-238.0","0","0","41416","","null","","","null","26","","NaN","","","","","","","","","","","","","",""
"","response","","html-keyboard-response","174","200309","0.0-1.0-239.0","0","0","41416","","483","","","68","26","","","1","26","training","adjacent","BA","2","1","O.jpg","N.jpg","1","0","0","",""
"","feedback","","html-keyboard-response","175","201312","0.0-1.0-240.0-0.0","0","0","41416","","null","","","null","26","","","","","","","","","","","","","","","",""
"","time_out","","html-keyboard-response","176","203316","0.0-1.0-242.0-0.0","0","0","41416","","null","","","null","26","","","","","","","","","","","","","","","",""
"","ITI","","html-keyboard-response","177","204322","0.0-1.0-243.0","0","0","41416","","null","","","null","26","","","","","","","","","","","","","","","NaN",""
"","S1","","html-keyboard-response","178","204577","0.0-1.0-245.0","0","0","41416","","null","","","null","27","","","","","","","","","","","","","","","",""
"","ISI","","html-keyboard-response","179","206583","0.0-1.0-246.0","0","0","41416","","null","","","null","27","NaN","","","","","","","","","","","","","","",""
"","S2","","html-keyboard-response","180","206839","0.0-1.0-247.0","0","0","41416","","null","","","null","27","","NaN","","","","","","","","","","","","","",""
"","response","","html-keyboard-response","181","207553","0.0-1.0-248.0","0","0","41416","","710","","","68","27","","","1","27","training","adjacent","ED","5","4","R.jpg","Q.jpg","1","0","0","",""
"","feedback","","html-keyboard-response","182","208559","0.0-1.0-249.0-0.0","0","0","41416","","null","","","null","27","","","","","","","","","","","","","","","",""
"","time_out","","html-keyboard-response","183","210564","0.0-1.0-251.0-0.0","0","0","41416","","null","","","null","27","","","","","","","","","","","","","","","",""
"","ITI","","html-keyboard-response","184","211570","0.0-1.0-252.0","0","0","41416","","null","","","null","27","","","","","","","","","","","","","","","NaN",""
"","S1","","html-keyboard-response","185","211826","0.0-1.0-254.0","0","0","41416","","null","","","null","28","","","","","","","","","","","","","","","",""
"","ISI","","html-keyboard-response","186","213831","0.0-1.0-255.0","0","0","41416","","null","","","null","28","NaN","","","","","","","","","","","","","","",""
"","S2","","html-keyboard-response","187","214087","0.0-1.0-256.0","0","0","41416","","null","","","null","28","","NaN","","","","","","","","","","","","","",""
"","response","","html-keyboard-response","188","214662","0.0-1.0-257.0","0","0","41416","","571","","","68","28","","","1","28","training","adjacent","GF","7","6","M.jpg","L.jpg","1","0","0","",""
"","feedback","","html-keyboard-response","189","215666","0.0-1.0-258.0-0.0","0","0","41416","","null","","","null","28","","","","","","","","","","","","","","","",""
"","time_out","","html-keyboard-response","190","217671","0.0-1.0-260.0-0.0","0","0","41416","","null","","","null","28","","","","","","","","","","","","","","","",""
"","ITI","","html-keyboard-response","191","218676","0.0-1.0-261.0","0","0","41416","","null","","","null","28","","","","","","","","","","","","","","","NaN",""
"","S1","","html-keyboard-response","192","218931","0.0-1.0-263.0","0","0","41416","","null","","","null","29","","","","","","","","","","","","","","","",""
"","ISI","","html-keyboard-response","193","220935","0.0-1.0-264.0","0","0","41416","","null","","","null","29","NaN","","","","","","","","","","","","","","",""
"","S2","","html-keyboard-response","194","221190","0.0-1.0-265.0","0","0","41416","","null","","","null","29","","NaN","","","","","","","","","","","","","",""
"","response","","html-keyboard-response","195","221932","0.0-1.0-266.0","0","0","41416","","737","","","68","29","","","1","29","training","adjacent","CB","3","2","P.jpg","O.jpg","1","0","0","",""
"","feedback","","html-keyboard-response","196","222936","0.0-1.0-267.0-0.0","0","0","41416","","null","","","null","29","","","","","","","","","","","","","","","",""
"","time_out","","html-keyboard-response","197","224941","0.0-1.0-269.0-0.0","0","0","41416","","null","","","null","29","","","","","","","","","","","","","","","",""
"","ITI","","html-keyboard-response","198","225945","0.0-1.0-270.0","0","0","41416","","null","","","null","29","","","","","","","","","","","","","","","NaN",""
"","S1","","html-keyboard-response","199","226199","0.0-1.0-272.0","0","0","41416","","null","","","null","30","","","","","","","","","","","","","","","",""
"","ISI","","html-keyboard-response","200","228202","0.0-1.0-273.0","0","0","41416","","null","","","null","30","NaN","","","","","","","","","","","","","","",""
"","S2","","html-keyboard-response","201","228456","0.0-1.0-274.0","0","0","41416","","null","","","null","30","","NaN","","","","","","","","","","","","","",""
"","response","","html-keyboard-response","202","229145","0.0-1.0-275.0","0","0","41416","","686","","","75","30","","","1","30","training","adjacent","BA","2","1","O.jpg","N.jpg","0","0","1","",""
"","feedback","","html-keyboard-response","203","230150","0.0-1.0-276.0-0.0","0","0","41416","","null","","","null","30","","","","","","","","","","","","","","","",""
"","ITI","","html-keyboard-response","204","231155","0.0-1.0-279.0","0","0","41416","","null","","","null","30","","","","","","","","","","","","","","","NaN",""
"","S1","","html-keyboard-response","205","231410","0.0-1.0-281.0","0","0","41416","","null","","","null","31","","","","","","","","","","","","","","","",""
"","ISI","","html-keyboard-response","206","233414","0.0-1.0-282.0","0","0","41416","","null","","","null","31","NaN","","","","","","","","","","","","","","",""
"","S2","","html-keyboard-response","207","233670","0.0-1.0-283.0","0","0","41416","","null","","","null","31","","NaN","","","","","","","","","","","","","",""
"","response","","html-keyboard-response","208","234475","0.0-1.0-284.0","0","0","41416","","801","","","68","31","","","1","31","training","adjacent","CD","3","4","P.jpg","Q.jpg","1","1","1","",""
"","feedback","","html-keyboard-response","209","235479","0.0-1.0-285.0-0.0","0","0","41416","","null","","","null","31","","","","","","","","","","","","","","","",""
"","ITI","","html-keyboard-response","210","236483","0.0-1.0-288.0","0","0","41416","","null","","","null","31","","","","","","","","","","","","","","","NaN",""
"","S1","","html-keyboard-response","211","236735","0.0-1.0-290.0","0","0","41416","","null","","","null","32","","","","","","","","","","","","","","","",""
"","ISI","","html-keyboard-response","212","238740","0.0-1.0-291.0","0","0","41416","","null","","","null","32","NaN","","","","","","","","","","","","","","",""
"","S2","","html-keyboard-response","213","238995","0.0-1.0-292.0","0","0","41416","","null","","","null","32","","NaN","","","","","","","","","","","","","",""
"","response","","html-keyboard-response","214","239561","0.0-1.0-293.0","0","0","41416","","561","","","68","32","","","1","32","training","adjacent","FG","6","7","L.jpg","M.jpg","1","1","1","",""
"","feedback","","html-keyboard-response","215","240566","0.0-1.0-294.0-0.0","0","0","41416","","null","","","null","32","","","","","","","","","","","","","","","",""
"","ITI","","html-keyboard-response","216","241572","0.0-1.0-297.0","0","0","41416","","null","","","null","32","","","","","","","","","","","","","","","NaN",""
"","S1","","html-keyboard-response","217","241825","0.0-1.0-299.0","0","0","41416","","null","","","null","33","","","","","","","","","","","","","","","",""
"","ISI","","html-keyboard-response","218","243830","0.0-1.0-300.0","0","0","41416","","null","","","null","33","NaN","","","","","","","","","","","","","","",""
"","S2","","html-keyboard-response","219","244085","0.0-1.0-301.0","0","0","41416","","null","","","null","33","","NaN","","","","","","","","","","","","","",""
"","response","","html-keyboard-response","220","244811","0.0-1.0-302.0","0","0","41416","","723","","","75","33","","","1","33","training","adjacent","EF","5","6","R.jpg","L.jpg","0","1","0","",""
"","feedback","","html-keyboard-response","221","245815","0.0-1.0-303.0-0.0","0","0","41416","","null","","","null","33","","","","","","","","","","","","","","","",""
"","time_out","","html-keyboard-response","222","247821","0.0-1.0-305.0-0.0","0","0","41416","","null","","","null","33","","","","","","","","","","","","","","","",""
"","ITI","","html-keyboard-response","223","248827","0.0-1.0-306.0","0","0","41416","","null","","","null","33","","","","","","","","","","","","","","","NaN",""
"","S1","","html-keyboard-response","224","249082","0.0-1.0-308.0","0","0","41416","","null","","","null","34","","","","","","","","","","","","","","","",""
"","ISI","","html-keyboard-response","225","251088","0.0-1.0-309.0","0","0","41416","","null","","","null","34","NaN","","","","","","","","","","","","","","",""
"","S2","","html-keyboard-response","226","251344","0.0-1.0-310.0","0","0","41416","","null","","","null","34","","NaN","","","","","","","","","","","","","",""
"","response","","html-keyboard-response","227","251960","0.0-1.0-311.0","0","0","41416","","612","","","68","34","","","1","34","training","adjacent","CD","3","4","P.jpg","Q.jpg","1","1","1","",""
"","feedback","","html-keyboard-response","228","252965","0.0-1.0-312.0-0.0","0","0","41416","","null","","","null","34","","","","","","","","","","","","","","","",""
"","ITI","","html-keyboard-response","229","253971","0.0-1.0-315.0","0","0","41416","","null","","","null","34","","","","","","","","","","","","","","","NaN",""
"","S1","","html-keyboard-response","230","254227","0.0-1.0-317.0","0","0","41416","","null","","","null","35","","","","","","","","","","","","","","","",""
"","ISI","","html-keyboard-response","231","256232","0.0-1.0-318.0","0","0","41416","","null","","","null","35","NaN","","","","","","","","","","","","","","",""
"","S2","","html-keyboard-response","232","256486","0.0-1.0-319.0","0","0","41416","","null","","","null","35","","NaN","","","","","","","","","","","","","",""
"","response","","html-keyboard-response","233","257580","0.0-1.0-320.0","0","0","41416","","1090","","","68","35","","","1","35","training","adjacent","ED","5","4","R.jpg","Q.jpg","1","0","0","",""
"","feedback","","html-keyboard-response","234","258586","0.0-1.0-321.0-0.0","0","0","41416","","null","","","null","35","","","","","","","","","","","","","","","",""
"","time_out","","html-keyboard-response","235","260591","0.0-1.0-323.0-0.0","0","0","41416","","null","","","null","35","","","","","","","","","","","","","","","",""
"","ITI","","html-keyboard-response","236","261596","0.0-1.0-324.0","0","0","41416","","null","","","null","35","","","","","","","","","","","","","","","NaN",""
"","S1","","html-keyboard-response","237","261852","0.0-1.0-326.0","0","0","41416","","null","","","null","36","","","","","","","","","","","","","","","",""
"","ISI","","html-keyboard-response","238","263856","0.0-1.0-327.0","0","0","41416","","null","","","null","36","NaN","","","","","","","","","","","","","","",""
"","S2","","html-keyboard-response","239","264113","0.0-1.0-328.0","0","0","41416","","null","","","null","36","","NaN","","","","","","","","","","","","","",""
"","response","","html-keyboard-response","240","264880","0.0-1.0-329.0","0","0","41416","","765","","","75","36","","","1","36","training","adjacent","FE","6","5","L.jpg","R.jpg","0","0","1","",""
"","feedback","","html-keyboard-response","241","265885","0.0-1.0-330.0-0.0","0","0","41416","","null","","","null","36","","","","","","","","","","","","","","","",""
"","ITI","","html-keyboard-response","242","266888","0.0-1.0-333.0","0","0","41416","","null","","","null","36","","","","","","","","","","","","","","","NaN",""
"","S1","","html-keyboard-response","243","267144","0.0-1.0-335.0","0","0","41416","","null","","","null","37","","","","","","","","","","","","","","","",""
"","ISI","","html-keyboard-response","244","269149","0.0-1.0-336.0","0","0","41416","","null","","","null","37","NaN","","","","","","","","","","","","","","",""
"","S2","","html-keyboard-response","245","269404","0.0-1.0-337.0","0","0","41416","","null","","","null","37","","NaN","","","","","","","","","","","","","",""
"","response","","html-keyboard-response","246","269821","0.0-1.0-338.0","0","0","41416","","411","","","75","37","","","1","37","training","adjacent","DC","4","3","Q.jpg","P.jpg","0","0","1","",""
"","feedback","","html-keyboard-response","247","270826","0.0-1.0-339.0-0.0","0","0","41416","","null","","","null","37","","","","","","","","","","","","","","","",""
"","ITI","","html-keyboard-response","248","271832","0.0-1.0-342.0","0","0","41416","","null","","","null","37","","","","","","","","","","","","","","","NaN",""
"","S1","","html-keyboard-response","249","272087","0.0-1.0-344.0","0","0","41416","","null","","","null","38","","","","","","","","","","","","","","","",""
"","ISI","","html-keyboard-response","250","274093","0.0-1.0-345.0","0","0","41416","","null","","","null","38","NaN","","","","","","","","","","","","","","",""
"","S2","","html-keyboard-response","251","274348","0.0-1.0-346.0","0","0","41416","","null","","","null","38","","NaN","","","","","","","","","","","","","",""
"","response","","html-keyboard-response","252","274553","0.0-1.0-347.0","0","0","41416","","201","","","75","38","","","1","38","training","adjacent","DC","4","3","Q.jpg","P.jpg","0","0","1","",""
"","feedback","","html-keyboard-response","253","275558","0.0-1.0-348.0-0.0","0","0","41416","","null","","","null","38","","","","","","","","","","","","","","","",""
"","ITI","","html-keyboard-response","254","276563","0.0-1.0-351.0","0","0","41416","","null","","","null","38","","","","","","","","","","","","","","","NaN",""
"","S1","","html-keyboard-response","255","276820","0.0-1.0-353.0","0","0","41416","","null","","","null","39","","","","","","","","","","","","","","","",""
"","ISI","","html-keyboard-response","256","278825","0.0-1.0-354.0","0","0","41416","","null","","","null","39","NaN","","","","","","","","","","","","","","",""
"","S2","","html-keyboard-response","257","279081","0.0-1.0-355.0","0","0","41416","","null","","","null","39","","NaN","","","","","","","","","","","","","",""
"","response","","html-keyboard-response","258","279781","0.0-1.0-356.0","0","0","41416","","697","","","75","39","","","1","39","training","adjacent","DE","4","5","Q.jpg","R.jpg","0","1","0","",""
"","feedback","","html-keyboard-response","259","280787","0.0-1.0-357.0-0.0","0","0","41416","","null","","","null","39","","","","","","","","","","","","","","","",""
"","time_out","","html-keyboard-response","260","282793","0.0-1.0-359.0-0.0","0","0","41416","","null","","","null","39","","","","","","","","","","","","","","","",""
"","ITI","","html-keyboard-response","261","283798","0.0-1.0-360.0","0","0","41416","","null","","","null","39","","","","","","","","","","","","","","","NaN",""
"","S1","","html-keyboard-response","262","284054","0.0-1.0-362.0","0","0","41416","","null","","","null","40","","","","","","","","","","","","","","","",""
"","ISI","","html-keyboard-response","263","286059","0.0-1.0-363.0","0","0","41416","","null","","","null","40","NaN","","","","","","","","","","","","","","",""
"","S2","","html-keyboard-response","264","286316","0.0-1.0-364.0","0","0","41416","","null","","","null","40","","NaN","","","","","","","","","","","","","",""
"","response","","html-keyboard-response","265","286753","0.0-1.0-365.0","0","0","41416","","433","","","68","40","","","1","40","training","adjacent","DE","4","5","Q.jpg","R.jpg","1","1","1","",""
"","feedback","","html-keyboard-response","266","287758","0.0-1.0-366.0-0.0","0","0","41416","","null","","","null","40","","","","","","","","","","","","","","","",""
"","ITI","","html-keyboard-response","267","288763","0.0-1.0-369.0","0","0","41416","","null","","","null","40","","","","","","","","","","","","","","","NaN",""
"","S1","","html-keyboard-response","268","289018","0.0-1.0-371.0","0","0","41416","","null","","","null","41","","","","","","","","","","","","","","","",""
"","ISI","","html-keyboard-response","269","291021","0.0-1.0-372.0","0","0","41416","","null","","","null","41","NaN","","","","","","","","","","","","","","",""
"","S2","","html-keyboard-response","270","291275","0.0-1.0-373.0","0","0","41416","","null","","","null","41","","NaN","","","","","","","","","","","","","",""
"","response","","html-keyboard-response","271","291912","0.0-1.0-374.0","0","0","41416","","632","","","75","41","","","1","41","training","adjacent","EF","5","6","R.jpg","L.jpg","0","1","0","",""
"","feedback","","html-keyboard-response","272","292916","0.0-1.0-375.0-0.0","0","0","41416","","null","","","null","41","","","","","","","","","","","","","","","",""
"","time_out","","html-keyboard-response","273","294920","0.0-1.0-377.0-0.0","0","0","41416","","null","","","null","41","","","","","","","","","","","","","","","",""
"","ITI","","html-keyboard-response","274","295926","0.0-1.0-378.0","0","0","41416","","null","","","null","41","","","","","","","","","","","","","","","NaN",""
"","S1","","html-keyboard-response","275","296182","0.0-1.0-380.0","0","0","41416","","null","","","null","42","","","","","","","","","","","","","","","",""
"","ISI","","html-keyboard-response","276","298185","0.0-1.0-381.0","0","0","41416","","null","","","null","42","NaN","","","","","","","","","","","","","","",""
"","S2","","html-keyboard-response","277","298440","0.0-1.0-382.0","0","0","41416","","null","","","null","42","","NaN","","","","","","","","","","","","","",""
"","response","","html-keyboard-response","278","299254","0.0-1.0-383.0","0","0","41416","","811","","","68","42","","","1","42","training","adjacent","ED","5","4","R.jpg","Q.jpg","1","0","0","",""
"","feedback","","html-keyboard-response","279","300259","0.0-1.0-384.0-0.0","0","0","41416","","null","","","null","42","","","","","","","","","","","","","","","",""
"","time_out","","html-keyboard-response","280","302264","0.0-1.0-386.0-0.0","0","0","41416","","null","","","null","42","","","","","","","","","","","","","","","",""
"","ITI","","html-keyboard-response","281","303267","0.0-1.0-387.0","0","0","41416","","null","","","null","42","","","","","","","","","","","","","","","NaN",""
"","S1","","html-keyboard-response","282","303522","0.0-1.0-389.0","0","0","41416","","null","","","null","43","","","","","","","","","","","","","","","",""
"","ISI","","html-keyboard-response","283","305525","0.0-1.0-390.0","0","0","41416","","null","","","null","43","NaN","","","","","","","","","","","","","","",""
"","S2","","html-keyboard-response","284","305780","0.0-1.0-391.0","0","0","41416","","null","","","null","43","","NaN","","","","","","","","","","","","","",""
"","response","","html-keyboard-response","285","306565","0.0-1.0-392.0","0","0","41416","","780","","","75","43","","","1","43","training","adjacent","DE","4","5","Q.jpg","R.jpg","0","1","0","",""
"","feedback","","html-keyboard-response","286","307571","0.0-1.0-393.0-0.0","0","0","41416","","null","","","null","43","","","","","","","","","","","","","","","",""
"","time_out","","html-keyboard-response","287","309577","0.0-1.0-395.0-0.0","0","0","41416","","null","","","null","43","","","","","","","","","","","","","","","",""
"","ITI","","html-keyboard-response","288","310581","0.0-1.0-396.0","0","0","41416","","null","","","null","43","","","","","","","","","","","","","","","NaN",""
"","S1","","html-keyboard-response","289","310837","0.0-1.0-398.0","0","0","41416","","null","","","null","44","","","","","","","","","","","","","","","",""
"","ISI","","html-keyboard-response","290","312842","0.0-1.0-399.0","0","0","41416","","null","","","null","44","NaN","","","","","","","","","","","","","","",""
"","S2","","html-keyboard-response","291","313098","0.0-1.0-400.0","0","0","41416","","null","","","null","44","","NaN","","","","","","","","","","","","","",""
"","response","","html-keyboard-response","292","313582","0.0-1.0-401.0","0","0","41416","","481","","","75","44","","","1","44","training","adjacent","BC","2","3","O.jpg","P.jpg","0","1","0","",""
"","feedback","","html-keyboard-response","293","314587","0.0-1.0-402.0-0.0","0","0","41416","","null","","","null","44","","","","","","","","","","","","","","","",""
"","time_out","","html-keyboard-response","294","316592","0.0-1.0-404.0-0.0","0","0","41416","","null","","","null","44","","","","","","","","","","","","","","","",""
"","ITI","","html-keyboard-response","295","317598","0.0-1.0-405.0","0","0","41416","","null","","","null","44","","","","","","","","","","","","","","","NaN",""
"","S1","","html-keyboard-response","296","317853","0.0-1.0-407.0","0","0","41416","","null","","","null","45","","","","","","","","","","","","","","","",""
"","ISI","","html-keyboard-response","297","319857","0.0-1.0-408.0","0","0","41416","","null","","","null","45","NaN","","","","","","","","","","","","","","",""
"","S2","","html-keyboard-response","298","320114","0.0-1.0-409.0","0","0","41416","","null","","","null","45","","NaN","","","","","","","","","","","","","",""
"","response","","html-keyboard-response","299","320917","0.0-1.0-410.0","0","0","41416","","799","","","68","45","","","1","45","training","adjacent","CB","3","2","P.jpg","O.jpg","1","0","0","",""
"","feedback","","html-keyboard-response","300","321924","0.0-1.0-411.0-0.0","0","0","41416","","null","","","null","45","","","","","","","","","","","","","","","",""
"","time_out","","html-keyboard-response","301","323928","0.0-1.0-413.0-0.0","0","0","41416","","null","","","null","45","","","","","","","","","","","","","","","",""
"","ITI","","html-keyboard-response","302","324933","0.0-1.0-414.0","0","0","41416","","null","","","null","45","","","","","","","","","","","","","","","NaN",""
"","S1","","html-keyboard-response","303","325189","0.0-1.0-416.0","0","0","41416","","null","","","null","46","","","","","","","","","","","","","","","",""
"","ISI","","html-keyboard-response","304","327194","0.0-1.0-417.0","0","0","41416","","null","","","null","46","NaN","","","","","","","","","","","","","","",""
"","S2","","html-keyboard-response","305","327449","0.0-1.0-418.0","0","0","41416","","null","","","null","46","","NaN","","","","","","","","","","","","","",""
"","response","","html-keyboard-response","306","327889","0.0-1.0-419.0","0","0","41416","","434","","","75","46","","","1","46","training","adjacent","GF","7","6","M.jpg","L.jpg","0","0","1","",""
"","feedback","","html-keyboard-response","307","328894","0.0-1.0-420.0-0.0","0","0","41416","","null","","","null","46","","","","","","","","","","","","","","","",""
"","ITI","","html-keyboard-response","308","329899","0.0-1.0-423.0","0","0","41416","","null","","","null","46","","","","","","","","","","","","","","","NaN",""
"","S1","","html-keyboard-response","309","330155","0.0-1.0-425.0","0","0","41416","","null","","","null","47","","","","","","","","","","","","","","","",""
"","ISI","","html-keyboard-response","310","332161","0.0-1.0-426.0","0","0","41416","","null","","","null","47","NaN","","","","","","","","","","","","","","",""
"","S2","","html-keyboard-response","311","332414","0.0-1.0-427.0","0","0","41416","","null","","","null","47","","NaN","","","","","","","","","","","","","",""
"","response","","html-keyboard-response","312","332737","0.0-1.0-428.0","0","0","41416","","320","","","75","47","","","1","47","training","adjacent","DE","4","5","Q.jpg","R.jpg","0","1","0","",""
"","feedback","","html-keyboard-response","313","333742","0.0-1.0-429.0-0.0","0","0","41416","","null","","","null","47","","","","","","","","","","","","","","","",""
"","time_out","","html-keyboard-response","314","335748","0.0-1.0-431.0-0.0","0","0","41416","","null","","","null","47","","","","","","","","","","","","","","","",""
"","ITI","","html-keyboard-response","315","336754","0.0-1.0-432.0","0","0","41416","","null","","","null","47","","","","","","","","","","","","","","","NaN",""
"","block_over","","html-keyboard-response","316","340753","0.0-1.0-433.0-0.0","0","0","41416","","3992","","","32","47","","","","","","","","","","","","","","","",""
"","S1","","html-keyboard-response","317","341008","0.0-1.0-434.0","0","0","41416","","null","","","null","48","","","","","","","","","","","","","","","",""
"","ISI","","html-keyboard-response","318","343012","0.0-1.0-435.0","0","0","41416","","null","","","null","48","NaN","","","","","","","","","","","","","","",""
"","S2","","html-keyboard-response","319","343267","0.0-1.0-436.0","0","0","41416","","null","","","null","48","","NaN","","","","","","","","","","","","","",""
"","response","","html-keyboard-response","320","343855","0.0-1.0-437.0","0","0","41416","","586","","","68","48","","","2","48","training","adjacent","AB","1","2","N.jpg","O.jpg","1","1","1","",""
"","feedback","","html-keyboard-response","321","344861","0.0-1.0-438.0-0.0","0","0","41416","","null","","","null","48","","","","","","","","","","","","","","","",""
"","ITI","","html-keyboard-response","322","345867","0.0-1.0-441.0","0","0","41416","","null","","","null","48","","","","","","","","","","","","","","","NaN",""
"","S1","","html-keyboard-response","323","346124","0.0-1.0-443.0","0","0","41416","","null","","","null","49","","","","","","","","","","","","","","","",""
"","ISI","","html-keyboard-response","324","348129","0.0-1.0-444.0","0","0","41416","","null","","","null","49","NaN","","","","","","","","","","","","","","",""
"","S2","","html-keyboard-response","325","348385","0.0-1.0-445.0","0","0","41416","","null","","","null","49","","NaN","","","","","","","","","","","","","",""
"","response","","html-keyboard-response","326","348759","0.0-1.0-446.0","0","0","41416","","368","","","75","49","","","2","49","training","adjacent","GF","7","6","M.jpg","L.jpg","0","0","1","",""
"","feedback","","html-keyboard-response","327","349765","0.0-1.0-447.0-0.0","0","0","41416","","null","","","null","49","","","","","","","","","","","","","","","",""
"","ITI","","html-keyboard-response","328","350771","0.0-1.0-450.0","0","0","41416","","null","","","null","49","","","","","","","","","","","","","","","NaN",""
"","S1","","html-keyboard-response","329","351026","0.0-1.0-452.0","0","0","41416","","null","","","null","50","","","","","","","","","","","","","","","",""
"","ISI","","html-keyboard-response","330","353031","0.0-1.0-453.0","0","0","41416","","null","","","null","50","NaN","","","","","","","","","","","","","","",""
"","S2","","html-keyboard-response","331","353286","0.0-1.0-454.0","0","0","41416","","null","","","null","50","","NaN","","","","","","","","","","","","","",""
"","response","","html-keyboard-response","332","353963","0.0-1.0-455.0","0","0","41416","","671","","","68","50","","","2","50","training","adjacent","CB","3","2","P.jpg","O.jpg","1","0","0","",""
"","feedback","","html-keyboard-response","333","354970","0.0-1.0-456.0-0.0","0","0","41416","","null","","","null","50","","","","","","","","","","","","","","","",""
"","time_out","","html-keyboard-response","334","356974","0.0-1.0-458.0-0.0","0","0","41416","","null","","","null","50","","","","","","","","","","","","","","","",""
"","ITI","","html-keyboard-response","335","357977","0.0-1.0-459.0","0","0","41416","","null","","","null","50","","","","","","","","","","","","","","","NaN",""
"","S1","","html-keyboard-response","336","358231","0.0-1.0-461.0","0","0","41416","","null","","","null","51","","","","","","","","","","","","","","","",""
"","ISI","","html-keyboard-response","337","360236","0.0-1.0-462.0","0","0","41416","","null","","","null","51","NaN","","","","","","","","","","","","","","",""
"","S2","","html-keyboard-response","338","360490","0.0-1.0-463.0","0","0","41416","","null","","","null","51","","NaN","","","","","","","","","","","","","",""
"","response","","html-keyboard-response","339","361041","0.0-1.0-464.0","0","0","41416","","549","","","68","51","","","2","51","training","adjacent","FG","6","7","L.jpg","M.jpg","1","1","1","",""
"","feedback","","html-keyboard-response","340","362044","0.0-1.0-465.0-0.0","0","0","41416","","null","","","null","51","","","","","","","","","","","","","","","",""
"","ITI","","html-keyboard-response","341","363049","0.0-1.0-468.0","0","0","41416","","null","","","null","51","","","","","","","","","","","","","","","NaN",""
"","S1","","html-keyboard-response","342","363304","0.0-1.0-470.0","0","0","41416","","null","","","null","52","","","","","","","","","","","","","","","",""
"","ISI","","html-keyboard-response","343","365310","0.0-1.0-471.0","0","0","41416","","null","","","null","52","NaN","","","","","","","","","","","","","","",""
"","S2","","html-keyboard-response","344","365565","0.0-1.0-472.0","0","0","41416","","null","","","null","52","","NaN","","","","","","","","","","","","","",""
"","response","","html-keyboard-response","345","366276","0.0-1.0-473.0","0","0","41416","","709","","","68","52","","","2","52","training","adjacent","BC","2","3","O.jpg","P.jpg","1","1","1","",""
"","feedback","","html-keyboard-response","346","367279","0.0-1.0-474.0-0.0","0","0","41416","","null","","","null","52","","","","","","","","","","","","","","","",""
"","ITI","","html-keyboard-response","347","368284","0.0-1.0-477.0","0","0","41416","","null","","","null","52","","","","","","","","","","","","","","","NaN",""
"","S1","","html-keyboard-response","348","368537","0.0-1.0-479.0","0","0","41416","","null","","","null","53","","","","","","","","","","","","","","","",""
"","ISI","","html-keyboard-response","349","370542","0.0-1.0-480.0","0","0","41416","","null","","","null","53","NaN","","","","","","","","","","","","","","",""
"","S2","","html-keyboard-response","350","370795","0.0-1.0-481.0","0","0","41416","","null","","","null","53","","NaN","","","","","","","","","","","","","",""
"","response","","html-keyboard-response","351","371516","0.0-1.0-482.0","0","0","41416","","717","","","68","53","","","2","53","training","adjacent","CD","3","4","P.jpg","Q.jpg","1","1","1","",""
"","feedback","","html-keyboard-response","352","372521","0.0-1.0-483.0-0.0","0","0","41416","","null","","","null","53","","","","","","","","","","","","","","","",""
"","ITI","","html-keyboard-response","353","373525","0.0-1.0-486.0","0","0","41416","","null","","","null","53","","","","","","","","","","","","","","","NaN",""
"","S1","","html-keyboard-response","354","373777","0.0-1.0-488.0","0","0","41416","","null","","","null","54","","","","","","","","","","","","","","","",""
"","ISI","","html-keyboard-response","355","375780","0.0-1.0-489.0","0","0","41416","","null","","","null","54","NaN","","","","","","","","","","","","","","",""
"","S2","","html-keyboard-response","356","376036","0.0-1.0-490.0","0","0","41416","","null","","","null","54","","NaN","","","","","","","","","","","","","",""
"","response","","html-keyboard-response","357","376513","0.0-1.0-491.0","0","0","41416","","472","","","75","54","","","2","54","training","adjacent","DC","4","3","Q.jpg","P.jpg","0","0","1","",""
"","feedback","","html-keyboard-response","358","377518","0.0-1.0-492.0-0.0","0","0","41416","","null","","","null","54","","","","","","","","","","","","","","","",""
"","ITI","","html-keyboard-response","359","378524","0.0-1.0-495.0","0","0","41416","","null","","","null","54","","","","","","","","","","","","","","","NaN",""
"","S1","","html-keyboard-response","360","378780","0.0-1.0-497.0","0","0","41416","","null","","","null","55","","","","","","","","","","","","","","","",""
"","ISI","","html-keyboard-response","361","380783","0.0-1.0-498.0","0","0","41416","","null","","","null","55","NaN","","","","","","","","","","","","","","",""
"","S2","","html-keyboard-response","362","381038","0.0-1.0-499.0","0","0","41416","","null","","","null","55","","NaN","","","","","","","","","","","","","",""
"","response","","html-keyboard-response","363","381275","0.0-1.0-500.0","0","0","41416","","232","","","75","55","","","2","55","training","adjacent","GF","7","6","M.jpg","L.jpg","0","0","1","",""
"","feedback","","html-keyboard-response","364","382281","0.0-1.0-501.0-0.0","0","0","41416","","null","","","null","55","","","","","","","","","","","","","","","",""
"","ITI","","html-keyboard-response","365","383284","0.0-1.0-504.0","0","0","41416","","null","","","null","55","","","","","","","","","","","","","","","NaN",""
"","S1","","html-keyboard-response","366","383539","0.0-1.0-506.0","0","0","41416","","null","","","null","56","","","","","","","","","","","","","","","",""
"","ISI","","html-keyboard-response","367","385544","0.0-1.0-507.0","0","0","41416","","null","","","null","56","NaN","","","","","","","","","","","","","","",""
"","S2","","html-keyboard-response","368","385800","0.0-1.0-508.0","0","0","41416","","null","","","null","56","","NaN","","","","","","","","","","","","","",""
"","response","","html-keyboard-response","369","386561","0.0-1.0-509.0","0","0","41416","","757","","","68","56","","","2","56","training","adjacent","CD","3","4","P.jpg","Q.jpg","1","1","1","",""
"","feedback","","html-keyboard-response","370","387567","0.0-1.0-510.0-0.0","0","0","41416","","null","","","null","56","","","","","","","","","","","","","","","",""
"","ITI","","html-keyboard-response","371","388571","0.0-1.0-513.0","0","0","41416","","null","","","null","56","","","","","","","","","","","","","","","NaN",""
"","S1","","html-keyboard-response","372","388827","0.0-1.0-515.0","0","0","41416","","null","","","null","57","","","","","","","","","","","","","","","",""
"","ISI","","html-keyboard-response","373","390831","0.0-1.0-516.0","0","0","41416","","null","","","null","57","NaN","","","","","","","","","","","","","","",""
"","S2","","html-keyboard-response","374","391086","0.0-1.0-517.0","0","0","41416","","null","","","null","57","","NaN","","","","","","","","","","","","","",""
"","response","","html-keyboard-response","375","391789","0.0-1.0-518.0","0","0","41416","","699","","","68","57","","","2","57","training","adjacent","ED","5","4","R.jpg","Q.jpg","1","0","0","",""
"","feedback","","html-keyboard-response","376","392796","0.0-1.0-519.0-0.0","0","0","41416","","null","","","null","57","","","","","","","","","","","","","","","",""
"","time_out","","html-keyboard-response","377","394801","0.0-1.0-521.0-0.0","0","0","41416","","null","","","null","57","","","","","","","","","","","","","","","",""
"","ITI","","html-keyboard-response","378","395806","0.0-1.0-522.0","0","0","41416","","null","","","null","57","","","","","","","","","","","","","","","NaN",""
"","S1","","html-keyboard-response","379","396061","0.0-1.0-524.0","0","0","41416","","null","","","null","58","","","","","","","","","","","","","","","",""
"","ISI","","html-keyboard-response","380","398066","0.0-1.0-525.0","0","0","41416","","607","","","75","58","k","","","","","","","","","","","","","","",""
"","S2","","html-keyboard-response","381","398324","0.0-1.0-526.0","0","0","41416","","null","","","null","58","","NaN","","","","","","","","","","","","","",""
"","response","","html-keyboard-response","382","398976","0.0-1.0-527.0","0","0","41416","","647","","","75","58","","","2","58","training","adjacent","FE","6","5","L.jpg","R.jpg","0","0","1","",""
"","feedback","","html-keyboard-response","383","399982","0.0-1.0-528.0-0.0","0","0","41416","","null","","","null","58","","","","","","","","","","","","","","","",""
"","ITI","","html-keyboard-response","384","400988","0.0-1.0-531.0","0","0","41416","","null","","","null","58","","","","","","","","","","","","","","","NaN",""
"","S1","","html-keyboard-response","385","401244","0.0-1.0-533.0","0","0","41416","","null","","","null","59","","","","","","","","","","","","","","","",""
"","ISI","","html-keyboard-response","386","403249","0.0-1.0-534.0","0","0","41416","","null","","","null","59","NaN","","","","","","","","","","","","","","",""
"","S2","","html-keyboard-response","387","403505","0.0-1.0-535.0","0","0","41416","","null","","","null","59","","NaN","","","","","","","","","","","","","",""
"","response","","html-keyboard-response","388","404504","0.0-1.0-536.0","0","0","41416","","996","","","75","59","","","2","59","training","adjacent","DC","4","3","Q.jpg","P.jpg","0","0","1","",""
"","feedback","","html-keyboard-response","389","405508","0.0-1.0-537.0-0.0","0","0","41416","","null","","","null","59","","","","","","","","","","","","","","","",""
"","ITI","","html-keyboard-response","390","406513","0.0-1.0-540.0","0","0","41416","","null","","","null","59","","","","","","","","","","","","","","","NaN",""
"","S1","","html-keyboard-response","391","406769","0.0-1.0-542.0","0","0","41416","","null","","","null","60","","","","","","","","","","","","","","","",""
"","ISI","","html-keyboard-response","392","408773","0.0-1.0-543.0","0","0","41416","","null","","","null","60","NaN","","","","","","","","","","","","","","",""
"","S2","","html-keyboard-response","393","409029","0.0-1.0-544.0","0","0","41416","","null","","","null","60","","NaN","","","","","","","","","","","","","",""
"","response","","html-keyboard-response","394","409697","0.0-1.0-545.0","0","0","41416","","665","","","68","60","","","2","60","training","adjacent","FG","6","7","L.jpg","M.jpg","1","1","1","",""
"","feedback","","html-keyboard-response","395","410703","0.0-1.0-546.0-0.0","0","0","41416","","null","","","null","60","","","","","","","","","","","","","","","",""
"","ITI","","html-keyboard-response","396","411709","0.0-1.0-549.0","0","0","41416","","null","","","null","60","","","","","","","","","","","","","","","NaN",""
"","S1","","html-keyboard-response","397","411966","0.0-1.0-551.0","0","0","41416","","null","","","null","61","","","","","","","","","","","","","","","",""
"","ISI","","html-keyboard-response","398","413972","0.0-1.0-552.0","0","0","41416","","null","","","null","61","NaN","","","","","","","","","","","","","","",""
"","S2","","html-keyboard-response","399","414228","0.0-1.0-553.0","0","0","41416","","null","","","null","61","","NaN","","","","","","","","","","","","","",""
"","response","","html-keyboard-response","400","414872","0.0-1.0-554.0","0","0","41416","","641","","","68","61","","","2","61","training","adjacent","CD","3","4","P.jpg","Q.jpg","1","1","1","",""
"","feedback","","html-keyboard-response","401","415876","0.0-1.0-555.0-0.0","0","0","41416","","null","","","null","61","","","","","","","","","","","","","","","",""
"","ITI","","html-keyboard-response","402","416882","0.0-1.0-558.0","0","0","41416","","null","","","null","61","","","","","","","","","","","","","","","NaN",""
"","S1","","html-keyboard-response","403","417138","0.0-1.0-560.0","0","0","41416","","null","","","null","62","","","","","","","","","","","","","","","",""
"","ISI","","html-keyboard-response","404","419143","0.0-1.0-561.0","0","0","41416","","null","","","null","62","NaN","","","","","","","","","","","","","","",""
"","S2","","html-keyboard-response","405","419397","0.0-1.0-562.0","0","0","41416","","null","","","null","62","","NaN","","","","","","","","","","","","","",""
"","response","","html-keyboard-response","406","419649","0.0-1.0-563.0","0","0","41416","","248","","","75","62","","","2","62","training","adjacent","GF","7","6","M.jpg","L.jpg","0","0","1","",""
"","feedback","","html-keyboard-response","407","420656","0.0-1.0-564.0-0.0","0","0","41416","","null","","","null","62","","","","","","","","","","","","","","","",""
"","ITI","","html-keyboard-response","408","421662","0.0-1.0-567.0","0","0","41416","","null","","","null","62","","","","","","","","","","","","","","","NaN",""
"","S1","","html-keyboard-response","409","421917","0.0-1.0-569.0","0","0","41416","","null","","","null","63","","","","","","","","","","","","","","","",""
"","ISI","","html-keyboard-response","410","423923","0.0-1.0-570.0","0","0","41416","","null","","","null","63","NaN","","","","","","","","","","","","","","",""
"","S2","","html-keyboard-response","411","424178","0.0-1.0-571.0","0","0","41416","","null","","","null","63","","NaN","","","","","","","","","","","","","",""
"","response","","html-keyboard-response","412","424666","0.0-1.0-572.0","0","0","41416","","485","","","68","63","","","2","63","training","adjacent","FE","6","5","L.jpg","R.jpg","1","0","0","",""
"","feedback","","html-keyboard-response","413","425671","0.0-1.0-573.0-0.0","0","0","41416","","null","","","null","63","","","","","","","","","","","","","","","",""
"","time_out","","html-keyboard-response","414","427677","0.0-1.0-575.0-0.0","0","0","41416","","null","","","null","63","","","","","","","","","","","","","","","",""
"","ITI","","html-keyboard-response","415","428683","0.0-1.0-576.0","0","0","41416","","null","","","null","63","","","","","","","","","","","","","","","NaN",""
"","S1","","html-keyboard-response","416","428940","0.0-1.0-578.0","0","0","41416","","null","","","null","64","","","","","","","","","","","","","","","",""
"","ISI","","html-keyboard-response","417","430944","0.0-1.0-579.0","0","0","41416","","null","","","null","64","NaN","","","","","","","","","","","","","","",""
"","S2","","html-keyboard-response","418","431200","0.0-1.0-580.0","0","0","41416","","null","","","null","64","","NaN","","","","","","","","","","","","","",""
"","response","","html-keyboard-response","419","432244","0.0-1.0-581.0","0","0","41416","","1040","","","75","64","","","2","64","training","adjacent","AB","1","2","N.jpg","O.jpg","0","1","0","",""
"","feedback","","html-keyboard-response","420","433250","0.0-1.0-582.0-0.0","0","0","41416","","null","","","null","64","","","","","","","","","","","","","","","",""
"","time_out","","html-keyboard-response","421","435254","0.0-1.0-584.0-0.0","0","0","41416","","null","","","null","64","","","","","","","","","","","","","","","",""
"","ITI","","html-keyboard-response","422","436258","0.0-1.0-585.0","0","0","41416","","null","","","null","64","","","","","","","","","","","","","","","NaN",""
"","S1","","html-keyboard-response","423","436512","0.0-1.0-587.0","0","0","41416","","null","","","null","65","","","","","","","","","","","","","","","",""
"","ISI","","html-keyboard-response","424","438516","0.0-1.0-588.0","0","0","41416","","null","","","null","65","NaN","","","","","","","","","","","","","","",""
"","S2","","html-keyboard-response","425","438771","0.0-1.0-589.0","0","0","41416","","null","","","null","65","","NaN","","","","","","","","","","","","","",""
"","response","","html-keyboard-response","426","439430","0.0-1.0-590.0","0","0","41416","","654","","","68","65","","","2","65","training","adjacent","CD","3","4","P.jpg","Q.jpg","1","1","1","",""
"","feedback","","html-keyboard-response","427","440435","0.0-1.0-591.0-0.0","0","0","41416","","null","","","null","65","","","","","","","","","","","","","","","",""
"","ITI","","html-keyboard-response","428","441440","0.0-1.0-594.0","0","0","41416","","null","","","null","65","","","","","","","","","","","","","","","NaN",""
"","S1","","html-keyboard-response","429","441696","0.0-1.0-596.0","0","0","41416","","null","","","null","66","","","","","","","","","","","","","","","",""
"","ISI","","html-keyboard-response","430","443700","0.0-1.0-597.0","0","0","41416","","null","","","null","66","NaN","","","","","","","","","","","","","","",""
"","S2","","html-keyboard-response","431","443956","0.0-1.0-598.0","0","0","41416","","null","","","null","66","","NaN","","","","","","","","","","","","","",""
"","response","","html-keyboard-response","432","445132","0.0-1.0-599.0","0","0","41416","","1172","","","75","66","","","2","66","training","adjacent","CB","3","2","P.jpg","O.jpg","0","0","1","",""
"","feedback","","html-keyboard-response","433","446138","0.0-1.0-600.0-0.0","0","0","41416","","null","","","null","66","","","","","","","","","","","","","","","",""
"","ITI","","html-keyboard-response","434","447143","0.0-1.0-603.0","0","0","41416","","null","","","null","66","","","","","","","","","","","","","","","NaN",""
"","S1","","html-keyboard-response","435","447398","0.0-1.0-605.0","0","0","41416","","null","","","null","67","","","","","","","","","","","","","","","",""
"","ISI","","html-keyboard-response","436","449403","0.0-1.0-606.0","0","0","41416","","null","","","null","67","NaN","","","","","","","","","","","","","","",""
"","S2","","html-keyboard-response","437","449657","0.0-1.0-607.0","0","0","41416","","null","","","null","67","","NaN","","","","","","","","","","","","","",""
"","response","","html-keyboard-response","438","450197","0.0-1.0-608.0","0","0","41416","","537","","","75","67","","","2","67","training","adjacent","DE","4","5","Q.jpg","R.jpg","0","1","0","",""
"","feedback","","html-keyboard-response","439","451202","0.0-1.0-609.0-0.0","0","0","41416","","null","","","null","67","","","","","","","","","","","","","","","",""
"","time_out","","html-keyboard-response","440","453206","0.0-1.0-611.0-0.0","0","0","41416","","null","","","null","67","","","","","","","","","","","","","","","",""
"","ITI","","html-keyboard-response","441","454210","0.0-1.0-612.0","0","0","41416","","null","","","null","67","","","","","","","","","","","","","","","NaN",""
"","S1","","html-keyboard-response","442","454465","0.0-1.0-614.0","0","0","41416","","null","","","null","68","","","","","","","","","","","","","","","",""
"","ISI","","html-keyboard-response","443","456470","0.0-1.0-615.0","0","0","41416","","null","","","null","68","NaN","","","","","","","","","","","","","","",""
"","S2","","html-keyboard-response","444","456726","0.0-1.0-616.0","0","0","41416","","null","","","null","68","","NaN","","","","","","","","","","","","","",""
"","response","","html-keyboard-response","445","457225","0.0-1.0-617.0","0","0","41416","","494","","","68","68","","","2","68","training","adjacent","CB","3","2","P.jpg","O.jpg","1","0","0","",""
"","feedback","","html-keyboard-response","446","458230","0.0-1.0-618.0-0.0","0","0","41416","","null","","","null","68","","","","","","","","","","","","","","","",""
"","time_out","","html-keyboard-response","447","460235","0.0-1.0-620.0-0.0","0","0","41416","","null","","","null","68","","","","","","","","","","","","","","","",""
"","ITI","","html-keyboard-response","448","461240","0.0-1.0-621.0","0","0","41416","","null","","","null","68","","","","","","","","","","","","","","","NaN",""
"","S1","","html-keyboard-response","449","461496","0.0-1.0-623.0","0","0","41416","","null","","","null","69","","","","","","","","","","","","","","","",""
"","ISI","","html-keyboard-response","450","463498","0.0-1.0-624.0","0","0","41416","","null","","","null","69","NaN","","","","","","","","","","","","","","",""
"","S2","","html-keyboard-response","451","463753","0.0-1.0-625.0","0","0","41416","","null","","","null","69","","NaN","","","","","","","","","","","","","",""
"","response","","html-keyboard-response","452","464122","0.0-1.0-626.0","0","0","41416","","362","","","75","69","","","2","69","training","adjacent","EF","5","6","R.jpg","L.jpg","0","1","0","",""
"","feedback","","html-keyboard-response","453","465128","0.0-1.0-627.0-0.0","0","0","41416","","null","","","null","69","","","","","","","","","","","","","","","",""
"","time_out","","html-keyboard-response","454","467134","0.0-1.0-629.0-0.0","0","0","41416","","null","","","null","69","","","","","","","","","","","","","","","",""
"","ITI","","html-keyboard-response","455","468139","0.0-1.0-630.0","0","0","41416","","null","","","null","69","","","","","","","","","","","","","","","NaN",""
"","S1","","html-keyboard-response","456","468393","0.0-1.0-632.0","0","0","41416","","null","","","null","70","","","","","","","","","","","","","","","",""
"","ISI","","html-keyboard-response","457","470398","0.0-1.0-633.0","0","0","41416","","null","","","null","70","NaN","","","","","","","","","","","","","","",""
"","S2","","html-keyboard-response","458","470654","0.0-1.0-634.0","0","0","41416","","null","","","null","70","","NaN","","","","","","","","","","","","","",""
"","response","","html-keyboard-response","459","471113","0.0-1.0-635.0","0","0","41416","","455","","","68","70","","","2","70","training","adjacent","BC","2","3","O.jpg","P.jpg","1","1","1","",""
"","feedback","","html-keyboard-response","460","472119","0.0-1.0-636.0-0.0","0","0","41416","","null","","","null","70","","","","","","","","","","","","","","","",""
"","ITI","","html-keyboard-response","461","473124","0.0-1.0-639.0","0","0","41416","","null","","","null","70","","","","","","","","","","","","","","","NaN",""
"","S1","","html-keyboard-response","462","473379","0.0-1.0-641.0","0","0","41416","","null","","","null","71","","","","","","","","","","","","","","","",""
"","ISI","","html-keyboard-response","463","475384","0.0-1.0-642.0","0","0","41416","","null","","","null","71","NaN","","","","","","","","","","","","","","",""
"","S2","","html-keyboard-response","464","475639","0.0-1.0-643.0","0","0","41416","","null","","","null","71","","NaN","","","","","","","","","","","","","",""
"","response","","html-keyboard-response","465","476107","0.0-1.0-644.0","0","0","41416","","464","","","68","71","","","2","71","training","adjacent","BC","2","3","O.jpg","P.jpg","1","1","1","",""
"","feedback","","html-keyboard-response","466","477112","0.0-1.0-645.0-0.0","0","0","41416","","null","","","null","71","","","","","","","","","","","","","","","",""
"","ITI","","html-keyboard-response","467","478118","0.0-1.0-648.0","0","0","41416","","null","","","null","71","","","","","","","","","","","","","","","NaN",""
"","S1","","html-keyboard-response","468","478373","0.0-1.0-650.0","0","0","41416","","null","","","null","72","","","","","","","","","","","","","","","",""
"","ISI","","html-keyboard-response","469","480378","0.0-1.0-651.0","0","0","41416","","null","","","null","72","NaN","","","","","","","","","","","","","","",""
"","S2","","html-keyboard-response","470","480633","0.0-1.0-652.0","0","0","41416","","null","","","null","72","","NaN","","","","","","","","","","","","","",""
"","response","","html-keyboard-response","471","481215","0.0-1.0-653.0","0","0","41416","","577","","","75","72","","","2","72","training","adjacent","EF","5","6","R.jpg","L.jpg","0","1","0","",""
"","feedback","","html-keyboard-response","472","482220","0.0-1.0-654.0-0.0","0","0","41416","","null","","","null","72","","","","","","","","","","","","","","","",""
"","time_out","","html-keyboard-response","473","484225","0.0-1.0-656.0-0.0","0","0","41416","","null","","","null","72","","","","","","","","","","","","","","","",""
"","ITI","","html-keyboard-response","474","485230","0.0-1.0-657.0","0","0","41416","","null","","","null","72","","","","","","","","","","","","","","","NaN",""
"","S1","","html-keyboard-response","475","485486","0.0-1.0-659.0","0","0","41416","","null","","","null","73","","","","","","","","","","","","","","","",""
"","ISI","","html-keyboard-response","476","487491","0.0-1.0-660.0","0","0","41416","","null","","","null","73","NaN","","","","","","","","","","","","","","",""
"","S2","","html-keyboard-response","477","487747","0.0-1.0-661.0","0","0","41416","","null","","","null","73","","NaN","","","","","","","","","","","","","",""
"","response","","html-keyboard-response","478","488139","0.0-1.0-662.0","0","0","41416","","388","","","75","73","","","2","73","training","adjacent","DC","4","3","Q.jpg","P.jpg","0","0","1","",""
"","feedback","","html-keyboard-response","479","489145","0.0-1.0-663.0-0.0","0","0","41416","","null","","","null","73","","","","","","","","","","","","","","","",""
"","ITI","","html-keyboard-response","480","490151","0.0-1.0-666.0","0","0","41416","","null","","","null","73","","","","","","","","","","","","","","","NaN",""
"","S1","","html-keyboard-response","481","490406","0.0-1.0-668.0","0","0","41416","","null","","","null","74","","","","","","","","","","","","","","","",""
"","ISI","","html-keyboard-response","482","492411","0.0-1.0-669.0","0","0","41416","","null","","","null","74","NaN","","","","","","","","","","","","","","",""
"","S2","","html-keyboard-response","483","492666","0.0-1.0-670.0","0","0","41416","","null","","","null","74","","NaN","","","","","","","","","","","","","",""
"","response","","html-keyboard-response","484","493122","0.0-1.0-671.0","0","0","41416","","451","","","68","74","","","2","74","training","adjacent","FE","6","5","L.jpg","R.jpg","1","0","0","",""
"","feedback","","html-keyboard-response","485","494129","0.0-1.0-672.0-0.0","0","0","41416","","null","","","null","74","","","","","","","","","","","","","","","",""
"","time_out","","html-keyboard-response","486","496134","0.0-1.0-674.0-0.0","0","0","41416","","null","","","null","74","","","","","","","","","","","","","","","",""
"","ITI","","html-keyboard-response","487","497137","0.0-1.0-675.0","0","0","41416","","null","","","null","74","","","","","","","","","","","","","","","NaN",""
"","S1","","html-keyboard-response","488","497391","0.0-1.0-677.0","0","0","41416","","null","","","null","75","","","","","","","","","","","","","","","",""
"","ISI","","html-keyboard-response","489","499395","0.0-1.0-678.0","0","0","41416","","null","","","null","75","NaN","","","","","","","","","","","","","","",""
"","S2","","html-keyboard-response","490","499650","0.0-1.0-679.0","0","0","41416","","null","","","null","75","","NaN","","","","","","","","","","","","","",""
"","response","","html-keyboard-response","491","500134","0.0-1.0-680.0","0","0","41416","","482","","","68","75","","","2","75","training","adjacent","ED","5","4","R.jpg","Q.jpg","1","0","0","",""
"","feedback","","html-keyboard-response","492","501139","0.0-1.0-681.0-0.0","0","0","41416","","null","","","null","75","","","","","","","","","","","","","","","",""
"","time_out","","html-keyboard-response","493","503145","0.0-1.0-683.0-0.0","0","0","41416","","null","","","null","75","","","","","","","","","","","","","","","",""
"","ITI","","html-keyboard-response","494","504148","0.0-1.0-684.0","0","0","41416","","null","","","null","75","","","","","","","","","","","","","","","NaN",""
"","S1","","html-keyboard-response","495","504401","0.0-1.0-686.0","0","0","41416","","null","","","null","76","","","","","","","","","","","","","","","",""
"","ISI","","html-keyboard-response","496","506406","0.0-1.0-687.0","0","0","41416","","null","","","null","76","NaN","","","","","","","","","","","","","","",""
"","S2","","html-keyboard-response","497","506661","0.0-1.0-688.0","0","0","41416","","null","","","null","76","","NaN","","","","","","","","","","","","","",""
"","response","","html-keyboard-response","498","507226","0.0-1.0-689.0","0","0","41416","","561","","","68","76","","","2","76","training","adjacent","FG","6","7","L.jpg","M.jpg","1","1","1","",""
"","feedback","","html-keyboard-response","499","508230","0.0-1.0-690.0-0.0","0","0","41416","","null","","","null","76","","","","","","","","","","","","","","","",""
"","ITI","","html-keyboard-response","500","509235","0.0-1.0-693.0","0","0","41416","","null","","","null","76","","","","","","","","","","","","","","","NaN",""
"","S1","","html-keyboard-response","501","509491","0.0-1.0-695.0","0","0","41416","","null","","","null","77","","","","","","","","","","","","","","","",""
"","ISI","","html-keyboard-response","502","511496","0.0-1.0-696.0","0","0","41416","","null","","","null","77","NaN","","","","","","","","","","","","","","",""
"","S2","","html-keyboard-response","503","511752","0.0-1.0-697.0","0","0","41416","","null","","","null","77","","NaN","","","","","","","","","","","","","",""
"","response","","html-keyboard-response","504","512569","0.0-1.0-698.0","0","0","41416","","814","","","68","77","","","2","77","training","adjacent","BA","2","1","O.jpg","N.jpg","1","0","0","",""
"","feedback","","html-keyboard-response","505","513574","0.0-1.0-699.0-0.0","0","0","41416","","null","","","null","77","","","","","","","","","","","","","","","",""
"","time_out","","html-keyboard-response","506","515580","0.0-1.0-701.0-0.0","0","0","41416","","null","","","null","77","","","","","","","","","","","","","","","",""
"","ITI","","html-keyboard-response","507","516585","0.0-1.0-702.0","0","0","41416","","null","","","null","77","","","","","","","","","","","","","","","NaN",""
"","S1","","html-keyboard-response","508","516841","0.0-1.0-704.0","0","0","41416","","null","","","null","78","","","","","","","","","","","","","","","",""
"","ISI","","html-keyboard-response","509","518845","0.0-1.0-705.0","0","0","41416","","null","","","null","78","NaN","","","","","","","","","","","","","","",""
"","S2","","html-keyboard-response","510","519100","0.0-1.0-706.0","0","0","41416","","null","","","null","78","","NaN","","","","","","","","","","","","","",""
"","response","","html-keyboard-response","511","519388","0.0-1.0-707.0","0","0","41416","","282","","","75","78","","","2","78","training","adjacent","FE","6","5","L.jpg","R.jpg","0","0","1","",""
"","feedback","","html-keyboard-response","512","520393","0.0-1.0-708.0-0.0","0","0","41416","","null","","","null","78","","","","","","","","","","","","","","","",""
"","ITI","","html-keyboard-response","513","521397","0.0-1.0-711.0","0","0","41416","","null","","","null","78","","","","","","","","","","","","","","","NaN",""
"","S1","","html-keyboard-response","514","521651","0.0-1.0-713.0","0","0","41416","","null","","","null","79","","","","","","","","","","","","","","","",""
"","ISI","","html-keyboard-response","515","523656","0.0-1.0-714.0","0","0","41416","","null","","","null","79","NaN","","","","","","","","","","","","","","",""
"","S2","","html-keyboard-response","516","523911","0.0-1.0-715.0","0","0","41416","","null","","","null","79","","NaN","","","","","","","","","","","","","",""
"","response","","html-keyboard-response","517","524750","0.0-1.0-716.0","0","0","41416","","835","","","68","79","","","2","79","training","adjacent","DE","4","5","Q.jpg","R.jpg","1","1","1","",""
"","feedback","","html-keyboard-response","518","525756","0.0-1.0-717.0-0.0","0","0","41416","","null","","","null","79","","","","","","","","","","","","","","","",""
"","ITI","","html-keyboard-response","519","526760","0.0-1.0-720.0","0","0","41416","","null","","","null","79","","","","","","","","","","","","","","","NaN",""
"","S1","","html-keyboard-response","520","527016","0.0-1.0-722.0","0","0","41416","","null","","","null","80","","","","","","","","","","","","","","","",""
"","ISI","","html-keyboard-response","521","529021","0.0-1.0-723.0","0","0","41416","","null","","","null","80","NaN","","","","","","","","","","","","","","",""
"","S2","","html-keyboard-response","522","529277","0.0-1.0-724.0","0","0","41416","","null","","","null","80","","NaN","","","","","","","","","","","","","",""
"","response","","html-keyboard-response","523","529780","0.0-1.0-725.0","0","0","41416","","497","","","68","80","","","2","80","training","adjacent","CB","3","2","P.jpg","O.jpg","1","0","0","",""
"","feedback","","html-keyboard-response","524","530785","0.0-1.0-726.0-0.0","0","0","41416","","null","","","null","80","","","","","","","","","","","","","","","",""
"","time_out","","html-keyboard-response","525","532790","0.0-1.0-728.0-0.0","0","0","41416","","null","","","null","80","","","","","","","","","","","","","","","",""
"","ITI","","html-keyboard-response","526","533795","0.0-1.0-729.0","0","0","41416","","null","","","null","80","","","","","","","","","","","","","","","NaN",""
"","S1","","html-keyboard-response","527","534051","0.0-1.0-731.0","0","0","41416","","null","","","null","81","","","","","","","","","","","","","","","",""
"","ISI","","html-keyboard-response","528","536056","0.0-1.0-732.0","0","0","41416","","null","","","null","81","NaN","","","","","","","","","","","","","","",""
"","S2","","html-keyboard-response","529","536311","0.0-1.0-733.0","0","0","41416","","null","","","null","81","","NaN","","","","","","","","","","","","","",""
"","response","","html-keyboard-response","530","536868","0.0-1.0-734.0","0","0","41416","","553","","","75","81","","","2","81","training","adjacent","BC","2","3","O.jpg","P.jpg","0","1","0","",""
"","feedback","","html-keyboard-response","531","537873","0.0-1.0-735.0-0.0","0","0","41416","","null","","","null","81","","","","","","","","","","","","","","","",""
"","time_out","","html-keyboard-response","532","539879","0.0-1.0-737.0-0.0","0","0","41416","","null","","","null","81","","","","","","","","","","","","","","","",""
"","ITI","","html-keyboard-response","533","540883","0.0-1.0-738.0","0","0","41416","","null","","","null","81","","","","","","","","","","","","","","","NaN",""
"","S1","","html-keyboard-response","534","541137","0.0-1.0-740.0","0","0","41416","","null","","","null","82","","","","","","","","","","","","","","","",""
"","ISI","","html-keyboard-response","535","543143","0.0-1.0-741.0","0","0","41416","","null","","","null","82","NaN","","","","","","","","","","","","","","",""
"","S2","","html-keyboard-response","536","543397","0.0-1.0-742.0","0","0","41416","","null","","","null","82","","NaN","","","","","","","","","","","","","",""
"","response","","html-keyboard-response","537","543973","0.0-1.0-743.0","0","0","41416","","572","","","68","82","","","2","82","training","adjacent","FG","6","7","L.jpg","M.jpg","1","1","1","",""
"","feedback","","html-keyboard-response","538","544980","0.0-1.0-744.0-0.0","0","0","41416","","null","","","null","82","","","","","","","","","","","","","","","",""
"","ITI","","html-keyboard-response","539","545985","0.0-1.0-747.0","0","0","41416","","null","","","null","82","","","","","","","","","","","","","","","NaN",""
"","S1","","html-keyboard-response","540","546241","0.0-1.0-749.0","0","0","41416","","null","","","null","83","","","","","","","","","","","","","","","",""
"","ISI","","html-keyboard-response","541","548246","0.0-1.0-750.0","0","0","41416","","null","","","null","83","NaN","","","","","","","","","","","","","","",""
"","S2","","html-keyboard-response","542","548499","0.0-1.0-751.0","0","0","41416","","null","","","null","83","","NaN","","","","","","","","","","","","","",""
"","response","","html-keyboard-response","543","548979","0.0-1.0-752.0","0","0","41416","","478","","","75","83","","","2","83","training","adjacent","BA","2","1","O.jpg","N.jpg","0","0","1","",""
"","feedback","","html-keyboard-response","544","549983","0.0-1.0-753.0-0.0","0","0","41416","","null","","","null","83","","","","","","","","","","","","","","","",""
"","ITI","","html-keyboard-response","545","550991","0.0-1.0-756.0","0","0","41416","","null","","","null","83","","","","","","","","","","","","","","","NaN",""
"","S1","","html-keyboard-response","546","551247","0.0-1.0-758.0","0","0","41416","","null","","","null","84","","","","","","","","","","","","","","","",""
"","ISI","","html-keyboard-response","547","553252","0.0-1.0-759.0","0","0","41416","","null","","","null","84","NaN","","","","","","","","","","","","","","",""
"","S2","","html-keyboard-response","548","553506","0.0-1.0-760.0","0","0","41416","","null","","","null","84","","NaN","","","","","","","","","","","","","",""
"","response","","html-keyboard-response","549","554394","0.0-1.0-761.0","0","0","41416","","883","","","75","84","","","2","84","training","adjacent","DC","4","3","Q.jpg","P.jpg","0","0","1","",""
"","feedback","","html-keyboard-response","550","555399","0.0-1.0-762.0-0.0","0","0","41416","","null","","","null","84","","","","","","","","","","","","","","","",""
"","ITI","","html-keyboard-response","551","556402","0.0-1.0-765.0","0","0","41416","","null","","","null","84","","","","","","","","","","","","","","","NaN",""
"","S1","","html-keyboard-response","552","556658","0.0-1.0-767.0","0","0","41416","","null","","","null","85","","","","","","","","","","","","","","","",""
"","ISI","","html-keyboard-response","553","558663","0.0-1.0-768.0","0","0","41416","","null","","","null","85","NaN","","","","","","","","","","","","","","",""
"","S2","","html-keyboard-response","554","558919","0.0-1.0-769.0","0","0","41416","","null","","","null","85","","NaN","","","","","","","","","","","","","",""
"","response","","html-keyboard-response","555","559738","0.0-1.0-770.0","0","0","41416","","815","","","68","85","","","2","85","training","adjacent","ED","5","4","R.jpg","Q.jpg","1","0","0","",""
"","feedback","","html-keyboard-response","556","560743","0.0-1.0-771.0-0.0","0","0","41416","","null","","","null","85","","","","","","","","","","","","","","","",""
"","time_out","","html-keyboard-response","557","562750","0.0-1.0-773.0-0.0","0","0","41416","","null","","","null","85","","","","","","","","","","","","","","","",""
"","ITI","","html-keyboard-response","558","563755","0.0-1.0-774.0","0","0","41416","","null","","","null","85","","","","","","","","","","","","","","","NaN",""
"","S1","","html-keyboard-response","559","564011","0.0-1.0-776.0","0","0","41416","","null","","","null","86","","","","","","","","","","","","","","","",""
"","ISI","","html-keyboard-response","560","566015","0.0-1.0-777.0","0","0","41416","","null","","","null","86","NaN","","","","","","","","","","","","","","",""
"","S2","","html-keyboard-response","561","566270","0.0-1.0-778.0","0","0","41416","","null","","","null","86","","NaN","","","","","","","","","","","","","",""
"","response","","html-keyboard-response","562","566676","0.0-1.0-779.0","0","0","41416","","401","","","75","86","","","2","86","training","adjacent","EF","5","6","R.jpg","L.jpg","0","1","0","",""
"","feedback","","html-keyboard-response","563","567682","0.0-1.0-780.0-0.0","0","0","41416","","null","","","null","86","","","","","","","","","","","","","","","",""
"","time_out","","html-keyboard-response","564","569688","0.0-1.0-782.0-0.0","0","0","41416","","null","","","null","86","","","","","","","","","","","","","","","",""
"","ITI","","html-keyboard-response","565","570693","0.0-1.0-783.0","0","0","41416","","null","","","null","86","","","","","","","","","","","","","","","NaN",""
"","S1","","html-keyboard-response","566","570949","0.0-1.0-785.0","0","0","41416","","null","","","null","87","","","","","","","","","","","","","","","",""
"","ISI","","html-keyboard-response","567","572952","0.0-1.0-786.0","0","0","41416","","null","","","null","87","NaN","","","","","","","","","","","","","","",""
"","S2","","html-keyboard-response","568","573206","0.0-1.0-787.0","0","0","41416","","null","","","null","87","","NaN","","","","","","","","","","","","","",""
"","response","","html-keyboard-response","569","573561","0.0-1.0-788.0","0","0","41416","","351","","","75","87","","","2","87","training","adjacent","BA","2","1","O.jpg","N.jpg","0","0","1","",""
"","feedback","","html-keyboard-response","570","574566","0.0-1.0-789.0-0.0","0","0","41416","","null","","","null","87","","","","","","","","","","","","","","","",""
"","ITI","","html-keyboard-response","571","575572","0.0-1.0-792.0","0","0","41416","","null","","","null","87","","","","","","","","","","","","","","","NaN",""
"","S1","","html-keyboard-response","572","575827","0.0-1.0-794.0","0","0","41416","","null","","","null","88","","","","","","","","","","","","","","","",""
"","ISI","","html-keyboard-response","573","577831","0.0-1.0-795.0","0","0","41416","","null","","","null","88","NaN","","","","","","","","","","","","","","",""
"","S2","","html-keyboard-response","574","578087","0.0-1.0-796.0","0","0","41416","","null","","","null","88","","NaN","","","","","","","","","","","","","",""
"","response","","html-keyboard-response","575","578397","0.0-1.0-797.0","0","0","41416","","304","","","68","88","","","2","88","training","adjacent","AB","1","2","N.jpg","O.jpg","1","1","1","",""
"","feedback","","html-keyboard-response","576","579404","0.0-1.0-798.0-0.0","0","0","41416","","null","","","null","88","","","","","","","","","","","","","","","",""
"","ITI","","html-keyboard-response","577","580411","0.0-1.0-801.0","0","0","41416","","null","","","null","88","","","","","","","","","","","","","","","NaN",""
"","S1","","html-keyboard-response","578","580666","0.0-1.0-803.0","0","0","41416","","null","","","null","89","","","","","","","","","","","","","","","",""
"","ISI","","html-keyboard-response","579","582671","0.0-1.0-804.0","0","0","41416","","null","","","null","89","NaN","","","","","","","","","","","","","","",""
"","S2","","html-keyboard-response","580","582927","0.0-1.0-805.0","0","0","41416","","null","","","null","89","","NaN","","","","","","","","","","","","","",""
"","response","","html-keyboard-response","581","583517","0.0-1.0-806.0","0","0","41416","","587","","","68","89","","","2","89","training","adjacent","ED","5","4","R.jpg","Q.jpg","1","0","0","",""
"","feedback","","html-keyboard-response","582","584522","0.0-1.0-807.0-0.0","0","0","41416","","null","","","null","89","","","","","","","","","","","","","","","",""
"","time_out","","html-keyboard-response","583","586527","0.0-1.0-809.0-0.0","0","0","41416","","null","","","null","89","","","","","","","","","","","","","","","",""
"","ITI","","html-keyboard-response","584","587532","0.0-1.0-810.0","0","0","41416","","null","","","null","89","","","","","","","","","","","","","","","NaN",""
"","S1","","html-keyboard-response","585","587788","0.0-1.0-812.0","0","0","41416","","null","","","null","90","","","","","","","","","","","","","","","",""
