"success","ttype","start_time","trial_type","trial_index","time_elapsed","internal_node_id","warning","missed_checkup","PID","view_history","rt","responses","repeat_instructions","key_press","index","keypress_isi","keypress_S2","block","trial_num","phase","group_type","pair_type","S1_stim","S2_stim","S1_img","S2_img","S1_chosen","S1_higher","accuracy","keypress_iti","total_bonus_tally"
"true","full_screen","d04162023hr0532","fullscreen","0","14107","0.0-0.0","0","0","66805","","","","","","","","","","","","","","","","","","","","","",""
"","instructions","","instructions","1","34502","0.0-1.0-0.0-0.0","0","0","66805","[{""page_index"":0,""viewing_time"":4093},{""page_index"":1,""viewing_time"":13603},{""page_index"":2,""viewing_time"":1632},{""page_index"":3,""viewing_time"":1063}]","20391","","","","","","","","","","","","","","","","","","","",""
"","comprehension_check","","survey-multi-choice","2","51790","0.0-1.0-0.0-1.0","0","0","66805","","17280","{""Q0"":""True"",""Q1"":""K"",""Q2"":""Once the second image appears and while the screen 'MAKE A CHOICE' is shown"",""Q3"":""Green mark"",""Q4"":""either D or K""}","0","","","","","","","","","","","","","","","","","",""
"","start_exp","","html-keyboard-response","3","52905","0.0-1.0-1.0","0","0","66805","","1112","","","32","","","","","","","","","","","","","","","","",""
"","S1","","html-keyboard-response","4","53161","0.0-1.0-2.0","0","0","66805","","null","","","null","0","","","","","","","","","","","","","","","",""
"","ISI","","html-keyboard-response","5","54167","0.0-1.0-3.0","0","0","66805","","null","","","null","0","NaN","","","","","","","","","","","","","","",""
"","S2","","html-keyboard-response","6","54422","0.0-1.0-4.0","0","0","66805","","null","","","null","0","","NaN","","","","","","","","","","","","","",""
"","response","","html-keyboard-response","7","55647","0.0-1.0-5.0-0.0","0","0","66805","","1220","","","68","0","","","1","0","training","adjacent","DC","4","3","Q.jpg","P.jpg","0","0","1","",""
"","feedback","","html-keyboard-response","8","56655","0.0-1.0-6.0-0.0","0","0","66805","","null","","","null","0","","","","","","","","","","","","","","","",""
"","ITI","","html-keyboard-response","9","57673","0.0-1.0-9.0","0","0","66805","","null","","","null","0","","","","","","","","","","","","","","","NaN",""
"","S1","","html-keyboard-response","10","57928","0.0-1.0-11.0","0","0","66805","","null","","","null","1","","","","","","","","","","","","","","","",""
"","ISI","","html-keyboard-response","11","58934","0.0-1.0-12.0","0","0","66805","","null","","","null","1","NaN","","","","","","","","","","","","","","",""
"","S2","","html-keyboard-response","12","59190","0.0-1.0-13.0","0","0","66805","","null","","","null","1","","NaN","","","","","","","","","","","","","",""
"","response","","html-keyboard-response","13","60945","0.0-1.0-14.0-0.0","0","0","66805","","null","","","null","1","","","1","1","training","adjacent","GF","7","6","L.jpg","N.jpg","NaN","0","0","",""
"","too_slow_prompt","","html-keyboard-response","14","61951","0.0-1.0-16.0-0.0","1","0","66805","","null","","","null","","","","","","","","","","","","","","","","",""
"","time_out","","html-keyboard-response","15","63956","0.0-1.0-17.0-0.0","0","0","66805","","null","","","null","1","","","","","","","","","","","","","","","",""
"","ITI","","html-keyboard-response","16","64959","0.0-1.0-18.0","0","0","66805","","null","","","null","1","","","","","","","","","","","","","","","NaN",""
"","S1","","html-keyboard-response","17","65214","0.0-1.0-20.0","0","0","66805","","null","","","null","2","","","","","","","","","","","","","","","",""
"","ISI","","html-keyboard-response","18","66219","0.0-1.0-21.0","0","0","66805","","null","","","null","2","NaN","","","","","","","","","","","","","","",""
"","S2","","html-keyboard-response","19","66475","0.0-1.0-22.0","0","0","66805","","null","","","null","2","","NaN","","","","","","","","","","","","","",""
"","response","","html-keyboard-response","20","67635","0.0-1.0-23.0-0.0","0","0","66805","","1157","","","68","2","","","1","2","training","adjacent","FG","6","7","N.jpg","L.jpg","0","1","0","",""
"","feedback","","html-keyboard-response","21","68640","0.0-1.0-24.0-0.0","0","0","66805","","null","","","null","2","","","","","","","","","","","","","","","",""
"","time_out","","html-keyboard-response","22","70645","0.0-1.0-26.0-0.0","0","0","66805","","null","","","null","2","","","","","","","","","","","","","","","",""
"","ITI","","html-keyboard-response","23","71649","0.0-1.0-27.0","0","0","66805","","null","","","null","2","","","","","","","","","","","","","","","NaN",""
"","S1","","html-keyboard-response","24","71903","0.0-1.0-29.0","0","0","66805","","null","","","null","3","","","","","","","","","","","","","","","",""
"","ISI","","html-keyboard-response","25","72906","0.0-1.0-30.0","0","0","66805","","null","","","null","3","NaN","","","","","","","","","","","","","","",""
"","S2","","html-keyboard-response","26","73163","0.0-1.0-31.0","0","0","66805","","null","","","null","3","","NaN","","","","","","","","","","","","","",""
"","response","","html-keyboard-response","27","73654","0.0-1.0-32.0-0.0","0","0","66805","","487","","","75","3","","","1","3","training","adjacent","CB","3","2","P.jpg","M.jpg","1","0","0","",""
"","feedback","","html-keyboard-response","28","74669","0.0-1.0-33.0-0.0","0","0","66805","","null","","","null","3","","","","","","","","","","","","","","","",""
"","time_out","","html-keyboard-response","29","76675","0.0-1.0-35.0-0.0","0","0","66805","","null","","","null","3","","","","","","","","","","","","","","","",""
"","ITI","","html-keyboard-response","30","77679","0.0-1.0-36.0","0","0","66805","","null","","","null","3","","","","","","","","","","","","","","","NaN",""
"","S1","","html-keyboard-response","31","77934","0.0-1.0-38.0","0","0","66805","","null","","","null","4","","","","","","","","","","","","","","","",""
"","ISI","","html-keyboard-response","32","78940","0.0-1.0-39.0","0","0","66805","","null","","","null","4","NaN","","","","","","","","","","","","","","",""
"","S2","","html-keyboard-response","33","79197","0.0-1.0-40.0","0","0","66805","","null","","","null","4","","NaN","","","","","","","","","","","","","",""
"","response","","html-keyboard-response","34","79656","0.0-1.0-41.0-0.0","0","0","66805","","457","","","68","4","","","1","4","training","adjacent","ED","5","4","R.jpg","Q.jpg","0","0","1","",""
"","feedback","","html-keyboard-response","35","80662","0.0-1.0-42.0-0.0","0","0","66805","","null","","","null","4","","","","","","","","","","","","","","","",""
"","ITI","","html-keyboard-response","36","81668","0.0-1.0-45.0","0","0","66805","","null","","","null","4","","","","","","","","","","","","","","","NaN",""
"","S1","","html-keyboard-response","37","81924","0.0-1.0-47.0","0","0","66805","","null","","","null","5","","","","","","","","","","","","","","","",""
"","ISI","","html-keyboard-response","38","82939","0.0-1.0-48.0","0","0","66805","","null","","","null","5","NaN","","","","","","","","","","","","","","",""
"","S2","","html-keyboard-response","39","83193","0.0-1.0-49.0","0","0","66805","","null","","","null","5","","NaN","","","","","","","","","","","","","",""
"","response","","html-keyboard-response","40","83795","0.0-1.0-50.0-0.0","0","0","66805","","598","","","75","5","","","1","5","training","adjacent","ED","5","4","R.jpg","Q.jpg","1","0","0","",""
"","feedback","","html-keyboard-response","41","84800","0.0-1.0-51.0-0.0","0","0","66805","","null","","","null","5","","","","","","","","","","","","","","","",""
"","time_out","","html-keyboard-response","42","86805","0.0-1.0-53.0-0.0","0","0","66805","","null","","","null","5","","","","","","","","","","","","","","","",""
"","ITI","","html-keyboard-response","43","87810","0.0-1.0-54.0","0","0","66805","","null","","","null","5","","","","","","","","","","","","","","","NaN",""
"","S1","","html-keyboard-response","44","88067","0.0-1.0-56.0","0","0","66805","","null","","","null","6","","","","","","","","","","","","","","","",""
"","ISI","","html-keyboard-response","45","89072","0.0-1.0-57.0","0","0","66805","","45","","","68","6","d","","","","","","","","","","","","","","",""
"","S2","","html-keyboard-response","46","89330","0.0-1.0-58.0","0","0","66805","","null","","","null","6","","NaN","","","","","","","","","","","","","",""
"","response","","html-keyboard-response","47","89473","0.0-1.0-59.0-0.0","0","0","66805","","138","","","68","6","","","1","6","training","adjacent","FE","6","5","N.jpg","R.jpg","0","0","1","",""
"","feedback","","html-keyboard-response","48","90479","0.0-1.0-60.0-0.0","0","0","66805","","null","","","null","6","","","","","","","","","","","","","","","",""
"","ITI","","html-keyboard-response","49","91487","0.0-1.0-63.0","0","0","66805","","null","","","null","6","","","","","","","","","","","","","","","NaN",""
"","S1","","html-keyboard-response","50","91744","0.0-1.0-65.0","0","0","66805","","null","","","null","7","","","","","","","","","","","","","","","",""
"","ISI","","html-keyboard-response","51","92750","0.0-1.0-66.0","0","0","66805","","null","","","null","7","NaN","","","","","","","","","","","","","","",""
"","S2","","html-keyboard-response","52","93005","0.0-1.0-67.0","0","0","66805","","null","","","null","7","","NaN","","","","","","","","","","","","","",""
"","response","","html-keyboard-response","53","93042","0.0-1.0-68.0-0.0","0","0","66805","","34","","","68","7","","","1","7","training","adjacent","FG","6","7","N.jpg","L.jpg","0","1","0","",""
"","feedback","","html-keyboard-response","54","94049","0.0-1.0-69.0-0.0","0","0","66805","","null","","","null","7","","","","","","","","","","","","","","","",""
"","time_out","","html-keyboard-response","55","96054","0.0-1.0-71.0-0.0","0","0","66805","","null","","","null","7","","","","","","","","","","","","","","","",""
"","ITI","","html-keyboard-response","56","97061","0.0-1.0-72.0","0","0","66805","","null","","","null","7","","","","","","","","","","","","","","","NaN",""
"","S1","","html-keyboard-response","57","97318","0.0-1.0-74.0","0","0","66805","","null","","","null","8","","","","","","","","","","","","","","","",""
"","ISI","","html-keyboard-response","58","98323","0.0-1.0-75.0","0","0","66805","","219","","","75","8","k","","","","","","","","","","","","","","",""
"","S2","","html-keyboard-response","59","98579","0.0-1.0-76.0","0","0","66805","","null","","","null","8","","NaN","","","","","","","","","","","","","",""
"","response","","html-keyboard-response","60","98669","0.0-1.0-77.0-0.0","0","0","66805","","85","","","75","8","","","1","8","training","adjacent","BA","2","1","M.jpg","O.jpg","1","0","0","",""
"","feedback","","html-keyboard-response","61","99673","0.0-1.0-78.0-0.0","0","0","66805","","null","","","null","8","","","","","","","","","","","","","","","",""
"","time_out","","html-keyboard-response","62","101683","0.0-1.0-80.0-0.0","0","0","66805","","null","","","null","8","","","","","","","","","","","","","","","",""
"","ITI","","html-keyboard-response","63","102687","0.0-1.0-81.0","0","0","66805","","null","","","null","8","","","","","","","","","","","","","","","NaN",""
"","S1","","html-keyboard-response","64","102941","0.0-1.0-83.0","0","0","66805","","null","","","null","9","","","","","","","","","","","","","","","",""
"","ISI","","html-keyboard-response","65","103946","0.0-1.0-84.0","0","0","66805","","null","","","null","9","NaN","","","","","","","","","","","","","","",""
"","S2","","html-keyboard-response","66","104202","0.0-1.0-85.0","0","0","66805","","null","","","null","9","","NaN","","","","","","","","","","","","","",""
"","response","","html-keyboard-response","67","104958","0.0-1.0-86.0-0.0","0","0","66805","","753","","","68","9","","","1","9","training","adjacent","BA","2","1","M.jpg","O.jpg","0","0","1","",""
"","feedback","","html-keyboard-response","68","105962","0.0-1.0-87.0-0.0","0","0","66805","","null","","","null","9","","","","","","","","","","","","","","","",""
"","ITI","","html-keyboard-response","69","106969","0.0-1.0-90.0","0","0","66805","","null","","","null","9","","","","","","","","","","","","","","","NaN",""
"","S1","","html-keyboard-response","70","107234","0.0-1.0-92.0","0","0","66805","","null","","","null","10","","","","","","","","","","","","","","","",""
"","ISI","","html-keyboard-response","71","108240","0.0-1.0-93.0","0","0","66805","","null","","","null","10","NaN","","","","","","","","","","","","","","",""
"","S2","","html-keyboard-response","72","108497","0.0-1.0-94.0","0","0","66805","","null","","","null","10","","NaN","","","","","","","","","","","","","",""
"","response","","html-keyboard-response","73","109324","0.0-1.0-95.0-0.0","0","0","66805","","822","","","75","10","","","1","10","training","adjacent","DC","4","3","Q.jpg","P.jpg","1","0","0","",""
"","feedback","","html-keyboard-response","74","110330","0.0-1.0-96.0-0.0","0","0","66805","","null","","","null","10","","","","","","","","","","","","","","","",""
"","time_out","","html-keyboard-response","75","112336","0.0-1.0-98.0-0.0","0","0","66805","","null","","","null","10","","","","","","","","","","","","","","","",""
"","ITI","","html-keyboard-response","76","113342","0.0-1.0-99.0","0","0","66805","","null","","","null","10","","","","","","","","","","","","","","","NaN",""
"","S1","","html-keyboard-response","77","113599","0.0-1.0-101.0","0","0","66805","","null","","","null","11","","","","","","","","","","","","","","","",""
"","ISI","","html-keyboard-response","78","114604","0.0-1.0-102.0","0","0","66805","","null","","","null","11","NaN","","","","","","","","","","","","","","",""
"","S2","","html-keyboard-response","79","114859","0.0-1.0-103.0","0","0","66805","","null","","","null","11","","NaN","","","","","","","","","","","","","",""
"","response","","html-keyboard-response","80","115102","0.0-1.0-104.0-0.0","0","0","66805","","241","","","75","11","","","1","11","training","adjacent","AB","1","2","O.jpg","M.jpg","1","1","1","",""
"","feedback","","html-keyboard-response","81","116105","0.0-1.0-105.0-0.0","0","0","66805","","null","","","null","11","","","","","","","","","","","","","","","",""
"","ITI","","html-keyboard-response","82","117109","0.0-1.0-108.0","0","0","66805","","null","","","null","11","","","","","","","","","","","","","","","NaN",""
"","S1","","html-keyboard-response","83","117362","0.0-1.0-110.0","0","0","66805","","null","","","null","12","","","","","","","","","","","","","","","",""
"","ISI","","html-keyboard-response","84","118366","0.0-1.0-111.0","0","0","66805","","null","","","null","12","NaN","","","","","","","","","","","","","","",""
"","S2","","html-keyboard-response","85","118620","0.0-1.0-112.0","0","0","66805","","null","","","null","12","","NaN","","","","","","","","","","","","","",""
"","response","","html-keyboard-response","86","119187","0.0-1.0-113.0-0.0","0","0","66805","","565","","","68","12","","","1","12","training","adjacent","GF","7","6","L.jpg","N.jpg","0","0","1","",""
"","feedback","","html-keyboard-response","87","120194","0.0-1.0-114.0-0.0","0","0","66805","","null","","","null","12","","","","","","","","","","","","","","","",""
"","ITI","","html-keyboard-response","88","121198","0.0-1.0-117.0","0","0","66805","","null","","","null","12","","","","","","","","","","","","","","","NaN",""
"","S1","","html-keyboard-response","89","121464","0.0-1.0-119.0","0","0","66805","","null","","","null","13","","","","","","","","","","","","","","","",""
"","ISI","","html-keyboard-response","90","122469","0.0-1.0-120.0","0","0","66805","","null","","","null","13","NaN","","","","","","","","","","","","","","",""
"","S2","","html-keyboard-response","91","122725","0.0-1.0-121.0","0","0","66805","","null","","","null","13","","NaN","","","","","","","","","","","","","",""
"","response","","html-keyboard-response","92","123932","0.0-1.0-122.0-0.0","0","0","66805","","1203","","","68","13","","","1","13","training","adjacent","BA","2","1","M.jpg","O.jpg","0","0","1","",""
"","feedback","","html-keyboard-response","93","124936","0.0-1.0-123.0-0.0","0","0","66805","","null","","","null","13","","","","","","","","","","","","","","","",""
"","ITI","","html-keyboard-response","94","125941","0.0-1.0-126.0","0","0","66805","","null","","","null","13","","","","","","","","","","","","","","","NaN",""
"","S1","","html-keyboard-response","95","126197","0.0-1.0-128.0","0","0","66805","","null","","","null","14","","","","","","","","","","","","","","","",""
"","ISI","","html-keyboard-response","96","127202","0.0-1.0-129.0","0","0","66805","","null","","","null","14","NaN","","","","","","","","","","","","","","",""
"","S2","","html-keyboard-response","97","127457","0.0-1.0-130.0","0","0","66805","","null","","","null","14","","NaN","","","","","","","","","","","","","",""
"","response","","html-keyboard-response","98","128049","0.0-1.0-131.0-0.0","0","0","66805","","588","","","75","14","","","1","14","training","adjacent","GF","7","6","L.jpg","N.jpg","1","0","0","",""
"","feedback","","html-keyboard-response","99","129054","0.0-1.0-132.0-0.0","0","0","66805","","null","","","null","14","","","","","","","","","","","","","","","",""
"","time_out","","html-keyboard-response","100","131059","0.0-1.0-134.0-0.0","0","0","66805","","null","","","null","14","","","","","","","","","","","","","","","",""
"","ITI","","html-keyboard-response","101","132064","0.0-1.0-135.0","0","0","66805","","null","","","null","14","","","","","","","","","","","","","","","NaN",""
"","S1","","html-keyboard-response","102","132321","0.0-1.0-137.0","0","0","66805","","null","","","null","15","","","","","","","","","","","","","","","",""
"","ISI","","html-keyboard-response","103","133328","0.0-1.0-138.0","0","0","66805","","null","","","null","15","NaN","","","","","","","","","","","","","","",""
"","S2","","html-keyboard-response","104","133583","0.0-1.0-139.0","0","0","66805","","null","","","null","15","","NaN","","","","","","","","","","","","","",""
"","response","","html-keyboard-response","105","133878","0.0-1.0-140.0-0.0","0","0","66805","","290","","","75","15","","","1","15","training","adjacent","CB","3","2","P.jpg","M.jpg","1","0","0","",""
"","feedback","","html-keyboard-response","106","134885","0.0-1.0-141.0-0.0","0","0","66805","","null","","","null","15","","","","","","","","","","","","","","","",""
"","time_out","","html-keyboard-response","107","136890","0.0-1.0-143.0-0.0","0","0","66805","","null","","","null","15","","","","","","","","","","","","","","","",""
"","ITI","","html-keyboard-response","108","137896","0.0-1.0-144.0","0","0","66805","","null","","","null","15","","","","","","","","","","","","","","","NaN",""
"","S1","","html-keyboard-response","109","138152","0.0-1.0-146.0","0","0","66805","","null","","","null","16","","","","","","","","","","","","","","","",""
"","ISI","","html-keyboard-response","110","139171","0.0-1.0-147.0","0","0","66805","","null","","","null","16","NaN","","","","","","","","","","","","","","",""
"","S2","","html-keyboard-response","111","139428","0.0-1.0-148.0","0","0","66805","","null","","","null","16","","NaN","","","","","","","","","","","","","",""
"","response","","html-keyboard-response","112","140141","0.0-1.0-149.0-0.0","0","0","66805","","709","","","75","16","","","1","16","training","adjacent","DC","4","3","Q.jpg","P.jpg","1","0","0","",""
"","feedback","","html-keyboard-response","113","141146","0.0-1.0-150.0-0.0","0","0","66805","","null","","","null","16","","","","","","","","","","","","","","","",""
"","time_out","","html-keyboard-response","114","143153","0.0-1.0-152.0-0.0","0","0","66805","","null","","","null","16","","","","","","","","","","","","","","","",""
"","ITI","","html-keyboard-response","115","144159","0.0-1.0-153.0","0","0","66805","","null","","","null","16","","","","","","","","","","","","","","","NaN",""
"","S1","","html-keyboard-response","116","144415","0.0-1.0-155.0","0","0","66805","","null","","","null","17","","","","","","","","","","","","","","","",""
"","ISI","","html-keyboard-response","117","145421","0.0-1.0-156.0","0","0","66805","","null","","","null","17","NaN","","","","","","","","","","","","","","",""
"","S2","","html-keyboard-response","118","145677","0.0-1.0-157.0","0","0","66805","","null","","","null","17","","NaN","","","","","","","","","","","","","",""
"","response","","html-keyboard-response","119","146885","0.0-1.0-158.0-0.0","0","0","66805","","1203","","","68","17","","","1","17","training","adjacent","CB","3","2","P.jpg","M.jpg","0","0","1","",""
"","feedback","","html-keyboard-response","120","147893","0.0-1.0-159.0-0.0","0","0","66805","","null","","","null","17","","","","","","","","","","","","","","","",""
"","ITI","","html-keyboard-response","121","148898","0.0-1.0-162.0","0","0","66805","","null","","","null","17","","","","","","","","","","","","","","","NaN",""
"","S1","","html-keyboard-response","122","149156","0.0-1.0-164.0","0","0","66805","","null","","","null","18","","","","","","","","","","","","","","","",""
"","ISI","","html-keyboard-response","123","150161","0.0-1.0-165.0","0","0","66805","","null","","","null","18","NaN","","","","","","","","","","","","","","",""
"","S2","","html-keyboard-response","124","150418","0.0-1.0-166.0","0","0","66805","","null","","","null","18","","NaN","","","","","","","","","","","","","",""
"","response","","html-keyboard-response","125","151226","0.0-1.0-167.0-0.0","0","0","66805","","805","","","75","18","","","1","18","training","adjacent","EF","5","6","R.jpg","N.jpg","1","1","1","",""
"","feedback","","html-keyboard-response","126","152245","0.0-1.0-168.0-0.0","0","0","66805","","null","","","null","18","","","","","","","","","","","","","","","",""
"","ITI","","html-keyboard-response","127","153250","0.0-1.0-171.0","0","0","66805","","null","","","null","18","","","","","","","","","","","","","","","NaN",""
"","S1","","html-keyboard-response","128","153506","0.0-1.0-173.0","0","0","66805","","null","","","null","19","","","","","","","","","","","","","","","",""
"","ISI","","html-keyboard-response","129","154511","0.0-1.0-174.0","0","0","66805","","null","","","null","19","NaN","","","","","","","","","","","","","","",""
"","S2","","html-keyboard-response","130","154767","0.0-1.0-175.0","0","0","66805","","null","","","null","19","","NaN","","","","","","","","","","","","","",""
"","response","","html-keyboard-response","131","154844","0.0-1.0-176.0-0.0","0","0","66805","","73","","","75","19","","","1","19","training","adjacent","AB","1","2","O.jpg","M.jpg","1","1","1","",""
"","feedback","","html-keyboard-response","132","155852","0.0-1.0-177.0-0.0","0","0","66805","","null","","","null","19","","","","","","","","","","","","","","","",""
"","ITI","","html-keyboard-response","133","156858","0.0-1.0-180.0","0","0","66805","","null","","","null","19","","","","","","","","","","","","","","","NaN",""
"","S1","","html-keyboard-response","134","157113","0.0-1.0-182.0","0","0","66805","","null","","","null","20","","","","","","","","","","","","","","","",""
"","ISI","","html-keyboard-response","135","158118","0.0-1.0-183.0","0","0","66805","","null","","","null","20","NaN","","","","","","","","","","","","","","",""
"","S2","","html-keyboard-response","136","158378","0.0-1.0-184.0","0","0","66805","","null","","","null","20","","NaN","","","","","","","","","","","","","",""
"","response","","html-keyboard-response","137","158620","0.0-1.0-185.0-0.0","0","0","66805","","237","","","68","20","","","1","20","training","adjacent","EF","5","6","R.jpg","N.jpg","0","1","0","",""
"","feedback","","html-keyboard-response","138","159627","0.0-1.0-186.0-0.0","0","0","66805","","null","","","null","20","","","","","","","","","","","","","","","",""
"","time_out","","html-keyboard-response","139","161631","0.0-1.0-188.0-0.0","0","0","66805","","null","","","null","20","","","","","","","","","","","","","","","",""
"","ITI","","html-keyboard-response","140","162635","0.0-1.0-189.0","0","0","66805","","null","","","null","20","","","","","","","","","","","","","","","NaN",""
"","S1","","html-keyboard-response","141","162891","0.0-1.0-191.0","0","0","66805","","null","","","null","21","","","","","","","","","","","","","","","",""
"","ISI","","html-keyboard-response","142","163896","0.0-1.0-192.0","0","0","66805","","null","","","null","21","NaN","","","","","","","","","","","","","","",""
"","S2","","html-keyboard-response","143","164153","0.0-1.0-193.0","0","0","66805","","null","","","null","21","","NaN","","","","","","","","","","","","","",""
"","response","","html-keyboard-response","144","164255","0.0-1.0-194.0-0.0","0","0","66805","","98","","","75","21","","","1","21","training","adjacent","AB","1","2","O.jpg","M.jpg","1","1","1","",""
"","feedback","","html-keyboard-response","145","165262","0.0-1.0-195.0-0.0","0","0","66805","","null","","","null","21","","","","","","","","","","","","","","","",""
"","ITI","","html-keyboard-response","146","166269","0.0-1.0-198.0","0","0","66805","","null","","","null","21","","","","","","","","","","","","","","","NaN",""
"","S1","","html-keyboard-response","147","166523","0.0-1.0-200.0","0","0","66805","","null","","","null","22","","","","","","","","","","","","","","","",""
"","ISI","","html-keyboard-response","148","167528","0.0-1.0-201.0","0","0","66805","","null","","","null","22","NaN","","","","","","","","","","","","","","",""
"","S2","","html-keyboard-response","149","167785","0.0-1.0-202.0","0","0","66805","","null","","","null","22","","NaN","","","","","","","","","","","","","",""
"","response","","html-keyboard-response","150","168470","0.0-1.0-203.0-0.0","0","0","66805","","681","","","68","22","","","1","22","training","adjacent","DE","4","5","Q.jpg","R.jpg","0","1","0","",""
"","feedback","","html-keyboard-response","151","169478","0.0-1.0-204.0-0.0","0","0","66805","","null","","","null","22","","","","","","","","","","","","","","","",""
"","time_out","","html-keyboard-response","152","171481","0.0-1.0-206.0-0.0","0","0","66805","","null","","","null","22","","","","","","","","","","","","","","","",""
"","ITI","","html-keyboard-response","153","172486","0.0-1.0-207.0","0","0","66805","","null","","","null","22","","","","","","","","","","","","","","","NaN",""
"","S1","","html-keyboard-response","154","172742","0.0-1.0-209.0","0","0","66805","","null","","","null","23","","","","","","","","","","","","","","","",""
"","ISI","","html-keyboard-response","155","173746","0.0-1.0-210.0","0","0","66805","","null","","","null","23","NaN","","","","","","","","","","","","","","",""
"","S2","","html-keyboard-response","156","174001","0.0-1.0-211.0","0","0","66805","","null","","","null","23","","NaN","","","","","","","","","","","","","",""
"","response","","html-keyboard-response","157","174317","0.0-1.0-212.0-0.0","0","0","66805","","312","","","75","23","","","1","23","training","adjacent","AB","1","2","O.jpg","M.jpg","1","1","1","",""
"","feedback","","html-keyboard-response","158","175323","0.0-1.0-213.0-0.0","0","0","66805","","null","","","null","23","","","","","","","","","","","","","","","",""
"","ITI","","html-keyboard-response","159","176330","0.0-1.0-216.0","0","0","66805","","null","","","null","23","","","","","","","","","","","","","","","NaN",""
"","S1","","html-keyboard-response","160","176587","0.0-1.0-218.0","0","0","66805","","null","","","null","24","","","","","","","","","","","","","","","",""
"","ISI","","html-keyboard-response","161","177594","0.0-1.0-219.0","0","0","66805","","null","","","null","24","NaN","","","","","","","","","","","","","","",""
"","S2","","html-keyboard-response","162","177848","0.0-1.0-220.0","0","0","66805","","null","","","null","24","","NaN","","","","","","","","","","","","","",""
"","response","","html-keyboard-response","163","178219","0.0-1.0-221.0-0.0","0","0","66805","","367","","","68","24","","","1","24","training","adjacent","FE","6","5","N.jpg","R.jpg","0","0","1","",""
"","feedback","","html-keyboard-response","164","179224","0.0-1.0-222.0-0.0","0","0","66805","","null","","","null","24","","","","","","","","","","","","","","","",""
"","ITI","","html-keyboard-response","165","180230","0.0-1.0-225.0","0","0","66805","","null","","","null","24","","","","","","","","","","","","","","","NaN",""
"","S1","","html-keyboard-response","166","180486","0.0-1.0-227.0","0","0","66805","","null","","","null","25","","","","","","","","","","","","","","","",""
"","ISI","","html-keyboard-response","167","181492","0.0-1.0-228.0","0","0","66805","","null","","","null","25","NaN","","","","","","","","","","","","","","",""
"","S2","","html-keyboard-response","168","181749","0.0-1.0-229.0","0","0","66805","","null","","","null","25","","NaN","","","","","","","","","","","","","",""
"","response","","html-keyboard-response","169","182127","0.0-1.0-230.0-0.0","0","0","66805","","373","","","75","25","","","1","25","training","adjacent","ED","5","4","R.jpg","Q.jpg","1","0","0","",""
"","feedback","","html-keyboard-response","170","183133","0.0-1.0-231.0-0.0","0","0","66805","","null","","","null","25","","","","","","","","","","","","","","","",""
"","time_out","","html-keyboard-response","171","185139","0.0-1.0-233.0-0.0","0","0","66805","","null","","","null","25","","","","","","","","","","","","","","","",""
"","ITI","","html-keyboard-response","172","186144","0.0-1.0-234.0","0","0","66805","","null","","","null","25","","","","","","","","","","","","","","","NaN",""
"","S1","","html-keyboard-response","173","186401","0.0-1.0-236.0","0","0","66805","","null","","","null","26","","","","","","","","","","","","","","","",""
"","ISI","","html-keyboard-response","174","187406","0.0-1.0-237.0","0","0","66805","","null","","","null","26","NaN","","","","","","","","","","","","","","",""
"","S2","","html-keyboard-response","175","187665","0.0-1.0-238.0","0","0","66805","","null","","","null","26","","NaN","","","","","","","","","","","","","",""
"","response","","html-keyboard-response","176","188211","0.0-1.0-239.0-0.0","0","0","66805","","544","","","75","26","","","1","26","training","adjacent","EF","5","6","R.jpg","N.jpg","1","1","1","",""
"","feedback","","html-keyboard-response","177","189215","0.0-1.0-240.0-0.0","0","0","66805","","null","","","null","26","","","","","","","","","","","","","","","",""
"","ITI","","html-keyboard-response","178","190218","0.0-1.0-243.0","0","0","66805","","null","","","null","26","","","","","","","","","","","","","","","NaN",""
"","S1","","html-keyboard-response","179","190471","0.0-1.0-245.0","0","0","66805","","null","","","null","27","","","","","","","","","","","","","","","",""
"","ISI","","html-keyboard-response","180","191476","0.0-1.0-246.0","0","0","66805","","null","","","null","27","NaN","","","","","","","","","","","","","","",""
"","S2","","html-keyboard-response","181","191745","0.0-1.0-247.0","0","0","66805","","null","","","null","27","","NaN","","","","","","","","","","","","","",""
"","response","","html-keyboard-response","182","192518","0.0-1.0-248.0-0.0","0","0","66805","","768","","","75","27","","","1","27","training","adjacent","FG","6","7","N.jpg","L.jpg","1","1","1","",""
"","feedback","","html-keyboard-response","183","193526","0.0-1.0-249.0-0.0","0","0","66805","","null","","","null","27","","","","","","","","","","","","","","","",""
"","ITI","","html-keyboard-response","184","194532","0.0-1.0-252.0","0","0","66805","","null","","","null","27","","","","","","","","","","","","","","","NaN",""
"","S1","","html-keyboard-response","185","194786","0.0-1.0-254.0","0","0","66805","","null","","","null","28","","","","","","","","","","","","","","","",""
"","ISI","","html-keyboard-response","186","195792","0.0-1.0-255.0","0","0","66805","","null","","","null","28","NaN","","","","","","","","","","","","","","",""
"","S2","","html-keyboard-response","187","196048","0.0-1.0-256.0","0","0","66805","","null","","","null","28","","NaN","","","","","","","","","","","","","",""
"","response","","html-keyboard-response","188","197219","0.0-1.0-257.0-0.0","0","0","66805","","1165","","","68","28","","","1","28","training","adjacent","CD","3","4","P.jpg","Q.jpg","0","1","0","",""
"","feedback","","html-keyboard-response","189","198227","0.0-1.0-258.0-0.0","0","0","66805","","null","","","null","28","","","","","","","","","","","","","","","",""
"","time_out","","html-keyboard-response","190","200233","0.0-1.0-260.0-0.0","0","0","66805","","null","","","null","28","","","","","","","","","","","","","","","",""
"","ITI","","html-keyboard-response","191","201240","0.0-1.0-261.0","0","0","66805","","null","","","null","28","","","","","","","","","","","","","","","NaN",""
"","S1","","html-keyboard-response","192","201497","0.0-1.0-263.0","0","0","66805","","null","","","null","29","","","","","","","","","","","","","","","",""
"","ISI","","html-keyboard-response","193","202503","0.0-1.0-264.0","0","0","66805","","null","","","null","29","NaN","","","","","","","","","","","","","","",""
"","S2","","html-keyboard-response","194","202759","0.0-1.0-265.0","0","0","66805","","null","","","null","29","","NaN","","","","","","","","","","","","","",""
"","response","","html-keyboard-response","195","203413","0.0-1.0-266.0-0.0","0","0","66805","","648","","","75","29","","","1","29","training","adjacent","DE","4","5","Q.jpg","R.jpg","1","1","1","",""
"","feedback","","html-keyboard-response","196","204419","0.0-1.0-267.0-0.0","0","0","66805","","null","","","null","29","","","","","","","","","","","","","","","",""
"","ITI","","html-keyboard-response","197","205424","0.0-1.0-270.0","0","0","66805","","null","","","null","29","","","","","","","","","","","","","","","NaN",""
"","S1","","html-keyboard-response","198","205678","0.0-1.0-272.0","0","0","66805","","null","","","null","30","","","","","","","","","","","","","","","",""
"","ISI","","html-keyboard-response","199","206680","0.0-1.0-273.0","0","0","66805","","null","","","null","30","NaN","","","","","","","","","","","","","","",""
"","S2","","html-keyboard-response","200","206936","0.0-1.0-274.0","0","0","66805","","null","","","null","30","","NaN","","","","","","","","","","","","","",""
"","response","","html-keyboard-response","201","207451","0.0-1.0-275.0-0.0","0","0","66805","","510","","","75","30","","","1","30","training","adjacent","DE","4","5","Q.jpg","R.jpg","1","1","1","",""
"","feedback","","html-keyboard-response","202","208458","0.0-1.0-276.0-0.0","0","0","66805","","null","","","null","30","","","","","","","","","","","","","","","",""
"","ITI","","html-keyboard-response","203","209464","0.0-1.0-279.0","0","0","66805","","null","","","null","30","","","","","","","","","","","","","","","NaN",""
"","S1","","html-keyboard-response","204","209718","0.0-1.0-281.0","0","0","66805","","null","","","null","31","","","","","","","","","","","","","","","",""
"","ISI","","html-keyboard-response","205","210724","0.0-1.0-282.0","0","0","66805","","null","","","null","31","NaN","","","","","","","","","","","","","","",""
"","S2","","html-keyboard-response","206","210980","0.0-1.0-283.0","0","0","66805","","null","","","null","31","","NaN","","","","","","","","","","","","","",""
"","response","","html-keyboard-response","207","211715","0.0-1.0-284.0-0.0","0","0","66805","","732","","","75","31","","","1","31","training","adjacent","FG","6","7","N.jpg","L.jpg","1","1","1","",""
"","feedback","","html-keyboard-response","208","212721","0.0-1.0-285.0-0.0","0","0","66805","","null","","","null","31","","","","","","","","","","","","","","","",""
"","ITI","","html-keyboard-response","209","213727","0.0-1.0-288.0","0","0","66805","","null","","","null","31","","","","","","","","","","","","","","","NaN",""
"","S1","","html-keyboard-response","210","213983","0.0-1.0-290.0","0","0","66805","","null","","","null","32","","","","","","","","","","","","","","","",""
"","ISI","","html-keyboard-response","211","214987","0.0-1.0-291.0","0","0","66805","","null","","","null","32","NaN","","","","","","","","","","","","","","",""
"","S2","","html-keyboard-response","212","215241","0.0-1.0-292.0","0","0","66805","","null","","","null","32","","NaN","","","","","","","","","","","","","",""
"","response","","html-keyboard-response","213","215803","0.0-1.0-293.0-0.0","0","0","66805","","557","","","68","32","","","1","32","training","adjacent","BC","2","3","M.jpg","P.jpg","0","1","0","",""
"","feedback","","html-keyboard-response","214","216818","0.0-1.0-294.0-0.0","0","0","66805","","null","","","null","32","","","","","","","","","","","","","","","",""
"","time_out","","html-keyboard-response","215","218825","0.0-1.0-296.0-0.0","0","0","66805","","null","","","null","32","","","","","","","","","","","","","","","",""
"","ITI","","html-keyboard-response","216","219831","0.0-1.0-297.0","0","0","66805","","null","","","null","32","","","","","","","","","","","","","","","NaN",""
"","S1","","html-keyboard-response","217","220087","0.0-1.0-299.0","0","0","66805","","null","","","null","33","","","","","","","","","","","","","","","",""
"","ISI","","html-keyboard-response","218","221091","0.0-1.0-300.0","0","0","66805","","null","","","null","33","NaN","","","","","","","","","","","","","","",""
"","S2","","html-keyboard-response","219","221347","0.0-1.0-301.0","0","0","66805","","null","","","null","33","","NaN","","","","","","","","","","","","","",""
"","response","","html-keyboard-response","220","221765","0.0-1.0-302.0-0.0","0","0","66805","","413","","","75","33","","","1","33","training","adjacent","CD","3","4","P.jpg","Q.jpg","1","1","1","",""
"","feedback","","html-keyboard-response","221","222771","0.0-1.0-303.0-0.0","0","0","66805","","null","","","null","33","","","","","","","","","","","","","","","",""
"","ITI","","html-keyboard-response","222","223778","0.0-1.0-306.0","0","0","66805","","null","","","null","33","","","","","","","","","","","","","","","NaN",""
"","S1","","html-keyboard-response","223","224036","0.0-1.0-308.0","0","0","66805","","null","","","null","34","","","","","","","","","","","","","","","",""
"","ISI","","html-keyboard-response","224","225042","0.0-1.0-309.0","0","0","66805","","null","","","null","34","NaN","","","","","","","","","","","","","","",""
"","S2","","html-keyboard-response","225","225299","0.0-1.0-310.0","0","0","66805","","null","","","null","34","","NaN","","","","","","","","","","","","","",""
"","response","","html-keyboard-response","226","225854","0.0-1.0-311.0-0.0","0","0","66805","","551","","","68","34","","","1","34","training","adjacent","DE","4","5","Q.jpg","R.jpg","0","1","0","",""
"","feedback","","html-keyboard-response","227","226861","0.0-1.0-312.0-0.0","0","0","66805","","null","","","null","34","","","","","","","","","","","","","","","",""
"","time_out","","html-keyboard-response","228","228864","0.0-1.0-314.0-0.0","0","0","66805","","null","","","null","34","","","","","","","","","","","","","","","",""
"","ITI","","html-keyboard-response","229","229869","0.0-1.0-315.0","0","0","66805","","null","","","null","34","","","","","","","","","","","","","","","NaN",""
"","S1","","html-keyboard-response","230","230126","0.0-1.0-317.0","0","0","66805","","null","","","null","35","","","","","","","","","","","","","","","",""
"","ISI","","html-keyboard-response","231","231131","0.0-1.0-318.0","0","0","66805","","null","","","null","35","NaN","","","","","","","","","","","","","","",""
"","S2","","html-keyboard-response","232","231389","0.0-1.0-319.0","0","0","66805","","null","","","null","35","","NaN","","","","","","","","","","","","","",""
"","response","","html-keyboard-response","233","231706","0.0-1.0-320.0-0.0","0","0","66805","","312","","","75","35","","","1","35","training","adjacent","ED","5","4","R.jpg","Q.jpg","1","0","0","",""
"","feedback","","html-keyboard-response","234","232712","0.0-1.0-321.0-0.0","0","0","66805","","null","","","null","35","","","","","","","","","","","","","","","",""
"","time_out","","html-keyboard-response","235","234718","0.0-1.0-323.0-0.0","0","0","66805","","null","","","null","35","","","","","","","","","","","","","","","",""
"","ITI","","html-keyboard-response","236","235723","0.0-1.0-324.0","0","0","66805","","null","","","null","35","","","","","","","","","","","","","","","NaN",""
"","S1","","html-keyboard-response","237","235979","0.0-1.0-326.0","0","0","66805","","null","","","null","36","","","","","","","","","","","","","","","",""
"","ISI","","html-keyboard-response","238","236984","0.0-1.0-327.0","0","0","66805","","null","","","null","36","NaN","","","","","","","","","","","","","","",""
"","S2","","html-keyboard-response","239","237240","0.0-1.0-328.0","0","0","66805","","null","","","null","36","","NaN","","","","","","","","","","","","","",""
"","response","","html-keyboard-response","240","238083","0.0-1.0-329.0-0.0","0","0","66805","","838","","","68","36","","","1","36","training","adjacent","BC","2","3","M.jpg","P.jpg","0","1","0","",""
"","feedback","","html-keyboard-response","241","239087","0.0-1.0-330.0-0.0","0","0","66805","","null","","","null","36","","","","","","","","","","","","","","","",""
"","time_out","","html-keyboard-response","242","241102","0.0-1.0-332.0-0.0","0","0","66805","","null","","","null","36","","","","","","","","","","","","","","","",""
"","ITI","","html-keyboard-response","243","242106","0.0-1.0-333.0","0","0","66805","","null","","","null","36","","","","","","","","","","","","","","","NaN",""
"","S1","","html-keyboard-response","244","242362","0.0-1.0-335.0","0","0","66805","","null","","","null","37","","","","","","","","","","","","","","","",""
"","ISI","","html-keyboard-response","245","243368","0.0-1.0-336.0","0","0","66805","","null","","","null","37","NaN","","","","","","","","","","","","","","",""
"","S2","","html-keyboard-response","246","243626","0.0-1.0-337.0","0","0","66805","","null","","","null","37","","NaN","","","","","","","","","","","","","",""
"","response","","html-keyboard-response","247","244388","0.0-1.0-338.0-0.0","0","0","66805","","757","","","68","37","","","1","37","training","adjacent","GF","7","6","L.jpg","N.jpg","0","0","1","",""
"","feedback","","html-keyboard-response","248","245396","0.0-1.0-339.0-0.0","0","0","66805","","null","","","null","37","","","","","","","","","","","","","","","",""
"","ITI","","html-keyboard-response","249","246401","0.0-1.0-342.0","0","0","66805","","null","","","null","37","","","","","","","","","","","","","","","NaN",""
"","S1","","html-keyboard-response","250","246657","0.0-1.0-344.0","0","0","66805","","null","","","null","38","","","","","","","","","","","","","","","",""
"","ISI","","html-keyboard-response","251","247659","0.0-1.0-345.0","0","0","66805","","null","","","null","38","NaN","","","","","","","","","","","","","","",""
"","S2","","html-keyboard-response","252","247926","0.0-1.0-346.0","0","0","66805","","null","","","null","38","","NaN","","","","","","","","","","","","","",""
"","response","","html-keyboard-response","253","248328","0.0-1.0-347.0-0.0","0","0","66805","","399","","","75","38","","","1","38","training","adjacent","FE","6","5","N.jpg","R.jpg","1","0","0","",""
"","feedback","","html-keyboard-response","254","249333","0.0-1.0-348.0-0.0","0","0","66805","","null","","","null","38","","","","","","","","","","","","","","","",""
"","time_out","","html-keyboard-response","255","251340","0.0-1.0-350.0-0.0","0","0","66805","","null","","","null","38","","","","","","","","","","","","","","","",""
"","ITI","","html-keyboard-response","256","252346","0.0-1.0-351.0","0","0","66805","","null","","","null","38","","","","","","","","","","","","","","","NaN",""
"","S1","","html-keyboard-response","257","252604","0.0-1.0-353.0","0","0","66805","","null","","","null","39","","","","","","","","","","","","","","","",""
"","ISI","","html-keyboard-response","258","253609","0.0-1.0-354.0","0","0","66805","","null","","","null","39","NaN","","","","","","","","","","","","","","",""
"","S2","","html-keyboard-response","259","253866","0.0-1.0-355.0","0","0","66805","","null","","","null","39","","NaN","","","","","","","","","","","","","",""
"","response","","html-keyboard-response","260","254247","0.0-1.0-356.0-0.0","0","0","66805","","376","","","68","39","","","1","39","training","adjacent","CD","3","4","P.jpg","Q.jpg","0","1","0","",""
"","feedback","","html-keyboard-response","261","255253","0.0-1.0-357.0-0.0","0","0","66805","","null","","","null","39","","","","","","","","","","","","","","","",""
"","time_out","","html-keyboard-response","262","257260","0.0-1.0-359.0-0.0","0","0","66805","","null","","","null","39","","","","","","","","","","","","","","","",""
"","ITI","","html-keyboard-response","263","258266","0.0-1.0-360.0","0","0","66805","","null","","","null","39","","","","","","","","","","","","","","","NaN",""
"","S1","","html-keyboard-response","264","258530","0.0-1.0-362.0","0","0","66805","","null","","","null","40","","","","","","","","","","","","","","","",""
"","ISI","","html-keyboard-response","265","259536","0.0-1.0-363.0","0","0","66805","","null","","","null","40","NaN","","","","","","","","","","","","","","",""
"","S2","","html-keyboard-response","266","259793","0.0-1.0-364.0","0","0","66805","","null","","","null","40","","NaN","","","","","","","","","","","","","",""
"","response","","html-keyboard-response","267","260455","0.0-1.0-365.0-0.0","0","0","66805","","656","","","68","40","","","1","40","training","adjacent","BA","2","1","M.jpg","O.jpg","0","0","1","",""
"","feedback","","html-keyboard-response","268","261463","0.0-1.0-366.0-0.0","0","0","66805","","null","","","null","40","","","","","","","","","","","","","","","",""
"","ITI","","html-keyboard-response","269","262469","0.0-1.0-369.0","0","0","66805","","null","","","null","40","","","","","","","","","","","","","","","NaN",""
"","S1","","html-keyboard-response","270","262724","0.0-1.0-371.0","0","0","66805","","null","","","null","41","","","","","","","","","","","","","","","",""
"","ISI","","html-keyboard-response","271","263729","0.0-1.0-372.0","0","0","66805","","null","","","null","41","NaN","","","","","","","","","","","","","","",""
"","S2","","html-keyboard-response","272","263986","0.0-1.0-373.0","0","0","66805","","null","","","null","41","","NaN","","","","","","","","","","","","","",""
"","response","","html-keyboard-response","273","264714","0.0-1.0-374.0-0.0","0","0","66805","","723","","","68","41","","","1","41","training","adjacent","DC","4","3","Q.jpg","P.jpg","0","0","1","",""
"","feedback","","html-keyboard-response","274","265723","0.0-1.0-375.0-0.0","0","0","66805","","null","","","null","41","","","","","","","","","","","","","","","",""
"","ITI","","html-keyboard-response","275","266730","0.0-1.0-378.0","0","0","66805","","null","","","null","41","","","","","","","","","","","","","","","NaN",""
"","S1","","html-keyboard-response","276","266986","0.0-1.0-380.0","0","0","66805","","null","","","null","42","","","","","","","","","","","","","","","",""
"","ISI","","html-keyboard-response","277","267992","0.0-1.0-381.0","0","0","66805","","null","","","null","42","NaN","","","","","","","","","","","","","","",""
"","S2","","html-keyboard-response","278","268248","0.0-1.0-382.0","0","0","66805","","null","","","null","42","","NaN","","","","","","","","","","","","","",""
"","response","","html-keyboard-response","279","269038","0.0-1.0-383.0-0.0","0","0","66805","","784","","","68","42","","","1","42","training","adjacent","FE","6","5","N.jpg","R.jpg","0","0","1","",""
"","feedback","","html-keyboard-response","280","270044","0.0-1.0-384.0-0.0","0","0","66805","","null","","","null","42","","","","","","","","","","","","","","","",""
"","ITI","","html-keyboard-response","281","271050","0.0-1.0-387.0","0","0","66805","","null","","","null","42","","","","","","","","","","","","","","","NaN",""
"","S1","","html-keyboard-response","282","271306","0.0-1.0-389.0","0","0","66805","","null","","","null","43","","","","","","","","","","","","","","","",""
"","ISI","","html-keyboard-response","283","272312","0.0-1.0-390.0","0","0","66805","","null","","","null","43","NaN","","","","","","","","","","","","","","",""
"","S2","","html-keyboard-response","284","272570","0.0-1.0-391.0","0","0","66805","","null","","","null","43","","NaN","","","","","","","","","","","","","",""
"","response","","html-keyboard-response","285","273736","0.0-1.0-392.0-0.0","0","0","66805","","1161","","","75","43","","","1","43","training","adjacent","BC","2","3","M.jpg","P.jpg","1","1","1","",""
"","feedback","","html-keyboard-response","286","274741","0.0-1.0-393.0-0.0","0","0","66805","","null","","","null","43","","","","","","","","","","","","","","","",""
"","ITI","","html-keyboard-response","287","275745","0.0-1.0-396.0","0","0","66805","","null","","","null","43","","","","","","","","","","","","","","","NaN",""
"","S1","","html-keyboard-response","288","276000","0.0-1.0-398.0","0","0","66805","","null","","","null","44","","","","","","","","","","","","","","","",""
"","ISI","","html-keyboard-response","289","277018","0.0-1.0-399.0","0","0","66805","","null","","","null","44","NaN","","","","","","","","","","","","","","",""
"","S2","","html-keyboard-response","290","277275","0.0-1.0-400.0","0","0","66805","","null","","","null","44","","NaN","","","","","","","","","","","","","",""
"","response","","html-keyboard-response","291","278741","0.0-1.0-401.0-0.0","0","0","66805","","1463","","","68","44","","","1","44","training","adjacent","CB","3","2","P.jpg","M.jpg","0","0","1","",""
"","feedback","","html-keyboard-response","292","279745","0.0-1.0-402.0-0.0","0","0","66805","","null","","","null","44","","","","","","","","","","","","","","","",""
"","ITI","","html-keyboard-response","293","280749","0.0-1.0-405.0","0","0","66805","","null","","","null","44","","","","","","","","","","","","","","","NaN",""
"","S1","","html-keyboard-response","294","281006","0.0-1.0-407.0","0","0","66805","","null","","","null","45","","","","","","","","","","","","","","","",""
"","ISI","","html-keyboard-response","295","282011","0.0-1.0-408.0","0","0","66805","","null","","","null","45","NaN","","","","","","","","","","","","","","",""
"","S2","","html-keyboard-response","296","282267","0.0-1.0-409.0","0","0","66805","","null","","","null","45","","NaN","","","","","","","","","","","","","",""
"","response","","html-keyboard-response","297","283006","0.0-1.0-410.0-0.0","0","0","66805","","732","","","68","45","","","1","45","training","adjacent","EF","5","6","R.jpg","N.jpg","0","1","0","",""
"","feedback","","html-keyboard-response","298","284013","0.0-1.0-411.0-0.0","0","0","66805","","null","","","null","45","","","","","","","","","","","","","","","",""
"","time_out","","html-keyboard-response","299","286020","0.0-1.0-413.0-0.0","0","0","66805","","null","","","null","45","","","","","","","","","","","","","","","",""
"","ITI","","html-keyboard-response","300","287024","0.0-1.0-414.0","0","0","66805","","null","","","null","45","","","","","","","","","","","","","","","NaN",""
"","S1","","html-keyboard-response","301","287280","0.0-1.0-416.0","0","0","66805","","null","","","null","46","","","","","","","","","","","","","","","",""
"","ISI","","html-keyboard-response","302","288286","0.0-1.0-417.0","0","0","66805","","null","","","null","46","NaN","","","","","","","","","","","","","","",""
"","S2","","html-keyboard-response","303","288543","0.0-1.0-418.0","0","0","66805","","null","","","null","46","","NaN","","","","","","","","","","","","","",""
"","response","","html-keyboard-response","304","289868","0.0-1.0-419.0-0.0","0","0","66805","","1321","","","75","46","","","1","46","training","adjacent","BC","2","3","M.jpg","P.jpg","1","1","1","",""
"","feedback","","html-keyboard-response","305","290874","0.0-1.0-420.0-0.0","0","0","66805","","null","","","null","46","","","","","","","","","","","","","","","",""
"","ITI","","html-keyboard-response","306","291881","0.0-1.0-423.0","0","0","66805","","null","","","null","46","","","","","","","","","","","","","","","NaN",""
"","S1","","html-keyboard-response","307","292139","0.0-1.0-425.0","0","0","66805","","null","","","null","47","","","","","","","","","","","","","","","",""
"","ISI","","html-keyboard-response","308","293154","0.0-1.0-426.0","0","0","66805","","null","","","null","47","NaN","","","","","","","","","","","","","","",""
"","S2","","html-keyboard-response","309","293411","0.0-1.0-427.0","0","0","66805","","null","","","null","47","","NaN","","","","","","","","","","","","","",""
"","response","","html-keyboard-response","310","294391","0.0-1.0-428.0-0.0","0","0","66805","","974","","","75","47","","","1","47","training","adjacent","CD","3","4","P.jpg","Q.jpg","1","1","1","",""
"","feedback","","html-keyboard-response","311","295398","0.0-1.0-429.0-0.0","0","0","66805","","null","","","null","47","","","","","","","","","","","","","","","",""
"","ITI","","html-keyboard-response","312","296404","0.0-1.0-432.0","0","0","66805","","null","","","null","47","","","","","","","","","","","","","","","NaN",""
"","block_over","","html-keyboard-response","313","300089","0.0-1.0-433.0-0.0","0","0","66805","","3678","","","32","47","","","","","","","","","","","","","","","",""
"","S1","","html-keyboard-response","314","300345","0.0-1.0-434.0","0","0","66805","","null","","","null","48","","","","","","","","","","","","","","","",""
"","ISI","","html-keyboard-response","315","301349","0.0-1.0-435.0","0","0","66805","","null","","","null","48","NaN","","","","","","","","","","","","","","",""
"","S2","","html-keyboard-response","316","301613","0.0-1.0-436.0","0","0","66805","","null","","","null","48","","NaN","","","","","","","","","","","","","",""
"","response","","html-keyboard-response","317","301877","0.0-1.0-437.0-0.0","0","0","66805","","261","","","75","48","","","2","48","training","adjacent","AB","1","2","O.jpg","M.jpg","1","1","1","",""
"","feedback","","html-keyboard-response","318","302880","0.0-1.0-438.0-0.0","0","0","66805","","null","","","null","48","","","","","","","","","","","","","","","",""
"","ITI","","html-keyboard-response","319","303884","0.0-1.0-441.0","0","0","66805","","null","","","null","48","","","","","","","","","","","","","","","NaN",""
"","S1","","html-keyboard-response","320","304139","0.0-1.0-443.0","0","0","66805","","null","","","null","49","","","","","","","","","","","","","","","",""
"","ISI","","html-keyboard-response","321","305145","0.0-1.0-444.0","0","0","66805","","null","","","null","49","NaN","","","","","","","","","","","","","","",""
"","S2","","html-keyboard-response","322","305402","0.0-1.0-445.0","0","0","66805","","null","","","null","49","","NaN","","","","","","","","","","","","","",""
"","response","","html-keyboard-response","323","306428","0.0-1.0-446.0-0.0","0","0","66805","","1020","","","75","49","","","2","49","training","adjacent","BC","2","3","M.jpg","P.jpg","1","1","1","",""
"","feedback","","html-keyboard-response","324","307436","0.0-1.0-447.0-0.0","0","0","66805","","null","","","null","49","","","","","","","","","","","","","","","",""
"","ITI","","html-keyboard-response","325","308443","0.0-1.0-450.0","0","0","66805","","null","","","null","49","","","","","","","","","","","","","","","NaN",""
"","S1","","html-keyboard-response","326","308699","0.0-1.0-452.0","0","0","66805","","null","","","null","50","","","","","","","","","","","","","","","",""
"","ISI","","html-keyboard-response","327","309705","0.0-1.0-453.0","0","0","66805","","null","","","null","50","NaN","","","","","","","","","","","","","","",""
"","S2","","html-keyboard-response","328","309962","0.0-1.0-454.0","0","0","66805","","null","","","null","50","","NaN","","","","","","","","","","","","","",""
"","response","","html-keyboard-response","329","310922","0.0-1.0-455.0-0.0","0","0","66805","","955","","","68","50","","","2","50","training","adjacent","DC","4","3","Q.jpg","P.jpg","0","0","1","",""
"","feedback","","html-keyboard-response","330","311929","0.0-1.0-456.0-0.0","0","0","66805","","null","","","null","50","","","","","","","","","","","","","","","",""
"","ITI","","html-keyboard-response","331","312936","0.0-1.0-459.0","0","0","66805","","null","","","null","50","","","","","","","","","","","","","","","NaN",""
"","S1","","html-keyboard-response","332","313191","0.0-1.0-461.0","0","0","66805","","null","","","null","51","","","","","","","","","","","","","","","",""
"","ISI","","html-keyboard-response","333","314197","0.0-1.0-462.0","0","0","66805","","null","","","null","51","NaN","","","","","","","","","","","","","","",""
"","S2","","html-keyboard-response","334","314454","0.0-1.0-463.0","0","0","66805","","null","","","null","51","","NaN","","","","","","","","","","","","","",""
"","response","","html-keyboard-response","335","314945","0.0-1.0-464.0-0.0","0","0","66805","","487","","","68","51","","","2","51","training","adjacent","GF","7","6","L.jpg","N.jpg","0","0","1","",""
"","feedback","","html-keyboard-response","336","315948","0.0-1.0-465.0-0.0","0","0","66805","","null","","","null","51","","","","","","","","","","","","","","","",""
"","ITI","","html-keyboard-response","337","316953","0.0-1.0-468.0","0","0","66805","","null","","","null","51","","","","","","","","","","","","","","","NaN",""
"","S1","","html-keyboard-response","338","317209","0.0-1.0-470.0","0","0","66805","","null","","","null","52","","","","","","","","","","","","","","","",""
"","ISI","","html-keyboard-response","339","318215","0.0-1.0-471.0","0","0","66805","","null","","","null","52","NaN","","","","","","","","","","","","","","",""
"","S2","","html-keyboard-response","340","318471","0.0-1.0-472.0","0","0","66805","","null","","","null","52","","NaN","","","","","","","","","","","","","",""
"","response","","html-keyboard-response","341","319064","0.0-1.0-473.0-0.0","0","0","66805","","587","","","68","52","","","2","52","training","adjacent","BA","2","1","M.jpg","O.jpg","0","0","1","",""
"","feedback","","html-keyboard-response","342","320082","0.0-1.0-474.0-0.0","0","0","66805","","null","","","null","52","","","","","","","","","","","","","","","",""
"","ITI","","html-keyboard-response","343","321089","0.0-1.0-477.0","0","0","66805","","null","","","null","52","","","","","","","","","","","","","","","NaN",""
"","S1","","html-keyboard-response","344","321345","0.0-1.0-479.0","0","0","66805","","null","","","null","53","","","","","","","","","","","","","","","",""
"","ISI","","html-keyboard-response","345","322362","0.0-1.0-480.0","0","0","66805","","null","","","null","53","NaN","","","","","","","","","","","","","","",""
"","S2","","html-keyboard-response","346","322616","0.0-1.0-481.0","0","0","66805","","null","","","null","53","","NaN","","","","","","","","","","","","","",""
"","response","","html-keyboard-response","347","323691","0.0-1.0-482.0-0.0","0","0","66805","","1071","","","68","53","","","2","53","training","adjacent","CB","3","2","P.jpg","M.jpg","0","0","1","",""
"","feedback","","html-keyboard-response","348","324698","0.0-1.0-483.0-0.0","0","0","66805","","null","","","null","53","","","","","","","","","","","","","","","",""
"","ITI","","html-keyboard-response","349","325702","0.0-1.0-486.0","0","0","66805","","null","","","null","53","","","","","","","","","","","","","","","NaN",""
"","S1","","html-keyboard-response","350","325956","0.0-1.0-488.0","0","0","66805","","null","","","null","54","","","","","","","","","","","","","","","",""
"","ISI","","html-keyboard-response","351","326961","0.0-1.0-489.0","0","0","66805","","null","","","null","54","NaN","","","","","","","","","","","","","","",""
"","S2","","html-keyboard-response","352","327217","0.0-1.0-490.0","0","0","66805","","null","","","null","54","","NaN","","","","","","","","","","","","","",""
"","response","","html-keyboard-response","353","327848","0.0-1.0-491.0-0.0","0","0","66805","","627","","","68","54","","","2","54","training","adjacent","FE","6","5","N.jpg","R.jpg","0","0","1","",""
"","feedback","","html-keyboard-response","354","328856","0.0-1.0-492.0-0.0","0","0","66805","","null","","","null","54","","","","","","","","","","","","","","","",""
"","ITI","","html-keyboard-response","355","329861","0.0-1.0-495.0","0","0","66805","","null","","","null","54","","","","","","","","","","","","","","","NaN",""
"","S1","","html-keyboard-response","356","330117","0.0-1.0-497.0","0","0","66805","","null","","","null","55","","","","","","","","","","","","","","","",""
"","ISI","","html-keyboard-response","357","331138","0.0-1.0-498.0","0","0","66805","","null","","","null","55","NaN","","","","","","","","","","","","","","",""
"","S2","","html-keyboard-response","358","331396","0.0-1.0-499.0","0","0","66805","","null","","","null","55","","NaN","","","","","","","","","","","","","",""
"","response","","html-keyboard-response","359","332319","0.0-1.0-500.0-0.0","0","0","66805","","918","","","75","55","","","2","55","training","adjacent","DE","4","5","Q.jpg","R.jpg","1","1","1","",""
"","feedback","","html-keyboard-response","360","333327","0.0-1.0-501.0-0.0","0","0","66805","","null","","","null","55","","","","","","","","","","","","","","","",""
"","ITI","","html-keyboard-response","361","334333","0.0-1.0-504.0","0","0","66805","","null","","","null","55","","","","","","","","","","","","","","","NaN",""
"","S1","","html-keyboard-response","362","334590","0.0-1.0-506.0","0","0","66805","","null","","","null","56","","","","","","","","","","","","","","","",""
"","ISI","","html-keyboard-response","363","335595","0.0-1.0-507.0","0","0","66805","","null","","","null","56","NaN","","","","","","","","","","","","","","",""
"","S2","","html-keyboard-response","364","335851","0.0-1.0-508.0","0","0","66805","","null","","","null","56","","NaN","","","","","","","","","","","","","",""
"","response","","html-keyboard-response","365","336993","0.0-1.0-509.0-0.0","0","0","66805","","1139","","","68","56","","","2","56","training","adjacent","CB","3","2","P.jpg","M.jpg","0","0","1","",""
"","feedback","","html-keyboard-response","366","337997","0.0-1.0-510.0-0.0","0","0","66805","","null","","","null","56","","","","","","","","","","","","","","","",""
"","ITI","","html-keyboard-response","367","339000","0.0-1.0-513.0","0","0","66805","","null","","","null","56","","","","","","","","","","","","","","","NaN",""
"","S1","","html-keyboard-response","368","339256","0.0-1.0-515.0","0","0","66805","","null","","","null","57","","","","","","","","","","","","","","","",""
"","ISI","","html-keyboard-response","369","340262","0.0-1.0-516.0","0","0","66805","","null","","","null","57","NaN","","","","","","","","","","","","","","",""
"","S2","","html-keyboard-response","370","340520","0.0-1.0-517.0","0","0","66805","","null","","","null","57","","NaN","","","","","","","","","","","","","",""
"","response","","html-keyboard-response","371","341518","0.0-1.0-518.0-0.0","0","0","66805","","992","","","75","57","","","2","57","training","adjacent","CD","3","4","P.jpg","Q.jpg","1","1","1","",""
"","feedback","","html-keyboard-response","372","342522","0.0-1.0-519.0-0.0","0","0","66805","","null","","","null","57","","","","","","","","","","","","","","","",""
"","ITI","","html-keyboard-response","373","343527","0.0-1.0-522.0","0","0","66805","","null","","","null","57","","","","","","","","","","","","","","","NaN",""
"","S1","","html-keyboard-response","374","343792","0.0-1.0-524.0","0","0","66805","","null","","","null","58","","","","","","","","","","","","","","","",""
"","ISI","","html-keyboard-response","375","344797","0.0-1.0-525.0","0","0","66805","","null","","","null","58","NaN","","","","","","","","","","","","","","",""
"","S2","","html-keyboard-response","376","345054","0.0-1.0-526.0","0","0","66805","","null","","","null","58","","NaN","","","","","","","","","","","","","",""
"","response","","html-keyboard-response","377","345908","0.0-1.0-527.0-0.0","0","0","66805","","848","","","68","58","","","2","58","training","adjacent","ED","5","4","R.jpg","Q.jpg","0","0","1","",""
"","feedback","","html-keyboard-response","378","346915","0.0-1.0-528.0-0.0","0","0","66805","","null","","","null","58","","","","","","","","","","","","","","","",""
"","ITI","","html-keyboard-response","379","347922","0.0-1.0-531.0","0","0","66805","","null","","","null","58","","","","","","","","","","","","","","","NaN",""
"","S1","","html-keyboard-response","380","348178","0.0-1.0-533.0","0","0","66805","","null","","","null","59","","","","","","","","","","","","","","","",""
"","ISI","","html-keyboard-response","381","349185","0.0-1.0-534.0","0","0","66805","","null","","","null","59","NaN","","","","","","","","","","","","","","",""
"","S2","","html-keyboard-response","382","349443","0.0-1.0-535.0","0","0","66805","","null","","","null","59","","NaN","","","","","","","","","","","","","",""
"","response","","html-keyboard-response","383","350127","0.0-1.0-536.0-0.0","0","0","66805","","679","","","75","59","","","2","59","training","adjacent","EF","5","6","R.jpg","N.jpg","1","1","1","",""
"","feedback","","html-keyboard-response","384","351133","0.0-1.0-537.0-0.0","0","0","66805","","null","","","null","59","","","","","","","","","","","","","","","",""
"","ITI","","html-keyboard-response","385","352140","0.0-1.0-540.0","0","0","66805","","null","","","null","59","","","","","","","","","","","","","","","NaN",""
"","S1","","html-keyboard-response","386","352395","0.0-1.0-542.0","0","0","66805","","null","","","null","60","","","","","","","","","","","","","","","",""
"","ISI","","html-keyboard-response","387","353400","0.0-1.0-543.0","0","0","66805","","null","","","null","60","NaN","","","","","","","","","","","","","","",""
"","S2","","html-keyboard-response","388","353656","0.0-1.0-544.0","0","0","66805","","null","","","null","60","","NaN","","","","","","","","","","","","","",""
"","response","","html-keyboard-response","389","355009","0.0-1.0-545.0-0.0","0","0","66805","","1347","","","75","60","","","2","60","training","adjacent","CD","3","4","P.jpg","Q.jpg","1","1","1","",""
"","feedback","","html-keyboard-response","390","356015","0.0-1.0-546.0-0.0","0","0","66805","","null","","","null","60","","","","","","","","","","","","","","","",""
"","ITI","","html-keyboard-response","391","357022","0.0-1.0-549.0","0","0","66805","","null","","","null","60","","","","","","","","","","","","","","","NaN",""
"","S1","","html-keyboard-response","392","357278","0.0-1.0-551.0","0","0","66805","","null","","","null","61","","","","","","","","","","","","","","","",""
"","ISI","","html-keyboard-response","393","358283","0.0-1.0-552.0","0","0","66805","","null","","","null","61","NaN","","","","","","","","","","","","","","",""
"","S2","","html-keyboard-response","394","358540","0.0-1.0-553.0","0","0","66805","","null","","","null","61","","NaN","","","","","","","","","","","","","",""
"","response","","html-keyboard-response","395","359558","0.0-1.0-554.0-0.0","0","0","66805","","1014","","","75","61","","","2","61","training","adjacent","CD","3","4","P.jpg","Q.jpg","1","1","1","",""
"","feedback","","html-keyboard-response","396","360564","0.0-1.0-555.0-0.0","0","0","66805","","null","","","null","61","","","","","","","","","","","","","","","",""
"","ITI","","html-keyboard-response","397","361578","0.0-1.0-558.0","0","0","66805","","null","","","null","61","","","","","","","","","","","","","","","NaN",""
"","S1","","html-keyboard-response","398","361835","0.0-1.0-560.0","0","0","66805","","null","","","null","62","","","","","","","","","","","","","","","",""
"","ISI","","html-keyboard-response","399","362839","0.0-1.0-561.0","0","0","66805","","null","","","null","62","NaN","","","","","","","","","","","","","","",""
"","S2","","html-keyboard-response","400","363095","0.0-1.0-562.0","0","0","66805","","null","","","null","62","","NaN","","","","","","","","","","","","","",""
"","response","","html-keyboard-response","401","363575","0.0-1.0-563.0-0.0","0","0","66805","","476","","","68","62","","","2","62","training","adjacent","BA","2","1","M.jpg","O.jpg","0","0","1","",""
"","feedback","","html-keyboard-response","402","364582","0.0-1.0-564.0-0.0","0","0","66805","","null","","","null","62","","","","","","","","","","","","","","","",""
"","ITI","","html-keyboard-response","403","365588","0.0-1.0-567.0","0","0","66805","","null","","","null","62","","","","","","","","","","","","","","","NaN",""
"","S1","","html-keyboard-response","404","365842","0.0-1.0-569.0","0","0","66805","","null","","","null","63","","","","","","","","","","","","","","","",""
"","ISI","","html-keyboard-response","405","366845","0.0-1.0-570.0","0","0","66805","","null","","","null","63","NaN","","","","","","","","","","","","","","",""
"","S2","","html-keyboard-response","406","367100","0.0-1.0-571.0","0","0","66805","","null","","","null","63","","NaN","","","","","","","","","","","","","",""
"","response","","html-keyboard-response","407","367377","0.0-1.0-572.0-0.0","0","0","66805","","273","","","75","63","","","2","63","training","adjacent","EF","5","6","R.jpg","N.jpg","1","1","1","",""
"","feedback","","html-keyboard-response","408","368382","0.0-1.0-573.0-0.0","0","0","66805","","null","","","null","63","","","","","","","","","","","","","","","",""
"","ITI","","html-keyboard-response","409","369388","0.0-1.0-576.0","0","0","66805","","null","","","null","63","","","","","","","","","","","","","","","NaN",""
"","S1","","html-keyboard-response","410","369644","0.0-1.0-578.0","0","0","66805","","null","","","null","64","","","","","","","","","","","","","","","",""
"","ISI","","html-keyboard-response","411","370650","0.0-1.0-579.0","0","0","66805","","null","","","null","64","NaN","","","","","","","","","","","","","","",""
"","S2","","html-keyboard-response","412","370904","0.0-1.0-580.0","0","0","66805","","null","","","null","64","","NaN","","","","","","","","","","","","","",""
"","response","","html-keyboard-response","413","371626","0.0-1.0-581.0-0.0","0","0","66805","","718","","","68","64","","","2","64","training","adjacent","CB","3","2","P.jpg","M.jpg","0","0","1","",""
"","feedback","","html-keyboard-response","414","372629","0.0-1.0-582.0-0.0","0","0","66805","","null","","","null","64","","","","","","","","","","","","","","","",""
"","ITI","","html-keyboard-response","415","373635","0.0-1.0-585.0","0","0","66805","","null","","","null","64","","","","","","","","","","","","","","","NaN",""
"","S1","","html-keyboard-response","416","373892","0.0-1.0-587.0","0","0","66805","","null","","","null","65","","","","","","","","","","","","","","","",""
"","ISI","","html-keyboard-response","417","374898","0.0-1.0-588.0","0","0","66805","","null","","","null","65","NaN","","","","","","","","","","","","","","",""
"","S2","","html-keyboard-response","418","375154","0.0-1.0-589.0","0","0","66805","","null","","","null","65","","NaN","","","","","","","","","","","","","",""
"","response","","html-keyboard-response","419","375187","0.0-1.0-590.0-0.0","0","0","66805","","29","","","75","65","","","2","65","training","adjacent","AB","1","2","O.jpg","M.jpg","1","1","1","",""
"","feedback","","html-keyboard-response","420","376192","0.0-1.0-591.0-0.0","0","0","66805","","null","","","null","65","","","","","","","","","","","","","","","",""
"","ITI","","html-keyboard-response","421","377200","0.0-1.0-594.0","0","0","66805","","null","","","null","65","","","","","","","","","","","","","","","NaN",""
"","S1","","html-keyboard-response","422","377457","0.0-1.0-596.0","0","0","66805","","null","","","null","66","","","","","","","","","","","","","","","",""
"","ISI","","html-keyboard-response","423","378463","0.0-1.0-597.0","0","0","66805","","null","","","null","66","NaN","","","","","","","","","","","","","","",""
"","S2","","html-keyboard-response","424","378720","0.0-1.0-598.0","0","0","66805","","null","","","null","66","","NaN","","","","","","","","","","","","","",""
"","response","","html-keyboard-response","425","379129","0.0-1.0-599.0-0.0","0","0","66805","","404","","","68","66","","","2","66","training","adjacent","BA","2","1","M.jpg","O.jpg","0","0","1","",""
"","feedback","","html-keyboard-response","426","380136","0.0-1.0-600.0-0.0","0","0","66805","","null","","","null","66","","","","","","","","","","","","","","","",""
"","ITI","","html-keyboard-response","427","381142","0.0-1.0-603.0","0","0","66805","","null","","","null","66","","","","","","","","","","","","","","","NaN",""
"","S1","","html-keyboard-response","428","381399","0.0-1.0-605.0","0","0","66805","","null","","","null","67","","","","","","","","","","","","","","","",""
"","ISI","","html-keyboard-response","429","382405","0.0-1.0-606.0","0","0","66805","","null","","","null","67","NaN","","","","","","","","","","","","","","",""
"","S2","","html-keyboard-response","430","382659","0.0-1.0-607.0","0","0","66805","","null","","","null","67","","NaN","","","","","","","","","","","","","",""
"","response","","html-keyboard-response","431","382665","0.0-1.0-608.0-0.0","0","0","66805","","5","","","68","67","","","2","67","training","adjacent","GF","7","6","L.jpg","N.jpg","0","0","1","",""
"","feedback","","html-keyboard-response","432","383670","0.0-1.0-609.0-0.0","0","0","66805","","null","","","null","67","","","","","","","","","","","","","","","",""
"","ITI","","html-keyboard-response","433","384686","0.0-1.0-612.0","0","0","66805","","null","","","null","67","","","","","","","","","","","","","","","NaN",""
"","S1","","html-keyboard-response","434","384942","0.0-1.0-614.0","0","0","66805","","null","","","null","68","","","","","","","","","","","","","","","",""
"","ISI","","html-keyboard-response","435","385947","0.0-1.0-615.0","0","0","66805","","null","","","null","68","NaN","","","","","","","","","","","","","","",""
"","S2","","html-keyboard-response","436","386204","0.0-1.0-616.0","0","0","66805","","null","","","null","68","","NaN","","","","","","","","","","","","","",""
"","response","","html-keyboard-response","437","386459","0.0-1.0-617.0-0.0","0","0","66805","","249","","","75","68","","","2","68","training","adjacent","FG","6","7","N.jpg","L.jpg","1","1","1","",""
"","feedback","","html-keyboard-response","438","387467","0.0-1.0-618.0-0.0","0","0","66805","","null","","","null","68","","","","","","","","","","","","","","","",""
"","ITI","","html-keyboard-response","439","388473","0.0-1.0-621.0","0","0","66805","","null","","","null","68","","","","","","","","","","","","","","","NaN",""
"","S1","","html-keyboard-response","440","388730","0.0-1.0-623.0","0","0","66805","","null","","","null","69","","","","","","","","","","","","","","","",""
"","ISI","","html-keyboard-response","441","389737","0.0-1.0-624.0","0","0","66805","","null","","","null","69","NaN","","","","","","","","","","","","","","",""
"","S2","","html-keyboard-response","442","390006","0.0-1.0-625.0","0","0","66805","","null","","","null","69","","NaN","","","","","","","","","","","","","",""
"","response","","html-keyboard-response","443","390034","0.0-1.0-626.0-0.0","0","0","66805","","26","","","68","69","","","2","69","training","adjacent","GF","7","6","L.jpg","N.jpg","0","0","1","",""
"","feedback","","html-keyboard-response","444","391040","0.0-1.0-627.0-0.0","0","0","66805","","null","","","null","69","","","","","","","","","","","","","","","",""
"","ITI","","html-keyboard-response","445","392047","0.0-1.0-630.0","0","0","66805","","null","","","null","69","","","","","","","","","","","","","","","NaN",""
"","S1","","html-keyboard-response","446","392304","0.0-1.0-632.0","0","0","66805","","null","","","null","70","","","","","","","","","","","","","","","",""
"","ISI","","html-keyboard-response","447","393309","0.0-1.0-633.0","0","0","66805","","null","","","null","70","NaN","","","","","","","","","","","","","","",""
"","S2","","html-keyboard-response","448","393563","0.0-1.0-634.0","0","0","66805","","null","","","null","70","","NaN","","","","","","","","","","","","","",""
"","response","","html-keyboard-response","449","394525","0.0-1.0-635.0-0.0","0","0","66805","","958","","","75","70","","","2","70","training","adjacent","DE","4","5","Q.jpg","R.jpg","1","1","1","",""
"","feedback","","html-keyboard-response","450","395533","0.0-1.0-636.0-0.0","0","0","66805","","null","","","null","70","","","","","","","","","","","","","","","",""
"","ITI","","html-keyboard-response","451","396539","0.0-1.0-639.0","0","0","66805","","null","","","null","70","","","","","","","","","","","","","","","NaN",""
"","S1","","html-keyboard-response","452","396797","0.0-1.0-641.0","0","0","66805","","null","","","null","71","","","","","","","","","","","","","","","",""
"","ISI","","html-keyboard-response","453","397813","0.0-1.0-642.0","0","0","66805","","null","","","null","71","NaN","","","","","","","","","","","","","","",""
"","S2","","html-keyboard-response","454","398069","0.0-1.0-643.0","0","0","66805","","null","","","null","71","","NaN","","","","","","","","","","","","","",""
"","response","","html-keyboard-response","455","398442","0.0-1.0-644.0-0.0","0","0","66805","","369","","","68","71","","","2","71","training","adjacent","FE","6","5","N.jpg","R.jpg","0","0","1","",""
"","feedback","","html-keyboard-response","456","399450","0.0-1.0-645.0-0.0","0","0","66805","","null","","","null","71","","","","","","","","","","","","","","","",""
"","ITI","","html-keyboard-response","457","400456","0.0-1.0-648.0","0","0","66805","","null","","","null","71","","","","","","","","","","","","","","","NaN",""
"","S1","","html-keyboard-response","458","400724","0.0-1.0-650.0","0","0","66805","","null","","","null","72","","","","","","","","","","","","","","","",""
"","ISI","","html-keyboard-response","459","401727","0.0-1.0-651.0","0","0","66805","","null","","","null","72","NaN","","","","","","","","","","","","","","",""
"","S2","","html-keyboard-response","460","401982","0.0-1.0-652.0","0","0","66805","","null","","","null","72","","NaN","","","","","","","","","","","","","",""
"","response","","html-keyboard-response","461","402346","0.0-1.0-653.0-0.0","0","0","66805","","359","","","68","72","","","2","72","training","adjacent","ED","5","4","R.jpg","Q.jpg","0","0","1","",""
"","feedback","","html-keyboard-response","462","403353","0.0-1.0-654.0-0.0","0","0","66805","","null","","","null","72","","","","","","","","","","","","","","","",""
"","ITI","","html-keyboard-response","463","404359","0.0-1.0-657.0","0","0","66805","","null","","","null","72","","","","","","","","","","","","","","","NaN",""
"","S1","","html-keyboard-response","464","404622","0.0-1.0-659.0","0","0","66805","","null","","","null","73","","","","","","","","","","","","","","","",""
"","ISI","","html-keyboard-response","465","405628","0.0-1.0-660.0","0","0","66805","","null","","","null","73","NaN","","","","","","","","","","","","","","",""
"","S2","","html-keyboard-response","466","405883","0.0-1.0-661.0","0","0","66805","","null","","","null","73","","NaN","","","","","","","","","","","","","",""
"","response","","html-keyboard-response","467","406305","0.0-1.0-662.0-0.0","0","0","66805","","418","","","68","73","","","2","73","training","adjacent","FE","6","5","N.jpg","R.jpg","0","0","1","",""
"","feedback","","html-keyboard-response","468","407313","0.0-1.0-663.0-0.0","0","0","66805","","null","","","null","73","","","","","","","","","","","","","","","",""
"","ITI","","html-keyboard-response","469","408322","0.0-1.0-666.0","0","0","66805","","null","","","null","73","","","","","","","","","","","","","","","NaN",""
"","S1","","html-keyboard-response","470","408578","0.0-1.0-668.0","0","0","66805","","null","","","null","74","","","","","","","","","","","","","","","",""
"","ISI","","html-keyboard-response","471","409584","0.0-1.0-669.0","0","0","66805","","null","","","null","74","NaN","","","","","","","","","","","","","","",""
"","S2","","html-keyboard-response","472","409842","0.0-1.0-670.0","0","0","66805","","null","","","null","74","","NaN","","","","","","","","","","","","","",""
"","response","","html-keyboard-response","473","410645","0.0-1.0-671.0-0.0","0","0","66805","","799","","","68","74","","","2","74","training","adjacent","BC","2","3","M.jpg","P.jpg","0","1","0","",""
"","feedback","","html-keyboard-response","474","411653","0.0-1.0-672.0-0.0","0","0","66805","","null","","","null","74","","","","","","","","","","","","","","","",""
"","time_out","","html-keyboard-response","475","413658","0.0-1.0-674.0-0.0","0","0","66805","","null","","","null","74","","","","","","","","","","","","","","","",""
"","ITI","","html-keyboard-response","476","414663","0.0-1.0-675.0","0","0","66805","","null","","","null","74","","","","","","","","","","","","","","","NaN",""
"","S1","","html-keyboard-response","477","414920","0.0-1.0-677.0","0","0","66805","","null","","","null","75","","","","","","","","","","","","","","","",""
"","ISI","","html-keyboard-response","478","415925","0.0-1.0-678.0","0","0","66805","","null","","","null","75","NaN","","","","","","","","","","","","","","",""
"","S2","","html-keyboard-response","479","416179","0.0-1.0-679.0","0","0","66805","","null","","","null","75","","NaN","","","","","","","","","","","","","",""
"","response","","html-keyboard-response","480","416876","0.0-1.0-680.0-0.0","0","0","66805","","692","","","75","75","","","2","75","training","adjacent","EF","5","6","R.jpg","N.jpg","1","1","1","",""
"","feedback","","html-keyboard-response","481","417884","0.0-1.0-681.0-0.0","0","0","66805","","null","","","null","75","","","","","","","","","","","","","","","",""
"","ITI","","html-keyboard-response","482","418890","0.0-1.0-684.0","0","0","66805","","null","","","null","75","","","","","","","","","","","","","","","NaN",""
"","S1","","html-keyboard-response","483","419148","0.0-1.0-686.0","0","0","66805","","null","","","null","76","","","","","","","","","","","","","","","",""
"","ISI","","html-keyboard-response","484","420153","0.0-1.0-687.0","0","0","66805","","null","","","null","76","NaN","","","","","","","","","","","","","","",""
"","S2","","html-keyboard-response","485","420411","0.0-1.0-688.0","0","0","66805","","null","","","null","76","","NaN","","","","","","","","","","","","","",""
"","response","","html-keyboard-response","486","420855","0.0-1.0-689.0-0.0","0","0","66805","","440","","","68","76","","","2","76","training","adjacent","ED","5","4","R.jpg","Q.jpg","0","0","1","",""
"","feedback","","html-keyboard-response","487","421862","0.0-1.0-690.0-0.0","0","0","66805","","null","","","null","76","","","","","","","","","","","","","","","",""
"","ITI","","html-keyboard-response","488","422869","0.0-1.0-693.0","0","0","66805","","null","","","null","76","","","","","","","","","","","","","","","NaN",""
"","S1","","html-keyboard-response","489","423127","0.0-1.0-695.0","0","0","66805","","null","","","null","77","","","","","","","","","","","","","","","",""
"","ISI","","html-keyboard-response","490","424132","0.0-1.0-696.0","0","0","66805","","null","","","null","77","NaN","","","","","","","","","","","","","","",""
"","S2","","html-keyboard-response","491","424386","0.0-1.0-697.0","0","0","66805","","null","","","null","77","","NaN","","","","","","","","","","","","","",""
"","response","","html-keyboard-response","492","425154","0.0-1.0-698.0-0.0","0","0","66805","","764","","","68","77","","","2","77","training","adjacent","CB","3","2","P.jpg","M.jpg","0","0","1","",""
"","feedback","","html-keyboard-response","493","426160","0.0-1.0-699.0-0.0","0","0","66805","","null","","","null","77","","","","","","","","","","","","","","","",""
"","ITI","","html-keyboard-response","494","427166","0.0-1.0-702.0","0","0","66805","","null","","","null","77","","","","","","","","","","","","","","","NaN",""
"","S1","","html-keyboard-response","495","427420","0.0-1.0-704.0","0","0","66805","","null","","","null","78","","","","","","","","","","","","","","","",""
"","ISI","","html-keyboard-response","496","428425","0.0-1.0-705.0","0","0","66805","","null","","","null","78","NaN","","","","","","","","","","","","","","",""
"","S2","","html-keyboard-response","497","428566","0.0-1.0-706.0","0","0","66805","","135","","","68","78","","d","2","78","training","adjacent","GF","7","6","L.jpg","N.jpg","0","0","1","",""
"","feedback","","html-keyboard-response","498","429571","0.0-1.0-708.0-0.0","0","0","66805","","null","","","null","78","","","","","","","","","","","","","","","",""
"","ITI","","html-keyboard-response","499","430576","0.0-1.0-711.0","0","0","66805","","null","","","null","78","","","","","","","","","","","","","","","NaN",""
"","S1","","html-keyboard-response","500","430832","0.0-1.0-713.0","0","0","66805","","null","","","null","79","","","","","","","","","","","","","","","",""
"","ISI","","html-keyboard-response","501","431838","0.0-1.0-714.0","0","0","66805","","null","","","null","79","NaN","","","","","","","","","","","","","","",""
"","S2","","html-keyboard-response","502","432108","0.0-1.0-715.0","0","0","66805","","null","","","null","79","","NaN","","","","","","","","","","","","","",""
"","response","","html-keyboard-response","503","432923","0.0-1.0-716.0-0.0","0","0","66805","","809","","","75","79","","","2","79","training","adjacent","DE","4","5","Q.jpg","R.jpg","1","1","1","",""
"","feedback","","html-keyboard-response","504","433931","0.0-1.0-717.0-0.0","0","0","66805","","null","","","null","79","","","","","","","","","","","","","","","",""
"","ITI","","html-keyboard-response","505","434937","0.0-1.0-720.0","0","0","66805","","null","","","null","79","","","","","","","","","","","","","","","NaN",""
"","S1","","html-keyboard-response","506","435192","0.0-1.0-722.0","0","0","66805","","null","","","null","80","","","","","","","","","","","","","","","",""
"","ISI","","html-keyboard-response","507","436208","0.0-1.0-723.0","0","0","66805","","null","","","null","80","NaN","","","","","","","","","","","","","","",""
"","S2","","html-keyboard-response","508","436464","0.0-1.0-724.0","0","0","66805","","null","","","null","80","","NaN","","","","","","","","","","","","","",""
"","response","","html-keyboard-response","509","436999","0.0-1.0-725.0-0.0","0","0","66805","","529","","","68","80","","","2","80","training","adjacent","BA","2","1","M.jpg","O.jpg","0","0","1","",""
"","feedback","","html-keyboard-response","510","438006","0.0-1.0-726.0-0.0","0","0","66805","","null","","","null","80","","","","","","","","","","","","","","","",""
"","ITI","","html-keyboard-response","511","439017","0.0-1.0-729.0","0","0","66805","","null","","","null","80","","","","","","","","","","","","","","","NaN",""
"","S1","","html-keyboard-response","512","439273","0.0-1.0-731.0","0","0","66805","","null","","","null","81","","","","","","","","","","","","","","","",""
"","ISI","","html-keyboard-response","513","440278","0.0-1.0-732.0","0","0","66805","","null","","","null","81","NaN","","","","","","","","","","","","","","",""
"","S2","","html-keyboard-response","514","440534","0.0-1.0-733.0","0","0","66805","","null","","","null","81","","NaN","","","","","","","","","","","","","",""
"","response","","html-keyboard-response","515","441762","0.0-1.0-734.0-0.0","0","0","66805","","1221","","","75","81","","","2","81","training","adjacent","BC","2","3","M.jpg","P.jpg","1","1","1","",""
"","feedback","","html-keyboard-response","516","442770","0.0-1.0-735.0-0.0","0","0","66805","","null","","","null","81","","","","","","","","","","","","","","","",""
"","ITI","","html-keyboard-response","517","443776","0.0-1.0-738.0","0","0","66805","","null","","","null","81","","","","","","","","","","","","","","","NaN",""
"","S1","","html-keyboard-response","518","444041","0.0-1.0-740.0","0","0","66805","","null","","","null","82","","","","","","","","","","","","","","","",""
"","ISI","","html-keyboard-response","519","445045","0.0-1.0-741.0","0","0","66805","","null","","","null","82","NaN","","","","","","","","","","","","","","",""
"","S2","","html-keyboard-response","520","445302","0.0-1.0-742.0","0","0","66805","","null","","","null","82","","NaN","","","","","","","","","","","","","",""
"","response","","html-keyboard-response","521","445778","0.0-1.0-743.0-0.0","0","0","66805","","473","","","68","82","","","2","82","training","adjacent","ED","5","4","R.jpg","Q.jpg","0","0","1","",""
"","feedback","","html-keyboard-response","522","446785","0.0-1.0-744.0-0.0","0","0","66805","","null","","","null","82","","","","","","","","","","","","","","","",""
"","ITI","","html-keyboard-response","523","447792","0.0-1.0-747.0","0","0","66805","","null","","","null","82","","","","","","","","","","","","","","","NaN",""
"","S1","","html-keyboard-response","524","448047","0.0-1.0-749.0","0","0","66805","","null","","","null","83","","","","","","","","","","","","","","","",""
"","ISI","","html-keyboard-response","525","449051","0.0-1.0-750.0","0","0","66805","","null","","","null","83","NaN","","","","","","","","","","","","","","",""
"","S2","","html-keyboard-response","526","449307","0.0-1.0-751.0","0","0","66805","","null","","","null","83","","NaN","","","","","","","","","","","","","",""
"","response","","html-keyboard-response","527","450322","0.0-1.0-752.0-0.0","0","0","66805","","1010","","","75","83","","","2","83","training","adjacent","BC","2","3","M.jpg","P.jpg","1","1","1","",""
"","feedback","","html-keyboard-response","528","451328","0.0-1.0-753.0-0.0","0","0","66805","","null","","","null","83","","","","","","","","","","","","","","","",""
"","ITI","","html-keyboard-response","529","452336","0.0-1.0-756.0","0","0","66805","","null","","","null","83","","","","","","","","","","","","","","","NaN",""
"","S1","","html-keyboard-response","530","452593","0.0-1.0-758.0","0","0","66805","","null","","","null","84","","","","","","","","","","","","","","","",""
"","ISI","","html-keyboard-response","531","453607","0.0-1.0-759.0","0","0","66805","","null","","","null","84","NaN","","","","","","","","","","","","","","",""
"","S2","","html-keyboard-response","532","453863","0.0-1.0-760.0","0","0","66805","","null","","","null","84","","NaN","","","","","","","","","","","","","",""
"","response","","html-keyboard-response","533","454363","0.0-1.0-761.0-0.0","0","0","66805","","495","","","68","84","","","2","84","training","adjacent","DC","4","3","Q.jpg","P.jpg","0","0","1","",""
"","feedback","","html-keyboard-response","534","455371","0.0-1.0-762.0-0.0","0","0","66805","","null","","","null","84","","","","","","","","","","","","","","","",""
"","ITI","","html-keyboard-response","535","456377","0.0-1.0-765.0","0","0","66805","","null","","","null","84","","","","","","","","","","","","","","","NaN",""
"","S1","","html-keyboard-response","536","456637","0.0-1.0-767.0","0","0","66805","","null","","","null","85","","","","","","","","","","","","","","","",""
"","ISI","","html-keyboard-response","537","457641","0.0-1.0-768.0","0","0","66805","","null","","","null","85","NaN","","","","","","","","","","","","","","",""
"","S2","","html-keyboard-response","538","457896","0.0-1.0-769.0","0","0","66805","","null","","","null","85","","NaN","","","","","","","","","","","","","",""
"","response","","html-keyboard-response","539","458145","0.0-1.0-770.0-0.0","0","0","66805","","244","","","75","85","","","2","85","training","adjacent","CD","3","4","P.jpg","Q.jpg","1","1","1","",""
"","feedback","","html-keyboard-response","540","459151","0.0-1.0-771.0-0.0","0","0","66805","","null","","","null","85","","","","","","","","","","","","","","","",""
"","ITI","","html-keyboard-response","541","460159","0.0-1.0-774.0","0","0","66805","","null","","","null","85","","","","","","","","","","","","","","","NaN",""
"","S1","","html-keyboard-response","542","460414","0.0-1.0-776.0","0","0","66805","","null","","","null","86","","","","","","","","","","","","","","","",""
"","ISI","","html-keyboard-response","543","461431","0.0-1.0-777.0","0","0","66805","","null","","","null","86","NaN","","","","","","","","","","","","","","",""
"","S2","","html-keyboard-response","544","461687","0.0-1.0-778.0","0","0","66805","","null","","","null","86","","NaN","","","","","","","","","","","","","",""
"","response","","html-keyboard-response","545","461726","0.0-1.0-779.0-0.0","0","0","66805","","34","","","75","86","","","2","86","training","adjacent","AB","1","2","O.jpg","M.jpg","1","1","1","",""
"","feedback","","html-keyboard-response","546","462732","0.0-1.0-780.0-0.0","0","0","66805","","null","","","null","86","","","","","","","","","","","","","","","",""
"","ITI","","html-keyboard-response","547","463739","0.0-1.0-783.0","0","0","66805","","null","","","null","86","","","","","","","","","","","","","","","NaN",""
"","S1","","html-keyboard-response","548","463997","0.0-1.0-785.0","0","0","66805","","null","","","null","87","","","","","","","","","","","","","","","",""
"","ISI","","html-keyboard-response","549","465002","0.0-1.0-786.0","0","0","66805","","null","","","null","87","NaN","","","","","","","","","","","","","","",""
"","S2","","html-keyboard-response","550","465258","0.0-1.0-787.0","0","0","66805","","null","","","null","87","","NaN","","","","","","","","","","","","","",""
"","response","","html-keyboard-response","551","465642","0.0-1.0-788.0-0.0","0","0","66805","","380","","","75","87","","","2","87","training","adjacent","FG","6","7","N.jpg","L.jpg","1","1","1","",""
"","feedback","","html-keyboard-response","552","466651","0.0-1.0-789.0-0.0","0","0","66805","","null","","","null","87","","","","","","","","","","","","","","","",""
"","ITI","","html-keyboard-response","553","467656","0.0-1.0-792.0","0","0","66805","","null","","","null","87","","","","","","","","","","","","","","","NaN",""
"","S1","","html-keyboard-response","554","467912","0.0-1.0-794.0","0","0","66805","","null","","","null","88","","","","","","","","","","","","","","","",""
"","ISI","","html-keyboard-response","555","468919","0.0-1.0-795.0","0","0","66805","","null","","","null","88","NaN","","","","","","","","","","","","","","",""
"","S2","","html-keyboard-response","556","469175","0.0-1.0-796.0","0","0","66805","","null","","","null","88","","NaN","","","","","","","","","","","","","",""
"","response","","html-keyboard-response","557","469817","0.0-1.0-797.0-0.0","0","0","66805","","638","","","68","88","","","2","88","training","adjacent","EF","5","6","R.jpg","N.jpg","0","1","0","",""
"","feedback","","html-keyboard-response","558","470821","0.0-1.0-798.0-0.0","0","0","66805","","null","","","null","88","","","","","","","","","","","","","","","",""
"","time_out","","html-keyboard-response","559","472827","0.0-1.0-800.0-0.0","0","0","66805","","null","","","null","88","","","","","","","","","","","","","","","",""
"","ITI","","html-keyboard-response","560","473832","0.0-1.0-801.0","0","0","66805","","null","","","null","88","","","","","","","","","","","","","","","NaN",""
"","S1","","html-keyboard-response","561","474088","0.0-1.0-803.0","0","0","66805","","null","","","null","89","","","","","","","","","","","","","","","",""
"","ISI","","html-keyboard-response","562","475095","0.0-1.0-804.0","0","0","66805","","null","","","null","89","NaN","","","","","","","","","","","","","","",""
"","S2","","html-keyboard-response","563","475352","0.0-1.0-805.0","0","0","66805","","null","","","null","89","","NaN","","","","","","","","","","","","","",""
"","response","","html-keyboard-response","564","475699","0.0-1.0-806.0-0.0","0","0","66805","","342","","","75","89","","","2","89","training","adjacent","FG","6","7","N.jpg","L.jpg","1","1","1","",""
"","feedback","","html-keyboard-response","565","476705","0.0-1.0-807.0-0.0","0","0","66805","","null","","","null","89","","","","","","","","","","","","","","","",""
"","ITI","","html-keyboard-response","566","477709","0.0-1.0-810.0","0","0","66805","","null","","","null","89","","","","","","","","","","","","","","","NaN",""
"","S1","","html-keyboard-response","567","477964","0.0-1.0-812.0","0","0","66805","","null","","","null","90","","","","","","","","","","","","","","","",""
"","ISI","","html-keyboard-response","568","478969","0.0-1.0-813.0","0","0","66805","","null","","","null","90","NaN","","","","","","","","","","","","","","",""
"","S2","","html-keyboard-response","569","479227","0.0-1.0-814.0","0","0","66805","","null","","","null","90","","NaN","","","","","","","","","","","","","",""
"","response","","html-keyboard-response","570","479379","0.0-1.0-815.0-0.0","0","0","66805","","146","","","75","90","","","2","90","training","adjacent","FG","6","7","N.jpg","L.jpg","1","1","1","",""
"","feedback","","html-keyboard-response","571","480388","0.0-1.0-816.0-0.0","0","0","66805","","null","","","null","90","","","","","","","","","","","","","","","",""
"","ITI","","html-keyboard-response","572","481396","0.0-1.0-819.0","0","0","66805","","null","","","null","90","","","","","","","","","","","","","","","NaN",""
"","S1","","html-keyboard-response","573","481665","0.0-1.0-821.0","0","0","66805","","null","","","null","91","","","","","","","","","","","","","","","",""
"","ISI","","html-keyboard-response","574","482669","0.0-1.0-822.0","0","0","66805","","null","","","null","91","NaN","","","","","","","","","","","","","","",""
"","S2","","html-keyboard-response","575","482922","0.0-1.0-823.0","0","0","66805","","null","","","null","91","","NaN","","","","","","","","","","","","","",""
"","response","","html-keyboard-response","576","483635","0.0-1.0-824.0-0.0","0","0","66805","","709","","","68","91","","","2","91","training","adjacent","DC","4","3","Q.jpg","P.jpg","0","0","1","",""
"","feedback","","html-keyboard-response","577","484643","0.0-1.0-825.0-0.0","0","0","66805","","null","","","null","91","","","","","","","","","","","","","","","",""
"","ITI","","html-keyboard-response","578","485650","0.0-1.0-828.0","0","0","66805","","null","","","null","91","","","","","","","","","","","","","","","NaN",""
"","S1","","html-keyboard-response","579","485907","0.0-1.0-830.0","0","0","66805","","null","","","null","92","","","","","","","","","","","","","","","",""
"","ISI","","html-keyboard-response","580","486911","0.0-1.0-831.0","0","0","66805","","null","","","null","92","NaN","","","","","","","","","","","","","","",""
"","S2","","html-keyboard-response","581","487166","0.0-1.0-832.0","0","0","66805","","null","","","null","92","","NaN","","","","","","","","","","","","","",""
"","response","","html-keyboard-response","582","487677","0.0-1.0-833.0-0.0","0","0","66805","","509","","","68","92","","","2","92","training","adjacent","DC","4","3","Q.jpg","P.jpg","0","0","1","",""
