"success","ttype","start_time","trial_type","trial_index","time_elapsed","internal_node_id","warning","missed_checkup","PID","view_history","rt","responses","repeat_instructions","key_press","index","keypress_isi","keypress_S2","block","trial_num","phase","group_type","pair_type","S1_stim","S2_stim","S1_img","S2_img","S1_chosen","S1_higher","accuracy","keypress_iti","total_bonus_tally"
"true","full_screen","d03032023hr2036","fullscreen","0","7017","0.0-0.0","0","0","94905","","","","","","","","","","","","","","","","","","","","","",""
"","instructions","","instructions","1","11606","0.0-1.0-0.0-0.0","0","0","94905","[{""page_index"":0,""viewing_time"":1535},{""page_index"":1,""viewing_time"":766},{""page_index"":2,""viewing_time"":765},{""page_index"":3,""viewing_time"":1514}]","4581","","","","","","","","","","","","","","","","","","","",""
"","comprehension_check","","survey-multi-choice","2","20104","0.0-1.0-0.0-1.0","0","0","94905","","8476","{""Q0"":""True"",""Q1"":""D"",""Q2"":""Once the second image appears and while the screen 'MAKE A CHOICE' is shown"",""Q3"":""Green mark"",""Q4"":""either D or K""}","1","","","","","","","","","","","","","","","","","",""
"","missed_instruction_checkup","","html-keyboard-response","3","23206","0.0-1.0-0.0-2.0-0.0","0","1","94905","","3093","","","32","","","","","","","","","","","","","","","","",""
"","instructions","","instructions","4","27744","0.0-1.0-0.1-0.1","0","0","94905","[{""page_index"":0,""viewing_time"":1481},{""page_index"":1,""viewing_time"":711},{""page_index"":2,""viewing_time"":691},{""page_index"":3,""viewing_time"":1646}]","4530","","","","","","","","","","","","","","","","","","","",""
"","comprehension_check","","survey-multi-choice","5","39071","0.0-1.0-0.1-1.1","0","0","94905","","11296","{""Q0"":""True"",""Q1"":""D"",""Q2"":""Once the second image appears and while the screen 'MAKE A CHOICE' is shown"",""Q3"":""Green mark"",""Q4"":""either D or K""}","1","","","","","","","","","","","","","","","","","",""
"","missed_instruction_checkup","","html-keyboard-response","6","40627","0.0-1.0-0.1-2.1-0.1","0","1","94905","","1547","","","32","","","","","","","","","","","","","","","","",""
"","instructions","","instructions","7","44283","0.0-1.0-0.2-0.2","0","0","94905","[{""page_index"":0,""viewing_time"":1715},{""page_index"":1,""viewing_time"":658},{""page_index"":2,""viewing_time"":471},{""page_index"":3,""viewing_time"":803}]","3649","","","","","","","","","","","","","","","","","","","",""
"","comprehension_check","","survey-multi-choice","8","54171","0.0-1.0-0.2-1.2","0","0","94905","","9869","{""Q0"":""True"",""Q1"":""D"",""Q2"":""Once the second image appears and while the screen 'MAKE A CHOICE' is shown"",""Q3"":""Green mark"",""Q4"":""either D or K""}","1","","","","","","","","","","","","","","","","","",""
"","missed_instruction_checkup","","html-keyboard-response","9","55324","0.0-1.0-0.2-2.2-0.2","0","1","94905","","1148","","","32","","","","","","","","","","","","","","","","",""
"","instructions","","instructions","10","58783","0.0-1.0-0.3-0.3","0","0","94905","[{""page_index"":0,""viewing_time"":1442},{""page_index"":1,""viewing_time"":748},{""page_index"":2,""viewing_time"":655},{""page_index"":3,""viewing_time"":607}]","3453","","","","","","","","","","","","","","","","","","","",""
"","comprehension_check","","survey-multi-choice","11","68151","0.0-1.0-0.3-1.3","0","0","94905","","9351","{""Q0"":""True"",""Q1"":""K"",""Q2"":""Once the second image appears and while the screen 'MAKE A CHOICE' is shown"",""Q3"":""Green mark"",""Q4"":""either D or K""}","0","","","","","","","","","","","","","","","","","",""
"","start_exp","","html-keyboard-response","12","70089","0.0-1.0-1.0","0","0","94905","","1929","","","32","","","","","","","","","","","","","","","","",""
"","S1","","html-keyboard-response","13","70343","0.0-1.0-2.0","0","0","94905","","null","","","null","0","","","","","","","","","","","","","","","",""
"","ISI","","html-keyboard-response","14","70851","0.0-1.0-3.0","0","0","94905","","null","","","null","0","NaN","","","","","","","","","","","","","","",""
"","S2","","html-keyboard-response","15","71108","0.0-1.0-4.0","0","0","94905","","null","","","null","0","","NaN","","","","","","","","","","","","","",""
"","response","","html-keyboard-response","16","72872","0.0-1.0-5.0-0.0","0","0","94905","","null","","","null","0","","","1","0","training","adjacent","DE","4","5","Q.jpg","R.jpg","NaN","1","0","",""
"","too_slow_prompt","","html-keyboard-response","17","73916","0.0-1.0-7.0-0.0","1","0","94905","","null","","","null","","","","","","","","","","","","","","","","",""
"","time_out","","html-keyboard-response","18","75923","0.0-1.0-8.0-0.0","0","0","94905","","null","","","null","0","","","","","","","","","","","","","","","",""
"","ITI","","html-keyboard-response","19","76929","0.0-1.0-9.0","0","0","94905","","null","","","null","0","","","","","","","","","","","","","","","NaN",""
"","S1","","html-keyboard-response","20","77182","0.0-1.0-11.0","0","0","94905","","null","","","null","1","","","","","","","","","","","","","","","",""
"","ISI","","html-keyboard-response","21","77687","0.0-1.0-12.0","0","0","94905","","null","","","null","1","NaN","","","","","","","","","","","","","","",""
"","S2","","html-keyboard-response","22","77902","0.0-1.0-13.0","0","0","94905","","206","","","75","1","","k","1","1","training","adjacent","AB","1","2","N.jpg","L.jpg","1","1","1","",""
"","feedback","","html-keyboard-response","23","78914","0.0-1.0-15.0-0.0","0","0","94905","","null","","","null","1","","","","","","","","","","","","","","","",""
"","ITI","","html-keyboard-response","24","79924","0.0-1.0-18.0","0","0","94905","","null","","","null","1","","","","","","","","","","","","","","","NaN",""
"","S1","","html-keyboard-response","25","80185","0.0-1.0-20.0","0","0","94905","","null","","","null","2","","","","","","","","","","","","","","","",""
"","ISI","","html-keyboard-response","26","80693","0.0-1.0-21.0","0","0","94905","","null","","","null","2","NaN","","","","","","","","","","","","","","",""
"","S2","","html-keyboard-response","27","80951","0.0-1.0-22.0","0","0","94905","","null","","","null","2","","NaN","","","","","","","","","","","","","",""
"","response","","html-keyboard-response","28","81261","0.0-1.0-23.0-0.0","0","0","94905","","304","","","68","2","","","1","2","training","adjacent","FG","6","7","M.jpg","P.jpg","0","1","0","",""
"","feedback","","html-keyboard-response","29","82266","0.0-1.0-24.0-0.0","0","0","94905","","null","","","null","2","","","","","","","","","","","","","","","",""
"","time_out","","html-keyboard-response","30","84270","0.0-1.0-26.0-0.0","0","0","94905","","null","","","null","2","","","","","","","","","","","","","","","",""
"","ITI","","html-keyboard-response","31","85276","0.0-1.0-27.0","0","0","94905","","null","","","null","2","","","","","","","","","","","","","","","NaN",""
"","S1","","html-keyboard-response","32","85532","0.0-1.0-29.0","0","0","94905","","null","","","null","3","","","","","","","","","","","","","","","",""
"","ISI","","html-keyboard-response","33","86039","0.0-1.0-30.0","0","0","94905","","null","","","null","3","NaN","","","","","","","","","","","","","","",""
"","S2","","html-keyboard-response","34","86304","0.0-1.0-31.0","0","0","94905","","null","","","null","3","","NaN","","","","","","","","","","","","","",""
"","response","","html-keyboard-response","35","86413","0.0-1.0-32.0-0.0","0","0","94905","","101","","","75","3","","","1","3","training","adjacent","CD","3","4","O.jpg","Q.jpg","1","1","1","",""
"","feedback","","html-keyboard-response","36","87446","0.0-1.0-33.0-0.0","0","0","94905","","null","","","null","3","","","","","","","","","","","","","","","",""
"","ITI","","html-keyboard-response","37","88456","0.0-1.0-36.0","0","0","94905","","null","","","null","3","","","","","","","","","","","","","","","NaN",""
"","S1","","html-keyboard-response","38","88717","0.0-1.0-38.0","0","0","94905","","null","","","null","4","","","","","","","","","","","","","","","",""
"","ISI","","html-keyboard-response","39","89220","0.0-1.0-39.0","0","0","94905","","null","","","null","4","NaN","","","","","","","","","","","","","","",""
"","S2","","html-keyboard-response","40","89477","0.0-1.0-40.0","0","0","94905","","null","","","null","4","","NaN","","","","","","","","","","","","","",""
"","response","","html-keyboard-response","41","89718","0.0-1.0-41.0-0.0","0","0","94905","","233","","","75","4","","","1","4","training","adjacent","BA","2","1","L.jpg","N.jpg","1","0","0","",""
"","feedback","","html-keyboard-response","42","90724","0.0-1.0-42.0-0.0","0","0","94905","","null","","","null","4","","","","","","","","","","","","","","","",""
"","time_out","","html-keyboard-response","43","92731","0.0-1.0-44.0-0.0","0","0","94905","","null","","","null","4","","","","","","","","","","","","","","","",""
"","ITI","","html-keyboard-response","44","93737","0.0-1.0-45.0","0","0","94905","","null","","","null","4","","","","","","","","","","","","","","","NaN",""
"","S1","","html-keyboard-response","45","93991","0.0-1.0-47.0","0","0","94905","","null","","","null","5","","","","","","","","","","","","","","","",""
"","ISI","","html-keyboard-response","46","94497","0.0-1.0-48.0","0","0","94905","","428","","","68","5","d","","","","","","","","","","","","","","",""
"","S2","","html-keyboard-response","47","94753","0.0-1.0-49.0","0","0","94905","","null","","","null","5","","NaN","","","","","","","","","","","","","",""
"","response","","html-keyboard-response","48","95401","0.0-1.0-50.0-0.0","0","0","94905","","640","","","68","5","","","1","5","training","adjacent","BC","2","3","L.jpg","O.jpg","0","1","0","",""
"","feedback","","html-keyboard-response","49","96407","0.0-1.0-51.0-0.0","0","0","94905","","null","","","null","5","","","","","","","","","","","","","","","",""
"","time_out","","html-keyboard-response","50","98420","0.0-1.0-53.0-0.0","0","0","94905","","null","","","null","5","","","","","","","","","","","","","","","",""
"","ITI","","html-keyboard-response","51","99430","0.0-1.0-54.0","0","0","94905","","null","","","null","5","","","","","","","","","","","","","","","NaN",""
"","S1","","html-keyboard-response","52","99686","0.0-1.0-56.0","0","0","94905","","null","","","null","6","","","","","","","","","","","","","","","",""
"","ISI","","html-keyboard-response","53","100195","0.0-1.0-57.0","0","0","94905","","null","","","null","6","NaN","","","","","","","","","","","","","","",""
"","S2","","html-keyboard-response","54","100456","0.0-1.0-58.0","0","0","94905","","null","","","null","6","","NaN","","","","","","","","","","","","","",""
"","response","","html-keyboard-response","55","100656","0.0-1.0-59.0-0.0","0","0","94905","","195","","","75","6","","","1","6","training","adjacent","DC","4","3","Q.jpg","O.jpg","1","0","0","",""
"","feedback","","html-keyboard-response","56","101683","0.0-1.0-60.0-0.0","0","0","94905","","null","","","null","6","","","","","","","","","","","","","","","",""
"","time_out","","html-keyboard-response","57","103691","0.0-1.0-62.0-0.0","0","0","94905","","null","","","null","6","","","","","","","","","","","","","","","",""
"","ITI","","html-keyboard-response","58","104697","0.0-1.0-63.0","0","0","94905","","null","","","null","6","","","","","","","","","","","","","","","NaN",""
"","S1","","html-keyboard-response","59","104954","0.0-1.0-65.0","0","0","94905","","null","","","null","7","","","","","","","","","","","","","","","",""
"","ISI","","html-keyboard-response","60","105460","0.0-1.0-66.0","0","0","94905","","null","","","null","7","NaN","","","","","","","","","","","","","","",""
"","S2","","html-keyboard-response","61","105654","0.0-1.0-67.0","0","0","94905","","184","","","68","7","","d","1","7","training","adjacent","EF","5","6","R.jpg","M.jpg","0","1","0","",""
"","feedback","","html-keyboard-response","62","106739","0.0-1.0-69.0-0.0","0","0","94905","","null","","","null","7","","","","","","","","","","","","","","","",""
"","time_out","","html-keyboard-response","63","108747","0.0-1.0-71.0-0.0","0","0","94905","","null","","","null","7","","","","","","","","","","","","","","","",""
"","ITI","","html-keyboard-response","64","109756","0.0-1.0-72.0","0","0","94905","","null","","","null","7","","","","","","","","","","","","","","","NaN",""
"","S1","","html-keyboard-response","65","110015","0.0-1.0-74.0","0","0","94905","","null","","","null","8","","","","","","","","","","","","","","","",""
"","ISI","","html-keyboard-response","66","110525","0.0-1.0-75.0","0","0","94905","","null","","","null","8","NaN","","","","","","","","","","","","","","",""
"","S2","","html-keyboard-response","67","110552","0.0-1.0-76.0","0","0","94905","","16","","","75","8","","k","1","8","training","adjacent","DE","4","5","Q.jpg","R.jpg","1","1","1","",""
"","feedback","","html-keyboard-response","68","111561","0.0-1.0-78.0-0.0","0","0","94905","","null","","","null","8","","","","","","","","","","","","","","","",""
"","ITI","","html-keyboard-response","69","112576","0.0-1.0-81.0","0","0","94905","","null","","","null","8","","","","","","","","","","","","","","","NaN",""
"","S1","","html-keyboard-response","70","112836","0.0-1.0-83.0","0","0","94905","","null","","","null","9","","","","","","","","","","","","","","","",""
"","ISI","","html-keyboard-response","71","113344","0.0-1.0-84.0","0","0","94905","","null","","","null","9","NaN","","","","","","","","","","","","","","",""
"","S2","","html-keyboard-response","72","113601","0.0-1.0-85.0","0","0","94905","","null","","","null","9","","NaN","","","","","","","","","","","","","",""
"","response","","html-keyboard-response","73","114441","0.0-1.0-86.0-0.0","0","0","94905","","834","","","75","9","","","1","9","training","adjacent","AB","1","2","N.jpg","L.jpg","1","1","1","",""
"","feedback","","html-keyboard-response","74","115447","0.0-1.0-87.0-0.0","0","0","94905","","null","","","null","9","","","","","","","","","","","","","","","",""
"","ITI","","html-keyboard-response","75","116450","0.0-1.0-90.0","0","0","94905","","null","","","null","9","","","","","","","","","","","","","","","NaN",""
"","S1","","html-keyboard-response","76","116718","0.0-1.0-92.0","0","0","94905","","null","","","null","10","","","","","","","","","","","","","","","",""
"","ISI","","html-keyboard-response","77","117225","0.0-1.0-93.0","0","0","94905","","null","","","null","10","NaN","","","","","","","","","","","","","","",""
"","S2","","html-keyboard-response","78","117492","0.0-1.0-94.0","0","0","94905","","null","","","null","10","","NaN","","","","","","","","","","","","","",""
"","response","","html-keyboard-response","79","117636","0.0-1.0-95.0-0.0","0","0","94905","","137","","","75","10","","","1","10","training","adjacent","FG","6","7","M.jpg","P.jpg","1","1","1","",""
"","feedback","","html-keyboard-response","80","118663","0.0-1.0-96.0-0.0","0","0","94905","","null","","","null","10","","","","","","","","","","","","","","","",""
"","ITI","","html-keyboard-response","81","119670","0.0-1.0-99.0","0","0","94905","","null","","","null","10","","","","","","","","","","","","","","","NaN",""
"","S1","","html-keyboard-response","82","119926","0.0-1.0-101.0","0","0","94905","","null","","","null","11","","","","","","","","","","","","","","","",""
"","ISI","","html-keyboard-response","83","120432","0.0-1.0-102.0","0","0","94905","","null","","","null","11","NaN","","","","","","","","","","","","","","",""
"","S2","","html-keyboard-response","84","120689","0.0-1.0-103.0","0","0","94905","","null","","","null","11","","NaN","","","","","","","","","","","","","",""
"","response","","html-keyboard-response","85","120822","0.0-1.0-104.0-0.0","0","0","94905","","124","","","75","11","","","1","11","training","adjacent","BA","2","1","L.jpg","N.jpg","1","0","0","",""
"","feedback","","html-keyboard-response","86","121829","0.0-1.0-105.0-0.0","0","0","94905","","null","","","null","11","","","","","","","","","","","","","","","",""
"","time_out","","html-keyboard-response","87","123836","0.0-1.0-107.0-0.0","0","0","94905","","null","","","null","11","","","","","","","","","","","","","","","",""
"","ITI","","html-keyboard-response","88","124846","0.0-1.0-108.0","0","0","94905","","null","","","null","11","","","","","","","","","","","","","","","NaN",""
"","S1","","html-keyboard-response","89","125101","0.0-1.0-110.0","0","0","94905","","null","","","null","12","","","","","","","","","","","","","","","",""
"","ISI","","html-keyboard-response","90","125605","0.0-1.0-111.0","0","0","94905","","480","","","75","12","k","","","","","","","","","","","","","","",""
"","S2","","html-keyboard-response","91","125861","0.0-1.0-112.0","0","0","94905","","null","","","null","12","","NaN","","","","","","","","","","","","","",""
"","response","","html-keyboard-response","92","126565","0.0-1.0-113.0-0.0","0","0","94905","","698","","","75","12","","","1","12","training","adjacent","CD","3","4","O.jpg","Q.jpg","1","1","1","",""
"","feedback","","html-keyboard-response","93","127571","0.0-1.0-114.0-0.0","0","0","94905","","null","","","null","12","","","","","","","","","","","","","","","",""
"","ITI","","html-keyboard-response","94","128576","0.0-1.0-117.0","0","0","94905","","null","","","null","12","","","","","","","","","","","","","","","NaN",""
"","S1","","html-keyboard-response","95","128834","0.0-1.0-119.0","0","0","94905","","null","","","null","13","","","","","","","","","","","","","","","",""
"","ISI","","html-keyboard-response","96","129341","0.0-1.0-120.0","0","0","94905","","null","","","null","13","NaN","","","","","","","","","","","","","","",""
"","S2","","html-keyboard-response","97","129596","0.0-1.0-121.0","0","0","94905","","null","","","null","13","","NaN","","","","","","","","","","","","","",""
"","response","","html-keyboard-response","98","129830","0.0-1.0-122.0-0.0","0","0","94905","","226","","","68","13","","","1","13","training","adjacent","CB","3","2","O.jpg","L.jpg","0","0","1","",""
"","feedback","","html-keyboard-response","99","130838","0.0-1.0-123.0-0.0","0","0","94905","","null","","","null","13","","","","","","","","","","","","","","","",""
"","ITI","","html-keyboard-response","100","131846","0.0-1.0-126.0","0","0","94905","","null","","","null","13","","","","","","","","","","","","","","","NaN",""
"","S1","","html-keyboard-response","101","132102","0.0-1.0-128.0","0","0","94905","","null","","","null","14","","","","","","","","","","","","","","","",""
"","ISI","","html-keyboard-response","102","132607","0.0-1.0-129.0","0","0","94905","","null","","","null","14","NaN","","","","","","","","","","","","","","",""
"","S2","","html-keyboard-response","103","132864","0.0-1.0-130.0","0","0","94905","","null","","","null","14","","NaN","","","","","","","","","","","","","",""
"","response","","html-keyboard-response","104","133175","0.0-1.0-131.0-0.0","0","0","94905","","303","","","75","14","","","1","14","training","adjacent","GF","7","6","P.jpg","M.jpg","1","0","0","",""
"","feedback","","html-keyboard-response","105","134192","0.0-1.0-132.0-0.0","0","0","94905","","null","","","null","14","","","","","","","","","","","","","","","",""
"","time_out","","html-keyboard-response","106","136199","0.0-1.0-134.0-0.0","0","0","94905","","null","","","null","14","","","","","","","","","","","","","","","",""
"","ITI","","html-keyboard-response","107","137205","0.0-1.0-135.0","0","0","94905","","null","","","null","14","","","","","","","","","","","","","","","NaN",""
"","S1","","html-keyboard-response","108","137460","0.0-1.0-137.0","0","0","94905","","null","","","null","15","","","","","","","","","","","","","","","",""
"","ISI","","html-keyboard-response","109","137966","0.0-1.0-138.0","0","0","94905","","430","","","68","15","d","","","","","","","","","","","","","","",""
"","S2","","html-keyboard-response","110","138231","0.0-1.0-139.0","0","0","94905","","null","","","null","15","","NaN","","","","","","","","","","","","","",""
"","response","","html-keyboard-response","111","138638","0.0-1.0-140.0-0.0","0","0","94905","","399","","","68","15","","","1","15","training","adjacent","DE","4","5","Q.jpg","R.jpg","0","1","0","",""
"","feedback","","html-keyboard-response","112","139645","0.0-1.0-141.0-0.0","0","0","94905","","null","","","null","15","","","","","","","","","","","","","","","",""
"","time_out","","html-keyboard-response","113","141660","0.0-1.0-143.0-0.0","0","0","94905","","null","","","null","15","","","","","","","","","","","","","","","",""
"","ITI","","html-keyboard-response","114","142668","0.0-1.0-144.0","0","0","94905","","null","","","null","15","","","","","","","","","","","","","","","NaN",""
"","S1","","html-keyboard-response","115","142927","0.0-1.0-146.0","0","0","94905","","null","","","null","16","","","","","","","","","","","","","","","",""
"","ISI","","html-keyboard-response","116","143432","0.0-1.0-147.0","0","0","94905","","null","","","null","16","NaN","","","","","","","","","","","","","","",""
"","S2","","html-keyboard-response","117","143466","0.0-1.0-148.0","0","0","94905","","24","","","75","16","","k","1","16","training","adjacent","FE","6","5","M.jpg","R.jpg","1","0","0","",""
"","feedback","","html-keyboard-response","118","144527","0.0-1.0-150.0-0.0","0","0","94905","","null","","","null","16","","","","","","","","","","","","","","","",""
"","time_out","","html-keyboard-response","119","146533","0.0-1.0-152.0-0.0","0","0","94905","","null","","","null","16","","","","","","","","","","","","","","","",""
"","ITI","","html-keyboard-response","120","147558","0.0-1.0-153.0","0","0","94905","","null","","","null","16","","","","","","","","","","","","","","","NaN",""
"","S1","","html-keyboard-response","121","147816","0.0-1.0-155.0","0","0","94905","","null","","","null","17","","","","","","","","","","","","","","","",""
"","ISI","","html-keyboard-response","122","148320","0.0-1.0-156.0","0","0","94905","","259","","","68","17","d","","","","","","","","","","","","","","",""
"","S2","","html-keyboard-response","123","148578","0.0-1.0-157.0","0","0","94905","","null","","","null","17","","NaN","","","","","","","","","","","","","",""
"","response","","html-keyboard-response","124","148899","0.0-1.0-158.0-0.0","0","0","94905","","313","","","68","17","","","1","17","training","adjacent","CD","3","4","O.jpg","Q.jpg","0","1","0","",""
"","feedback","","html-keyboard-response","125","149913","0.0-1.0-159.0-0.0","0","0","94905","","null","","","null","17","","","","","","","","","","","","","","","",""
"","time_out","","html-keyboard-response","126","151937","0.0-1.0-161.0-0.0","0","0","94905","","null","","","null","17","","","","","","","","","","","","","","","",""
"","ITI","","html-keyboard-response","127","152941","0.0-1.0-162.0","0","0","94905","","null","","","null","17","","","","","","","","","","","","","","","NaN",""
"","S1","","html-keyboard-response","128","153194","0.0-1.0-164.0","0","0","94905","","null","","","null","18","","","","","","","","","","","","","","","",""
"","ISI","","html-keyboard-response","129","153700","0.0-1.0-165.0","0","0","94905","","null","","","null","18","NaN","","","","","","","","","","","","","","",""
"","S2","","html-keyboard-response","130","153956","0.0-1.0-166.0","0","0","94905","","null","","","null","18","","NaN","","","","","","","","","","","","","",""
"","response","","html-keyboard-response","131","154195","0.0-1.0-167.0-0.0","0","0","94905","","232","","","75","18","","","1","18","training","adjacent","ED","5","4","R.jpg","Q.jpg","1","0","0","",""
"","feedback","","html-keyboard-response","132","155218","0.0-1.0-168.0-0.0","0","0","94905","","null","","","null","18","","","","","","","","","","","","","","","",""
"","time_out","","html-keyboard-response","133","157228","0.0-1.0-170.0-0.0","0","0","94905","","null","","","null","18","","","","","","","","","","","","","","","",""
"","ITI","","html-keyboard-response","134","158233","0.0-1.0-171.0","0","0","94905","","null","","","null","18","","","","","","","","","","","","","","","NaN",""
"","S1","","html-keyboard-response","135","158491","0.0-1.0-173.0","0","0","94905","","null","","","null","19","","","","","","","","","","","","","","","",""
"","ISI","","html-keyboard-response","136","159003","0.0-1.0-174.0","0","0","94905","","null","","","null","19","NaN","","","","","","","","","","","","","","",""
"","S2","","html-keyboard-response","137","159260","0.0-1.0-175.0","0","0","94905","","null","","","null","19","","NaN","","","","","","","","","","","","","",""
"","response","","html-keyboard-response","138","159353","0.0-1.0-176.0-0.0","0","0","94905","","87","","","68","19","","","1","19","training","adjacent","BA","2","1","L.jpg","N.jpg","0","0","1","",""
"","feedback","","html-keyboard-response","139","160362","0.0-1.0-177.0-0.0","0","0","94905","","null","","","null","19","","","","","","","","","","","","","","","",""
"","ITI","","html-keyboard-response","140","161369","0.0-1.0-180.0","0","0","94905","","null","","","null","19","","","","","","","","","","","","","","","NaN",""
"","S1","","html-keyboard-response","141","161631","0.0-1.0-182.0","0","0","94905","","null","","","null","20","","","","","","","","","","","","","","","",""
"","ISI","","html-keyboard-response","142","162151","0.0-1.0-183.0","0","0","94905","","null","","","null","20","NaN","","","","","","","","","","","","","","",""
"","S2","","html-keyboard-response","143","162410","0.0-1.0-184.0","0","0","94905","","null","","","null","20","","NaN","","","","","","","","","","","","","",""
"","response","","html-keyboard-response","144","162738","0.0-1.0-185.0-0.0","0","0","94905","","321","","","75","20","","","1","20","training","adjacent","BC","2","3","L.jpg","O.jpg","1","1","1","",""
"","feedback","","html-keyboard-response","145","163747","0.0-1.0-186.0-0.0","0","0","94905","","null","","","null","20","","","","","","","","","","","","","","","",""
"","ITI","","html-keyboard-response","146","164750","0.0-1.0-189.0","0","0","94905","","null","","","null","20","","","","","","","","","","","","","","","NaN",""
"","S1","","html-keyboard-response","147","165004","0.0-1.0-191.0","0","0","94905","","null","","","null","21","","","","","","","","","","","","","","","",""
"","ISI","","html-keyboard-response","148","165510","0.0-1.0-192.0","0","0","94905","","null","","","null","21","NaN","","","","","","","","","","","","","","",""
"","S2","","html-keyboard-response","149","165766","0.0-1.0-193.0","0","0","94905","","null","","","null","21","","NaN","","","","","","","","","","","","","",""
"","response","","html-keyboard-response","150","166144","0.0-1.0-194.0-0.0","0","0","94905","","371","","","68","21","","","1","21","training","adjacent","ED","5","4","R.jpg","Q.jpg","0","0","1","",""
"","feedback","","html-keyboard-response","151","167160","0.0-1.0-195.0-0.0","0","0","94905","","null","","","null","21","","","","","","","","","","","","","","","",""
"","ITI","","html-keyboard-response","152","168170","0.0-1.0-198.0","0","0","94905","","null","","","null","21","","","","","","","","","","","","","","","NaN",""
"","S1","","html-keyboard-response","153","168425","0.0-1.0-200.0","0","0","94905","","null","","","null","22","","","","","","","","","","","","","","","",""
"","ISI","","html-keyboard-response","154","168931","0.0-1.0-201.0","0","0","94905","","null","","","null","22","NaN","","","","","","","","","","","","","","",""
"","S2","","html-keyboard-response","155","169197","0.0-1.0-202.0","0","0","94905","","null","","","null","22","","NaN","","","","","","","","","","","","","",""
"","response","","html-keyboard-response","156","169407","0.0-1.0-203.0-0.0","0","0","94905","","201","","","75","22","","","1","22","training","adjacent","CD","3","4","O.jpg","Q.jpg","1","1","1","",""
"","feedback","","html-keyboard-response","157","170419","0.0-1.0-204.0-0.0","0","0","94905","","null","","","null","22","","","","","","","","","","","","","","","",""
"","ITI","","html-keyboard-response","158","171427","0.0-1.0-207.0","0","0","94905","","null","","","null","22","","","","","","","","","","","","","","","NaN",""
"","S1","","html-keyboard-response","159","171681","0.0-1.0-209.0","0","0","94905","","null","","","null","23","","","","","","","","","","","","","","","",""
"","ISI","","html-keyboard-response","160","172185","0.0-1.0-210.0","0","0","94905","","null","","","null","23","NaN","","","","","","","","","","","","","","",""
"","S2","","html-keyboard-response","161","172442","0.0-1.0-211.0","0","0","94905","","null","","","null","23","","NaN","","","","","","","","","","","","","",""
"","response","","html-keyboard-response","162","173018","0.0-1.0-212.0-0.0","0","0","94905","","567","","","68","23","","","1","23","training","adjacent","GF","7","6","P.jpg","M.jpg","0","0","1","",""
"","feedback","","html-keyboard-response","163","174027","0.0-1.0-213.0-0.0","0","0","94905","","null","","","null","23","","","","","","","","","","","","","","","",""
"","ITI","","html-keyboard-response","164","175035","0.0-1.0-216.0","0","0","94905","","null","","","null","23","","","","","","","","","","","","","","","NaN",""
"","S1","","html-keyboard-response","165","175292","0.0-1.0-218.0","0","0","94905","","null","","","null","24","","","","","","","","","","","","","","","",""
"","ISI","","html-keyboard-response","166","175800","0.0-1.0-219.0","0","0","94905","","null","","","null","24","NaN","","","","","","","","","","","","","","",""
"","S2","","html-keyboard-response","167","176054","0.0-1.0-220.0","0","0","94905","","null","","","null","24","","NaN","","","","","","","","","","","","","",""
"","response","","html-keyboard-response","168","176567","0.0-1.0-221.0-0.0","0","0","94905","","504","","","75","24","","","1","24","training","adjacent","EF","5","6","R.jpg","M.jpg","1","1","1","",""
"","feedback","","html-keyboard-response","169","177590","0.0-1.0-222.0-0.0","0","0","94905","","null","","","null","24","","","","","","","","","","","","","","","",""
"","ITI","","html-keyboard-response","170","178599","0.0-1.0-225.0","0","0","94905","","null","","","null","24","","","","","","","","","","","","","","","NaN",""
"","S1","","html-keyboard-response","171","178856","0.0-1.0-227.0","0","0","94905","","null","","","null","25","","","","","","","","","","","","","","","",""
"","ISI","","html-keyboard-response","172","179364","0.0-1.0-228.0","0","0","94905","","null","","","null","25","NaN","","","","","","","","","","","","","","",""
"","S2","","html-keyboard-response","173","179628","0.0-1.0-229.0","0","0","94905","","null","","","null","25","","NaN","","","","","","","","","","","","","",""
"","response","","html-keyboard-response","174","180235","0.0-1.0-230.0-0.0","0","0","94905","","601","","","68","25","","","1","25","training","adjacent","GF","7","6","P.jpg","M.jpg","0","0","1","",""
"","feedback","","html-keyboard-response","175","181243","0.0-1.0-231.0-0.0","0","0","94905","","null","","","null","25","","","","","","","","","","","","","","","",""
"","ITI","","html-keyboard-response","176","182250","0.0-1.0-234.0","0","0","94905","","null","","","null","25","","","","","","","","","","","","","","","NaN",""
"","S1","","html-keyboard-response","177","182505","0.0-1.0-236.0","0","0","94905","","null","","","null","26","","","","","","","","","","","","","","","",""
"","ISI","","html-keyboard-response","178","183009","0.0-1.0-237.0","0","0","94905","","null","","","null","26","NaN","","","","","","","","","","","","","","",""
"","S2","","html-keyboard-response","179","183265","0.0-1.0-238.0","0","0","94905","","null","","","null","26","","NaN","","","","","","","","","","","","","",""
"","response","","html-keyboard-response","180","183798","0.0-1.0-239.0-0.0","0","0","94905","","524","","","75","26","","","1","26","training","adjacent","GF","7","6","P.jpg","M.jpg","1","0","0","",""
"","feedback","","html-keyboard-response","181","184807","0.0-1.0-240.0-0.0","0","0","94905","","null","","","null","26","","","","","","","","","","","","","","","",""
"","time_out","","html-keyboard-response","182","186816","0.0-1.0-242.0-0.0","0","0","94905","","null","","","null","26","","","","","","","","","","","","","","","",""
"","ITI","","html-keyboard-response","183","187823","0.0-1.0-243.0","0","0","94905","","null","","","null","26","","","","","","","","","","","","","","","NaN",""
"","S1","","html-keyboard-response","184","188097","0.0-1.0-245.0","0","0","94905","","null","","","null","27","","","","","","","","","","","","","","","",""
"","ISI","","html-keyboard-response","185","188611","0.0-1.0-246.0","0","0","94905","","null","","","null","27","NaN","","","","","","","","","","","","","","",""
"","S2","","html-keyboard-response","186","188869","0.0-1.0-247.0","0","0","94905","","null","","","null","27","","NaN","","","","","","","","","","","","","",""
"","response","","html-keyboard-response","187","189211","0.0-1.0-248.0-0.0","0","0","94905","","337","","","75","27","","","1","27","training","adjacent","DC","4","3","Q.jpg","O.jpg","1","0","0","",""
"","feedback","","html-keyboard-response","188","190218","0.0-1.0-249.0-0.0","0","0","94905","","null","","","null","27","","","","","","","","","","","","","","","",""
"","time_out","","html-keyboard-response","189","192223","0.0-1.0-251.0-0.0","0","0","94905","","null","","","null","27","","","","","","","","","","","","","","","",""
"","ITI","","html-keyboard-response","190","193229","0.0-1.0-252.0","0","0","94905","","null","","","null","27","","","","","","","","","","","","","","","NaN",""
"","S1","","html-keyboard-response","191","193489","0.0-1.0-254.0","0","0","94905","","null","","","null","28","","","","","","","","","","","","","","","",""
"","ISI","","html-keyboard-response","192","193995","0.0-1.0-255.0","0","0","94905","","null","","","null","28","NaN","","","","","","","","","","","","","","",""
"","S2","","html-keyboard-response","193","194252","0.0-1.0-256.0","0","0","94905","","null","","","null","28","","NaN","","","","","","","","","","","","","",""
"","response","","html-keyboard-response","194","194803","0.0-1.0-257.0-0.0","0","0","94905","","544","","","68","28","","","1","28","training","adjacent","BC","2","3","L.jpg","O.jpg","0","1","0","",""
"","feedback","","html-keyboard-response","195","195816","0.0-1.0-258.0-0.0","0","0","94905","","null","","","null","28","","","","","","","","","","","","","","","",""
"","time_out","","html-keyboard-response","196","197824","0.0-1.0-260.0-0.0","0","0","94905","","null","","","null","28","","","","","","","","","","","","","","","",""
"","ITI","","html-keyboard-response","197","198826","0.0-1.0-261.0","0","0","94905","","null","","","null","28","","","","","","","","","","","","","","","NaN",""
"","S1","","html-keyboard-response","198","199089","0.0-1.0-263.0","0","0","94905","","null","","","null","29","","","","","","","","","","","","","","","",""
"","ISI","","html-keyboard-response","199","199596","0.0-1.0-264.0","0","0","94905","","null","","","null","29","NaN","","","","","","","","","","","","","","",""
"","S2","","html-keyboard-response","200","199852","0.0-1.0-265.0","0","0","94905","","null","","","null","29","","NaN","","","","","","","","","","","","","",""
"","response","","html-keyboard-response","201","200181","0.0-1.0-266.0-0.0","0","0","94905","","323","","","75","29","","","1","29","training","adjacent","AB","1","2","N.jpg","L.jpg","1","1","1","",""
"","feedback","","html-keyboard-response","202","201186","0.0-1.0-267.0-0.0","0","0","94905","","null","","","null","29","","","","","","","","","","","","","","","",""
"","ITI","","html-keyboard-response","203","202193","0.0-1.0-270.0","0","0","94905","","null","","","null","29","","","","","","","","","","","","","","","NaN",""
"","S1","","html-keyboard-response","204","202449","0.0-1.0-272.0","0","0","94905","","null","","","null","30","","","","","","","","","","","","","","","",""
"","ISI","","html-keyboard-response","205","202957","0.0-1.0-273.0","0","0","94905","","null","","","null","30","NaN","","","","","","","","","","","","","","",""
"","S2","","html-keyboard-response","206","203215","0.0-1.0-274.0","0","0","94905","","null","","","null","30","","NaN","","","","","","","","","","","","","",""
"","response","","html-keyboard-response","207","203477","0.0-1.0-275.0-0.0","0","0","94905","","259","","","68","30","","","1","30","training","adjacent","DC","4","3","Q.jpg","O.jpg","0","0","1","",""
"","feedback","","html-keyboard-response","208","204485","0.0-1.0-276.0-0.0","0","0","94905","","null","","","null","30","","","","","","","","","","","","","","","",""
"","ITI","","html-keyboard-response","209","205498","0.0-1.0-279.0","0","0","94905","","null","","","null","30","","","","","","","","","","","","","","","NaN",""
"","S1","","html-keyboard-response","210","205754","0.0-1.0-281.0","0","0","94905","","null","","","null","31","","","","","","","","","","","","","","","",""
"","ISI","","html-keyboard-response","211","206258","0.0-1.0-282.0","0","0","94905","","null","","","null","31","NaN","","","","","","","","","","","","","","",""
"","S2","","html-keyboard-response","212","206518","0.0-1.0-283.0","0","0","94905","","null","","","null","31","","NaN","","","","","","","","","","","","","",""
"","response","","html-keyboard-response","213","207017","0.0-1.0-284.0-0.0","0","0","94905","","493","","","75","31","","","1","31","training","adjacent","FE","6","5","M.jpg","R.jpg","1","0","0","",""
"","feedback","","html-keyboard-response","214","208024","0.0-1.0-285.0-0.0","0","0","94905","","null","","","null","31","","","","","","","","","","","","","","","",""
"","time_out","","html-keyboard-response","215","210032","0.0-1.0-287.0-0.0","0","0","94905","","null","","","null","31","","","","","","","","","","","","","","","",""
"","ITI","","html-keyboard-response","216","211041","0.0-1.0-288.0","0","0","94905","","null","","","null","31","","","","","","","","","","","","","","","NaN",""
"","S1","","html-keyboard-response","217","211299","0.0-1.0-290.0","0","0","94905","","null","","","null","32","","","","","","","","","","","","","","","",""
"","ISI","","html-keyboard-response","218","211810","0.0-1.0-291.0","0","0","94905","","null","","","null","32","NaN","","","","","","","","","","","","","","",""
"","S2","","html-keyboard-response","219","212075","0.0-1.0-292.0","0","0","94905","","null","","","null","32","","NaN","","","","","","","","","","","","","",""
"","response","","html-keyboard-response","220","212313","0.0-1.0-293.0-0.0","0","0","94905","","230","","","68","32","","","1","32","training","adjacent","FG","6","7","M.jpg","P.jpg","0","1","0","",""
"","feedback","","html-keyboard-response","221","213332","0.0-1.0-294.0-0.0","0","0","94905","","null","","","null","32","","","","","","","","","","","","","","","",""
"","time_out","","html-keyboard-response","222","215343","0.0-1.0-296.0-0.0","0","0","94905","","null","","","null","32","","","","","","","","","","","","","","","",""
"","ITI","","html-keyboard-response","223","216355","0.0-1.0-297.0","0","0","94905","","null","","","null","32","","","","","","","","","","","","","","","NaN",""
"","S1","","html-keyboard-response","224","216611","0.0-1.0-299.0","0","0","94905","","null","","","null","33","","","","","","","","","","","","","","","",""
"","ISI","","html-keyboard-response","225","217118","0.0-1.0-300.0","0","0","94905","","null","","","null","33","NaN","","","","","","","","","","","","","","",""
"","S2","","html-keyboard-response","226","217446","0.0-1.0-301.0","0","0","94905","","null","","","null","33","","NaN","","","","","","","","","","","","","",""
"","response","","html-keyboard-response","227","217565","0.0-1.0-302.0-0.0","0","0","94905","","106","","","75","33","","","1","33","training","adjacent","FG","6","7","M.jpg","P.jpg","1","1","1","",""
"","feedback","","html-keyboard-response","228","218570","0.0-1.0-303.0-0.0","0","0","94905","","null","","","null","33","","","","","","","","","","","","","","","",""
"","ITI","","html-keyboard-response","229","219577","0.0-1.0-306.0","0","0","94905","","null","","","null","33","","","","","","","","","","","","","","","NaN",""
"","S1","","html-keyboard-response","230","219846","0.0-1.0-308.0","0","0","94905","","null","","","null","34","","","","","","","","","","","","","","","",""
"","ISI","","html-keyboard-response","231","220352","0.0-1.0-309.0","0","0","94905","","null","","","null","34","NaN","","","","","","","","","","","","","","",""
"","S2","","html-keyboard-response","232","220609","0.0-1.0-310.0","0","0","94905","","null","","","null","34","","NaN","","","","","","","","","","","","","",""
"","response","","html-keyboard-response","233","220811","0.0-1.0-311.0-0.0","0","0","94905","","196","","","68","34","","","1","34","training","adjacent","EF","5","6","R.jpg","M.jpg","0","1","0","",""
"","feedback","","html-keyboard-response","234","221820","0.0-1.0-312.0-0.0","0","0","94905","","null","","","null","34","","","","","","","","","","","","","","","",""
"","time_out","","html-keyboard-response","235","223842","0.0-1.0-314.0-0.0","0","0","94905","","null","","","null","34","","","","","","","","","","","","","","","",""
"","ITI","","html-keyboard-response","236","224851","0.0-1.0-315.0","0","0","94905","","null","","","null","34","","","","","","","","","","","","","","","NaN",""
"","S1","","html-keyboard-response","237","225109","0.0-1.0-317.0","0","0","94905","","null","","","null","35","","","","","","","","","","","","","","","",""
"","ISI","","html-keyboard-response","238","225643","0.0-1.0-318.0","0","0","94905","","null","","","null","35","NaN","","","","","","","","","","","","","","",""
"","S2","","html-keyboard-response","239","225907","0.0-1.0-319.0","0","0","94905","","null","","","null","35","","NaN","","","","","","","","","","","","","",""
"","response","","html-keyboard-response","240","226212","0.0-1.0-320.0-0.0","0","0","94905","","301","","","75","35","","","1","35","training","adjacent","DC","4","3","Q.jpg","O.jpg","1","0","0","",""
"","feedback","","html-keyboard-response","241","227219","0.0-1.0-321.0-0.0","0","0","94905","","null","","","null","35","","","","","","","","","","","","","","","",""
"","time_out","","html-keyboard-response","242","229230","0.0-1.0-323.0-0.0","0","0","94905","","null","","","null","35","","","","","","","","","","","","","","","",""
"","ITI","","html-keyboard-response","243","230242","0.0-1.0-324.0","0","0","94905","","null","","","null","35","","","","","","","","","","","","","","","NaN",""
"","S1","","html-keyboard-response","244","230500","0.0-1.0-326.0","0","0","94905","","null","","","null","36","","","","","","","","","","","","","","","",""
"","ISI","","html-keyboard-response","245","231006","0.0-1.0-327.0","0","0","94905","","null","","","null","36","NaN","","","","","","","","","","","","","","",""
"","S2","","html-keyboard-response","246","231266","0.0-1.0-328.0","0","0","94905","","null","","","null","36","","NaN","","","","","","","","","","","","","",""
"","response","","html-keyboard-response","247","231326","0.0-1.0-329.0-0.0","0","0","94905","","51","","","68","36","","","1","36","training","adjacent","CB","3","2","O.jpg","L.jpg","0","0","1","",""
"","feedback","","html-keyboard-response","248","232341","0.0-1.0-330.0-0.0","0","0","94905","","null","","","null","36","","","","","","","","","","","","","","","",""
"","ITI","","html-keyboard-response","249","233347","0.0-1.0-333.0","0","0","94905","","null","","","null","36","","","","","","","","","","","","","","","NaN",""
"","S1","","html-keyboard-response","250","233603","0.0-1.0-335.0","0","0","94905","","null","","","null","37","","","","","","","","","","","","","","","",""
"","ISI","","html-keyboard-response","251","234109","0.0-1.0-336.0","0","0","94905","","null","","","null","37","NaN","","","","","","","","","","","","","","",""
"","S2","","html-keyboard-response","252","234366","0.0-1.0-337.0","0","0","94905","","null","","","null","37","","NaN","","","","","","","","","","","","","",""
"","response","","html-keyboard-response","253","234601","0.0-1.0-338.0-0.0","0","0","94905","","230","","","75","37","","","1","37","training","adjacent","ED","5","4","R.jpg","Q.jpg","1","0","0","",""
"","feedback","","html-keyboard-response","254","235612","0.0-1.0-339.0-0.0","0","0","94905","","null","","","null","37","","","","","","","","","","","","","","","",""
"","time_out","","html-keyboard-response","255","237621","0.0-1.0-341.0-0.0","0","0","94905","","null","","","null","37","","","","","","","","","","","","","","","",""
"","ITI","","html-keyboard-response","256","238636","0.0-1.0-342.0","0","0","94905","","null","","","null","37","","","","","","","","","","","","","","","NaN",""
"","S1","","html-keyboard-response","257","238897","0.0-1.0-344.0","0","0","94905","","null","","","null","38","","","","","","","","","","","","","","","",""
"","ISI","","html-keyboard-response","258","239403","0.0-1.0-345.0","0","0","94905","","null","","","null","38","NaN","","","","","","","","","","","","","","",""
"","S2","","html-keyboard-response","259","239661","0.0-1.0-346.0","0","0","94905","","null","","","null","38","","NaN","","","","","","","","","","","","","",""
"","response","","html-keyboard-response","260","239730","0.0-1.0-347.0-0.0","0","0","94905","","61","","","68","38","","","1","38","training","adjacent","CB","3","2","O.jpg","L.jpg","0","0","1","",""
"","feedback","","html-keyboard-response","261","240736","0.0-1.0-348.0-0.0","0","0","94905","","null","","","null","38","","","","","","","","","","","","","","","",""
"","ITI","","html-keyboard-response","262","241758","0.0-1.0-351.0","0","0","94905","","null","","","null","38","","","","","","","","","","","","","","","NaN",""
"","S1","","html-keyboard-response","263","242059","0.0-1.0-353.0","0","0","94905","","null","","","null","39","","","","","","","","","","","","","","","",""
"","ISI","","html-keyboard-response","264","242566","0.0-1.0-354.0","0","0","94905","","null","","","null","39","NaN","","","","","","","","","","","","","","",""
"","S2","","html-keyboard-response","265","242821","0.0-1.0-355.0","0","0","94905","","null","","","null","39","","NaN","","","","","","","","","","","","","",""
"","response","","html-keyboard-response","266","243468","0.0-1.0-356.0-0.0","0","0","94905","","639","","","75","39","","","1","39","training","adjacent","CB","3","2","O.jpg","L.jpg","1","0","0","",""
"","feedback","","html-keyboard-response","267","244487","0.0-1.0-357.0-0.0","0","0","94905","","null","","","null","39","","","","","","","","","","","","","","","",""
"","time_out","","html-keyboard-response","268","246499","0.0-1.0-359.0-0.0","0","0","94905","","null","","","null","39","","","","","","","","","","","","","","","",""
"","ITI","","html-keyboard-response","269","247513","0.0-1.0-360.0","0","0","94905","","null","","","null","39","","","","","","","","","","","","","","","NaN",""
"","S1","","html-keyboard-response","270","247772","0.0-1.0-362.0","0","0","94905","","null","","","null","40","","","","","","","","","","","","","","","",""
"","ISI","","html-keyboard-response","271","248278","0.0-1.0-363.0","0","0","94905","","null","","","null","40","NaN","","","","","","","","","","","","","","",""
"","S2","","html-keyboard-response","272","248539","0.0-1.0-364.0","0","0","94905","","null","","","null","40","","NaN","","","","","","","","","","","","","",""
"","response","","html-keyboard-response","273","248746","0.0-1.0-365.0-0.0","0","0","94905","","198","","","68","40","","","1","40","training","adjacent","FE","6","5","M.jpg","R.jpg","0","0","1","",""
"","feedback","","html-keyboard-response","274","249782","0.0-1.0-366.0-0.0","0","0","94905","","null","","","null","40","","","","","","","","","","","","","","","",""
"","ITI","","html-keyboard-response","275","250787","0.0-1.0-369.0","0","0","94905","","null","","","null","40","","","","","","","","","","","","","","","NaN",""
"","S1","","html-keyboard-response","276","251041","0.0-1.0-371.0","0","0","94905","","null","","","null","41","","","","","","","","","","","","","","","",""
"","ISI","","html-keyboard-response","277","251546","0.0-1.0-372.0","0","0","94905","","null","","","null","41","NaN","","","","","","","","","","","","","","",""
"","S2","","html-keyboard-response","278","251809","0.0-1.0-373.0","0","0","94905","","null","","","null","41","","NaN","","","","","","","","","","","","","",""
"","response","","html-keyboard-response","279","252655","0.0-1.0-374.0-0.0","0","0","94905","","838","","","75","41","","","1","41","training","adjacent","FE","6","5","M.jpg","R.jpg","1","0","0","",""
"","feedback","","html-keyboard-response","280","253666","0.0-1.0-375.0-0.0","0","0","94905","","null","","","null","41","","","","","","","","","","","","","","","",""
"","time_out","","html-keyboard-response","281","255676","0.0-1.0-377.0-0.0","0","0","94905","","null","","","null","41","","","","","","","","","","","","","","","",""
"","ITI","","html-keyboard-response","282","256679","0.0-1.0-378.0","0","0","94905","","null","","","null","41","","","","","","","","","","","","","","","NaN",""
"","S1","","html-keyboard-response","283","256936","0.0-1.0-380.0","0","0","94905","","null","","","null","42","","","","","","","","","","","","","","","",""
"","ISI","","html-keyboard-response","284","257443","0.0-1.0-381.0","0","0","94905","","null","","","null","42","NaN","","","","","","","","","","","","","","",""
"","S2","","html-keyboard-response","285","257700","0.0-1.0-382.0","0","0","94905","","null","","","null","42","","NaN","","","","","","","","","","","","","",""
"","response","","html-keyboard-response","286","258001","0.0-1.0-383.0-0.0","0","0","94905","","294","","","68","42","","","1","42","training","adjacent","BA","2","1","L.jpg","N.jpg","0","0","1","",""
"","feedback","","html-keyboard-response","287","259012","0.0-1.0-384.0-0.0","0","0","94905","","null","","","null","42","","","","","","","","","","","","","","","",""
"","ITI","","html-keyboard-response","288","260018","0.0-1.0-387.0","0","0","94905","","null","","","null","42","","","","","","","","","","","","","","","NaN",""
"","S1","","html-keyboard-response","289","260273","0.0-1.0-389.0","0","0","94905","","null","","","null","43","","","","","","","","","","","","","","","",""
"","ISI","","html-keyboard-response","290","260778","0.0-1.0-390.0","0","0","94905","","null","","","null","43","NaN","","","","","","","","","","","","","","",""
"","S2","","html-keyboard-response","291","261057","0.0-1.0-391.0","0","0","94905","","null","","","null","43","","NaN","","","","","","","","","","","","","",""
"","response","","html-keyboard-response","292","261887","0.0-1.0-392.0-0.0","0","0","94905","","820","","","75","43","","","1","43","training","adjacent","DE","4","5","Q.jpg","R.jpg","1","1","1","",""
"","feedback","","html-keyboard-response","293","262909","0.0-1.0-393.0-0.0","0","0","94905","","null","","","null","43","","","","","","","","","","","","","","","",""
"","ITI","","html-keyboard-response","294","263917","0.0-1.0-396.0","0","0","94905","","null","","","null","43","","","","","","","","","","","","","","","NaN",""
"","S1","","html-keyboard-response","295","264171","0.0-1.0-398.0","0","0","94905","","null","","","null","44","","","","","","","","","","","","","","","",""
"","ISI","","html-keyboard-response","296","264679","0.0-1.0-399.0","0","0","94905","","null","","","null","44","NaN","","","","","","","","","","","","","","",""
"","S2","","html-keyboard-response","297","265034","0.0-1.0-400.0","0","0","94905","","null","","","null","44","","NaN","","","","","","","","","","","","","",""
"","response","","html-keyboard-response","298","265573","0.0-1.0-401.0-0.0","0","0","94905","","492","","","75","44","","","1","44","training","adjacent","ED","5","4","R.jpg","Q.jpg","1","0","0","",""
"","feedback","","html-keyboard-response","299","266583","0.0-1.0-402.0-0.0","0","0","94905","","null","","","null","44","","","","","","","","","","","","","","","",""
"","time_out","","html-keyboard-response","300","268595","0.0-1.0-404.0-0.0","0","0","94905","","null","","","null","44","","","","","","","","","","","","","","","",""
"","ITI","","html-keyboard-response","301","269602","0.0-1.0-405.0","0","0","94905","","null","","","null","44","","","","","","","","","","","","","","","NaN",""
"","S1","","html-keyboard-response","302","269883","0.0-1.0-407.0","0","0","94905","","null","","","null","45","","","","","","","","","","","","","","","",""
"","ISI","","html-keyboard-response","303","270388","0.0-1.0-408.0","0","0","94905","","null","","","null","45","NaN","","","","","","","","","","","","","","",""
"","S2","","html-keyboard-response","304","270649","0.0-1.0-409.0","0","0","94905","","244","","","68","45","","d","1","45","training","adjacent","EF","5","6","R.jpg","M.jpg","0","1","0","",""
"","feedback","","html-keyboard-response","305","271656","0.0-1.0-411.0-0.0","0","0","94905","","null","","","null","45","","","","","","","","","","","","","","","",""
"","time_out","","html-keyboard-response","306","273668","0.0-1.0-413.0-0.0","0","0","94905","","null","","","null","45","","","","","","","","","","","","","","","",""
"","ITI","","html-keyboard-response","307","274684","0.0-1.0-414.0","0","0","94905","","null","","","null","45","","","","","","","","","","","","","","","NaN",""
"","S1","","html-keyboard-response","308","274939","0.0-1.0-416.0","0","0","94905","","null","","","null","46","","","","","","","","","","","","","","","",""
"","ISI","","html-keyboard-response","309","275448","0.0-1.0-417.0","0","0","94905","","null","","","null","46","NaN","","","","","","","","","","","","","","",""
"","S2","","html-keyboard-response","310","275710","0.0-1.0-418.0","0","0","94905","","null","","","null","46","","NaN","","","","","","","","","","","","","",""
"","response","","html-keyboard-response","311","276003","0.0-1.0-419.0-0.0","0","0","94905","","287","","","75","46","","","1","46","training","adjacent","AB","1","2","N.jpg","L.jpg","1","1","1","",""
"","feedback","","html-keyboard-response","312","277012","0.0-1.0-420.0-0.0","0","0","94905","","null","","","null","46","","","","","","","","","","","","","","","",""
"","ITI","","html-keyboard-response","313","278022","0.0-1.0-423.0","0","0","94905","","null","","","null","46","","","","","","","","","","","","","","","NaN",""
"","S1","","html-keyboard-response","314","278280","0.0-1.0-425.0","0","0","94905","","null","","","null","47","","","","","","","","","","","","","","","",""
"","ISI","","html-keyboard-response","315","278788","0.0-1.0-426.0","0","0","94905","","null","","","null","47","NaN","","","","","","","","","","","","","","",""
"","S2","","html-keyboard-response","316","279049","0.0-1.0-427.0","0","0","94905","","null","","","null","47","","NaN","","","","","","","","","","","","","",""
"","response","","html-keyboard-response","317","280044","0.0-1.0-428.0-0.0","0","0","94905","","989","","","75","47","","","1","47","training","adjacent","BC","2","3","L.jpg","O.jpg","1","1","1","",""
"","feedback","","html-keyboard-response","318","281054","0.0-1.0-429.0-0.0","0","0","94905","","null","","","null","47","","","","","","","","","","","","","","","",""
"","ITI","","html-keyboard-response","319","282056","0.0-1.0-432.0","0","0","94905","","null","","","null","47","","","","","","","","","","","","","","","NaN",""
"","block_over","","html-keyboard-response","320","292836","0.0-1.0-433.0-0.0","0","0","94905","","10764","","","32","47","","","","","","","","","","","","","","","",""
"","S1","","html-keyboard-response","321","293096","0.0-1.0-434.0","0","0","94905","","null","","","null","48","","","","","","","","","","","","","","","",""
"","ISI","","html-keyboard-response","322","293602","0.0-1.0-435.0","0","0","94905","","null","","","null","48","NaN","","","","","","","","","","","","","","",""
"","S2","","html-keyboard-response","323","293858","0.0-1.0-436.0","0","0","94905","","null","","","null","48","","NaN","","","","","","","","","","","","","",""
"","response","","html-keyboard-response","324","294608","0.0-1.0-437.0-0.0","0","0","94905","","742","","","75","48","","","2","48","training","adjacent","FE","6","5","M.jpg","R.jpg","1","0","0","",""
"","feedback","","html-keyboard-response","325","295615","0.0-1.0-438.0-0.0","0","0","94905","","null","","","null","48","","","","","","","","","","","","","","","",""
"","time_out","","html-keyboard-response","326","297625","0.0-1.0-440.0-0.0","0","0","94905","","null","","","null","48","","","","","","","","","","","","","","","",""
"","ITI","","html-keyboard-response","327","298654","0.0-1.0-441.0","0","0","94905","","null","","","null","48","","","","","","","","","","","","","","","NaN",""
"","S1","","html-keyboard-response","328","298927","0.0-1.0-443.0","0","0","94905","","null","","","null","49","","","","","","","","","","","","","","","",""
"","ISI","","html-keyboard-response","329","299432","0.0-1.0-444.0","0","0","94905","","null","","","null","49","NaN","","","","","","","","","","","","","","",""
"","S2","","html-keyboard-response","330","299694","0.0-1.0-445.0","0","0","94905","","null","","","null","49","","NaN","","","","","","","","","","","","","",""
"","response","","html-keyboard-response","331","299957","0.0-1.0-446.0-0.0","0","0","94905","","258","","","68","49","","","2","49","training","adjacent","EF","5","6","R.jpg","M.jpg","0","1","0","",""
"","feedback","","html-keyboard-response","332","300963","0.0-1.0-447.0-0.0","0","0","94905","","null","","","null","49","","","","","","","","","","","","","","","",""
"","time_out","","html-keyboard-response","333","302973","0.0-1.0-449.0-0.0","0","0","94905","","null","","","null","49","","","","","","","","","","","","","","","",""
"","ITI","","html-keyboard-response","334","303983","0.0-1.0-450.0","0","0","94905","","null","","","null","49","","","","","","","","","","","","","","","NaN",""
"","S1","","html-keyboard-response","335","304252","0.0-1.0-452.0","0","0","94905","","null","","","null","50","","","","","","","","","","","","","","","",""
"","ISI","","html-keyboard-response","336","304762","0.0-1.0-453.0","0","0","94905","","null","","","null","50","NaN","","","","","","","","","","","","","","",""
"","S2","","html-keyboard-response","337","305020","0.0-1.0-454.0","0","0","94905","","null","","","null","50","","NaN","","","","","","","","","","","","","",""
"","response","","html-keyboard-response","338","305336","0.0-1.0-455.0-0.0","0","0","94905","","308","","","75","50","","","2","50","training","adjacent","CD","3","4","O.jpg","Q.jpg","1","1","1","",""
"","feedback","","html-keyboard-response","339","306344","0.0-1.0-456.0-0.0","0","0","94905","","null","","","null","50","","","","","","","","","","","","","","","",""
"","ITI","","html-keyboard-response","340","307352","0.0-1.0-459.0","0","0","94905","","null","","","null","50","","","","","","","","","","","","","","","NaN",""
"","S1","","html-keyboard-response","341","307610","0.0-1.0-461.0","0","0","94905","","null","","","null","51","","","","","","","","","","","","","","","",""
"","ISI","","html-keyboard-response","342","308133","0.0-1.0-462.0","0","0","94905","","null","","","null","51","NaN","","","","","","","","","","","","","","",""
"","S2","","html-keyboard-response","343","308389","0.0-1.0-463.0","0","0","94905","","null","","","null","51","","NaN","","","","","","","","","","","","","",""
"","response","","html-keyboard-response","344","309181","0.0-1.0-464.0-0.0","0","0","94905","","786","","","68","51","","","2","51","training","adjacent","DE","4","5","Q.jpg","R.jpg","0","1","0","",""
"","feedback","","html-keyboard-response","345","310195","0.0-1.0-465.0-0.0","0","0","94905","","null","","","null","51","","","","","","","","","","","","","","","",""
"","time_out","","html-keyboard-response","346","312202","0.0-1.0-467.0-0.0","0","0","94905","","null","","","null","51","","","","","","","","","","","","","","","",""
"","ITI","","html-keyboard-response","347","313208","0.0-1.0-468.0","0","0","94905","","null","","","null","51","","","","","","","","","","","","","","","NaN",""
"","S1","","html-keyboard-response","348","313633","0.0-1.0-470.0","0","0","94905","","null","","","null","52","","","","","","","","","","","","","","","",""
"","ISI","","html-keyboard-response","349","314141","0.0-1.0-471.0","0","0","94905","","null","","","null","52","NaN","","","","","","","","","","","","","","",""
"","S2","","html-keyboard-response","350","314399","0.0-1.0-472.0","0","0","94905","","null","","","null","52","","NaN","","","","","","","","","","","","","",""
"","response","","html-keyboard-response","351","314952","0.0-1.0-473.0-0.0","0","0","94905","","546","","","75","52","","","2","52","training","adjacent","FG","6","7","M.jpg","P.jpg","1","1","1","",""
"","feedback","","html-keyboard-response","352","315960","0.0-1.0-474.0-0.0","0","0","94905","","null","","","null","52","","","","","","","","","","","","","","","",""
"","ITI","","html-keyboard-response","353","317071","0.0-1.0-477.0","0","0","94905","","null","","","null","52","","","","","","","","","","","","","","","NaN",""
"","S1","","html-keyboard-response","354","317327","0.0-1.0-479.0","0","0","94905","","null","","","null","53","","","","","","","","","","","","","","","",""
"","ISI","","html-keyboard-response","355","317841","0.0-1.0-480.0","0","0","94905","","null","","","null","53","NaN","","","","","","","","","","","","","","",""
"","S2","","html-keyboard-response","356","318097","0.0-1.0-481.0","0","0","94905","","null","","","null","53","","NaN","","","","","","","","","","","","","",""
"","response","","html-keyboard-response","357","318711","0.0-1.0-482.0-0.0","0","0","94905","","604","","","75","53","","","2","53","training","adjacent","GF","7","6","P.jpg","M.jpg","1","0","0","",""
"","feedback","","html-keyboard-response","358","319723","0.0-1.0-483.0-0.0","0","0","94905","","null","","","null","53","","","","","","","","","","","","","","","",""
"","time_out","","html-keyboard-response","359","321733","0.0-1.0-485.0-0.0","0","0","94905","","null","","","null","53","","","","","","","","","","","","","","","",""
"","ITI","","html-keyboard-response","360","322739","0.0-1.0-486.0","0","0","94905","","null","","","null","53","","","","","","","","","","","","","","","NaN",""
"","S1","","html-keyboard-response","361","322997","0.0-1.0-488.0","0","0","94905","","null","","","null","54","","","","","","","","","","","","","","","",""
"","ISI","","html-keyboard-response","362","323502","0.0-1.0-489.0","0","0","94905","","null","","","null","54","NaN","","","","","","","","","","","","","","",""
"","S2","","html-keyboard-response","363","323760","0.0-1.0-490.0","0","0","94905","","null","","","null","54","","NaN","","","","","","","","","","","","","",""
"","response","","html-keyboard-response","364","323791","0.0-1.0-491.0-0.0","0","0","94905","","25","","","68","54","","","2","54","training","adjacent","ED","5","4","R.jpg","Q.jpg","0","0","1","",""
"","feedback","","html-keyboard-response","365","324802","0.0-1.0-492.0-0.0","0","0","94905","","null","","","null","54","","","","","","","","","","","","","","","",""
"","ITI","","html-keyboard-response","366","325812","0.0-1.0-495.0","0","0","94905","","null","","","null","54","","","","","","","","","","","","","","","NaN",""
"","S1","","html-keyboard-response","367","326068","0.0-1.0-497.0","0","0","94905","","null","","","null","55","","","","","","","","","","","","","","","",""
"","ISI","","html-keyboard-response","368","326578","0.0-1.0-498.0","0","0","94905","","null","","","null","55","NaN","","","","","","","","","","","","","","",""
"","S2","","html-keyboard-response","369","326842","0.0-1.0-499.0","0","0","94905","","null","","","null","55","","NaN","","","","","","","","","","","","","",""
"","response","","html-keyboard-response","370","328081","0.0-1.0-500.0-0.0","0","0","94905","","1231","","","75","55","","","2","55","training","adjacent","FE","6","5","M.jpg","R.jpg","1","0","0","",""
"","feedback","","html-keyboard-response","371","329086","0.0-1.0-501.0-0.0","0","0","94905","","null","","","null","55","","","","","","","","","","","","","","","",""
"","time_out","","html-keyboard-response","372","331095","0.0-1.0-503.0-0.0","0","0","94905","","null","","","null","55","","","","","","","","","","","","","","","",""
"","ITI","","html-keyboard-response","373","332100","0.0-1.0-504.0","0","0","94905","","null","","","null","55","","","","","","","","","","","","","","","NaN",""
"","S1","","html-keyboard-response","374","332357","0.0-1.0-506.0","0","0","94905","","null","","","null","56","","","","","","","","","","","","","","","",""
"","ISI","","html-keyboard-response","375","332865","0.0-1.0-507.0","0","0","94905","","null","","","null","56","NaN","","","","","","","","","","","","","","",""
"","S2","","html-keyboard-response","376","333129","0.0-1.0-508.0","0","0","94905","","null","","","null","56","","NaN","","","","","","","","","","","","","",""
"","response","","html-keyboard-response","377","333643","0.0-1.0-509.0-0.0","0","0","94905","","501","","","68","56","","","2","56","training","adjacent","DC","4","3","Q.jpg","O.jpg","0","0","1","",""
"","feedback","","html-keyboard-response","378","334652","0.0-1.0-510.0-0.0","0","0","94905","","null","","","null","56","","","","","","","","","","","","","","","",""
"","ITI","","html-keyboard-response","379","335661","0.0-1.0-513.0","0","0","94905","","null","","","null","56","","","","","","","","","","","","","","","NaN",""
"","S1","","html-keyboard-response","380","335924","0.0-1.0-515.0","0","0","94905","","null","","","null","57","","","","","","","","","","","","","","","",""
"","ISI","","html-keyboard-response","381","336448","0.0-1.0-516.0","0","0","94905","","null","","","null","57","NaN","","","","","","","","","","","","","","",""
"","S2","","html-keyboard-response","382","336710","0.0-1.0-517.0","0","0","94905","","null","","","null","57","","NaN","","","","","","","","","","","","","",""
"","response","","html-keyboard-response","383","337494","0.0-1.0-518.0-0.0","0","0","94905","","776","","","75","57","","","2","57","training","adjacent","GF","7","6","P.jpg","M.jpg","1","0","0","",""
"","feedback","","html-keyboard-response","384","338502","0.0-1.0-519.0-0.0","0","0","94905","","null","","","null","57","","","","","","","","","","","","","","","",""
"","time_out","","html-keyboard-response","385","340510","0.0-1.0-521.0-0.0","0","0","94905","","null","","","null","57","","","","","","","","","","","","","","","",""
"","ITI","","html-keyboard-response","386","341514","0.0-1.0-522.0","0","0","94905","","null","","","null","57","","","","","","","","","","","","","","","NaN",""
"","S1","","html-keyboard-response","387","341774","0.0-1.0-524.0","0","0","94905","","null","","","null","58","","","","","","","","","","","","","","","",""
"","ISI","","html-keyboard-response","388","342290","0.0-1.0-525.0","0","0","94905","","null","","","null","58","NaN","","","","","","","","","","","","","","",""
"","S2","","html-keyboard-response","389","342544","0.0-1.0-526.0","0","0","94905","","null","","","null","58","","NaN","","","","","","","","","","","","","",""
"","response","","html-keyboard-response","390","342548","0.0-1.0-527.0-0.0","0","0","94905","","0","","","68","58","","","2","58","training","adjacent","CB","3","2","O.jpg","L.jpg","0","0","1","",""
"","feedback","","html-keyboard-response","391","343557","0.0-1.0-528.0-0.0","0","0","94905","","null","","","null","58","","","","","","","","","","","","","","","",""
"","ITI","","html-keyboard-response","392","344563","0.0-1.0-531.0","0","0","94905","","null","","","null","58","","","","","","","","","","","","","","","NaN",""
"","S1","","html-keyboard-response","393","344825","0.0-1.0-533.0","0","0","94905","","null","","","null","59","","","","","","","","","","","","","","","",""
"","ISI","","html-keyboard-response","394","345334","0.0-1.0-534.0","0","0","94905","","null","","","null","59","NaN","","","","","","","","","","","","","","",""
"","S2","","html-keyboard-response","395","345592","0.0-1.0-535.0","0","0","94905","","null","","","null","59","","NaN","","","","","","","","","","","","","",""
"","response","","html-keyboard-response","396","346198","0.0-1.0-536.0-0.0","0","0","94905","","599","","","75","59","","","2","59","training","adjacent","DC","4","3","Q.jpg","O.jpg","1","0","0","",""
"","feedback","","html-keyboard-response","397","347212","0.0-1.0-537.0-0.0","0","0","94905","","null","","","null","59","","","","","","","","","","","","","","","",""
"","time_out","","html-keyboard-response","398","349220","0.0-1.0-539.0-0.0","0","0","94905","","null","","","null","59","","","","","","","","","","","","","","","",""
"","ITI","","html-keyboard-response","399","350234","0.0-1.0-540.0","0","0","94905","","null","","","null","59","","","","","","","","","","","","","","","NaN",""
"","S1","","html-keyboard-response","400","350493","0.0-1.0-542.0","0","0","94905","","null","","","null","60","","","","","","","","","","","","","","","",""
"","ISI","","html-keyboard-response","401","351000","0.0-1.0-543.0","0","0","94905","","null","","","null","60","NaN","","","","","","","","","","","","","","",""
"","S2","","html-keyboard-response","402","351139","0.0-1.0-544.0","0","0","94905","","132","","","68","60","","d","2","60","training","adjacent","FG","6","7","M.jpg","P.jpg","0","1","0","",""
"","feedback","","html-keyboard-response","403","352181","0.0-1.0-546.0-0.0","0","0","94905","","null","","","null","60","","","","","","","","","","","","","","","",""
"","time_out","","html-keyboard-response","404","354200","0.0-1.0-548.0-0.0","0","0","94905","","null","","","null","60","","","","","","","","","","","","","","","",""
"","ITI","","html-keyboard-response","405","355207","0.0-1.0-549.0","0","0","94905","","null","","","null","60","","","","","","","","","","","","","","","NaN",""
"","S1","","html-keyboard-response","406","355464","0.0-1.0-551.0","0","0","94905","","null","","","null","61","","","","","","","","","","","","","","","",""
"","ISI","","html-keyboard-response","407","356017","0.0-1.0-552.0","0","0","94905","","null","","","null","61","NaN","","","","","","","","","","","","","","",""
"","S2","","html-keyboard-response","408","356273","0.0-1.0-553.0","0","0","94905","","null","","","null","61","","NaN","","","","","","","","","","","","","",""
"","response","","html-keyboard-response","409","356276","0.0-1.0-554.0-0.0","0","0","94905","","0","","","75","61","","","2","61","training","adjacent","AB","1","2","N.jpg","L.jpg","1","1","1","",""
"","feedback","","html-keyboard-response","410","357282","0.0-1.0-555.0-0.0","0","0","94905","","null","","","null","61","","","","","","","","","","","","","","","",""
"","ITI","","html-keyboard-response","411","358286","0.0-1.0-558.0","0","0","94905","","null","","","null","61","","","","","","","","","","","","","","","NaN",""
"","S1","","html-keyboard-response","412","358545","0.0-1.0-560.0","0","0","94905","","null","","","null","62","","","","","","","","","","","","","","","",""
"","ISI","","html-keyboard-response","413","359049","0.0-1.0-561.0","0","0","94905","","null","","","null","62","NaN","","","","","","","","","","","","","","",""
"","S2","","html-keyboard-response","414","359305","0.0-1.0-562.0","0","0","94905","","null","","","null","62","","NaN","","","","","","","","","","","","","",""
"","response","","html-keyboard-response","415","359528","0.0-1.0-563.0-0.0","0","0","94905","","218","","","68","62","","","2","62","training","adjacent","FE","6","5","M.jpg","R.jpg","0","0","1","",""
"","feedback","","html-keyboard-response","416","360532","0.0-1.0-564.0-0.0","0","0","94905","","null","","","null","62","","","","","","","","","","","","","","","",""
"","ITI","","html-keyboard-response","417","361546","0.0-1.0-567.0","0","0","94905","","null","","","null","62","","","","","","","","","","","","","","","NaN",""
"","S1","","html-keyboard-response","418","361805","0.0-1.0-569.0","0","0","94905","","null","","","null","63","","","","","","","","","","","","","","","",""
"","ISI","","html-keyboard-response","419","362316","0.0-1.0-570.0","0","0","94905","","null","","","null","63","NaN","","","","","","","","","","","","","","",""
"","S2","","html-keyboard-response","420","362572","0.0-1.0-571.0","0","0","94905","","null","","","null","63","","NaN","","","","","","","","","","","","","",""
"","response","","html-keyboard-response","421","363131","0.0-1.0-572.0-0.0","0","0","94905","","554","","","75","63","","","2","63","training","adjacent","CB","3","2","O.jpg","L.jpg","1","0","0","",""
"","feedback","","html-keyboard-response","422","364140","0.0-1.0-573.0-0.0","0","0","94905","","null","","","null","63","","","","","","","","","","","","","","","",""
"","time_out","","html-keyboard-response","423","366149","0.0-1.0-575.0-0.0","0","0","94905","","null","","","null","63","","","","","","","","","","","","","","","",""
"","ITI","","html-keyboard-response","424","367154","0.0-1.0-576.0","0","0","94905","","null","","","null","63","","","","","","","","","","","","","","","NaN",""
"","S1","","html-keyboard-response","425","367410","0.0-1.0-578.0","0","0","94905","","null","","","null","64","","","","","","","","","","","","","","","",""
"","ISI","","html-keyboard-response","426","367915","0.0-1.0-579.0","0","0","94905","","null","","","null","64","NaN","","","","","","","","","","","","","","",""
"","S2","","html-keyboard-response","427","368171","0.0-1.0-580.0","0","0","94905","","null","","","null","64","","NaN","","","","","","","","","","","","","",""
"","response","","html-keyboard-response","428","368345","0.0-1.0-581.0-0.0","0","0","94905","","167","","","68","64","","","2","64","training","adjacent","BA","2","1","L.jpg","N.jpg","0","0","1","",""
"","feedback","","html-keyboard-response","429","369358","0.0-1.0-582.0-0.0","0","0","94905","","null","","","null","64","","","","","","","","","","","","","","","",""
"","ITI","","html-keyboard-response","430","370367","0.0-1.0-585.0","0","0","94905","","null","","","null","64","","","","","","","","","","","","","","","NaN",""
"","S1","","html-keyboard-response","431","370621","0.0-1.0-587.0","0","0","94905","","null","","","null","65","","","","","","","","","","","","","","","",""
"","ISI","","html-keyboard-response","432","371127","0.0-1.0-588.0","0","0","94905","","null","","","null","65","NaN","","","","","","","","","","","","","","",""
"","S2","","html-keyboard-response","433","371388","0.0-1.0-589.0","0","0","94905","","null","","","null","65","","NaN","","","","","","","","","","","","","",""
"","response","","html-keyboard-response","434","372101","0.0-1.0-590.0-0.0","0","0","94905","","708","","","68","65","","","2","65","training","adjacent","EF","5","6","R.jpg","M.jpg","0","1","0","",""
"","feedback","","html-keyboard-response","435","373106","0.0-1.0-591.0-0.0","0","0","94905","","null","","","null","65","","","","","","","","","","","","","","","",""
"","time_out","","html-keyboard-response","436","375115","0.0-1.0-593.0-0.0","0","0","94905","","null","","","null","65","","","","","","","","","","","","","","","",""
"","ITI","","html-keyboard-response","437","376123","0.0-1.0-594.0","0","0","94905","","null","","","null","65","","","","","","","","","","","","","","","NaN",""
"","S1","","html-keyboard-response","438","376379","0.0-1.0-596.0","0","0","94905","","null","","","null","66","","","","","","","","","","","","","","","",""
"","ISI","","html-keyboard-response","439","376892","0.0-1.0-597.0","0","0","94905","","null","","","null","66","NaN","","","","","","","","","","","","","","",""
"","S2","","html-keyboard-response","440","377155","0.0-1.0-598.0","0","0","94905","","null","","","null","66","","NaN","","","","","","","","","","","","","",""
"","response","","html-keyboard-response","441","377393","0.0-1.0-599.0-0.0","0","0","94905","","228","","","75","66","","","2","66","training","adjacent","FE","6","5","M.jpg","R.jpg","1","0","0","",""
"","feedback","","html-keyboard-response","442","378403","0.0-1.0-600.0-0.0","0","0","94905","","null","","","null","66","","","","","","","","","","","","","","","",""
"","time_out","","html-keyboard-response","443","380415","0.0-1.0-602.0-0.0","0","0","94905","","null","","","null","66","","","","","","","","","","","","","","","",""
"","ITI","","html-keyboard-response","444","381421","0.0-1.0-603.0","0","0","94905","","null","","","null","66","","","","","","","","","","","","","","","NaN",""
"","S1","","html-keyboard-response","445","381678","0.0-1.0-605.0","0","0","94905","","null","","","null","67","","","","","","","","","","","","","","","",""
"","ISI","","html-keyboard-response","446","382182","0.0-1.0-606.0","0","0","94905","","null","","","null","67","NaN","","","","","","","","","","","","","","",""
"","S2","","html-keyboard-response","447","382319","0.0-1.0-607.0","0","0","94905","","131","","","68","67","","d","2","67","training","adjacent","EF","5","6","R.jpg","M.jpg","0","1","0","",""
"","feedback","","html-keyboard-response","448","383326","0.0-1.0-609.0-0.0","0","0","94905","","null","","","null","67","","","","","","","","","","","","","","","",""
"","time_out","","html-keyboard-response","449","385345","0.0-1.0-611.0-0.0","0","0","94905","","null","","","null","67","","","","","","","","","","","","","","","",""
"","ITI","","html-keyboard-response","450","386350","0.0-1.0-612.0","0","0","94905","","null","","","null","67","","","","","","","","","","","","","","","NaN",""
"","S1","","html-keyboard-response","451","386606","0.0-1.0-614.0","0","0","94905","","null","","","null","68","","","","","","","","","","","","","","","",""
"","ISI","","html-keyboard-response","452","387116","0.0-1.0-615.0","0","0","94905","","null","","","null","68","NaN","","","","","","","","","","","","","","",""
"","S2","","html-keyboard-response","453","387360","0.0-1.0-616.0","0","0","94905","","236","","","75","68","","k","2","68","training","adjacent","AB","1","2","N.jpg","L.jpg","1","1","1","",""
"","feedback","","html-keyboard-response","454","388369","0.0-1.0-618.0-0.0","0","0","94905","","null","","","null","68","","","","","","","","","","","","","","","",""
"","ITI","","html-keyboard-response","455","389393","0.0-1.0-621.0","0","0","94905","","null","","","null","68","","","","","","","","","","","","","","","NaN",""
"","S1","","html-keyboard-response","456","389655","0.0-1.0-623.0","0","0","94905","","null","","","null","69","","","","","","","","","","","","","","","",""
"","ISI","","html-keyboard-response","457","390163","0.0-1.0-624.0","0","0","94905","","null","","","null","69","NaN","","","","","","","","","","","","","","",""
"","S2","","html-keyboard-response","458","390419","0.0-1.0-625.0","0","0","94905","","null","","","null","69","","NaN","","","","","","","","","","","","","",""
"","response","","html-keyboard-response","459","390711","0.0-1.0-626.0-0.0","0","0","94905","","282","","","68","69","","","2","69","training","adjacent","BA","2","1","L.jpg","N.jpg","0","0","1","",""
"","feedback","","html-keyboard-response","460","391718","0.0-1.0-627.0-0.0","0","0","94905","","null","","","null","69","","","","","","","","","","","","","","","",""
"","ITI","","html-keyboard-response","461","392723","0.0-1.0-630.0","0","0","94905","","null","","","null","69","","","","","","","","","","","","","","","NaN",""
"","S1","","html-keyboard-response","462","392977","0.0-1.0-632.0","0","0","94905","","null","","","null","70","","","","","","","","","","","","","","","",""
"","ISI","","html-keyboard-response","463","393487","0.0-1.0-633.0","0","0","94905","","null","","","null","70","NaN","","","","","","","","","","","","","","",""
"","S2","","html-keyboard-response","464","393747","0.0-1.0-634.0","0","0","94905","","null","","","null","70","","NaN","","","","","","","","","","","","","",""
"","response","","html-keyboard-response","465","394001","0.0-1.0-635.0-0.0","0","0","94905","","246","","","75","70","","","2","70","training","adjacent","GF","7","6","P.jpg","M.jpg","1","0","0","",""
"","feedback","","html-keyboard-response","466","395009","0.0-1.0-636.0-0.0","0","0","94905","","null","","","null","70","","","","","","","","","","","","","","","",""
"","time_out","","html-keyboard-response","467","397017","0.0-1.0-638.0-0.0","0","0","94905","","null","","","null","70","","","","","","","","","","","","","","","",""
"","ITI","","html-keyboard-response","468","398024","0.0-1.0-639.0","0","0","94905","","null","","","null","70","","","","","","","","","","","","","","","NaN",""
"","S1","","html-keyboard-response","469","398282","0.0-1.0-641.0","0","0","94905","","null","","","null","71","","","","","","","","","","","","","","","",""
"","ISI","","html-keyboard-response","470","398788","0.0-1.0-642.0","0","0","94905","","null","","","null","71","NaN","","","","","","","","","","","","","","",""
"","S2","","html-keyboard-response","471","399045","0.0-1.0-643.0","0","0","94905","","null","","","null","71","","NaN","","","","","","","","","","","","","",""
"","response","","html-keyboard-response","472","399546","0.0-1.0-644.0-0.0","0","0","94905","","494","","","68","71","","","2","71","training","adjacent","ED","5","4","R.jpg","Q.jpg","0","0","1","",""
"","feedback","","html-keyboard-response","473","400554","0.0-1.0-645.0-0.0","0","0","94905","","null","","","null","71","","","","","","","","","","","","","","","",""
"","ITI","","html-keyboard-response","474","401563","0.0-1.0-648.0","0","0","94905","","null","","","null","71","","","","","","","","","","","","","","","NaN",""
"","S1","","html-keyboard-response","475","401819","0.0-1.0-650.0","0","0","94905","","null","","","null","72","","","","","","","","","","","","","","","",""
"","ISI","","html-keyboard-response","476","402325","0.0-1.0-651.0","0","0","94905","","null","","","null","72","NaN","","","","","","","","","","","","","","",""
"","S2","","html-keyboard-response","477","402582","0.0-1.0-652.0","0","0","94905","","null","","","null","72","","NaN","","","","","","","","","","","","","",""
"","response","","html-keyboard-response","478","403129","0.0-1.0-653.0-0.0","0","0","94905","","540","","","75","72","","","2","72","training","adjacent","AB","1","2","N.jpg","L.jpg","1","1","1","",""
"","feedback","","html-keyboard-response","479","404137","0.0-1.0-654.0-0.0","0","0","94905","","null","","","null","72","","","","","","","","","","","","","","","",""
"","ITI","","html-keyboard-response","480","405145","0.0-1.0-657.0","0","0","94905","","null","","","null","72","","","","","","","","","","","","","","","NaN",""
"","S1","","html-keyboard-response","481","405403","0.0-1.0-659.0","0","0","94905","","null","","","null","73","","","","","","","","","","","","","","","",""
"","ISI","","html-keyboard-response","482","405915","0.0-1.0-660.0","0","0","94905","","null","","","null","73","NaN","","","","","","","","","","","","","","",""
"","S2","","html-keyboard-response","483","406187","0.0-1.0-661.0","0","0","94905","","null","","","null","73","","NaN","","","","","","","","","","","","","",""
"","response","","html-keyboard-response","484","406766","0.0-1.0-662.0-0.0","0","0","94905","","572","","","68","73","","","2","73","training","adjacent","DE","4","5","Q.jpg","R.jpg","0","1","0","",""
"","feedback","","html-keyboard-response","485","407777","0.0-1.0-663.0-0.0","0","0","94905","","null","","","null","73","","","","","","","","","","","","","","","",""
"","time_out","","html-keyboard-response","486","409787","0.0-1.0-665.0-0.0","0","0","94905","","null","","","null","73","","","","","","","","","","","","","","","",""
"","ITI","","html-keyboard-response","487","410795","0.0-1.0-666.0","0","0","94905","","null","","","null","73","","","","","","","","","","","","","","","NaN",""
"","S1","","html-keyboard-response","488","411054","0.0-1.0-668.0","0","0","94905","","null","","","null","74","","","","","","","","","","","","","","","",""
"","ISI","","html-keyboard-response","489","411565","0.0-1.0-669.0","0","0","94905","","null","","","null","74","NaN","","","","","","","","","","","","","","",""
"","S2","","html-keyboard-response","490","411831","0.0-1.0-670.0","0","0","94905","","null","","","null","74","","NaN","","","","","","","","","","","","","",""
"","response","","html-keyboard-response","491","411929","0.0-1.0-671.0-0.0","0","0","94905","","92","","","75","74","","","2","74","training","adjacent","DE","4","5","Q.jpg","R.jpg","1","1","1","",""
"","feedback","","html-keyboard-response","492","412935","0.0-1.0-672.0-0.0","0","0","94905","","null","","","null","74","","","","","","","","","","","","","","","",""
"","ITI","","html-keyboard-response","493","413941","0.0-1.0-675.0","0","0","94905","","null","","","null","74","","","","","","","","","","","","","","","NaN",""
"","S1","","html-keyboard-response","494","414195","0.0-1.0-677.0","0","0","94905","","null","","","null","75","","","","","","","","","","","","","","","",""
"","ISI","","html-keyboard-response","495","414699","0.0-1.0-678.0","0","0","94905","","null","","","null","75","NaN","","","","","","","","","","","","","","",""
"","S2","","html-keyboard-response","496","414957","0.0-1.0-679.0","0","0","94905","","null","","","null","75","","NaN","","","","","","","","","","","","","",""
"","response","","html-keyboard-response","497","415335","0.0-1.0-680.0-0.0","0","0","94905","","370","","","68","75","","","2","75","training","adjacent","FG","6","7","M.jpg","P.jpg","0","1","0","",""
"","feedback","","html-keyboard-response","498","416342","0.0-1.0-681.0-0.0","0","0","94905","","null","","","null","75","","","","","","","","","","","","","","","",""
"","time_out","","html-keyboard-response","499","418347","0.0-1.0-683.0-0.0","0","0","94905","","null","","","null","75","","","","","","","","","","","","","","","",""
"","ITI","","html-keyboard-response","500","419354","0.0-1.0-684.0","0","0","94905","","null","","","null","75","","","","","","","","","","","","","","","NaN",""
"","S1","","html-keyboard-response","501","419608","0.0-1.0-686.0","0","0","94905","","null","","","null","76","","","","","","","","","","","","","","","",""
"","ISI","","html-keyboard-response","502","420118","0.0-1.0-687.0","0","0","94905","","null","","","null","76","NaN","","","","","","","","","","","","","","",""
"","S2","","html-keyboard-response","503","420379","0.0-1.0-688.0","0","0","94905","","null","","","null","76","","NaN","","","","","","","","","","","","","",""
"","response","","html-keyboard-response","504","420464","0.0-1.0-689.0-0.0","0","0","94905","","77","","","75","76","","","2","76","training","adjacent","CB","3","2","O.jpg","L.jpg","1","0","0","",""
"","feedback","","html-keyboard-response","505","421470","0.0-1.0-690.0-0.0","0","0","94905","","null","","","null","76","","","","","","","","","","","","","","","",""
"","time_out","","html-keyboard-response","506","423477","0.0-1.0-692.0-0.0","0","0","94905","","null","","","null","76","","","","","","","","","","","","","","","",""
"","ITI","","html-keyboard-response","507","424486","0.0-1.0-693.0","0","0","94905","","null","","","null","76","","","","","","","","","","","","","","","NaN",""
"","S1","","html-keyboard-response","508","424743","0.0-1.0-695.0","0","0","94905","","null","","","null","77","","","","","","","","","","","","","","","",""
"","ISI","","html-keyboard-response","509","425248","0.0-1.0-696.0","0","0","94905","","null","","","null","77","NaN","","","","","","","","","","","","","","",""
"","S2","","html-keyboard-response","510","425395","0.0-1.0-697.0","0","0","94905","","140","","","68","77","","d","2","77","training","adjacent","BC","2","3","L.jpg","O.jpg","0","1","0","",""
"","feedback","","html-keyboard-response","511","426407","0.0-1.0-699.0-0.0","0","0","94905","","null","","","null","77","","","","","","","","","","","","","","","",""
"","time_out","","html-keyboard-response","512","428414","0.0-1.0-701.0-0.0","0","0","94905","","null","","","null","77","","","","","","","","","","","","","","","",""
"","ITI","","html-keyboard-response","513","429481","0.0-1.0-702.0","0","0","94905","","null","","","null","77","","","","","","","","","","","","","","","NaN",""
"","S1","","html-keyboard-response","514","429772","0.0-1.0-704.0","0","0","94905","","null","","","null","78","","","","","","","","","","","","","","","",""
"","ISI","","html-keyboard-response","515","430279","0.0-1.0-705.0","0","0","94905","","null","","","null","78","NaN","","","","","","","","","","","","","","",""
"","S2","","html-keyboard-response","516","430549","0.0-1.0-706.0","0","0","94905","","null","","","null","78","","NaN","","","","","","","","","","","","","",""
"","response","","html-keyboard-response","517","430781","0.0-1.0-707.0-0.0","0","0","94905","","217","","","75","78","","","2","78","training","adjacent","CB","3","2","O.jpg","L.jpg","1","0","0","",""
"","feedback","","html-keyboard-response","518","431794","0.0-1.0-708.0-0.0","0","0","94905","","null","","","null","78","","","","","","","","","","","","","","","",""
"","time_out","","html-keyboard-response","519","433810","0.0-1.0-710.0-0.0","0","0","94905","","null","","","null","78","","","","","","","","","","","","","","","",""
"","ITI","","html-keyboard-response","520","434815","0.0-1.0-711.0","0","0","94905","","null","","","null","78","","","","","","","","","","","","","","","NaN",""
"","S1","","html-keyboard-response","521","435069","0.0-1.0-713.0","0","0","94905","","null","","","null","79","","","","","","","","","","","","","","","",""
"","ISI","","html-keyboard-response","522","435574","0.0-1.0-714.0","0","0","94905","","null","","","null","79","NaN","","","","","","","","","","","","","","",""
"","S2","","html-keyboard-response","523","435693","0.0-1.0-715.0","0","0","94905","","110","","","68","79","","d","2","79","training","adjacent","BA","2","1","L.jpg","N.jpg","0","0","1","",""
"","feedback","","html-keyboard-response","524","436703","0.0-1.0-717.0-0.0","0","0","94905","","null","","","null","79","","","","","","","","","","","","","","","",""
"","ITI","","html-keyboard-response","525","437720","0.0-1.0-720.0","0","0","94905","","null","","","null","79","","","","","","","","","","","","","","","NaN",""
"","S1","","html-keyboard-response","526","438066","0.0-1.0-722.0","0","0","94905","","null","","","null","80","","","","","","","","","","","","","","","",""
"","ISI","","html-keyboard-response","527","438579","0.0-1.0-723.0","0","0","94905","","null","","","null","80","NaN","","","","","","","","","","","","","","",""
"","S2","","html-keyboard-response","528","438837","0.0-1.0-724.0","0","0","94905","","null","","","null","80","","NaN","","","","","","","","","","","","","",""
"","response","","html-keyboard-response","529","438984","0.0-1.0-725.0-0.0","0","0","94905","","143","","","75","80","","","2","80","training","adjacent","DE","4","5","Q.jpg","R.jpg","1","1","1","",""
"","feedback","","html-keyboard-response","530","439992","0.0-1.0-726.0-0.0","0","0","94905","","null","","","null","80","","","","","","","","","","","","","","","",""
"","ITI","","html-keyboard-response","531","441001","0.0-1.0-729.0","0","0","94905","","null","","","null","80","","","","","","","","","","","","","","","NaN",""
"","S1","","html-keyboard-response","532","441269","0.0-1.0-731.0","0","0","94905","","null","","","null","81","","","","","","","","","","","","","","","",""
"","ISI","","html-keyboard-response","533","441777","0.0-1.0-732.0","0","0","94905","","null","","","null","81","NaN","","","","","","","","","","","","","","",""
"","S2","","html-keyboard-response","534","442036","0.0-1.0-733.0","0","0","94905","","null","","","null","81","","NaN","","","","","","","","","","","","","",""
"","response","","html-keyboard-response","535","442115","0.0-1.0-734.0-0.0","0","0","94905","","71","","","68","81","","","2","81","training","adjacent","DC","4","3","Q.jpg","O.jpg","0","0","1","",""
"","feedback","","html-keyboard-response","536","443122","0.0-1.0-735.0-0.0","0","0","94905","","null","","","null","81","","","","","","","","","","","","","","","",""
"","ITI","","html-keyboard-response","537","444129","0.0-1.0-738.0","0","0","94905","","null","","","null","81","","","","","","","","","","","","","","","NaN",""
"","S1","","html-keyboard-response","538","444442","0.0-1.0-740.0","0","0","94905","","null","","","null","82","","","","","","","","","","","","","","","",""
"","ISI","","html-keyboard-response","539","444950","0.0-1.0-741.0","0","0","94905","","null","","","null","82","NaN","","","","","","","","","","","","","","",""
"","S2","","html-keyboard-response","540","445210","0.0-1.0-742.0","0","0","94905","","null","","","null","82","","NaN","","","","","","","","","","","","","",""
"","response","","html-keyboard-response","541","445457","0.0-1.0-743.0-0.0","0","0","94905","","240","","","75","82","","","2","82","training","adjacent","BA","2","1","L.jpg","N.jpg","1","0","0","",""
"","feedback","","html-keyboard-response","542","446489","0.0-1.0-744.0-0.0","0","0","94905","","null","","","null","82","","","","","","","","","","","","","","","",""
"","time_out","","html-keyboard-response","543","448576","0.0-1.0-746.0-0.0","0","0","94905","","null","","","null","82","","","","","","","","","","","","","","","",""
"","ITI","","html-keyboard-response","544","449581","0.0-1.0-747.0","0","0","94905","","119","","","68","82","","","","","","","","","","","","","","","d",""
"","S1","","html-keyboard-response","545","449836","0.0-1.0-749.0","0","0","94905","","null","","","null","83","","","","","","","","","","","","","","","",""
"","ISI","","html-keyboard-response","546","450350","0.0-1.0-750.0","0","0","94905","","null","","","null","83","NaN","","","","","","","","","","","","","","",""
"","S2","","html-keyboard-response","547","450608","0.0-1.0-751.0","0","0","94905","","null","","","null","83","","NaN","","","","","","","","","","","","","",""
"","response","","html-keyboard-response","548","450677","0.0-1.0-752.0-0.0","0","0","94905","","64","","","75","83","","","2","83","training","adjacent","BC","2","3","L.jpg","O.jpg","1","1","1","",""
"","feedback","","html-keyboard-response","549","451686","0.0-1.0-753.0-0.0","0","0","94905","","null","","","null","83","","","","","","","","","","","","","","","",""
"","ITI","","html-keyboard-response","550","452693","0.0-1.0-756.0","0","0","94905","","null","","","null","83","","","","","","","","","","","","","","","NaN",""
"","S1","","html-keyboard-response","551","452949","0.0-1.0-758.0","0","0","94905","","null","","","null","84","","","","","","","","","","","","","","","",""
"","ISI","","html-keyboard-response","552","453456","0.0-1.0-759.0","0","0","94905","","null","","","null","84","NaN","","","","","","","","","","","","","","",""
"","S2","","html-keyboard-response","553","453714","0.0-1.0-760.0","0","0","94905","","null","","","null","84","","NaN","","","","","","","","","","","","","",""
"","response","","html-keyboard-response","554","453785","0.0-1.0-761.0-0.0","0","0","94905","","61","","","68","84","","","2","84","training","adjacent","DC","4","3","Q.jpg","O.jpg","0","0","1","",""
"","feedback","","html-keyboard-response","555","454852","0.0-1.0-762.0-0.0","0","0","94905","","null","","","null","84","","","","","","","","","","","","","","","",""
"","ITI","","html-keyboard-response","556","455860","0.0-1.0-765.0","0","0","94905","","null","","","null","84","","","","","","","","","","","","","","","NaN",""
"","S1","","html-keyboard-response","557","456123","0.0-1.0-767.0","0","0","94905","","null","","","null","85","","","","","","","","","","","","","","","",""
"","ISI","","html-keyboard-response","558","456742","0.0-1.0-768.0","0","0","94905","","null","","","null","85","NaN","","","","","","","","","","","","","","",""
"","S2","","html-keyboard-response","559","457008","0.0-1.0-769.0","0","0","94905","","191","","","75","85","","k","2","85","training","adjacent","CD","3","4","O.jpg","Q.jpg","1","1","1","",""
"","feedback","","html-keyboard-response","560","458021","0.0-1.0-771.0-0.0","0","0","94905","","null","","","null","85","","","","","","","","","","","","","","","",""
"","ITI","","html-keyboard-response","561","459027","0.0-1.0-774.0","0","0","94905","","null","","","null","85","","","","","","","","","","","","","","","NaN",""
"","S1","","html-keyboard-response","562","459283","0.0-1.0-776.0","0","0","94905","","null","","","null","86","","","","","","","","","","","","","","","",""
"","ISI","","html-keyboard-response","563","459789","0.0-1.0-777.0","0","0","94905","","null","","","null","86","NaN","","","","","","","","","","","","","","",""
"","S2","","html-keyboard-response","564","460049","0.0-1.0-778.0","0","0","94905","","null","","","null","86","","NaN","","","","","","","","","","","","","",""
"","response","","html-keyboard-response","565","460702","0.0-1.0-779.0-0.0","0","0","94905","","646","","","68","86","","","2","86","training","adjacent","ED","5","4","R.jpg","Q.jpg","0","0","1","",""
"","feedback","","html-keyboard-response","566","461712","0.0-1.0-780.0-0.0","0","0","94905","","null","","","null","86","","","","","","","","","","","","","","","",""
"","ITI","","html-keyboard-response","567","462720","0.0-1.0-783.0","0","0","94905","","null","","","null","86","","","","","","","","","","","","","","","NaN",""
"","S1","","html-keyboard-response","568","463005","0.0-1.0-785.0","0","0","94905","","null","","","null","87","","","","","","","","","","","","","","","",""
"","ISI","","html-keyboard-response","569","463512","0.0-1.0-786.0","0","0","94905","","null","","","null","87","NaN","","","","","","","","","","","","","","",""
"","S2","","html-keyboard-response","570","463773","0.0-1.0-787.0","0","0","94905","","null","","","null","87","","NaN","","","","","","","","","","","","","",""
"","response","","html-keyboard-response","571","463852","0.0-1.0-788.0-0.0","0","0","94905","","73","","","75","87","","","2","87","training","adjacent","AB","1","2","N.jpg","L.jpg","1","1","1","",""
"","feedback","","html-keyboard-response","572","464862","0.0-1.0-789.0-0.0","0","0","94905","","null","","","null","87","","","","","","","","","","","","","","","",""
"","ITI","","html-keyboard-response","573","465872","0.0-1.0-792.0","0","0","94905","","null","","","null","87","","","","","","","","","","","","","","","NaN",""
"","S1","","html-keyboard-response","574","466127","0.0-1.0-794.0","0","0","94905","","null","","","null","88","","","","","","","","","","","","","","","",""
"","ISI","","html-keyboard-response","575","466636","0.0-1.0-795.0","0","0","94905","","null","","","null","88","NaN","","","","","","","","","","","","","","",""
"","S2","","html-keyboard-response","576","466896","0.0-1.0-796.0","0","0","94905","","null","","","null","88","","NaN","","","","","","","","","","","","","",""
"","response","","html-keyboard-response","577","467992","0.0-1.0-797.0-0.0","0","0","94905","","1088","","","68","88","","","2","88","training","adjacent","CD","3","4","O.jpg","Q.jpg","0","1","0","",""
