"success","ttype","start_time","trial_type","trial_index","time_elapsed","internal_node_id","warning","missed_checkup","PID","view_history","rt","responses","repeat_instructions","key_press","index","keypress_isi","keypress_S2","block","trial_num","phase","group_type","pair_type","S1_stim","S2_stim","S1_img","S2_img","S1_chosen","S1_higher","accuracy","keypress_iti","total_bonus_tally"
"true","full_screen","d03032023hr1940","fullscreen","0","13089","0.0-0.0","0","0","57245","","","","","","","","","","","","","","","","","","","","","",""
"","instructions","","instructions","1","123940","0.0-1.0-0.0-0.0","0","0","57245","[{""page_index"":0,""viewing_time"":8753},{""page_index"":1,""viewing_time"":73907},{""page_index"":2,""viewing_time"":6082},{""page_index"":1,""viewing_time"":6071},{""page_index"":2,""viewing_time"":13667},{""page_index"":3,""viewing_time"":2367}]","110848","","","","","","","","","","","","","","","","","","","",""
"","comprehension_check","","survey-multi-choice","2","161925","0.0-1.0-0.0-1.0","0","0","57245","","37974","{""Q0"":""True"",""Q1"":""K"",""Q2"":""Once the second image appears and while the screen 'MAKE A CHOICE' is shown"",""Q3"":""Green mark"",""Q4"":""either D or K""}","0","","","","","","","","","","","","","","","","","",""
"","start_exp","","html-keyboard-response","3","163739","0.0-1.0-1.0","0","0","57245","","1808","","","32","","","","","","","","","","","","","","","","",""
"","S1","","html-keyboard-response","4","163996","0.0-1.0-2.0","0","0","57245","","null","","","null","0","","","","","","","","","","","","","","","",""
"","ISI","","html-keyboard-response","5","164505","0.0-1.0-3.0","0","0","57245","","null","","","null","0","NaN","","","","","","","","","","","","","","",""
"","S2","","html-keyboard-response","6","164764","0.0-1.0-4.0","0","0","57245","","null","","","null","0","","NaN","","","","","","","","","","","","","",""
"","response","","html-keyboard-response","7","165831","0.0-1.0-5.0-0.0","0","0","57245","","1063","","","75","0","","","1","0","training","adjacent","ED","5","4","L.jpg","R.jpg","1","0","0","",""
"","feedback","","html-keyboard-response","8","166851","0.0-1.0-6.0-0.0","0","0","57245","","null","","","null","0","","","","","","","","","","","","","","","",""
"","time_out","","html-keyboard-response","9","168862","0.0-1.0-8.0-0.0","0","0","57245","","null","","","null","0","","","","","","","","","","","","","","","",""
"","ITI","","html-keyboard-response","10","169867","0.0-1.0-9.0","0","0","57245","","null","","","null","0","","","","","","","","","","","","","","","NaN",""
"","S1","","html-keyboard-response","11","170128","0.0-1.0-11.0","0","0","57245","","null","","","null","1","","","","","","","","","","","","","","","",""
"","ISI","","html-keyboard-response","12","170639","0.0-1.0-12.0","0","0","57245","","null","","","null","1","NaN","","","","","","","","","","","","","","",""
"","S2","","html-keyboard-response","13","170893","0.0-1.0-13.0","0","0","57245","","null","","","null","1","","NaN","","","","","","","","","","","","","",""
"","response","","html-keyboard-response","14","171423","0.0-1.0-14.0-0.0","0","0","57245","","527","","","68","1","","","1","1","training","adjacent","DE","4","5","R.jpg","L.jpg","0","1","0","",""
"","feedback","","html-keyboard-response","15","172429","0.0-1.0-15.0-0.0","0","0","57245","","null","","","null","1","","","","","","","","","","","","","","","",""
"","time_out","","html-keyboard-response","16","174437","0.0-1.0-17.0-0.0","0","0","57245","","null","","","null","1","","","","","","","","","","","","","","","",""
"","ITI","","html-keyboard-response","17","175456","0.0-1.0-18.0","0","0","57245","","null","","","null","1","","","","","","","","","","","","","","","NaN",""
"","S1","","html-keyboard-response","18","175714","0.0-1.0-20.0","0","0","57245","","null","","","null","2","","","","","","","","","","","","","","","",""
"","ISI","","html-keyboard-response","19","176222","0.0-1.0-21.0","0","0","57245","","null","","","null","2","NaN","","","","","","","","","","","","","","",""
"","S2","","html-keyboard-response","20","176480","0.0-1.0-22.0","0","0","57245","","null","","","null","2","","NaN","","","","","","","","","","","","","",""
"","response","","html-keyboard-response","21","176920","0.0-1.0-23.0-0.0","0","0","57245","","437","","","75","2","","","1","2","training","adjacent","DC","4","3","R.jpg","N.jpg","1","0","0","",""
"","feedback","","html-keyboard-response","22","177937","0.0-1.0-24.0-0.0","0","0","57245","","null","","","null","2","","","","","","","","","","","","","","","",""
"","time_out","","html-keyboard-response","23","179944","0.0-1.0-26.0-0.0","0","0","57245","","null","","","null","2","","","","","","","","","","","","","","","",""
"","ITI","","html-keyboard-response","24","180947","0.0-1.0-27.0","0","0","57245","","null","","","null","2","","","","","","","","","","","","","","","NaN",""
"","S1","","html-keyboard-response","25","181207","0.0-1.0-29.0","0","0","57245","","null","","","null","3","","","","","","","","","","","","","","","",""
"","ISI","","html-keyboard-response","26","181716","0.0-1.0-30.0","0","0","57245","","null","","","null","3","NaN","","","","","","","","","","","","","","",""
"","S2","","html-keyboard-response","27","181982","0.0-1.0-31.0","0","0","57245","","null","","","null","3","","NaN","","","","","","","","","","","","","",""
"","response","","html-keyboard-response","28","182557","0.0-1.0-32.0-0.0","0","0","57245","","572","","","68","3","","","1","3","training","adjacent","DE","4","5","R.jpg","L.jpg","0","1","0","",""
"","feedback","","html-keyboard-response","29","183574","0.0-1.0-33.0-0.0","0","0","57245","","null","","","null","3","","","","","","","","","","","","","","","",""
"","time_out","","html-keyboard-response","30","185586","0.0-1.0-35.0-0.0","0","0","57245","","null","","","null","3","","","","","","","","","","","","","","","",""
"","ITI","","html-keyboard-response","31","186595","0.0-1.0-36.0","0","0","57245","","null","","","null","3","","","","","","","","","","","","","","","NaN",""
"","S1","","html-keyboard-response","32","186848","0.0-1.0-38.0","0","0","57245","","null","","","null","4","","","","","","","","","","","","","","","",""
"","ISI","","html-keyboard-response","33","187356","0.0-1.0-39.0","0","0","57245","","null","","","null","4","NaN","","","","","","","","","","","","","","",""
"","S2","","html-keyboard-response","34","187611","0.0-1.0-40.0","0","0","57245","","null","","","null","4","","NaN","","","","","","","","","","","","","",""
"","response","","html-keyboard-response","35","188310","0.0-1.0-41.0-0.0","0","0","57245","","695","","","75","4","","","1","4","training","adjacent","FE","6","5","Q.jpg","L.jpg","1","0","0","",""
"","feedback","","html-keyboard-response","36","189315","0.0-1.0-42.0-0.0","0","0","57245","","null","","","null","4","","","","","","","","","","","","","","","",""
"","time_out","","html-keyboard-response","37","191323","0.0-1.0-44.0-0.0","0","0","57245","","null","","","null","4","","","","","","","","","","","","","","","",""
"","ITI","","html-keyboard-response","38","192330","0.0-1.0-45.0","0","0","57245","","null","","","null","4","","","","","","","","","","","","","","","NaN",""
"","S1","","html-keyboard-response","39","192584","0.0-1.0-47.0","0","0","57245","","null","","","null","5","","","","","","","","","","","","","","","",""
"","ISI","","html-keyboard-response","40","193089","0.0-1.0-48.0","0","0","57245","","null","","","null","5","NaN","","","","","","","","","","","","","","",""
"","S2","","html-keyboard-response","41","193342","0.0-1.0-49.0","0","0","57245","","null","","","null","5","","NaN","","","","","","","","","","","","","",""
"","response","","html-keyboard-response","42","193428","0.0-1.0-50.0-0.0","0","0","57245","","84","","","75","5","","","1","5","training","adjacent","AB","1","2","M.jpg","P.jpg","1","1","1","",""
"","feedback","","html-keyboard-response","43","194432","0.0-1.0-51.0-0.0","0","0","57245","","null","","","null","5","","","","","","","","","","","","","","","",""
"","ITI","","html-keyboard-response","44","195440","0.0-1.0-54.0","0","0","57245","","null","","","null","5","","","","","","","","","","","","","","","NaN",""
"","S1","","html-keyboard-response","45","195693","0.0-1.0-56.0","0","0","57245","","null","","","null","6","","","","","","","","","","","","","","","",""
"","ISI","","html-keyboard-response","46","196202","0.0-1.0-57.0","0","0","57245","","null","","","null","6","NaN","","","","","","","","","","","","","","",""
"","S2","","html-keyboard-response","47","196456","0.0-1.0-58.0","0","0","57245","","null","","","null","6","","NaN","","","","","","","","","","","","","",""
"","response","","html-keyboard-response","48","196725","0.0-1.0-59.0-0.0","0","0","57245","","266","","","75","6","","","1","6","training","adjacent","CB","3","2","N.jpg","P.jpg","1","0","0","",""
"","feedback","","html-keyboard-response","49","197728","0.0-1.0-60.0-0.0","0","0","57245","","null","","","null","6","","","","","","","","","","","","","","","",""
"","time_out","","html-keyboard-response","50","199736","0.0-1.0-62.0-0.0","0","0","57245","","null","","","null","6","","","","","","","","","","","","","","","",""
"","ITI","","html-keyboard-response","51","200755","0.0-1.0-63.0","0","0","57245","","null","","","null","6","","","","","","","","","","","","","","","NaN",""
"","S1","","html-keyboard-response","52","201012","0.0-1.0-65.0","0","0","57245","","null","","","null","7","","","","","","","","","","","","","","","",""
"","ISI","","html-keyboard-response","53","201519","0.0-1.0-66.0","0","0","57245","","null","","","null","7","NaN","","","","","","","","","","","","","","",""
"","S2","","html-keyboard-response","54","201780","0.0-1.0-67.0","0","0","57245","","null","","","null","7","","NaN","","","","","","","","","","","","","",""
"","response","","html-keyboard-response","55","202005","0.0-1.0-68.0-0.0","0","0","57245","","222","","","68","7","","","1","7","training","adjacent","BC","2","3","P.jpg","N.jpg","0","1","0","",""
"","feedback","","html-keyboard-response","56","203017","0.0-1.0-69.0-0.0","0","0","57245","","null","","","null","7","","","","","","","","","","","","","","","",""
"","time_out","","html-keyboard-response","57","205027","0.0-1.0-71.0-0.0","0","0","57245","","null","","","null","7","","","","","","","","","","","","","","","",""
"","ITI","","html-keyboard-response","58","206031","0.0-1.0-72.0","0","0","57245","","null","","","null","7","","","","","","","","","","","","","","","NaN",""
"","S1","","html-keyboard-response","59","206286","0.0-1.0-74.0","0","0","57245","","null","","","null","8","","","","","","","","","","","","","","","",""
"","ISI","","html-keyboard-response","60","206795","0.0-1.0-75.0","0","0","57245","","null","","","null","8","NaN","","","","","","","","","","","","","","",""
"","S2","","html-keyboard-response","61","207057","0.0-1.0-76.0","0","0","57245","","null","","","null","8","","NaN","","","","","","","","","","","","","",""
"","response","","html-keyboard-response","62","207499","0.0-1.0-77.0-0.0","0","0","57245","","440","","","75","8","","","1","8","training","adjacent","BA","2","1","P.jpg","M.jpg","1","0","0","",""
"","feedback","","html-keyboard-response","63","208509","0.0-1.0-78.0-0.0","0","0","57245","","null","","","null","8","","","","","","","","","","","","","","","",""
"","time_out","","html-keyboard-response","64","210514","0.0-1.0-80.0-0.0","0","0","57245","","null","","","null","8","","","","","","","","","","","","","","","",""
"","ITI","","html-keyboard-response","65","211520","0.0-1.0-81.0","0","0","57245","","null","","","null","8","","","","","","","","","","","","","","","NaN",""
"","S1","","html-keyboard-response","66","211782","0.0-1.0-83.0","0","0","57245","","null","","","null","9","","","","","","","","","","","","","","","",""
"","ISI","","html-keyboard-response","67","212293","0.0-1.0-84.0","0","0","57245","","null","","","null","9","NaN","","","","","","","","","","","","","","",""
"","S2","","html-keyboard-response","68","212552","0.0-1.0-85.0","0","0","57245","","null","","","null","9","","NaN","","","","","","","","","","","","","",""
"","response","","html-keyboard-response","69","213396","0.0-1.0-86.0-0.0","0","0","57245","","841","","","68","9","","","1","9","training","adjacent","EF","5","6","L.jpg","Q.jpg","0","1","0","",""
"","feedback","","html-keyboard-response","70","214403","0.0-1.0-87.0-0.0","0","0","57245","","null","","","null","9","","","","","","","","","","","","","","","",""
"","time_out","","html-keyboard-response","71","216407","0.0-1.0-89.0-0.0","0","0","57245","","null","","","null","9","","","","","","","","","","","","","","","",""
"","ITI","","html-keyboard-response","72","217416","0.0-1.0-90.0","0","0","57245","","null","","","null","9","","","","","","","","","","","","","","","NaN",""
"","S1","","html-keyboard-response","73","217676","0.0-1.0-92.0","0","0","57245","","null","","","null","10","","","","","","","","","","","","","","","",""
"","ISI","","html-keyboard-response","74","218182","0.0-1.0-93.0","0","0","57245","","null","","","null","10","NaN","","","","","","","","","","","","","","",""
"","S2","","html-keyboard-response","75","218439","0.0-1.0-94.0","0","0","57245","","null","","","null","10","","NaN","","","","","","","","","","","","","",""
"","response","","html-keyboard-response","76","219139","0.0-1.0-95.0-0.0","0","0","57245","","698","","","75","10","","","1","10","training","adjacent","AB","1","2","M.jpg","P.jpg","1","1","1","",""
"","feedback","","html-keyboard-response","77","220142","0.0-1.0-96.0-0.0","0","0","57245","","null","","","null","10","","","","","","","","","","","","","","","",""
"","ITI","","html-keyboard-response","78","221146","0.0-1.0-99.0","0","0","57245","","null","","","null","10","","","","","","","","","","","","","","","NaN",""
"","S1","","html-keyboard-response","79","221399","0.0-1.0-101.0","0","0","57245","","null","","","null","11","","","","","","","","","","","","","","","",""
"","ISI","","html-keyboard-response","80","221907","0.0-1.0-102.0","0","0","57245","","null","","","null","11","NaN","","","","","","","","","","","","","","",""
"","S2","","html-keyboard-response","81","222162","0.0-1.0-103.0","0","0","57245","","null","","","null","11","","NaN","","","","","","","","","","","","","",""
"","response","","html-keyboard-response","82","222470","0.0-1.0-104.0-0.0","0","0","57245","","305","","","75","11","","","1","11","training","adjacent","CB","3","2","N.jpg","P.jpg","1","0","0","",""
"","feedback","","html-keyboard-response","83","223482","0.0-1.0-105.0-0.0","0","0","57245","","null","","","null","11","","","","","","","","","","","","","","","",""
"","time_out","","html-keyboard-response","84","225489","0.0-1.0-107.0-0.0","0","0","57245","","null","","","null","11","","","","","","","","","","","","","","","",""
"","ITI","","html-keyboard-response","85","226507","0.0-1.0-108.0","0","0","57245","","null","","","null","11","","","","","","","","","","","","","","","NaN",""
"","S1","","html-keyboard-response","86","226766","0.0-1.0-110.0","0","0","57245","","null","","","null","12","","","","","","","","","","","","","","","",""
"","ISI","","html-keyboard-response","87","227274","0.0-1.0-111.0","0","0","57245","","null","","","null","12","NaN","","","","","","","","","","","","","","",""
"","S2","","html-keyboard-response","88","227431","0.0-1.0-112.0","0","0","57245","","154","","","68","12","","d","1","12","training","adjacent","FE","6","5","Q.jpg","L.jpg","0","0","1","",""
"","feedback","","html-keyboard-response","89","228438","0.0-1.0-114.0-0.0","0","0","57245","","null","","","null","12","","","","","","","","","","","","","","","",""
"","ITI","","html-keyboard-response","90","229448","0.0-1.0-117.0","0","0","57245","","null","","","null","12","","","","","","","","","","","","","","","NaN",""
"","S1","","html-keyboard-response","91","229701","0.0-1.0-119.0","0","0","57245","","null","","","null","13","","","","","","","","","","","","","","","",""
"","ISI","","html-keyboard-response","92","230211","0.0-1.0-120.0","0","0","57245","","null","","","null","13","NaN","","","","","","","","","","","","","","",""
"","S2","","html-keyboard-response","93","230468","0.0-1.0-121.0","0","0","57245","","null","","","null","13","","NaN","","","","","","","","","","","","","",""
"","response","","html-keyboard-response","94","231065","0.0-1.0-122.0-0.0","0","0","57245","","594","","","75","13","","","1","13","training","adjacent","FG","6","7","Q.jpg","O.jpg","1","1","1","",""
"","feedback","","html-keyboard-response","95","232074","0.0-1.0-123.0-0.0","0","0","57245","","null","","","null","13","","","","","","","","","","","","","","","",""
"","ITI","","html-keyboard-response","96","233081","0.0-1.0-126.0","0","0","57245","","null","","","null","13","","","","","","","","","","","","","","","NaN",""
"","S1","","html-keyboard-response","97","233347","0.0-1.0-128.0","0","0","57245","","null","","","null","14","","","","","","","","","","","","","","","",""
"","ISI","","html-keyboard-response","98","233860","0.0-1.0-129.0","0","0","57245","","null","","","null","14","NaN","","","","","","","","","","","","","","",""
"","S2","","html-keyboard-response","99","234117","0.0-1.0-130.0","0","0","57245","","null","","","null","14","","NaN","","","","","","","","","","","","","",""
"","response","","html-keyboard-response","100","234770","0.0-1.0-131.0-0.0","0","0","57245","","650","","","75","14","","","1","14","training","adjacent","GF","7","6","O.jpg","Q.jpg","1","0","0","",""
"","feedback","","html-keyboard-response","101","235780","0.0-1.0-132.0-0.0","0","0","57245","","null","","","null","14","","","","","","","","","","","","","","","",""
"","time_out","","html-keyboard-response","102","237796","0.0-1.0-134.0-0.0","0","0","57245","","null","","","null","14","","","","","","","","","","","","","","","",""
"","ITI","","html-keyboard-response","103","238801","0.0-1.0-135.0","0","0","57245","","null","","","null","14","","","","","","","","","","","","","","","NaN",""
"","S1","","html-keyboard-response","104","239055","0.0-1.0-137.0","0","0","57245","","null","","","null","15","","","","","","","","","","","","","","","",""
"","ISI","","html-keyboard-response","105","239564","0.0-1.0-138.0","0","0","57245","","null","","","null","15","NaN","","","","","","","","","","","","","","",""
"","S2","","html-keyboard-response","106","239818","0.0-1.0-139.0","0","0","57245","","null","","","null","15","","NaN","","","","","","","","","","","","","",""
"","response","","html-keyboard-response","107","240326","0.0-1.0-140.0-0.0","0","0","57245","","505","","","68","15","","","1","15","training","adjacent","CB","3","2","N.jpg","P.jpg","0","0","1","",""
"","feedback","","html-keyboard-response","108","241334","0.0-1.0-141.0-0.0","0","0","57245","","null","","","null","15","","","","","","","","","","","","","","","",""
"","ITI","","html-keyboard-response","109","242348","0.0-1.0-144.0","0","0","57245","","null","","","null","15","","","","","","","","","","","","","","","NaN",""
"","S1","","html-keyboard-response","110","242603","0.0-1.0-146.0","0","0","57245","","null","","","null","16","","","","","","","","","","","","","","","",""
"","ISI","","html-keyboard-response","111","243112","0.0-1.0-147.0","0","0","57245","","null","","","null","16","NaN","","","","","","","","","","","","","","",""
"","S2","","html-keyboard-response","112","243369","0.0-1.0-148.0","0","0","57245","","null","","","null","16","","NaN","","","","","","","","","","","","","",""
"","response","","html-keyboard-response","113","243990","0.0-1.0-149.0-0.0","0","0","57245","","618","","","75","16","","","1","16","training","adjacent","DE","4","5","R.jpg","L.jpg","1","1","1","",""
"","feedback","","html-keyboard-response","114","245000","0.0-1.0-150.0-0.0","0","0","57245","","null","","","null","16","","","","","","","","","","","","","","","",""
"","ITI","","html-keyboard-response","115","246006","0.0-1.0-153.0","0","0","57245","","null","","","null","16","","","","","","","","","","","","","","","NaN",""
"","S1","","html-keyboard-response","116","246265","0.0-1.0-155.0","0","0","57245","","null","","","null","17","","","","","","","","","","","","","","","",""
"","ISI","","html-keyboard-response","117","246771","0.0-1.0-156.0","0","0","57245","","null","","","null","17","NaN","","","","","","","","","","","","","","",""
"","S2","","html-keyboard-response","118","247025","0.0-1.0-157.0","0","0","57245","","null","","","null","17","","NaN","","","","","","","","","","","","","",""
"","response","","html-keyboard-response","119","247735","0.0-1.0-158.0-0.0","0","0","57245","","707","","","75","17","","","1","17","training","adjacent","BC","2","3","P.jpg","N.jpg","1","1","1","",""
"","feedback","","html-keyboard-response","120","248751","0.0-1.0-159.0-0.0","0","0","57245","","null","","","null","17","","","","","","","","","","","","","","","",""
"","ITI","","html-keyboard-response","121","249755","0.0-1.0-162.0","0","0","57245","","null","","","null","17","","","","","","","","","","","","","","","NaN",""
"","S1","","html-keyboard-response","122","250015","0.0-1.0-164.0","0","0","57245","","null","","","null","18","","","","","","","","","","","","","","","",""
"","ISI","","html-keyboard-response","123","250523","0.0-1.0-165.0","0","0","57245","","null","","","null","18","NaN","","","","","","","","","","","","","","",""
"","S2","","html-keyboard-response","124","250780","0.0-1.0-166.0","0","0","57245","","null","","","null","18","","NaN","","","","","","","","","","","","","",""
"","response","","html-keyboard-response","125","251128","0.0-1.0-167.0-0.0","0","0","57245","","345","","","75","18","","","1","18","training","adjacent","CB","3","2","N.jpg","P.jpg","1","0","0","",""
"","feedback","","html-keyboard-response","126","252134","0.0-1.0-168.0-0.0","0","0","57245","","null","","","null","18","","","","","","","","","","","","","","","",""
"","time_out","","html-keyboard-response","127","254145","0.0-1.0-170.0-0.0","0","0","57245","","null","","","null","18","","","","","","","","","","","","","","","",""
"","ITI","","html-keyboard-response","128","255162","0.0-1.0-171.0","0","0","57245","","null","","","null","18","","","","","","","","","","","","","","","NaN",""
"","S1","","html-keyboard-response","129","255418","0.0-1.0-173.0","0","0","57245","","null","","","null","19","","","","","","","","","","","","","","","",""
"","ISI","","html-keyboard-response","130","255929","0.0-1.0-174.0","0","0","57245","","null","","","null","19","NaN","","","","","","","","","","","","","","",""
"","S2","","html-keyboard-response","131","256184","0.0-1.0-175.0","0","0","57245","","null","","","null","19","","NaN","","","","","","","","","","","","","",""
"","response","","html-keyboard-response","132","256643","0.0-1.0-176.0-0.0","0","0","57245","","457","","","68","19","","","1","19","training","adjacent","GF","7","6","O.jpg","Q.jpg","0","0","1","",""
"","feedback","","html-keyboard-response","133","257652","0.0-1.0-177.0-0.0","0","0","57245","","null","","","null","19","","","","","","","","","","","","","","","",""
"","ITI","","html-keyboard-response","134","258656","0.0-1.0-180.0","0","0","57245","","null","","","null","19","","","","","","","","","","","","","","","NaN",""
"","S1","","html-keyboard-response","135","258917","0.0-1.0-182.0","0","0","57245","","null","","","null","20","","","","","","","","","","","","","","","",""
"","ISI","","html-keyboard-response","136","259427","0.0-1.0-183.0","0","0","57245","","null","","","null","20","NaN","","","","","","","","","","","","","","",""
"","S2","","html-keyboard-response","137","259686","0.0-1.0-184.0","0","0","57245","","null","","","null","20","","NaN","","","","","","","","","","","","","",""
"","response","","html-keyboard-response","138","260163","0.0-1.0-185.0-0.0","0","0","57245","","473","","","75","20","","","1","20","training","adjacent","ED","5","4","L.jpg","R.jpg","1","0","0","",""
"","feedback","","html-keyboard-response","139","261172","0.0-1.0-186.0-0.0","0","0","57245","","null","","","null","20","","","","","","","","","","","","","","","",""
"","time_out","","html-keyboard-response","140","263180","0.0-1.0-188.0-0.0","0","0","57245","","null","","","null","20","","","","","","","","","","","","","","","",""
"","ITI","","html-keyboard-response","141","264190","0.0-1.0-189.0","0","0","57245","","null","","","null","20","","","","","","","","","","","","","","","NaN",""
"","S1","","html-keyboard-response","142","264443","0.0-1.0-191.0","0","0","57245","","null","","","null","21","","","","","","","","","","","","","","","",""
"","ISI","","html-keyboard-response","143","264955","0.0-1.0-192.0","0","0","57245","","null","","","null","21","NaN","","","","","","","","","","","","","","",""
"","S2","","html-keyboard-response","144","265216","0.0-1.0-193.0","0","0","57245","","null","","","null","21","","NaN","","","","","","","","","","","","","",""
"","response","","html-keyboard-response","145","265270","0.0-1.0-194.0-0.0","0","0","57245","","52","","","68","21","","","1","21","training","adjacent","BC","2","3","P.jpg","N.jpg","0","1","0","",""
"","feedback","","html-keyboard-response","146","266277","0.0-1.0-195.0-0.0","0","0","57245","","null","","","null","21","","","","","","","","","","","","","","","",""
"","time_out","","html-keyboard-response","147","268281","0.0-1.0-197.0-0.0","0","0","57245","","null","","","null","21","","","","","","","","","","","","","","","",""
"","ITI","","html-keyboard-response","148","269285","0.0-1.0-198.0","0","0","57245","","null","","","null","21","","","","","","","","","","","","","","","NaN",""
"","S1","","html-keyboard-response","149","269543","0.0-1.0-200.0","0","0","57245","","null","","","null","22","","","","","","","","","","","","","","","",""
"","ISI","","html-keyboard-response","150","270049","0.0-1.0-201.0","0","0","57245","","null","","","null","22","NaN","","","","","","","","","","","","","","",""
"","S2","","html-keyboard-response","151","270308","0.0-1.0-202.0","0","0","57245","","null","","","null","22","","NaN","","","","","","","","","","","","","",""
"","response","","html-keyboard-response","152","270698","0.0-1.0-203.0-0.0","0","0","57245","","387","","","75","22","","","1","22","training","adjacent","CD","3","4","N.jpg","R.jpg","1","1","1","",""
"","feedback","","html-keyboard-response","153","271706","0.0-1.0-204.0-0.0","0","0","57245","","null","","","null","22","","","","","","","","","","","","","","","",""
"","ITI","","html-keyboard-response","154","272713","0.0-1.0-207.0","0","0","57245","","null","","","null","22","","","","","","","","","","","","","","","NaN",""
"","S1","","html-keyboard-response","155","272973","0.0-1.0-209.0","0","0","57245","","null","","","null","23","","","","","","","","","","","","","","","",""
"","ISI","","html-keyboard-response","156","273482","0.0-1.0-210.0","0","0","57245","","null","","","null","23","NaN","","","","","","","","","","","","","","",""
"","S2","","html-keyboard-response","157","273739","0.0-1.0-211.0","0","0","57245","","null","","","null","23","","NaN","","","","","","","","","","","","","",""
"","response","","html-keyboard-response","158","274102","0.0-1.0-212.0-0.0","0","0","57245","","361","","","75","23","","","1","23","training","adjacent","FE","6","5","Q.jpg","L.jpg","1","0","0","",""
"","feedback","","html-keyboard-response","159","275107","0.0-1.0-213.0-0.0","0","0","57245","","null","","","null","23","","","","","","","","","","","","","","","",""
"","time_out","","html-keyboard-response","160","277111","0.0-1.0-215.0-0.0","0","0","57245","","null","","","null","23","","","","","","","","","","","","","","","",""
"","ITI","","html-keyboard-response","161","278114","0.0-1.0-216.0","0","0","57245","","null","","","null","23","","","","","","","","","","","","","","","NaN",""
"","S1","","html-keyboard-response","162","278371","0.0-1.0-218.0","0","0","57245","","null","","","null","24","","","","","","","","","","","","","","","",""
"","ISI","","html-keyboard-response","163","278889","0.0-1.0-219.0","0","0","57245","","null","","","null","24","NaN","","","","","","","","","","","","","","",""
"","S2","","html-keyboard-response","164","279144","0.0-1.0-220.0","0","0","57245","","null","","","null","24","","NaN","","","","","","","","","","","","","",""
"","response","","html-keyboard-response","165","279746","0.0-1.0-221.0-0.0","0","0","57245","","600","","","68","24","","","1","24","training","adjacent","EF","5","6","L.jpg","Q.jpg","0","1","0","",""
"","feedback","","html-keyboard-response","166","280755","0.0-1.0-222.0-0.0","0","0","57245","","null","","","null","24","","","","","","","","","","","","","","","",""
"","time_out","","html-keyboard-response","167","282770","0.0-1.0-224.0-0.0","0","0","57245","","null","","","null","24","","","","","","","","","","","","","","","",""
"","ITI","","html-keyboard-response","168","283777","0.0-1.0-225.0","0","0","57245","","null","","","null","24","","","","","","","","","","","","","","","NaN",""
"","S1","","html-keyboard-response","169","284034","0.0-1.0-227.0","0","0","57245","","null","","","null","25","","","","","","","","","","","","","","","",""
"","ISI","","html-keyboard-response","170","284541","0.0-1.0-228.0","0","0","57245","","null","","","null","25","NaN","","","","","","","","","","","","","","",""
"","S2","","html-keyboard-response","171","284801","0.0-1.0-229.0","0","0","57245","","null","","","null","25","","NaN","","","","","","","","","","","","","",""
"","response","","html-keyboard-response","172","285321","0.0-1.0-230.0-0.0","0","0","57245","","519","","","75","25","","","1","25","training","adjacent","AB","1","2","M.jpg","P.jpg","1","1","1","",""
"","feedback","","html-keyboard-response","173","286328","0.0-1.0-231.0-0.0","0","0","57245","","null","","","null","25","","","","","","","","","","","","","","","",""
"","ITI","","html-keyboard-response","174","287339","0.0-1.0-234.0","0","0","57245","","null","","","null","25","","","","","","","","","","","","","","","NaN",""
"","S1","","html-keyboard-response","175","287594","0.0-1.0-236.0","0","0","57245","","null","","","null","26","","","","","","","","","","","","","","","",""
"","ISI","","html-keyboard-response","176","288099","0.0-1.0-237.0","0","0","57245","","null","","","null","26","NaN","","","","","","","","","","","","","","",""
"","S2","","html-keyboard-response","177","288358","0.0-1.0-238.0","0","0","57245","","null","","","null","26","","NaN","","","","","","","","","","","","","",""
"","response","","html-keyboard-response","178","288794","0.0-1.0-239.0-0.0","0","0","57245","","434","","","68","26","","","1","26","training","adjacent","CD","3","4","N.jpg","R.jpg","0","1","0","",""
"","feedback","","html-keyboard-response","179","289803","0.0-1.0-240.0-0.0","0","0","57245","","null","","","null","26","","","","","","","","","","","","","","","",""
"","time_out","","html-keyboard-response","180","291808","0.0-1.0-242.0-0.0","0","0","57245","","null","","","null","26","","","","","","","","","","","","","","","",""
"","ITI","","html-keyboard-response","181","292818","0.0-1.0-243.0","0","0","57245","","null","","","null","26","","","","","","","","","","","","","","","NaN",""
"","S1","","html-keyboard-response","182","293075","0.0-1.0-245.0","0","0","57245","","null","","","null","27","","","","","","","","","","","","","","","",""
"","ISI","","html-keyboard-response","183","293583","0.0-1.0-246.0","0","0","57245","","null","","","null","27","NaN","","","","","","","","","","","","","","",""
"","S2","","html-keyboard-response","184","293838","0.0-1.0-247.0","0","0","57245","","null","","","null","27","","NaN","","","","","","","","","","","","","",""
"","response","","html-keyboard-response","185","294215","0.0-1.0-248.0-0.0","0","0","57245","","374","","","75","27","","","1","27","training","adjacent","BA","2","1","P.jpg","M.jpg","1","0","0","",""
"","feedback","","html-keyboard-response","186","295221","0.0-1.0-249.0-0.0","0","0","57245","","null","","","null","27","","","","","","","","","","","","","","","",""
"","time_out","","html-keyboard-response","187","297229","0.0-1.0-251.0-0.0","0","0","57245","","null","","","null","27","","","","","","","","","","","","","","","",""
"","ITI","","html-keyboard-response","188","298242","0.0-1.0-252.0","0","0","57245","","null","","","null","27","","","","","","","","","","","","","","","NaN",""
"","S1","","html-keyboard-response","189","298498","0.0-1.0-254.0","0","0","57245","","null","","","null","28","","","","","","","","","","","","","","","",""
"","ISI","","html-keyboard-response","190","299004","0.0-1.0-255.0","0","0","57245","","null","","","null","28","NaN","","","","","","","","","","","","","","",""
"","S2","","html-keyboard-response","191","299268","0.0-1.0-256.0","0","0","57245","","null","","","null","28","","NaN","","","","","","","","","","","","","",""
"","response","","html-keyboard-response","192","299690","0.0-1.0-257.0-0.0","0","0","57245","","419","","","75","28","","","1","28","training","adjacent","EF","5","6","L.jpg","Q.jpg","1","1","1","",""
"","feedback","","html-keyboard-response","193","300695","0.0-1.0-258.0-0.0","0","0","57245","","null","","","null","28","","","","","","","","","","","","","","","",""
"","ITI","","html-keyboard-response","194","301698","0.0-1.0-261.0","0","0","57245","","null","","","null","28","","","","","","","","","","","","","","","NaN",""
"","S1","","html-keyboard-response","195","301953","0.0-1.0-263.0","0","0","57245","","null","","","null","29","","","","","","","","","","","","","","","",""
"","ISI","","html-keyboard-response","196","302457","0.0-1.0-264.0","0","0","57245","","null","","","null","29","NaN","","","","","","","","","","","","","","",""
"","S2","","html-keyboard-response","197","302717","0.0-1.0-265.0","0","0","57245","","null","","","null","29","","NaN","","","","","","","","","","","","","",""
"","response","","html-keyboard-response","198","303254","0.0-1.0-266.0-0.0","0","0","57245","","534","","","75","29","","","1","29","training","adjacent","BA","2","1","P.jpg","M.jpg","1","0","0","",""
"","feedback","","html-keyboard-response","199","304259","0.0-1.0-267.0-0.0","0","0","57245","","null","","","null","29","","","","","","","","","","","","","","","",""
"","time_out","","html-keyboard-response","200","306267","0.0-1.0-269.0-0.0","0","0","57245","","null","","","null","29","","","","","","","","","","","","","","","",""
"","ITI","","html-keyboard-response","201","307273","0.0-1.0-270.0","0","0","57245","","null","","","null","29","","","","","","","","","","","","","","","NaN",""
"","S1","","html-keyboard-response","202","307530","0.0-1.0-272.0","0","0","57245","","null","","","null","30","","","","","","","","","","","","","","","",""
"","ISI","","html-keyboard-response","203","308037","0.0-1.0-273.0","0","0","57245","","null","","","null","30","NaN","","","","","","","","","","","","","","",""
"","S2","","html-keyboard-response","204","308292","0.0-1.0-274.0","0","0","57245","","null","","","null","30","","NaN","","","","","","","","","","","","","",""
"","response","","html-keyboard-response","205","308775","0.0-1.0-275.0-0.0","0","0","57245","","481","","","75","30","","","1","30","training","adjacent","FG","6","7","Q.jpg","O.jpg","1","1","1","",""
"","feedback","","html-keyboard-response","206","309779","0.0-1.0-276.0-0.0","0","0","57245","","null","","","null","30","","","","","","","","","","","","","","","",""
"","ITI","","html-keyboard-response","207","310786","0.0-1.0-279.0","0","0","57245","","null","","","null","30","","","","","","","","","","","","","","","NaN",""
"","S1","","html-keyboard-response","208","311055","0.0-1.0-281.0","0","0","57245","","null","","","null","31","","","","","","","","","","","","","","","",""
"","ISI","","html-keyboard-response","209","311564","0.0-1.0-282.0","0","0","57245","","null","","","null","31","NaN","","","","","","","","","","","","","","",""
"","S2","","html-keyboard-response","210","311819","0.0-1.0-283.0","0","0","57245","","null","","","null","31","","NaN","","","","","","","","","","","","","",""
"","response","","html-keyboard-response","211","312263","0.0-1.0-284.0-0.0","0","0","57245","","443","","","75","31","","","1","31","training","adjacent","FG","6","7","Q.jpg","O.jpg","1","1","1","",""
"","feedback","","html-keyboard-response","212","313266","0.0-1.0-285.0-0.0","0","0","57245","","null","","","null","31","","","","","","","","","","","","","","","",""
"","ITI","","html-keyboard-response","213","314274","0.0-1.0-288.0","0","0","57245","","null","","","null","31","","","","","","","","","","","","","","","NaN",""
"","S1","","html-keyboard-response","214","314532","0.0-1.0-290.0","0","0","57245","","null","","","null","32","","","","","","","","","","","","","","","",""
"","ISI","","html-keyboard-response","215","315044","0.0-1.0-291.0","0","0","57245","","null","","","null","32","NaN","","","","","","","","","","","","","","",""
"","S2","","html-keyboard-response","216","315305","0.0-1.0-292.0","0","0","57245","","null","","","null","32","","NaN","","","","","","","","","","","","","",""
"","response","","html-keyboard-response","217","315713","0.0-1.0-293.0-0.0","0","0","57245","","405","","","68","32","","","1","32","training","adjacent","DC","4","3","R.jpg","N.jpg","0","0","1","",""
"","feedback","","html-keyboard-response","218","316722","0.0-1.0-294.0-0.0","0","0","57245","","null","","","null","32","","","","","","","","","","","","","","","",""
"","ITI","","html-keyboard-response","219","317735","0.0-1.0-297.0","0","0","57245","","null","","","null","32","","","","","","","","","","","","","","","NaN",""
"","S1","","html-keyboard-response","220","317989","0.0-1.0-299.0","0","0","57245","","null","","","null","33","","","","","","","","","","","","","","","",""
"","ISI","","html-keyboard-response","221","318500","0.0-1.0-300.0","0","0","57245","","null","","","null","33","NaN","","","","","","","","","","","","","","",""
"","S2","","html-keyboard-response","222","318753","0.0-1.0-301.0","0","0","57245","","null","","","null","33","","NaN","","","","","","","","","","","","","",""
"","response","","html-keyboard-response","223","319419","0.0-1.0-302.0-0.0","0","0","57245","","664","","","68","33","","","1","33","training","adjacent","FE","6","5","Q.jpg","L.jpg","0","0","1","",""
"","feedback","","html-keyboard-response","224","320427","0.0-1.0-303.0-0.0","0","0","57245","","null","","","null","33","","","","","","","","","","","","","","","",""
"","ITI","","html-keyboard-response","225","321439","0.0-1.0-306.0","0","0","57245","","null","","","null","33","","","","","","","","","","","","","","","NaN",""
"","S1","","html-keyboard-response","226","321697","0.0-1.0-308.0","0","0","57245","","null","","","null","34","","","","","","","","","","","","","","","",""
"","ISI","","html-keyboard-response","227","322206","0.0-1.0-309.0","0","0","57245","","null","","","null","34","NaN","","","","","","","","","","","","","","",""
"","S2","","html-keyboard-response","228","322462","0.0-1.0-310.0","0","0","57245","","null","","","null","34","","NaN","","","","","","","","","","","","","",""
"","response","","html-keyboard-response","229","322945","0.0-1.0-311.0-0.0","0","0","57245","","479","","","75","34","","","1","34","training","adjacent","EF","5","6","L.jpg","Q.jpg","1","1","1","",""
"","feedback","","html-keyboard-response","230","323955","0.0-1.0-312.0-0.0","0","0","57245","","null","","","null","34","","","","","","","","","","","","","","","",""
"","ITI","","html-keyboard-response","231","324963","0.0-1.0-315.0","0","0","57245","","null","","","null","34","","","","","","","","","","","","","","","NaN",""
"","S1","","html-keyboard-response","232","325217","0.0-1.0-317.0","0","0","57245","","null","","","null","35","","","","","","","","","","","","","","","",""
"","ISI","","html-keyboard-response","233","325727","0.0-1.0-318.0","0","0","57245","","null","","","null","35","NaN","","","","","","","","","","","","","","",""
"","S2","","html-keyboard-response","234","325981","0.0-1.0-319.0","0","0","57245","","null","","","null","35","","NaN","","","","","","","","","","","","","",""
"","response","","html-keyboard-response","235","326334","0.0-1.0-320.0-0.0","0","0","57245","","350","","","75","35","","","1","35","training","adjacent","ED","5","4","L.jpg","R.jpg","1","0","0","",""
"","feedback","","html-keyboard-response","236","327342","0.0-1.0-321.0-0.0","0","0","57245","","null","","","null","35","","","","","","","","","","","","","","","",""
"","time_out","","html-keyboard-response","237","329353","0.0-1.0-323.0-0.0","0","0","57245","","null","","","null","35","","","","","","","","","","","","","","","",""
"","ITI","","html-keyboard-response","238","330369","0.0-1.0-324.0","0","0","57245","","null","","","null","35","","","","","","","","","","","","","","","NaN",""
"","S1","","html-keyboard-response","239","330623","0.0-1.0-326.0","0","0","57245","","null","","","null","36","","","","","","","","","","","","","","","",""
"","ISI","","html-keyboard-response","240","331127","0.0-1.0-327.0","0","0","57245","","null","","","null","36","NaN","","","","","","","","","","","","","","",""
"","S2","","html-keyboard-response","241","331383","0.0-1.0-328.0","0","0","57245","","null","","","null","36","","NaN","","","","","","","","","","","","","",""
"","response","","html-keyboard-response","242","331818","0.0-1.0-329.0-0.0","0","0","57245","","432","","","68","36","","","1","36","training","adjacent","DC","4","3","R.jpg","N.jpg","0","0","1","",""
"","feedback","","html-keyboard-response","243","332823","0.0-1.0-330.0-0.0","0","0","57245","","null","","","null","36","","","","","","","","","","","","","","","",""
"","ITI","","html-keyboard-response","244","333828","0.0-1.0-333.0","0","0","57245","","null","","","null","36","","","","","","","","","","","","","","","NaN",""
"","S1","","html-keyboard-response","245","334088","0.0-1.0-335.0","0","0","57245","","null","","","null","37","","","","","","","","","","","","","","","",""
"","ISI","","html-keyboard-response","246","334595","0.0-1.0-336.0","0","0","57245","","null","","","null","37","NaN","","","","","","","","","","","","","","",""
"","S2","","html-keyboard-response","247","334850","0.0-1.0-337.0","0","0","57245","","null","","","null","37","","NaN","","","","","","","","","","","","","",""
"","response","","html-keyboard-response","248","335320","0.0-1.0-338.0-0.0","0","0","57245","","468","","","75","37","","","1","37","training","adjacent","ED","5","4","L.jpg","R.jpg","1","0","0","",""
"","feedback","","html-keyboard-response","249","336331","0.0-1.0-339.0-0.0","0","0","57245","","null","","","null","37","","","","","","","","","","","","","","","",""
"","time_out","","html-keyboard-response","250","338343","0.0-1.0-341.0-0.0","0","0","57245","","null","","","null","37","","","","","","","","","","","","","","","",""
"","ITI","","html-keyboard-response","251","339361","0.0-1.0-342.0","0","0","57245","","null","","","null","37","","","","","","","","","","","","","","","NaN",""
"","S1","","html-keyboard-response","252","339617","0.0-1.0-344.0","0","0","57245","","null","","","null","38","","","","","","","","","","","","","","","",""
"","ISI","","html-keyboard-response","253","340120","0.0-1.0-345.0","0","0","57245","","null","","","null","38","NaN","","","","","","","","","","","","","","",""
"","S2","","html-keyboard-response","254","340375","0.0-1.0-346.0","0","0","57245","","null","","","null","38","","NaN","","","","","","","","","","","","","",""
"","response","","html-keyboard-response","255","340684","0.0-1.0-347.0-0.0","0","0","57245","","306","","","68","38","","","1","38","training","adjacent","DC","4","3","R.jpg","N.jpg","0","0","1","",""
"","feedback","","html-keyboard-response","256","341691","0.0-1.0-348.0-0.0","0","0","57245","","null","","","null","38","","","","","","","","","","","","","","","",""
"","ITI","","html-keyboard-response","257","342699","0.0-1.0-351.0","0","0","57245","","null","","","null","38","","","","","","","","","","","","","","","NaN",""
"","S1","","html-keyboard-response","258","342954","0.0-1.0-353.0","0","0","57245","","null","","","null","39","","","","","","","","","","","","","","","",""
"","ISI","","html-keyboard-response","259","343460","0.0-1.0-354.0","0","0","57245","","null","","","null","39","NaN","","","","","","","","","","","","","","",""
"","S2","","html-keyboard-response","260","343722","0.0-1.0-355.0","0","0","57245","","null","","","null","39","","NaN","","","","","","","","","","","","","",""
"","response","","html-keyboard-response","261","344023","0.0-1.0-356.0-0.0","0","0","57245","","298","","","75","39","","","1","39","training","adjacent","DE","4","5","R.jpg","L.jpg","1","1","1","",""
"","feedback","","html-keyboard-response","262","345035","0.0-1.0-357.0-0.0","0","0","57245","","null","","","null","39","","","","","","","","","","","","","","","",""
"","ITI","","html-keyboard-response","263","346044","0.0-1.0-360.0","0","0","57245","","null","","","null","39","","","","","","","","","","","","","","","NaN",""
"","S1","","html-keyboard-response","264","346304","0.0-1.0-362.0","0","0","57245","","null","","","null","40","","","","","","","","","","","","","","","",""
"","ISI","","html-keyboard-response","265","346810","0.0-1.0-363.0","0","0","57245","","null","","","null","40","NaN","","","","","","","","","","","","","","",""
"","S2","","html-keyboard-response","266","347064","0.0-1.0-364.0","0","0","57245","","null","","","null","40","","NaN","","","","","","","","","","","","","",""
"","response","","html-keyboard-response","267","347205","0.0-1.0-365.0-0.0","0","0","57245","","138","","","75","40","","","1","40","training","adjacent","CD","3","4","N.jpg","R.jpg","1","1","1","",""
"","feedback","","html-keyboard-response","268","348216","0.0-1.0-366.0-0.0","0","0","57245","","null","","","null","40","","","","","","","","","","","","","","","",""
"","ITI","","html-keyboard-response","269","349222","0.0-1.0-369.0","0","0","57245","","null","","","null","40","","","","","","","","","","","","","","","NaN",""
"","S1","","html-keyboard-response","270","349480","0.0-1.0-371.0","0","0","57245","","null","","","null","41","","","","","","","","","","","","","","","",""
"","ISI","","html-keyboard-response","271","349987","0.0-1.0-372.0","0","0","57245","","null","","","null","41","NaN","","","","","","","","","","","","","","",""
"","S2","","html-keyboard-response","272","350248","0.0-1.0-373.0","0","0","57245","","null","","","null","41","","NaN","","","","","","","","","","","","","",""
"","response","","html-keyboard-response","273","350464","0.0-1.0-374.0-0.0","0","0","57245","","213","","","68","41","","","1","41","training","adjacent","AB","1","2","M.jpg","P.jpg","0","1","0","",""
"","feedback","","html-keyboard-response","274","351471","0.0-1.0-375.0-0.0","0","0","57245","","null","","","null","41","","","","","","","","","","","","","","","",""
"","time_out","","html-keyboard-response","275","353476","0.0-1.0-377.0-0.0","0","0","57245","","null","","","null","41","","","","","","","","","","","","","","","",""
"","ITI","","html-keyboard-response","276","354488","0.0-1.0-378.0","0","0","57245","","null","","","null","41","","","","","","","","","","","","","","","NaN",""
"","S1","","html-keyboard-response","277","354742","0.0-1.0-380.0","0","0","57245","","null","","","null","42","","","","","","","","","","","","","","","",""
"","ISI","","html-keyboard-response","278","355248","0.0-1.0-381.0","0","0","57245","","null","","","null","42","NaN","","","","","","","","","","","","","","",""
"","S2","","html-keyboard-response","279","355502","0.0-1.0-382.0","0","0","57245","","null","","","null","42","","NaN","","","","","","","","","","","","","",""
"","response","","html-keyboard-response","280","355654","0.0-1.0-383.0-0.0","0","0","57245","","149","","","75","42","","","1","42","training","adjacent","CD","3","4","N.jpg","R.jpg","1","1","1","",""
"","feedback","","html-keyboard-response","281","356666","0.0-1.0-384.0-0.0","0","0","57245","","null","","","null","42","","","","","","","","","","","","","","","",""
"","ITI","","html-keyboard-response","282","357674","0.0-1.0-387.0","0","0","57245","","null","","","null","42","","","","","","","","","","","","","","","NaN",""
"","S1","","html-keyboard-response","283","357926","0.0-1.0-389.0","0","0","57245","","null","","","null","43","","","","","","","","","","","","","","","",""
"","ISI","","html-keyboard-response","284","358435","0.0-1.0-390.0","0","0","57245","","null","","","null","43","NaN","","","","","","","","","","","","","","",""
"","S2","","html-keyboard-response","285","358695","0.0-1.0-391.0","0","0","57245","","null","","","null","43","","NaN","","","","","","","","","","","","","",""
"","response","","html-keyboard-response","286","359151","0.0-1.0-392.0-0.0","0","0","57245","","454","","","75","43","","","1","43","training","adjacent","GF","7","6","O.jpg","Q.jpg","1","0","0","",""
"","feedback","","html-keyboard-response","287","360158","0.0-1.0-393.0-0.0","0","0","57245","","null","","","null","43","","","","","","","","","","","","","","","",""
"","time_out","","html-keyboard-response","288","362161","0.0-1.0-395.0-0.0","0","0","57245","","null","","","null","43","","","","","","","","","","","","","","","",""
"","ITI","","html-keyboard-response","289","363166","0.0-1.0-396.0","0","0","57245","","null","","","null","43","","","","","","","","","","","","","","","NaN",""
"","S1","","html-keyboard-response","290","363426","0.0-1.0-398.0","0","0","57245","","null","","","null","44","","","","","","","","","","","","","","","",""
"","ISI","","html-keyboard-response","291","363937","0.0-1.0-399.0","0","0","57245","","null","","","null","44","NaN","","","","","","","","","","","","","","",""
"","S2","","html-keyboard-response","292","364197","0.0-1.0-400.0","0","0","57245","","null","","","null","44","","NaN","","","","","","","","","","","","","",""
"","response","","html-keyboard-response","293","364709","0.0-1.0-401.0-0.0","0","0","57245","","510","","","68","44","","","1","44","training","adjacent","BC","2","3","P.jpg","N.jpg","0","1","0","",""
"","feedback","","html-keyboard-response","294","365718","0.0-1.0-402.0-0.0","0","0","57245","","null","","","null","44","","","","","","","","","","","","","","","",""
"","time_out","","html-keyboard-response","295","367726","0.0-1.0-404.0-0.0","0","0","57245","","null","","","null","44","","","","","","","","","","","","","","","",""
"","ITI","","html-keyboard-response","296","368739","0.0-1.0-405.0","0","0","57245","","null","","","null","44","","","","","","","","","","","","","","","NaN",""
"","S1","","html-keyboard-response","297","368993","0.0-1.0-407.0","0","0","57245","","null","","","null","45","","","","","","","","","","","","","","","",""
"","ISI","","html-keyboard-response","298","369500","0.0-1.0-408.0","0","0","57245","","null","","","null","45","NaN","","","","","","","","","","","","","","",""
"","S2","","html-keyboard-response","299","369760","0.0-1.0-409.0","0","0","57245","","null","","","null","45","","NaN","","","","","","","","","","","","","",""
"","response","","html-keyboard-response","300","369944","0.0-1.0-410.0-0.0","0","0","57245","","180","","","75","45","","","1","45","training","adjacent","FG","6","7","Q.jpg","O.jpg","1","1","1","",""
"","feedback","","html-keyboard-response","301","370949","0.0-1.0-411.0-0.0","0","0","57245","","null","","","null","45","","","","","","","","","","","","","","","",""
"","ITI","","html-keyboard-response","302","371954","0.0-1.0-414.0","0","0","57245","","null","","","null","45","","","","","","","","","","","","","","","NaN",""
"","S1","","html-keyboard-response","303","372214","0.0-1.0-416.0","0","0","57245","","null","","","null","46","","","","","","","","","","","","","","","",""
"","ISI","","html-keyboard-response","304","372721","0.0-1.0-417.0","0","0","57245","","null","","","null","46","NaN","","","","","","","","","","","","","","",""
"","S2","","html-keyboard-response","305","372981","0.0-1.0-418.0","0","0","57245","","null","","","null","46","","NaN","","","","","","","","","","","","","",""
"","response","","html-keyboard-response","306","373468","0.0-1.0-419.0-0.0","0","0","57245","","484","","","68","46","","","1","46","training","adjacent","BA","2","1","P.jpg","M.jpg","0","0","1","",""
"","feedback","","html-keyboard-response","307","374478","0.0-1.0-420.0-0.0","0","0","57245","","null","","","null","46","","","","","","","","","","","","","","","",""
"","ITI","","html-keyboard-response","308","375495","0.0-1.0-423.0","0","0","57245","","null","","","null","46","","","","","","","","","","","","","","","NaN",""
"","S1","","html-keyboard-response","309","375756","0.0-1.0-425.0","0","0","57245","","null","","","null","47","","","","","","","","","","","","","","","",""
"","ISI","","html-keyboard-response","310","376263","0.0-1.0-426.0","0","0","57245","","null","","","null","47","NaN","","","","","","","","","","","","","","",""
"","S2","","html-keyboard-response","311","376519","0.0-1.0-427.0","0","0","57245","","null","","","null","47","","NaN","","","","","","","","","","","","","",""
"","response","","html-keyboard-response","312","376978","0.0-1.0-428.0-0.0","0","0","57245","","457","","","75","47","","","1","47","training","adjacent","GF","7","6","O.jpg","Q.jpg","1","0","0","",""
"","feedback","","html-keyboard-response","313","377985","0.0-1.0-429.0-0.0","0","0","57245","","null","","","null","47","","","","","","","","","","","","","","","",""
"","time_out","","html-keyboard-response","314","379991","0.0-1.0-431.0-0.0","0","0","57245","","null","","","null","47","","","","","","","","","","","","","","","",""
"","ITI","","html-keyboard-response","315","381007","0.0-1.0-432.0","0","0","57245","","null","","","null","47","","","","","","","","","","","","","","","NaN",""
"","block_over","","html-keyboard-response","316","404575","0.0-1.0-433.0-0.0","0","0","57245","","23563","","","32","47","","","","","","","","","","","","","","","",""
"","S1","","html-keyboard-response","317","404833","0.0-1.0-434.0","0","0","57245","","null","","","null","48","","","","","","","","","","","","","","","",""
"","ISI","","html-keyboard-response","318","405343","0.0-1.0-435.0","0","0","57245","","null","","","null","48","NaN","","","","","","","","","","","","","","",""
"","S2","","html-keyboard-response","319","405598","0.0-1.0-436.0","0","0","57245","","null","","","null","48","","NaN","","","","","","","","","","","","","",""
"","response","","html-keyboard-response","320","406077","0.0-1.0-437.0-0.0","0","0","57245","","477","","","75","48","","","2","48","training","adjacent","DE","4","5","R.jpg","L.jpg","1","1","1","",""
"","feedback","","html-keyboard-response","321","407084","0.0-1.0-438.0-0.0","0","0","57245","","null","","","null","48","","","","","","","","","","","","","","","",""
"","ITI","","html-keyboard-response","322","408093","0.0-1.0-441.0","0","0","57245","","null","","","null","48","","","","","","","","","","","","","","","NaN",""
"","S1","","html-keyboard-response","323","408352","0.0-1.0-443.0","0","0","57245","","null","","","null","49","","","","","","","","","","","","","","","",""
"","ISI","","html-keyboard-response","324","408858","0.0-1.0-444.0","0","0","57245","","null","","","null","49","NaN","","","","","","","","","","","","","","",""
"","S2","","html-keyboard-response","325","409114","0.0-1.0-445.0","0","0","57245","","null","","","null","49","","NaN","","","","","","","","","","","","","",""
"","response","","html-keyboard-response","326","409398","0.0-1.0-446.0-0.0","0","0","57245","","282","","","68","49","","","2","49","training","adjacent","CD","3","4","N.jpg","R.jpg","0","1","0","",""
"","feedback","","html-keyboard-response","327","410404","0.0-1.0-447.0-0.0","0","0","57245","","null","","","null","49","","","","","","","","","","","","","","","",""
"","time_out","","html-keyboard-response","328","412413","0.0-1.0-449.0-0.0","0","0","57245","","null","","","null","49","","","","","","","","","","","","","","","",""
"","ITI","","html-keyboard-response","329","413417","0.0-1.0-450.0","0","0","57245","","null","","","null","49","","","","","","","","","","","","","","","NaN",""
"","S1","","html-keyboard-response","330","413670","0.0-1.0-452.0","0","0","57245","","null","","","null","50","","","","","","","","","","","","","","","",""
"","ISI","","html-keyboard-response","331","414177","0.0-1.0-453.0","0","0","57245","","null","","","null","50","NaN","","","","","","","","","","","","","","",""
"","S2","","html-keyboard-response","332","414435","0.0-1.0-454.0","0","0","57245","","null","","","null","50","","NaN","","","","","","","","","","","","","",""
"","response","","html-keyboard-response","333","415027","0.0-1.0-455.0-0.0","0","0","57245","","589","","","75","50","","","2","50","training","adjacent","BC","2","3","P.jpg","N.jpg","1","1","1","",""
"","feedback","","html-keyboard-response","334","416031","0.0-1.0-456.0-0.0","0","0","57245","","null","","","null","50","","","","","","","","","","","","","","","",""
"","ITI","","html-keyboard-response","335","417040","0.0-1.0-459.0","0","0","57245","","null","","","null","50","","","","","","","","","","","","","","","NaN",""
"","S1","","html-keyboard-response","336","417295","0.0-1.0-461.0","0","0","57245","","null","","","null","51","","","","","","","","","","","","","","","",""
"","ISI","","html-keyboard-response","337","417812","0.0-1.0-462.0","0","0","57245","","null","","","null","51","NaN","","","","","","","","","","","","","","",""
"","S2","","html-keyboard-response","338","418073","0.0-1.0-463.0","0","0","57245","","null","","","null","51","","NaN","","","","","","","","","","","","","",""
"","response","","html-keyboard-response","339","418609","0.0-1.0-464.0-0.0","0","0","57245","","532","","","68","51","","","2","51","training","adjacent","AB","1","2","M.jpg","P.jpg","0","1","0","",""
"","feedback","","html-keyboard-response","340","419616","0.0-1.0-465.0-0.0","0","0","57245","","null","","","null","51","","","","","","","","","","","","","","","",""
"","time_out","","html-keyboard-response","341","421621","0.0-1.0-467.0-0.0","0","0","57245","","null","","","null","51","","","","","","","","","","","","","","","",""
"","ITI","","html-keyboard-response","342","422627","0.0-1.0-468.0","0","0","57245","","null","","","null","51","","","","","","","","","","","","","","","NaN",""
"","S1","","html-keyboard-response","343","422883","0.0-1.0-470.0","0","0","57245","","null","","","null","52","","","","","","","","","","","","","","","",""
"","ISI","","html-keyboard-response","344","423390","0.0-1.0-471.0","0","0","57245","","null","","","null","52","NaN","","","","","","","","","","","","","","",""
"","S2","","html-keyboard-response","345","423651","0.0-1.0-472.0","0","0","57245","","null","","","null","52","","NaN","","","","","","","","","","","","","",""
"","response","","html-keyboard-response","346","423925","0.0-1.0-473.0-0.0","0","0","57245","","271","","","75","52","","","2","52","training","adjacent","ED","5","4","L.jpg","R.jpg","1","0","0","",""
"","feedback","","html-keyboard-response","347","424935","0.0-1.0-474.0-0.0","0","0","57245","","null","","","null","52","","","","","","","","","","","","","","","",""
"","time_out","","html-keyboard-response","348","426944","0.0-1.0-476.0-0.0","0","0","57245","","null","","","null","52","","","","","","","","","","","","","","","",""
"","ITI","","html-keyboard-response","349","427951","0.0-1.0-477.0","0","0","57245","","null","","","null","52","","","","","","","","","","","","","","","NaN",""
"","S1","","html-keyboard-response","350","428209","0.0-1.0-479.0","0","0","57245","","null","","","null","53","","","","","","","","","","","","","","","",""
"","ISI","","html-keyboard-response","351","428719","0.0-1.0-480.0","0","0","57245","","null","","","null","53","NaN","","","","","","","","","","","","","","",""
"","S2","","html-keyboard-response","352","428977","0.0-1.0-481.0","0","0","57245","","null","","","null","53","","NaN","","","","","","","","","","","","","",""
"","response","","html-keyboard-response","353","429385","0.0-1.0-482.0-0.0","0","0","57245","","405","","","68","53","","","2","53","training","adjacent","DE","4","5","R.jpg","L.jpg","0","1","0","",""
"","feedback","","html-keyboard-response","354","430390","0.0-1.0-483.0-0.0","0","0","57245","","null","","","null","53","","","","","","","","","","","","","","","",""
"","time_out","","html-keyboard-response","355","432402","0.0-1.0-485.0-0.0","0","0","57245","","null","","","null","53","","","","","","","","","","","","","","","",""
"","ITI","","html-keyboard-response","356","433413","0.0-1.0-486.0","0","0","57245","","null","","","null","53","","","","","","","","","","","","","","","NaN",""
"","S1","","html-keyboard-response","357","433669","0.0-1.0-488.0","0","0","57245","","null","","","null","54","","","","","","","","","","","","","","","",""
"","ISI","","html-keyboard-response","358","434176","0.0-1.0-489.0","0","0","57245","","null","","","null","54","NaN","","","","","","","","","","","","","","",""
"","S2","","html-keyboard-response","359","434433","0.0-1.0-490.0","0","0","57245","","null","","","null","54","","NaN","","","","","","","","","","","","","",""
"","response","","html-keyboard-response","360","434760","0.0-1.0-491.0-0.0","0","0","57245","","325","","","75","54","","","2","54","training","adjacent","ED","5","4","L.jpg","R.jpg","1","0","0","",""
"","feedback","","html-keyboard-response","361","435764","0.0-1.0-492.0-0.0","0","0","57245","","null","","","null","54","","","","","","","","","","","","","","","",""
"","time_out","","html-keyboard-response","362","437772","0.0-1.0-494.0-0.0","0","0","57245","","null","","","null","54","","","","","","","","","","","","","","","",""
"","ITI","","html-keyboard-response","363","438777","0.0-1.0-495.0","0","0","57245","","null","","","null","54","","","","","","","","","","","","","","","NaN",""
"","S1","","html-keyboard-response","364","439033","0.0-1.0-497.0","0","0","57245","","null","","","null","55","","","","","","","","","","","","","","","",""
"","ISI","","html-keyboard-response","365","439542","0.0-1.0-498.0","0","0","57245","","null","","","null","55","NaN","","","","","","","","","","","","","","",""
"","S2","","html-keyboard-response","366","439796","0.0-1.0-499.0","0","0","57245","","null","","","null","55","","NaN","","","","","","","","","","","","","",""
"","response","","html-keyboard-response","367","440134","0.0-1.0-500.0-0.0","0","0","57245","","336","","","68","55","","","2","55","training","adjacent","EF","5","6","L.jpg","Q.jpg","0","1","0","",""
"","feedback","","html-keyboard-response","368","441144","0.0-1.0-501.0-0.0","0","0","57245","","null","","","null","55","","","","","","","","","","","","","","","",""
"","time_out","","html-keyboard-response","369","443155","0.0-1.0-503.0-0.0","0","0","57245","","null","","","null","55","","","","","","","","","","","","","","","",""
"","ITI","","html-keyboard-response","370","444159","0.0-1.0-504.0","0","0","57245","","null","","","null","55","","","","","","","","","","","","","","","NaN",""
"","S1","","html-keyboard-response","371","444416","0.0-1.0-506.0","0","0","57245","","null","","","null","56","","","","","","","","","","","","","","","",""
"","ISI","","html-keyboard-response","372","444920","0.0-1.0-507.0","0","0","57245","","null","","","null","56","NaN","","","","","","","","","","","","","","",""
"","S2","","html-keyboard-response","373","445180","0.0-1.0-508.0","0","0","57245","","null","","","null","56","","NaN","","","","","","","","","","","","","",""
"","response","","html-keyboard-response","374","445548","0.0-1.0-509.0-0.0","0","0","57245","","365","","","68","56","","","2","56","training","adjacent","CD","3","4","N.jpg","R.jpg","0","1","0","",""
"","feedback","","html-keyboard-response","375","446553","0.0-1.0-510.0-0.0","0","0","57245","","null","","","null","56","","","","","","","","","","","","","","","",""
"","time_out","","html-keyboard-response","376","448559","0.0-1.0-512.0-0.0","0","0","57245","","null","","","null","56","","","","","","","","","","","","","","","",""
"","ITI","","html-keyboard-response","377","449569","0.0-1.0-513.0","0","0","57245","","null","","","null","56","","","","","","","","","","","","","","","NaN",""
"","S1","","html-keyboard-response","378","449825","0.0-1.0-515.0","0","0","57245","","null","","","null","57","","","","","","","","","","","","","","","",""
"","ISI","","html-keyboard-response","379","450329","0.0-1.0-516.0","0","0","57245","","null","","","null","57","NaN","","","","","","","","","","","","","","",""
"","S2","","html-keyboard-response","380","450585","0.0-1.0-517.0","0","0","57245","","null","","","null","57","","NaN","","","","","","","","","","","","","",""
"","response","","html-keyboard-response","381","450716","0.0-1.0-518.0-0.0","0","0","57245","","128","","","75","57","","","2","57","training","adjacent","CB","3","2","N.jpg","P.jpg","1","0","0","",""
"","feedback","","html-keyboard-response","382","451721","0.0-1.0-519.0-0.0","0","0","57245","","null","","","null","57","","","","","","","","","","","","","","","",""
"","time_out","","html-keyboard-response","383","453732","0.0-1.0-521.0-0.0","0","0","57245","","null","","","null","57","","","","","","","","","","","","","","","",""
"","ITI","","html-keyboard-response","384","454738","0.0-1.0-522.0","0","0","57245","","null","","","null","57","","","","","","","","","","","","","","","NaN",""
"","S1","","html-keyboard-response","385","454993","0.0-1.0-524.0","0","0","57245","","null","","","null","58","","","","","","","","","","","","","","","",""
"","ISI","","html-keyboard-response","386","455499","0.0-1.0-525.0","0","0","57245","","null","","","null","58","NaN","","","","","","","","","","","","","","",""
"","S2","","html-keyboard-response","387","455718","0.0-1.0-526.0","0","0","57245","","215","","","75","58","","k","2","58","training","adjacent","BA","2","1","P.jpg","M.jpg","1","0","0","",""
"","feedback","","html-keyboard-response","388","456729","0.0-1.0-528.0-0.0","0","0","57245","","null","","","null","58","","","","","","","","","","","","","","","",""
"","time_out","","html-keyboard-response","389","458733","0.0-1.0-530.0-0.0","0","0","57245","","null","","","null","58","","","","","","","","","","","","","","","",""
"","ITI","","html-keyboard-response","390","459737","0.0-1.0-531.0","0","0","57245","","null","","","null","58","","","","","","","","","","","","","","","NaN",""
"","S1","","html-keyboard-response","391","459995","0.0-1.0-533.0","0","0","57245","","null","","","null","59","","","","","","","","","","","","","","","",""
"","ISI","","html-keyboard-response","392","460500","0.0-1.0-534.0","0","0","57245","","null","","","null","59","NaN","","","","","","","","","","","","","","",""
"","S2","","html-keyboard-response","393","460765","0.0-1.0-535.0","0","0","57245","","null","","","null","59","","NaN","","","","","","","","","","","","","",""
"","response","","html-keyboard-response","394","461098","0.0-1.0-536.0-0.0","0","0","57245","","330","","","75","59","","","2","59","training","adjacent","CB","3","2","N.jpg","P.jpg","1","0","0","",""
"","feedback","","html-keyboard-response","395","462105","0.0-1.0-537.0-0.0","0","0","57245","","null","","","null","59","","","","","","","","","","","","","","","",""
"","time_out","","html-keyboard-response","396","464109","0.0-1.0-539.0-0.0","0","0","57245","","null","","","null","59","","","","","","","","","","","","","","","",""
"","ITI","","html-keyboard-response","397","465127","0.0-1.0-540.0","0","0","57245","","null","","","null","59","","","","","","","","","","","","","","","NaN",""
"","S1","","html-keyboard-response","398","465382","0.0-1.0-542.0","0","0","57245","","null","","","null","60","","","","","","","","","","","","","","","",""
"","ISI","","html-keyboard-response","399","465893","0.0-1.0-543.0","0","0","57245","","null","","","null","60","NaN","","","","","","","","","","","","","","",""
"","S2","","html-keyboard-response","400","466153","0.0-1.0-544.0","0","0","57245","","null","","","null","60","","NaN","","","","","","","","","","","","","",""
"","response","","html-keyboard-response","401","466670","0.0-1.0-545.0-0.0","0","0","57245","","514","","","68","60","","","2","60","training","adjacent","DC","4","3","R.jpg","N.jpg","0","0","1","",""
"","feedback","","html-keyboard-response","402","467678","0.0-1.0-546.0-0.0","0","0","57245","","null","","","null","60","","","","","","","","","","","","","","","",""
"","ITI","","html-keyboard-response","403","468687","0.0-1.0-549.0","0","0","57245","","null","","","null","60","","","","","","","","","","","","","","","NaN",""
"","S1","","html-keyboard-response","404","468942","0.0-1.0-551.0","0","0","57245","","null","","","null","61","","","","","","","","","","","","","","","",""
"","ISI","","html-keyboard-response","405","469450","0.0-1.0-552.0","0","0","57245","","null","","","null","61","NaN","","","","","","","","","","","","","","",""
"","S2","","html-keyboard-response","406","469702","0.0-1.0-553.0","0","0","57245","","null","","","null","61","","NaN","","","","","","","","","","","","","",""
"","response","","html-keyboard-response","407","470320","0.0-1.0-554.0-0.0","0","0","57245","","614","","","68","61","","","2","61","training","adjacent","BA","2","1","P.jpg","M.jpg","0","0","1","",""
"","feedback","","html-keyboard-response","408","471329","0.0-1.0-555.0-0.0","0","0","57245","","null","","","null","61","","","","","","","","","","","","","","","",""
"","ITI","","html-keyboard-response","409","472340","0.0-1.0-558.0","0","0","57245","","null","","","null","61","","","","","","","","","","","","","","","NaN",""
"","S1","","html-keyboard-response","410","472602","0.0-1.0-560.0","0","0","57245","","null","","","null","62","","","","","","","","","","","","","","","",""
"","ISI","","html-keyboard-response","411","473113","0.0-1.0-561.0","0","0","57245","","null","","","null","62","NaN","","","","","","","","","","","","","","",""
"","S2","","html-keyboard-response","412","473373","0.0-1.0-562.0","0","0","57245","","null","","","null","62","","NaN","","","","","","","","","","","","","",""
"","response","","html-keyboard-response","413","473717","0.0-1.0-563.0-0.0","0","0","57245","","341","","","75","62","","","2","62","training","adjacent","FG","6","7","Q.jpg","O.jpg","1","1","1","",""
"","feedback","","html-keyboard-response","414","474724","0.0-1.0-564.0-0.0","0","0","57245","","null","","","null","62","","","","","","","","","","","","","","","",""
"","ITI","","html-keyboard-response","415","475742","0.0-1.0-567.0","0","0","57245","","null","","","null","62","","","","","","","","","","","","","","","NaN",""
"","S1","","html-keyboard-response","416","476001","0.0-1.0-569.0","0","0","57245","","null","","","null","63","","","","","","","","","","","","","","","",""
"","ISI","","html-keyboard-response","417","476518","0.0-1.0-570.0","0","0","57245","","null","","","null","63","NaN","","","","","","","","","","","","","","",""
"","S2","","html-keyboard-response","418","476779","0.0-1.0-571.0","0","0","57245","","null","","","null","63","","NaN","","","","","","","","","","","","","",""
"","response","","html-keyboard-response","419","477247","0.0-1.0-572.0-0.0","0","0","57245","","466","","","75","63","","","2","63","training","adjacent","FE","6","5","Q.jpg","L.jpg","1","0","0","",""
"","feedback","","html-keyboard-response","420","478257","0.0-1.0-573.0-0.0","0","0","57245","","null","","","null","63","","","","","","","","","","","","","","","",""
"","time_out","","html-keyboard-response","421","480262","0.0-1.0-575.0-0.0","0","0","57245","","null","","","null","63","","","","","","","","","","","","","","","",""
"","ITI","","html-keyboard-response","422","481270","0.0-1.0-576.0","0","0","57245","","null","","","null","63","","","","","","","","","","","","","","","NaN",""
"","S1","","html-keyboard-response","423","481530","0.0-1.0-578.0","0","0","57245","","null","","","null","64","","","","","","","","","","","","","","","",""
"","ISI","","html-keyboard-response","424","482039","0.0-1.0-579.0","0","0","57245","","null","","","null","64","NaN","","","","","","","","","","","","","","",""
"","S2","","html-keyboard-response","425","482300","0.0-1.0-580.0","0","0","57245","","null","","","null","64","","NaN","","","","","","","","","","","","","",""
"","response","","html-keyboard-response","426","482740","0.0-1.0-581.0-0.0","0","0","57245","","436","","","68","64","","","2","64","training","adjacent","BC","2","3","P.jpg","N.jpg","0","1","0","",""
"","feedback","","html-keyboard-response","427","483753","0.0-1.0-582.0-0.0","0","0","57245","","null","","","null","64","","","","","","","","","","","","","","","",""
"","time_out","","html-keyboard-response","428","485765","0.0-1.0-584.0-0.0","0","0","57245","","null","","","null","64","","","","","","","","","","","","","","","",""
"","ITI","","html-keyboard-response","429","486778","0.0-1.0-585.0","0","0","57245","","null","","","null","64","","","","","","","","","","","","","","","NaN",""
"","S1","","html-keyboard-response","430","487035","0.0-1.0-587.0","0","0","57245","","null","","","null","65","","","","","","","","","","","","","","","",""
"","ISI","","html-keyboard-response","431","487541","0.0-1.0-588.0","0","0","57245","","null","","","null","65","NaN","","","","","","","","","","","","","","",""
"","S2","","html-keyboard-response","432","487795","0.0-1.0-589.0","0","0","57245","","null","","","null","65","","NaN","","","","","","","","","","","","","",""
"","response","","html-keyboard-response","433","488387","0.0-1.0-590.0-0.0","0","0","57245","","589","","","68","65","","","2","65","training","adjacent","DE","4","5","R.jpg","L.jpg","0","1","0","",""
"","feedback","","html-keyboard-response","434","489392","0.0-1.0-591.0-0.0","0","0","57245","","null","","","null","65","","","","","","","","","","","","","","","",""
"","time_out","","html-keyboard-response","435","491410","0.0-1.0-593.0-0.0","0","0","57245","","null","","","null","65","","","","","","","","","","","","","","","",""
"","ITI","","html-keyboard-response","436","492423","0.0-1.0-594.0","0","0","57245","","null","","","null","65","","","","","","","","","","","","","","","NaN",""
"","S1","","html-keyboard-response","437","492677","0.0-1.0-596.0","0","0","57245","","null","","","null","66","","","","","","","","","","","","","","","",""
"","ISI","","html-keyboard-response","438","493181","0.0-1.0-597.0","0","0","57245","","null","","","null","66","NaN","","","","","","","","","","","","","","",""
"","S2","","html-keyboard-response","439","493443","0.0-1.0-598.0","0","0","57245","","null","","","null","66","","NaN","","","","","","","","","","","","","",""
"","response","","html-keyboard-response","440","493875","0.0-1.0-599.0-0.0","0","0","57245","","430","","","75","66","","","2","66","training","adjacent","FG","6","7","Q.jpg","O.jpg","1","1","1","",""
"","feedback","","html-keyboard-response","441","494880","0.0-1.0-600.0-0.0","0","0","57245","","null","","","null","66","","","","","","","","","","","","","","","",""
"","ITI","","html-keyboard-response","442","495889","0.0-1.0-603.0","0","0","57245","","null","","","null","66","","","","","","","","","","","","","","","NaN",""
"","S1","","html-keyboard-response","443","496149","0.0-1.0-605.0","0","0","57245","","null","","","null","67","","","","","","","","","","","","","","","",""
"","ISI","","html-keyboard-response","444","496659","0.0-1.0-606.0","0","0","57245","","null","","","null","67","NaN","","","","","","","","","","","","","","",""
"","S2","","html-keyboard-response","445","496920","0.0-1.0-607.0","0","0","57245","","null","","","null","67","","NaN","","","","","","","","","","","","","",""
"","response","","html-keyboard-response","446","497576","0.0-1.0-608.0-0.0","0","0","57245","","653","","","75","67","","","2","67","training","adjacent","AB","1","2","M.jpg","P.jpg","1","1","1","",""
"","feedback","","html-keyboard-response","447","498583","0.0-1.0-609.0-0.0","0","0","57245","","null","","","null","67","","","","","","","","","","","","","","","",""
"","ITI","","html-keyboard-response","448","499592","0.0-1.0-612.0","0","0","57245","","null","","","null","67","","","","","","","","","","","","","","","NaN",""
"","S1","","html-keyboard-response","449","499846","0.0-1.0-614.0","0","0","57245","","null","","","null","68","","","","","","","","","","","","","","","",""
"","ISI","","html-keyboard-response","450","500355","0.0-1.0-615.0","0","0","57245","","null","","","null","68","NaN","","","","","","","","","","","","","","",""
"","S2","","html-keyboard-response","451","500610","0.0-1.0-616.0","0","0","57245","","null","","","null","68","","NaN","","","","","","","","","","","","","",""
"","response","","html-keyboard-response","452","500992","0.0-1.0-617.0-0.0","0","0","57245","","380","","","75","68","","","2","68","training","adjacent","CB","3","2","N.jpg","P.jpg","1","0","0","",""
"","feedback","","html-keyboard-response","453","502004","0.0-1.0-618.0-0.0","0","0","57245","","null","","","null","68","","","","","","","","","","","","","","","",""
"","time_out","","html-keyboard-response","454","504012","0.0-1.0-620.0-0.0","0","0","57245","","null","","","null","68","","","","","","","","","","","","","","","",""
"","ITI","","html-keyboard-response","455","505021","0.0-1.0-621.0","0","0","57245","","null","","","null","68","","","","","","","","","","","","","","","NaN",""
"","S1","","html-keyboard-response","456","505277","0.0-1.0-623.0","0","0","57245","","null","","","null","69","","","","","","","","","","","","","","","",""
"","ISI","","html-keyboard-response","457","505784","0.0-1.0-624.0","0","0","57245","","null","","","null","69","NaN","","","","","","","","","","","","","","",""
"","S2","","html-keyboard-response","458","506038","0.0-1.0-625.0","0","0","57245","","null","","","null","69","","NaN","","","","","","","","","","","","","",""
"","response","","html-keyboard-response","459","506182","0.0-1.0-626.0-0.0","0","0","57245","","141","","","68","69","","","2","69","training","adjacent","DE","4","5","R.jpg","L.jpg","0","1","0","",""
"","feedback","","html-keyboard-response","460","507189","0.0-1.0-627.0-0.0","0","0","57245","","null","","","null","69","","","","","","","","","","","","","","","",""
"","time_out","","html-keyboard-response","461","509197","0.0-1.0-629.0-0.0","0","0","57245","","null","","","null","69","","","","","","","","","","","","","","","",""
"","ITI","","html-keyboard-response","462","510208","0.0-1.0-630.0","0","0","57245","","null","","","null","69","","","","","","","","","","","","","","","NaN",""
"","S1","","html-keyboard-response","463","510468","0.0-1.0-632.0","0","0","57245","","null","","","null","70","","","","","","","","","","","","","","","",""
"","ISI","","html-keyboard-response","464","510978","0.0-1.0-633.0","0","0","57245","","null","","","null","70","NaN","","","","","","","","","","","","","","",""
"","S2","","html-keyboard-response","465","511234","0.0-1.0-634.0","0","0","57245","","null","","","null","70","","NaN","","","","","","","","","","","","","",""
"","response","","html-keyboard-response","466","511872","0.0-1.0-635.0-0.0","0","0","57245","","635","","","75","70","","","2","70","training","adjacent","AB","1","2","M.jpg","P.jpg","1","1","1","",""
"","feedback","","html-keyboard-response","467","512882","0.0-1.0-636.0-0.0","0","0","57245","","null","","","null","70","","","","","","","","","","","","","","","",""
"","ITI","","html-keyboard-response","468","513892","0.0-1.0-639.0","0","0","57245","","null","","","null","70","","","","","","","","","","","","","","","NaN",""
"","S1","","html-keyboard-response","469","514147","0.0-1.0-641.0","0","0","57245","","null","","","null","71","","","","","","","","","","","","","","","",""
"","ISI","","html-keyboard-response","470","514653","0.0-1.0-642.0","0","0","57245","","null","","","null","71","NaN","","","","","","","","","","","","","","",""
"","S2","","html-keyboard-response","471","514913","0.0-1.0-643.0","0","0","57245","","null","","","null","71","","NaN","","","","","","","","","","","","","",""
"","response","","html-keyboard-response","472","515063","0.0-1.0-644.0-0.0","0","0","57245","","147","","","68","71","","","2","71","training","adjacent","BC","2","3","P.jpg","N.jpg","0","1","0","",""
"","feedback","","html-keyboard-response","473","516069","0.0-1.0-645.0-0.0","0","0","57245","","null","","","null","71","","","","","","","","","","","","","","","",""
"","time_out","","html-keyboard-response","474","518073","0.0-1.0-647.0-0.0","0","0","57245","","null","","","null","71","","","","","","","","","","","","","","","",""
"","ITI","","html-keyboard-response","475","519088","0.0-1.0-648.0","0","0","57245","","null","","","null","71","","","","","","","","","","","","","","","NaN",""
"","S1","","html-keyboard-response","476","519349","0.0-1.0-650.0","0","0","57245","","null","","","null","72","","","","","","","","","","","","","","","",""
"","ISI","","html-keyboard-response","477","519856","0.0-1.0-651.0","0","0","57245","","209","","","75","72","k","","","","","","","","","","","","","","",""
"","S2","","html-keyboard-response","478","520119","0.0-1.0-652.0","0","0","57245","","null","","","null","72","","NaN","","","","","","","","","","","","","",""
"","response","","html-keyboard-response","479","520619","0.0-1.0-653.0-0.0","0","0","57245","","497","","","75","72","","","2","72","training","adjacent","EF","5","6","L.jpg","Q.jpg","1","1","1","",""
"","feedback","","html-keyboard-response","480","521628","0.0-1.0-654.0-0.0","0","0","57245","","null","","","null","72","","","","","","","","","","","","","","","",""
"","ITI","","html-keyboard-response","481","522637","0.0-1.0-657.0","0","0","57245","","null","","","null","72","","","","","","","","","","","","","","","NaN",""
"","S1","","html-keyboard-response","482","522896","0.0-1.0-659.0","0","0","57245","","null","","","null","73","","","","","","","","","","","","","","","",""
"","ISI","","html-keyboard-response","483","523414","0.0-1.0-660.0","0","0","57245","","null","","","null","73","NaN","","","","","","","","","","","","","","",""
"","S2","","html-keyboard-response","484","523672","0.0-1.0-661.0","0","0","57245","","null","","","null","73","","NaN","","","","","","","","","","","","","",""
"","response","","html-keyboard-response","485","524238","0.0-1.0-662.0-0.0","0","0","57245","","565","","","75","73","","","2","73","training","adjacent","GF","7","6","O.jpg","Q.jpg","1","0","0","",""
"","feedback","","html-keyboard-response","486","525247","0.0-1.0-663.0-0.0","0","0","57245","","null","","","null","73","","","","","","","","","","","","","","","",""
"","time_out","","html-keyboard-response","487","527253","0.0-1.0-665.0-0.0","0","0","57245","","null","","","null","73","","","","","","","","","","","","","","","",""
"","ITI","","html-keyboard-response","488","528257","0.0-1.0-666.0","0","0","57245","","null","","","null","73","","","","","","","","","","","","","","","NaN",""
"","S1","","html-keyboard-response","489","528517","0.0-1.0-668.0","0","0","57245","","null","","","null","74","","","","","","","","","","","","","","","",""
"","ISI","","html-keyboard-response","490","529026","0.0-1.0-669.0","0","0","57245","","null","","","null","74","NaN","","","","","","","","","","","","","","",""
"","S2","","html-keyboard-response","491","529281","0.0-1.0-670.0","0","0","57245","","null","","","null","74","","NaN","","","","","","","","","","","","","",""
"","response","","html-keyboard-response","492","530039","0.0-1.0-671.0-0.0","0","0","57245","","755","","","68","74","","","2","74","training","adjacent","BA","2","1","P.jpg","M.jpg","0","0","1","",""
"","feedback","","html-keyboard-response","493","531044","0.0-1.0-672.0-0.0","0","0","57245","","null","","","null","74","","","","","","","","","","","","","","","",""
"","ITI","","html-keyboard-response","494","532058","0.0-1.0-675.0","0","0","57245","","null","","","null","74","","","","","","","","","","","","","","","NaN",""
"","S1","","html-keyboard-response","495","532313","0.0-1.0-677.0","0","0","57245","","null","","","null","75","","","","","","","","","","","","","","","",""
"","ISI","","html-keyboard-response","496","532818","0.0-1.0-678.0","0","0","57245","","null","","","null","75","NaN","","","","","","","","","","","","","","",""
"","S2","","html-keyboard-response","497","533075","0.0-1.0-679.0","0","0","57245","","null","","","null","75","","NaN","","","","","","","","","","","","","",""
"","response","","html-keyboard-response","498","533513","0.0-1.0-680.0-0.0","0","0","57245","","435","","","75","75","","","2","75","training","adjacent","CB","3","2","N.jpg","P.jpg","1","0","0","",""
"","feedback","","html-keyboard-response","499","534524","0.0-1.0-681.0-0.0","0","0","57245","","null","","","null","75","","","","","","","","","","","","","","","",""
"","time_out","","html-keyboard-response","500","536535","0.0-1.0-683.0-0.0","0","0","57245","","null","","","null","75","","","","","","","","","","","","","","","",""
"","ITI","","html-keyboard-response","501","537545","0.0-1.0-684.0","0","0","57245","","null","","","null","75","","","","","","","","","","","","","","","NaN",""
"","S1","","html-keyboard-response","502","537806","0.0-1.0-686.0","0","0","57245","","null","","","null","76","","","","","","","","","","","","","","","",""
"","ISI","","html-keyboard-response","503","538318","0.0-1.0-687.0","0","0","57245","","null","","","null","76","NaN","","","","","","","","","","","","","","",""
"","S2","","html-keyboard-response","504","538574","0.0-1.0-688.0","0","0","57245","","null","","","null","76","","NaN","","","","","","","","","","","","","",""
"","response","","html-keyboard-response","505","539111","0.0-1.0-689.0-0.0","0","0","57245","","535","","","68","76","","","2","76","training","adjacent","GF","7","6","O.jpg","Q.jpg","0","0","1","",""
"","feedback","","html-keyboard-response","506","540122","0.0-1.0-690.0-0.0","0","0","57245","","null","","","null","76","","","","","","","","","","","","","","","",""
"","ITI","","html-keyboard-response","507","541129","0.0-1.0-693.0","0","0","57245","","null","","","null","76","","","","","","","","","","","","","","","NaN",""
"","S1","","html-keyboard-response","508","541383","0.0-1.0-695.0","0","0","57245","","null","","","null","77","","","","","","","","","","","","","","","",""
"","ISI","","html-keyboard-response","509","541894","0.0-1.0-696.0","0","0","57245","","null","","","null","77","NaN","","","","","","","","","","","","","","",""
"","S2","","html-keyboard-response","510","542150","0.0-1.0-697.0","0","0","57245","","null","","","null","77","","NaN","","","","","","","","","","","","","",""
"","response","","html-keyboard-response","511","542620","0.0-1.0-698.0-0.0","0","0","57245","","466","","","68","77","","","2","77","training","adjacent","GF","7","6","O.jpg","Q.jpg","0","0","1","",""
"","feedback","","html-keyboard-response","512","543625","0.0-1.0-699.0-0.0","0","0","57245","","null","","","null","77","","","","","","","","","","","","","","","",""
"","ITI","","html-keyboard-response","513","544630","0.0-1.0-702.0","0","0","57245","","null","","","null","77","","","","","","","","","","","","","","","NaN",""
"","S1","","html-keyboard-response","514","544887","0.0-1.0-704.0","0","0","57245","","null","","","null","78","","","","","","","","","","","","","","","",""
"","ISI","","html-keyboard-response","515","545397","0.0-1.0-705.0","0","0","57245","","null","","","null","78","NaN","","","","","","","","","","","","","","",""
"","S2","","html-keyboard-response","516","545656","0.0-1.0-706.0","0","0","57245","","null","","","null","78","","NaN","","","","","","","","","","","","","",""
"","response","","html-keyboard-response","517","545960","0.0-1.0-707.0-0.0","0","0","57245","","302","","","75","78","","","2","78","training","adjacent","CD","3","4","N.jpg","R.jpg","1","1","1","",""
"","feedback","","html-keyboard-response","518","546970","0.0-1.0-708.0-0.0","0","0","57245","","null","","","null","78","","","","","","","","","","","","","","","",""
"","ITI","","html-keyboard-response","519","547979","0.0-1.0-711.0","0","0","57245","","null","","","null","78","","","","","","","","","","","","","","","NaN",""
"","S1","","html-keyboard-response","520","548232","0.0-1.0-713.0","0","0","57245","","null","","","null","79","","","","","","","","","","","","","","","",""
"","ISI","","html-keyboard-response","521","548738","0.0-1.0-714.0","0","0","57245","","null","","","null","79","NaN","","","","","","","","","","","","","","",""
"","S2","","html-keyboard-response","522","548993","0.0-1.0-715.0","0","0","57245","","null","","","null","79","","NaN","","","","","","","","","","","","","",""
"","response","","html-keyboard-response","523","549357","0.0-1.0-716.0-0.0","0","0","57245","","361","","","75","79","","","2","79","training","adjacent","ED","5","4","L.jpg","R.jpg","1","0","0","",""
"","feedback","","html-keyboard-response","524","550361","0.0-1.0-717.0-0.0","0","0","57245","","null","","","null","79","","","","","","","","","","","","","","","",""
"","time_out","","html-keyboard-response","525","552370","0.0-1.0-719.0-0.0","0","0","57245","","null","","","null","79","","","","","","","","","","","","","","","",""
"","ITI","","html-keyboard-response","526","553377","0.0-1.0-720.0","0","0","57245","","null","","","null","79","","","","","","","","","","","","","","","NaN",""
"","S1","","html-keyboard-response","527","553638","0.0-1.0-722.0","0","0","57245","","null","","","null","80","","","","","","","","","","","","","","","",""
"","ISI","","html-keyboard-response","528","554143","0.0-1.0-723.0","0","0","57245","","null","","","null","80","NaN","","","","","","","","","","","","","","",""
"","S2","","html-keyboard-response","529","554401","0.0-1.0-724.0","0","0","57245","","null","","","null","80","","NaN","","","","","","","","","","","","","",""
"","response","","html-keyboard-response","530","554831","0.0-1.0-725.0-0.0","0","0","57245","","428","","","68","80","","","2","80","training","adjacent","FE","6","5","Q.jpg","L.jpg","0","0","1","",""
"","feedback","","html-keyboard-response","531","555843","0.0-1.0-726.0-0.0","0","0","57245","","null","","","null","80","","","","","","","","","","","","","","","",""
"","ITI","","html-keyboard-response","532","556848","0.0-1.0-729.0","0","0","57245","","null","","","null","80","","","","","","","","","","","","","","","NaN",""
"","S1","","html-keyboard-response","533","557104","0.0-1.0-731.0","0","0","57245","","null","","","null","81","","","","","","","","","","","","","","","",""
"","ISI","","html-keyboard-response","534","557613","0.0-1.0-732.0","0","0","57245","","null","","","null","81","NaN","","","","","","","","","","","","","","",""
"","S2","","html-keyboard-response","535","557869","0.0-1.0-733.0","0","0","57245","","null","","","null","81","","NaN","","","","","","","","","","","","","",""
"","response","","html-keyboard-response","536","558553","0.0-1.0-734.0-0.0","0","0","57245","","681","","","68","81","","","2","81","training","adjacent","DC","4","3","R.jpg","N.jpg","0","0","1","",""
"","feedback","","html-keyboard-response","537","559562","0.0-1.0-735.0-0.0","0","0","57245","","null","","","null","81","","","","","","","","","","","","","","","",""
"","ITI","","html-keyboard-response","538","560574","0.0-1.0-738.0","0","0","57245","","null","","","null","81","","","","","","","","","","","","","","","NaN",""
"","S1","","html-keyboard-response","539","560832","0.0-1.0-740.0","0","0","57245","","null","","","null","82","","","","","","","","","","","","","","","",""
"","ISI","","html-keyboard-response","540","561338","0.0-1.0-741.0","0","0","57245","","null","","","null","82","NaN","","","","","","","","","","","","","","",""
"","S2","","html-keyboard-response","541","561599","0.0-1.0-742.0","0","0","57245","","null","","","null","82","","NaN","","","","","","","","","","","","","",""
"","response","","html-keyboard-response","542","562174","0.0-1.0-743.0-0.0","0","0","57245","","572","","","68","82","","","2","82","training","adjacent","FE","6","5","Q.jpg","L.jpg","0","0","1","",""
"","feedback","","html-keyboard-response","543","563189","0.0-1.0-744.0-0.0","0","0","57245","","null","","","null","82","","","","","","","","","","","","","","","",""
"","ITI","","html-keyboard-response","544","564197","0.0-1.0-747.0","0","0","57245","","null","","","null","82","","","","","","","","","","","","","","","NaN",""
"","S1","","html-keyboard-response","545","564453","0.0-1.0-749.0","0","0","57245","","null","","","null","83","","","","","","","","","","","","","","","",""
"","ISI","","html-keyboard-response","546","564960","0.0-1.0-750.0","0","0","57245","","null","","","null","83","NaN","","","","","","","","","","","","","","",""
"","S2","","html-keyboard-response","547","565214","0.0-1.0-751.0","0","0","57245","","null","","","null","83","","NaN","","","","","","","","","","","","","",""
"","response","","html-keyboard-response","548","565628","0.0-1.0-752.0-0.0","0","0","57245","","411","","","68","83","","","2","83","training","adjacent","EF","5","6","L.jpg","Q.jpg","0","1","0","",""
"","feedback","","html-keyboard-response","549","566634","0.0-1.0-753.0-0.0","0","0","57245","","null","","","null","83","","","","","","","","","","","","","","","",""
"","time_out","","html-keyboard-response","550","568643","0.0-1.0-755.0-0.0","0","0","57245","","null","","","null","83","","","","","","","","","","","","","","","",""
"","ITI","","html-keyboard-response","551","569651","0.0-1.0-756.0","0","0","57245","","null","","","null","83","","","","","","","","","","","","","","","NaN",""
"","S1","","html-keyboard-response","552","569906","0.0-1.0-758.0","0","0","57245","","null","","","null","84","","","","","","","","","","","","","","","",""
"","ISI","","html-keyboard-response","553","570418","0.0-1.0-759.0","0","0","57245","","null","","","null","84","NaN","","","","","","","","","","","","","","",""
"","S2","","html-keyboard-response","554","570687","0.0-1.0-760.0","0","0","57245","","null","","","null","84","","NaN","","","","","","","","","","","","","",""
"","response","","html-keyboard-response","555","571043","0.0-1.0-761.0-0.0","0","0","57245","","353","","","68","84","","","2","84","training","adjacent","BC","2","3","P.jpg","N.jpg","0","1","0","",""
"","feedback","","html-keyboard-response","556","572054","0.0-1.0-762.0-0.0","0","0","57245","","null","","","null","84","","","","","","","","","","","","","","","",""
"","time_out","","html-keyboard-response","557","574063","0.0-1.0-764.0-0.0","0","0","57245","","null","","","null","84","","","","","","","","","","","","","","","",""
"","ITI","","html-keyboard-response","558","575072","0.0-1.0-765.0","0","0","57245","","null","","","null","84","","","","","","","","","","","","","","","NaN",""
"","S1","","html-keyboard-response","559","575328","0.0-1.0-767.0","0","0","57245","","null","","","null","85","","","","","","","","","","","","","","","",""
"","ISI","","html-keyboard-response","560","575835","0.0-1.0-768.0","0","0","57245","","null","","","null","85","NaN","","","","","","","","","","","","","","",""
"","S2","","html-keyboard-response","561","576093","0.0-1.0-769.0","0","0","57245","","null","","","null","85","","NaN","","","","","","","","","","","","","",""
"","response","","html-keyboard-response","562","576291","0.0-1.0-770.0-0.0","0","0","57245","","195","","","75","85","","","2","85","training","adjacent","FG","6","7","Q.jpg","O.jpg","1","1","1","",""
"","feedback","","html-keyboard-response","563","577302","0.0-1.0-771.0-0.0","0","0","57245","","null","","","null","85","","","","","","","","","","","","","","","",""
"","ITI","","html-keyboard-response","564","578307","0.0-1.0-774.0","0","0","57245","","null","","","null","85","","","","","","","","","","","","","","","NaN",""
"","S1","","html-keyboard-response","565","578567","0.0-1.0-776.0","0","0","57245","","null","","","null","86","","","","","","","","","","","","","","","",""
"","ISI","","html-keyboard-response","566","579074","0.0-1.0-777.0","0","0","57245","","null","","","null","86","NaN","","","","","","","","","","","","","","",""
"","S2","","html-keyboard-response","567","579332","0.0-1.0-778.0","0","0","57245","","null","","","null","86","","NaN","","","","","","","","","","","","","",""
"","response","","html-keyboard-response","568","579570","0.0-1.0-779.0-0.0","0","0","57245","","234","","","68","86","","","2","86","training","adjacent","EF","5","6","L.jpg","Q.jpg","0","1","0","",""
"","feedback","","html-keyboard-response","569","580580","0.0-1.0-780.0-0.0","0","0","57245","","null","","","null","86","","","","","","","","","","","","","","","",""
"","time_out","","html-keyboard-response","570","582589","0.0-1.0-782.0-0.0","0","0","57245","","null","","","null","86","","","","","","","","","","","","","","","",""
"","ITI","","html-keyboard-response","571","583596","0.0-1.0-783.0","0","0","57245","","null","","","null","86","","","","","","","","","","","","","","","NaN",""
"","S1","","html-keyboard-response","572","583855","0.0-1.0-785.0","0","0","57245","","null","","","null","87","","","","","","","","","","","","","","","",""
"","ISI","","html-keyboard-response","573","584365","0.0-1.0-786.0","0","0","57245","","null","","","null","87","NaN","","","","","","","","","","","","","","",""
"","S2","","html-keyboard-response","574","584626","0.0-1.0-787.0","0","0","57245","","null","","","null","87","","NaN","","","","","","","","","","","","","",""
"","response","","html-keyboard-response","575","584983","0.0-1.0-788.0-0.0","0","0","57245","","354","","","75","87","","","2","87","training","adjacent","ED","5","4","L.jpg","R.jpg","1","0","0","",""
"","feedback","","html-keyboard-response","576","585990","0.0-1.0-789.0-0.0","0","0","57245","","null","","","null","87","","","","","","","","","","","","","","","",""
"","time_out","","html-keyboard-response","577","587999","0.0-1.0-791.0-0.0","0","0","57245","","null","","","null","87","","","","","","","","","","","","","","","",""
"","ITI","","html-keyboard-response","578","589008","0.0-1.0-792.0","0","0","57245","","null","","","null","87","","","","","","","","","","","","","","","NaN",""
"","S1","","html-keyboard-response","579","589267","0.0-1.0-794.0","0","0","57245","","null","","","null","88","","","","","","","","","","","","","","","",""
"","ISI","","html-keyboard-response","580","589774","0.0-1.0-795.0","0","0","57245","","null","","","null","88","NaN","","","","","","","","","","","","","","",""
"","S2","","html-keyboard-response","581","590037","0.0-1.0-796.0","0","0","57245","","null","","","null","88","","NaN","","","","","","","","","","","","","",""
"","response","","html-keyboard-response","582","590324","0.0-1.0-797.0-0.0","0","0","57245","","284","","","75","88","","","2","88","training","adjacent","DC","4","3","R.jpg","N.jpg","1","0","0","",""
