"success","ttype","start_time","trial_type","trial_index","time_elapsed","internal_node_id","warning","missed_checkup","PID","view_history","rt","responses","repeat_instructions","key_press","index","keypress_isi","keypress_S2","block","trial_num","phase","group_type","pair_type","S1_stim","S2_stim","S1_img","S2_img","S1_chosen","S1_higher","accuracy","keypress_iti","total_bonus_tally"
"true","full_screen","d03032023hr2028","fullscreen","0","11373","0.0-0.0","0","0","17750","","","","","","","","","","","","","","","","","","","","","",""
"","instructions","","instructions","1","16987","0.0-1.0-0.0-0.0","0","0","17750","[{""page_index"":0,""viewing_time"":2251},{""page_index"":1,""viewing_time"":1646},{""page_index"":2,""viewing_time"":1125},{""page_index"":3,""viewing_time"":578}]","5601","","","","","","","","","","","","","","","","","","","",""
"","comprehension_check","","survey-multi-choice","2","41141","0.0-1.0-0.0-1.0","0","0","17750","","24135","{""Q0"":""True"",""Q1"":""D"",""Q2"":""Once the second image appears and while the screen 'MAKE A CHOICE' is shown"",""Q3"":""Green mark"",""Q4"":""either D or K""}","0","","","","","","","","","","","","","","","","","",""
"","start_exp","","html-keyboard-response","3","42671","0.0-1.0-1.0","0","0","17750","","1520","","","32","","","","","","","","","","","","","","","","",""
"","S1","","html-keyboard-response","4","42939","0.0-1.0-2.0","0","0","17750","","null","","","null","0","","","","","","","","","","","","","","","",""
"","ISI","","html-keyboard-response","5","43445","0.0-1.0-3.0","0","0","17750","","null","","","null","0","NaN","","","","","","","","","","","","","","",""
"","S2","","html-keyboard-response","6","43704","0.0-1.0-4.0","0","0","17750","","null","","","null","0","","NaN","","","","","","","","","","","","","",""
"","response","","html-keyboard-response","7","44903","0.0-1.0-5.0-0.0","0","0","17750","","1187","","","68","0","","","1","0","training","adjacent","FG","6","7","P.jpg","R.jpg","1","1","1","",""
"","feedback","","html-keyboard-response","8","45913","0.0-1.0-6.0-0.0","0","0","17750","","null","","","null","0","","","","","","","","","","","","","","","",""
"","ITI","","html-keyboard-response","9","46920","0.0-1.0-9.0","0","0","17750","","180","","","68","0","","","","","","","","","","","","","","","d",""
"","S1","","html-keyboard-response","10","47179","0.0-1.0-11.0","0","0","17750","","null","","","null","1","","","","","","","","","","","","","","","",""
"","ISI","","html-keyboard-response","11","47691","0.0-1.0-12.0","0","0","17750","","63","","","68","1","d","","","","","","","","","","","","","","",""
"","S2","","html-keyboard-response","12","47730","0.0-1.0-13.0","0","0","17750","","36","","","75","1","","k","1","1","training","adjacent","CB","3","2","O.jpg","N.jpg","0","0","1","",""
"","feedback","","html-keyboard-response","13","48735","0.0-1.0-15.0-0.0","0","0","17750","","null","","","null","1","","","","","","","","","","","","","","","",""
"","ITI","","html-keyboard-response","14","49742","0.0-1.0-18.0","0","0","17750","","69","","","75","1","","","","","","","","","","","","","","","k",""
"","S1","","html-keyboard-response","15","50001","0.0-1.0-20.0","0","0","17750","","null","","","null","2","","","","","","","","","","","","","","","",""
"","ISI","","html-keyboard-response","16","50506","0.0-1.0-21.0","0","0","17750","","36","","","68","2","d","","","","","","","","","","","","","","",""
"","S2","","html-keyboard-response","17","50552","0.0-1.0-22.0","0","0","17750","","35","","","68","2","","d","1","2","training","adjacent","FG","6","7","P.jpg","R.jpg","1","1","1","",""
"","feedback","","html-keyboard-response","18","51558","0.0-1.0-24.0-0.0","0","0","17750","","null","","","null","2","","","","","","","","","","","","","","","",""
"","ITI","","html-keyboard-response","19","52564","0.0-1.0-27.0","0","0","17750","","227","","","68","2","","","","","","","","","","","","","","","d",""
"","S1","","html-keyboard-response","20","52821","0.0-1.0-29.0","0","0","17750","","null","","","null","3","","","","","","","","","","","","","","","",""
"","ISI","","html-keyboard-response","21","53328","0.0-1.0-30.0","0","0","17750","","175","","","68","3","d","","","","","","","","","","","","","","",""
"","S2","","html-keyboard-response","22","53547","0.0-1.0-31.0","0","0","17750","","207","","","68","3","","d","1","3","training","adjacent","AB","1","2","M.jpg","N.jpg","1","1","1","",""
"","feedback","","html-keyboard-response","23","54555","0.0-1.0-33.0-0.0","0","0","17750","","null","","","null","3","","","","","","","","","","","","","","","",""
"","ITI","","html-keyboard-response","24","55565","0.0-1.0-36.0","0","0","17750","","129","","","75","3","","","","","","","","","","","","","","","k",""
"","S1","","html-keyboard-response","25","55821","0.0-1.0-38.0","0","0","17750","","null","","","null","4","","","","","","","","","","","","","","","",""
"","ISI","","html-keyboard-response","26","56327","0.0-1.0-39.0","0","0","17750","","103","","","75","4","k","","","","","","","","","","","","","","",""
"","S2","","html-keyboard-response","27","56398","0.0-1.0-40.0","0","0","17750","","65","","","75","4","","k","1","4","training","adjacent","BC","2","3","N.jpg","O.jpg","0","1","0","",""
"","feedback","","html-keyboard-response","28","57406","0.0-1.0-42.0-0.0","0","0","17750","","null","","","null","4","","","","","","","","","","","","","","","",""
"","time_out","","html-keyboard-response","29","59413","0.0-1.0-44.0-0.0","0","0","17750","","null","","","null","4","","","","","","","","","","","","","","","",""
"","ITI","","html-keyboard-response","30","60418","0.0-1.0-45.0","0","0","17750","","92","","","75","4","","","","","","","","","","","","","","","k",""
"","S1","","html-keyboard-response","31","60690","0.0-1.0-47.0","0","0","17750","","null","","","null","5","","","","","","","","","","","","","","","",""
"","ISI","","html-keyboard-response","32","61196","0.0-1.0-48.0","0","0","17750","","null","","","null","5","NaN","","","","","","","","","","","","","","",""
"","S2","","html-keyboard-response","33","61456","0.0-1.0-49.0","0","0","17750","","null","","","null","5","","NaN","","","","","","","","","","","","","",""
"","response","","html-keyboard-response","34","63214","0.0-1.0-50.0-0.0","0","0","17750","","null","","","null","5","","","1","5","training","adjacent","CB","3","2","O.jpg","N.jpg","NaN","0","0","",""
"","too_slow_prompt","","html-keyboard-response","35","64222","0.0-1.0-52.0-0.0","1","0","17750","","null","","","null","","","","","","","","","","","","","","","","",""
"","time_out","","html-keyboard-response","36","66227","0.0-1.0-53.0-0.0","0","0","17750","","null","","","null","5","","","","","","","","","","","","","","","",""
"","ITI","","html-keyboard-response","37","67231","0.0-1.0-54.0","0","0","17750","","null","","","null","5","","","","","","","","","","","","","","","NaN",""
"","S1","","html-keyboard-response","38","67486","0.0-1.0-56.0","0","0","17750","","null","","","null","6","","","","","","","","","","","","","","","",""
"","ISI","","html-keyboard-response","39","67991","0.0-1.0-57.0","0","0","17750","","null","","","null","6","NaN","","","","","","","","","","","","","","",""
"","S2","","html-keyboard-response","40","68251","0.0-1.0-58.0","0","0","17750","","null","","","null","6","","NaN","","","","","","","","","","","","","",""
"","response","","html-keyboard-response","41","70010","0.0-1.0-59.0-0.0","0","0","17750","","null","","","null","6","","","1","6","training","adjacent","BA","2","1","N.jpg","M.jpg","NaN","0","0","",""
"","too_slow_prompt","","html-keyboard-response","42","71016","0.0-1.0-61.0-0.0","1","0","17750","","null","","","null","","","","","","","","","","","","","","","","",""
"","time_out","","html-keyboard-response","43","73024","0.0-1.0-62.0-0.0","0","0","17750","","null","","","null","6","","","","","","","","","","","","","","","",""
"","ITI","","html-keyboard-response","44","74029","0.0-1.0-63.0","0","0","17750","","20","","","75","6","","","","","","","","","","","","","","","k",""
"","S1","","html-keyboard-response","45","74283","0.0-1.0-65.0","0","0","17750","","null","","","null","7","","","","","","","","","","","","","","","",""
"","ISI","","html-keyboard-response","46","74788","0.0-1.0-66.0","0","0","17750","","57","","","75","7","k","","","","","","","","","","","","","","",""
"","S2","","html-keyboard-response","47","74859","0.0-1.0-67.0","0","0","17750","","64","","","75","7","","k","1","7","training","adjacent","GF","7","6","R.jpg","P.jpg","0","0","1","",""
"","feedback","","html-keyboard-response","48","75864","0.0-1.0-69.0-0.0","0","0","17750","","null","","","null","7","","","","","","","","","","","","","","","",""
"","ITI","","html-keyboard-response","49","76868","0.0-1.0-72.0","0","0","17750","","160","","","75","7","","","","","","","","","","","","","","","k",""
"","S1","","html-keyboard-response","50","77124","0.0-1.0-74.0","0","0","17750","","null","","","null","8","","","","","","","","","","","","","","","",""
"","ISI","","html-keyboard-response","51","77629","0.0-1.0-75.0","0","0","17750","","25","","","75","8","k","","","","","","","","","","","","","","",""
"","S2","","html-keyboard-response","52","77708","0.0-1.0-76.0","0","0","17750","","74","","","75","8","","k","1","8","training","adjacent","CB","3","2","O.jpg","N.jpg","0","0","1","",""
"","feedback","","html-keyboard-response","53","78715","0.0-1.0-78.0-0.0","0","0","17750","","null","","","null","8","","","","","","","","","","","","","","","",""
"","ITI","","html-keyboard-response","54","79720","0.0-1.0-81.0","0","0","17750","","60","","","75","8","","","","","","","","","","","","","","","k",""
"","S1","","html-keyboard-response","55","79973","0.0-1.0-83.0","0","0","17750","","null","","","null","9","","","","","","","","","","","","","","","",""
"","ISI","","html-keyboard-response","56","80488","0.0-1.0-84.0","0","0","17750","","153","","","75","9","k","","","","","","","","","","","","","","",""
"","S2","","html-keyboard-response","57","80521","0.0-1.0-85.0","0","0","17750","","25","","","75","9","","k","1","9","training","adjacent","BA","2","1","N.jpg","M.jpg","0","0","1","",""
"","feedback","","html-keyboard-response","58","81531","0.0-1.0-87.0-0.0","0","0","17750","","null","","","null","9","","","","","","","","","","","","","","","",""
"","ITI","","html-keyboard-response","59","82539","0.0-1.0-90.0","0","0","17750","","42","","","75","9","","","","","","","","","","","","","","","k",""
"","S1","","html-keyboard-response","60","82795","0.0-1.0-92.0","0","0","17750","","null","","","null","10","","","","","","","","","","","","","","","",""
"","ISI","","html-keyboard-response","61","83301","0.0-1.0-93.0","0","0","17750","","68","","","75","10","k","","","","","","","","","","","","","","",""
"","S2","","html-keyboard-response","62","83433","0.0-1.0-94.0","0","0","17750","","110","","","75","10","","k","1","10","training","adjacent","DC","4","3","Q.jpg","O.jpg","0","0","1","",""
"","feedback","","html-keyboard-response","63","84459","0.0-1.0-96.0-0.0","0","0","17750","","null","","","null","10","","","","","","","","","","","","","","","",""
"","ITI","","html-keyboard-response","64","85468","0.0-1.0-99.0","0","0","17750","","226","","","75","10","","","","","","","","","","","","","","","k",""
"","S1","","html-keyboard-response","65","85726","0.0-1.0-101.0","0","0","17750","","null","","","null","11","","","","","","","","","","","","","","","",""
"","ISI","","html-keyboard-response","66","86232","0.0-1.0-102.0","0","0","17750","","87","","","75","11","k","","","","","","","","","","","","","","",""
"","S2","","html-keyboard-response","67","86284","0.0-1.0-103.0","0","0","17750","","42","","","75","11","","k","1","11","training","adjacent","DE","4","5","Q.jpg","L.jpg","0","1","0","",""
"","feedback","","html-keyboard-response","68","87293","0.0-1.0-105.0-0.0","0","0","17750","","null","","","null","11","","","","","","","","","","","","","","","",""
"","time_out","","html-keyboard-response","69","89300","0.0-1.0-107.0-0.0","0","0","17750","","null","","","null","11","","","","","","","","","","","","","","","",""
"","ITI","","html-keyboard-response","70","90304","0.0-1.0-108.0","0","0","17750","","58","","","75","11","","","","","","","","","","","","","","","k",""
"","S1","","html-keyboard-response","71","90562","0.0-1.0-110.0","0","0","17750","","null","","","null","12","","","","","","","","","","","","","","","",""
"","ISI","","html-keyboard-response","72","91068","0.0-1.0-111.0","0","0","17750","","103","","","75","12","k","","","","","","","","","","","","","","",""
"","S2","","html-keyboard-response","73","91098","0.0-1.0-112.0","0","0","17750","","23","","","75","12","","k","1","12","training","adjacent","EF","5","6","L.jpg","P.jpg","0","1","0","",""
"","feedback","","html-keyboard-response","74","92102","0.0-1.0-114.0-0.0","0","0","17750","","null","","","null","12","","","","","","","","","","","","","","","",""
"","time_out","","html-keyboard-response","75","94111","0.0-1.0-116.0-0.0","0","0","17750","","null","","","null","12","","","","","","","","","","","","","","","",""
"","ITI","","html-keyboard-response","76","95119","0.0-1.0-117.0","0","0","17750","","56","","","75","12","","","","","","","","","","","","","","","k",""
"","S1","","html-keyboard-response","77","95374","0.0-1.0-119.0","0","0","17750","","null","","","null","13","","","","","","","","","","","","","","","",""
"","ISI","","html-keyboard-response","78","95878","0.0-1.0-120.0","0","0","17750","","50","","","75","13","k","","","","","","","","","","","","","","",""
"","S2","","html-keyboard-response","79","96086","0.0-1.0-121.0","0","0","17750","","201","","","75","13","","k","1","13","training","adjacent","ED","5","4","L.jpg","Q.jpg","0","0","1","",""
"","feedback","","html-keyboard-response","80","97099","0.0-1.0-123.0-0.0","0","0","17750","","null","","","null","13","","","","","","","","","","","","","","","",""
"","ITI","","html-keyboard-response","81","98107","0.0-1.0-126.0","0","0","17750","","142","","","75","13","","","","","","","","","","","","","","","k",""
"","S1","","html-keyboard-response","82","98368","0.0-1.0-128.0","0","0","17750","","null","","","null","14","","","","","","","","","","","","","","","",""
"","ISI","","html-keyboard-response","83","98877","0.0-1.0-129.0","0","0","17750","","1","","","75","14","k","","","","","","","","","","","","","","",""
"","S2","","html-keyboard-response","84","98930","0.0-1.0-130.0","0","0","17750","","47","","","75","14","","k","1","14","training","adjacent","DE","4","5","Q.jpg","L.jpg","0","1","0","",""
"","feedback","","html-keyboard-response","85","99936","0.0-1.0-132.0-0.0","0","0","17750","","null","","","null","14","","","","","","","","","","","","","","","",""
"","time_out","","html-keyboard-response","86","101942","0.0-1.0-134.0-0.0","0","0","17750","","null","","","null","14","","","","","","","","","","","","","","","",""
"","ITI","","html-keyboard-response","87","102949","0.0-1.0-135.0","0","0","17750","","94","","","75","14","","","","","","","","","","","","","","","k",""
"","S1","","html-keyboard-response","88","103205","0.0-1.0-137.0","0","0","17750","","null","","","null","15","","","","","","","","","","","","","","","",""
"","ISI","","html-keyboard-response","89","103711","0.0-1.0-138.0","0","0","17750","","136","","","75","15","k","","","","","","","","","","","","","","",""
"","S2","","html-keyboard-response","90","103838","0.0-1.0-139.0","0","0","17750","","121","","","75","15","","k","1","15","training","adjacent","FG","6","7","P.jpg","R.jpg","0","1","0","",""
"","feedback","","html-keyboard-response","91","104847","0.0-1.0-141.0-0.0","0","0","17750","","null","","","null","15","","","","","","","","","","","","","","","",""
"","time_out","","html-keyboard-response","92","106857","0.0-1.0-143.0-0.0","0","0","17750","","null","","","null","15","","","","","","","","","","","","","","","",""
"","ITI","","html-keyboard-response","93","107869","0.0-1.0-144.0","0","0","17750","","169","","","75","15","","","","","","","","","","","","","","","k",""
"","S1","","html-keyboard-response","94","108127","0.0-1.0-146.0","0","0","17750","","null","","","null","16","","","","","","","","","","","","","","","",""
"","ISI","","html-keyboard-response","95","108713","0.0-1.0-147.0","0","0","17750","","127","","","75","16","k","","","","","","","","","","","","","","",""
"","S2","","html-keyboard-response","96","108739","0.0-1.0-148.0","0","0","17750","","17","","","75","16","","k","1","16","training","adjacent","CD","3","4","O.jpg","Q.jpg","0","1","0","",""
"","feedback","","html-keyboard-response","97","109748","0.0-1.0-150.0-0.0","0","0","17750","","null","","","null","16","","","","","","","","","","","","","","","",""
"","time_out","","html-keyboard-response","98","111761","0.0-1.0-152.0-0.0","0","0","17750","","null","","","null","16","","","","","","","","","","","","","","","",""
"","ITI","","html-keyboard-response","99","112766","0.0-1.0-153.0","0","0","17750","","127","","","75","16","","","","","","","","","","","","","","","k",""
"","S1","","html-keyboard-response","100","113022","0.0-1.0-155.0","0","0","17750","","null","","","null","17","","","","","","","","","","","","","","","",""
"","ISI","","html-keyboard-response","101","113528","0.0-1.0-156.0","0","0","17750","","183","","","75","17","k","","","","","","","","","","","","","","",""
"","S2","","html-keyboard-response","102","113682","0.0-1.0-157.0","0","0","17750","","147","","","75","17","","k","1","17","training","adjacent","BC","2","3","N.jpg","O.jpg","0","1","0","",""
"","feedback","","html-keyboard-response","103","114688","0.0-1.0-159.0-0.0","0","0","17750","","null","","","null","17","","","","","","","","","","","","","","","",""
"","time_out","","html-keyboard-response","104","116694","0.0-1.0-161.0-0.0","0","0","17750","","null","","","null","17","","","","","","","","","","","","","","","",""
"","ITI","","html-keyboard-response","105","117698","0.0-1.0-162.0","0","0","17750","","343","","","75","17","","","","","","","","","","","","","","","k",""
"","S1","","html-keyboard-response","106","117956","0.0-1.0-164.0","0","0","17750","","null","","","null","18","","","","","","","","","","","","","","","",""
"","ISI","","html-keyboard-response","107","118464","0.0-1.0-165.0","0","0","17750","","178","","","75","18","k","","","","","","","","","","","","","","",""
"","S2","","html-keyboard-response","108","118570","0.0-1.0-166.0","0","0","17750","","95","","","75","18","","k","1","18","training","adjacent","BC","2","3","N.jpg","O.jpg","0","1","0","",""
"","feedback","","html-keyboard-response","109","119581","0.0-1.0-168.0-0.0","0","0","17750","","null","","","null","18","","","","","","","","","","","","","","","",""
"","time_out","","html-keyboard-response","110","121588","0.0-1.0-170.0-0.0","0","0","17750","","null","","","null","18","","","","","","","","","","","","","","","",""
"","ITI","","html-keyboard-response","111","122597","0.0-1.0-171.0","0","0","17750","","60","","","75","18","","","","","","","","","","","","","","","k",""
"","S1","","html-keyboard-response","112","122853","0.0-1.0-173.0","0","0","17750","","null","","","null","19","","","","","","","","","","","","","","","",""
"","ISI","","html-keyboard-response","113","123359","0.0-1.0-174.0","0","0","17750","","94","","","75","19","k","","","","","","","","","","","","","","",""
"","S2","","html-keyboard-response","114","123509","0.0-1.0-175.0","0","0","17750","","142","","","75","19","","k","1","19","training","adjacent","ED","5","4","L.jpg","Q.jpg","0","0","1","",""
"","feedback","","html-keyboard-response","115","124516","0.0-1.0-177.0-0.0","0","0","17750","","null","","","null","19","","","","","","","","","","","","","","","",""
"","ITI","","html-keyboard-response","116","125523","0.0-1.0-180.0","0","0","17750","","259","","","75","19","","","","","","","","","","","","","","","k",""
"","S1","","html-keyboard-response","117","125782","0.0-1.0-182.0","0","0","17750","","null","","","null","20","","","","","","","","","","","","","","","",""
"","ISI","","html-keyboard-response","118","126289","0.0-1.0-183.0","0","0","17750","","487","","","75","20","k","","","","","","","","","","","","","","",""
"","S2","","html-keyboard-response","119","126462","0.0-1.0-184.0","0","0","17750","","164","","","75","20","","k","1","20","training","adjacent","CB","3","2","O.jpg","N.jpg","0","0","1","",""
"","feedback","","html-keyboard-response","120","127472","0.0-1.0-186.0-0.0","0","0","17750","","null","","","null","20","","","","","","","","","","","","","","","",""
"","ITI","","html-keyboard-response","121","128478","0.0-1.0-189.0","0","0","17750","","33","","","75","20","","","","","","","","","","","","","","","k",""
"","S1","","html-keyboard-response","122","128735","0.0-1.0-191.0","0","0","17750","","null","","","null","21","","","","","","","","","","","","","","","",""
"","ISI","","html-keyboard-response","123","129244","0.0-1.0-192.0","0","0","17750","","8","","","75","21","k","","","","","","","","","","","","","","",""
"","S2","","html-keyboard-response","124","129413","0.0-1.0-193.0","0","0","17750","","163","","","75","21","","k","1","21","training","adjacent","EF","5","6","L.jpg","P.jpg","0","1","0","",""
"","feedback","","html-keyboard-response","125","130419","0.0-1.0-195.0-0.0","0","0","17750","","null","","","null","21","","","","","","","","","","","","","","","",""
"","time_out","","html-keyboard-response","126","132427","0.0-1.0-197.0-0.0","0","0","17750","","null","","","null","21","","","","","","","","","","","","","","","",""
"","ITI","","html-keyboard-response","127","133434","0.0-1.0-198.0","0","0","17750","","52","","","75","21","","","","","","","","","","","","","","","k",""
"","S1","","html-keyboard-response","128","133689","0.0-1.0-200.0","0","0","17750","","null","","","null","22","","","","","","","","","","","","","","","",""
"","ISI","","html-keyboard-response","129","134198","0.0-1.0-201.0","0","0","17750","","null","","","null","22","NaN","","","","","","","","","","","","","","",""
"","S2","","html-keyboard-response","130","134457","0.0-1.0-202.0","0","0","17750","","null","","","null","22","","NaN","","","","","","","","","","","","","",""
"","response","","html-keyboard-response","131","136216","0.0-1.0-203.0-0.0","0","0","17750","","null","","","null","22","","","1","22","training","adjacent","DE","4","5","Q.jpg","L.jpg","NaN","1","0","",""
"","too_slow_prompt","","html-keyboard-response","132","137222","0.0-1.0-205.0-0.0","1","0","17750","","null","","","null","","","","","","","","","","","","","","","","",""
"","time_out","","html-keyboard-response","133","139229","0.0-1.0-206.0-0.0","0","0","17750","","null","","","null","22","","","","","","","","","","","","","","","",""
"","ITI","","html-keyboard-response","134","140237","0.0-1.0-207.0","0","0","17750","","5","","","75","22","","","","","","","","","","","","","","","k",""
"","S1","","html-keyboard-response","135","140493","0.0-1.0-209.0","0","0","17750","","null","","","null","23","","","","","","","","","","","","","","","",""
"","ISI","","html-keyboard-response","136","140998","0.0-1.0-210.0","0","0","17750","","null","","","null","23","NaN","","","","","","","","","","","","","","",""
"","S2","","html-keyboard-response","137","141256","0.0-1.0-211.0","0","0","17750","","null","","","null","23","","NaN","","","","","","","","","","","","","",""
"","response","","html-keyboard-response","138","143012","0.0-1.0-212.0-0.0","0","0","17750","","null","","","null","23","","","1","23","training","adjacent","DC","4","3","Q.jpg","O.jpg","NaN","0","0","",""
"","too_slow_prompt","","html-keyboard-response","139","144021","0.0-1.0-214.0-0.0","1","0","17750","","null","","","null","","","","","","","","","","","","","","","","",""
"","time_out","","html-keyboard-response","140","146028","0.0-1.0-215.0-0.0","0","0","17750","","null","","","null","23","","","","","","","","","","","","","","","",""
"","ITI","","html-keyboard-response","141","147032","0.0-1.0-216.0","0","0","17750","","null","","","null","23","","","","","","","","","","","","","","","NaN",""
"","S1","","html-keyboard-response","142","147287","0.0-1.0-218.0","0","0","17750","","null","","","null","24","","","","","","","","","","","","","","","",""
"","ISI","","html-keyboard-response","143","147792","0.0-1.0-219.0","0","0","17750","","null","","","null","24","NaN","","","","","","","","","","","","","","",""
"","S2","","html-keyboard-response","144","148047","0.0-1.0-220.0","0","0","17750","","null","","","null","24","","NaN","","","","","","","","","","","","","",""
"","response","","html-keyboard-response","145","149809","0.0-1.0-221.0-0.0","0","0","17750","","null","","","null","24","","","1","24","training","adjacent","BA","2","1","N.jpg","M.jpg","NaN","0","0","",""
"","too_slow_prompt","","html-keyboard-response","146","150815","0.0-1.0-223.0-0.0","1","0","17750","","null","","","null","","","","","","","","","","","","","","","","",""
"","time_out","","html-keyboard-response","147","152820","0.0-1.0-224.0-0.0","0","0","17750","","null","","","null","24","","","","","","","","","","","","","","","",""
"","ITI","","html-keyboard-response","148","153828","0.0-1.0-225.0","0","0","17750","","null","","","null","24","","","","","","","","","","","","","","","NaN",""
"","S1","","html-keyboard-response","149","154084","0.0-1.0-227.0","0","0","17750","","null","","","null","25","","","","","","","","","","","","","","","",""
"","ISI","","html-keyboard-response","150","154588","0.0-1.0-228.0","0","0","17750","","null","","","null","25","NaN","","","","","","","","","","","","","","",""
"","S2","","html-keyboard-response","151","154844","0.0-1.0-229.0","0","0","17750","","null","","","null","25","","NaN","","","","","","","","","","","","","",""
"","response","","html-keyboard-response","152","156606","0.0-1.0-230.0-0.0","0","0","17750","","null","","","null","25","","","1","25","training","adjacent","FE","6","5","P.jpg","L.jpg","NaN","0","0","",""
"","too_slow_prompt","","html-keyboard-response","153","157614","0.0-1.0-232.0-0.0","1","0","17750","","null","","","null","","","","","","","","","","","","","","","","",""
"","time_out","","html-keyboard-response","154","159621","0.0-1.0-233.0-0.0","0","0","17750","","null","","","null","25","","","","","","","","","","","","","","","",""
"","ITI","","html-keyboard-response","155","160639","0.0-1.0-234.0","0","0","17750","","null","","","null","25","","","","","","","","","","","","","","","NaN",""
"","S1","","html-keyboard-response","156","160895","0.0-1.0-236.0","0","0","17750","","null","","","null","26","","","","","","","","","","","","","","","",""
"","ISI","","html-keyboard-response","157","161412","0.0-1.0-237.0","0","0","17750","","null","","","null","26","NaN","","","","","","","","","","","","","","",""
"","S2","","html-keyboard-response","158","161670","0.0-1.0-238.0","0","0","17750","","null","","","null","26","","NaN","","","","","","","","","","","","","",""
"","response","","html-keyboard-response","159","163535","0.0-1.0-239.0-0.0","0","0","17750","","null","","","null","26","","","1","26","training","adjacent","CD","3","4","O.jpg","Q.jpg","NaN","1","0","",""
"","too_slow_prompt","","html-keyboard-response","160","164637","0.0-1.0-241.0-0.0","1","0","17750","","null","","","null","","","","","","","","","","","","","","","","",""
"","time_out","","html-keyboard-response","161","166711","0.0-1.0-242.0-0.0","0","0","17750","","null","","","null","26","","","","","","","","","","","","","","","",""
"","ITI","","html-keyboard-response","162","167715","0.0-1.0-243.0","0","0","17750","","null","","","null","26","","","","","","","","","","","","","","","NaN",""
"","S1","","html-keyboard-response","163","168015","0.0-1.0-245.0","0","0","17750","","null","","","null","27","","","","","","","","","","","","","","","",""
"","ISI","","html-keyboard-response","164","168522","0.0-1.0-246.0","0","0","17750","","null","","","null","27","NaN","","","","","","","","","","","","","","",""
"","S2","","html-keyboard-response","165","168784","0.0-1.0-247.0","0","0","17750","","null","","","null","27","","NaN","","","","","","","","","","","","","",""
"","response","","html-keyboard-response","166","170426","0.0-1.0-248.0-0.0","0","0","17750","","1639","","","68","27","","","1","27","training","adjacent","AB","1","2","M.jpg","N.jpg","1","1","1","",""
"","feedback","","html-keyboard-response","167","171435","0.0-1.0-249.0-0.0","0","0","17750","","null","","","null","27","","","","","","","","","","","","","","","",""
"","ITI","","html-keyboard-response","168","172442","0.0-1.0-252.0","0","0","17750","","16","","","75","27","","","","","","","","","","","","","","","k",""
"","S1","","html-keyboard-response","169","172699","0.0-1.0-254.0","0","0","17750","","null","","","null","28","","","","","","","","","","","","","","","",""
"","ISI","","html-keyboard-response","170","173206","0.0-1.0-255.0","0","0","17750","","36","","","68","28","d","","","","","","","","","","","","","","",""
"","S2","","html-keyboard-response","171","173224","0.0-1.0-256.0","0","0","17750","","10","","","68","28","","d","1","28","training","adjacent","ED","5","4","L.jpg","Q.jpg","1","0","0","",""
"","feedback","","html-keyboard-response","172","174232","0.0-1.0-258.0-0.0","0","0","17750","","null","","","null","28","","","","","","","","","","","","","","","",""
"","time_out","","html-keyboard-response","173","176239","0.0-1.0-260.0-0.0","0","0","17750","","null","","","null","28","","","","","","","","","","","","","","","",""
"","ITI","","html-keyboard-response","174","177248","0.0-1.0-261.0","0","0","17750","","198","","","68","28","","","","","","","","","","","","","","","d",""
"","S1","","html-keyboard-response","175","177504","0.0-1.0-263.0","0","0","17750","","null","","","null","29","","","","","","","","","","","","","","","",""
"","ISI","","html-keyboard-response","176","178010","0.0-1.0-264.0","0","0","17750","","25","","","68","29","d","","","","","","","","","","","","","","",""
"","S2","","html-keyboard-response","177","178020","0.0-1.0-265.0","0","0","17750","","3","","","75","29","","k","1","29","training","adjacent","GF","7","6","R.jpg","P.jpg","0","0","1","",""
"","feedback","","html-keyboard-response","178","179028","0.0-1.0-267.0-0.0","0","0","17750","","null","","","null","29","","","","","","","","","","","","","","","",""
"","ITI","","html-keyboard-response","179","180034","0.0-1.0-270.0","0","0","17750","","26","","","68","29","","","","","","","","","","","","","","","d",""
"","S1","","html-keyboard-response","180","180288","0.0-1.0-272.0","0","0","17750","","null","","","null","30","","","","","","","","","","","","","","","",""
"","ISI","","html-keyboard-response","181","180791","0.0-1.0-273.0","0","0","17750","","99","","","68","30","d","","","","","","","","","","","","","","",""
"","S2","","html-keyboard-response","182","180948","0.0-1.0-274.0","0","0","17750","","151","","","68","30","","d","1","30","training","adjacent","GF","7","6","R.jpg","P.jpg","1","0","0","",""
"","feedback","","html-keyboard-response","183","181955","0.0-1.0-276.0-0.0","0","0","17750","","null","","","null","30","","","","","","","","","","","","","","","",""
"","time_out","","html-keyboard-response","184","183961","0.0-1.0-278.0-0.0","0","0","17750","","null","","","null","30","","","","","","","","","","","","","","","",""
"","ITI","","html-keyboard-response","185","184966","0.0-1.0-279.0","0","0","17750","","215","","","68","30","","","","","","","","","","","","","","","d",""
"","S1","","html-keyboard-response","186","185224","0.0-1.0-281.0","0","0","17750","","null","","","null","31","","","","","","","","","","","","","","","",""
"","ISI","","html-keyboard-response","187","185733","0.0-1.0-282.0","0","0","17750","","68","","","68","31","d","","","","","","","","","","","","","","",""
"","S2","","html-keyboard-response","188","185944","0.0-1.0-283.0","0","0","17750","","203","","","75","31","","k","1","31","training","adjacent","FG","6","7","P.jpg","R.jpg","0","1","0","",""
"","feedback","","html-keyboard-response","189","186954","0.0-1.0-285.0-0.0","0","0","17750","","null","","","null","31","","","","","","","","","","","","","","","",""
"","time_out","","html-keyboard-response","190","188962","0.0-1.0-287.0-0.0","0","0","17750","","null","","","null","31","","","","","","","","","","","","","","","",""
"","ITI","","html-keyboard-response","191","189970","0.0-1.0-288.0","0","0","17750","","41","","","68","31","","","","","","","","","","","","","","","d",""
"","S1","","html-keyboard-response","192","190225","0.0-1.0-290.0","0","0","17750","","null","","","null","32","","","","","","","","","","","","","","","",""
"","ISI","","html-keyboard-response","193","190731","0.0-1.0-291.0","0","0","17750","","null","","","null","32","NaN","","","","","","","","","","","","","","",""
"","S2","","html-keyboard-response","194","190991","0.0-1.0-292.0","0","0","17750","","null","","","null","32","","NaN","","","","","","","","","","","","","",""
"","response","","html-keyboard-response","195","192753","0.0-1.0-293.0-0.0","0","0","17750","","null","","","null","32","","","1","32","training","adjacent","BC","2","3","N.jpg","O.jpg","NaN","1","0","",""
"","too_slow_prompt","","html-keyboard-response","196","193760","0.0-1.0-295.0-0.0","1","0","17750","","null","","","null","","","","","","","","","","","","","","","","",""
"","time_out","","html-keyboard-response","197","195772","0.0-1.0-296.0-0.0","0","0","17750","","null","","","null","32","","","","","","","","","","","","","","","",""
"","ITI","","html-keyboard-response","198","196779","0.0-1.0-297.0","0","0","17750","","null","","","null","32","","","","","","","","","","","","","","","NaN",""
"","S1","","html-keyboard-response","199","197039","0.0-1.0-299.0","0","0","17750","","null","","","null","33","","","","","","","","","","","","","","","",""
"","ISI","","html-keyboard-response","200","197551","0.0-1.0-300.0","0","0","17750","","null","","","null","33","NaN","","","","","","","","","","","","","","",""
"","S2","","html-keyboard-response","201","197809","0.0-1.0-301.0","0","0","17750","","null","","","null","33","","NaN","","","","","","","","","","","","","",""
"","response","","html-keyboard-response","202","199592","0.0-1.0-302.0-0.0","0","0","17750","","null","","","null","33","","","1","33","training","adjacent","FE","6","5","P.jpg","L.jpg","NaN","0","0","",""
"","too_slow_prompt","","html-keyboard-response","203","200615","0.0-1.0-304.0-0.0","1","0","17750","","null","","","null","","","","","","","","","","","","","","","","",""
"","time_out","","html-keyboard-response","204","202626","0.0-1.0-305.0-0.0","0","0","17750","","null","","","null","33","","","","","","","","","","","","","","","",""
"","ITI","","html-keyboard-response","205","203650","0.0-1.0-306.0","0","0","17750","","null","","","null","33","","","","","","","","","","","","","","","NaN",""
"","S1","","html-keyboard-response","206","203905","0.0-1.0-308.0","0","0","17750","","null","","","null","34","","","","","","","","","","","","","","","",""
"","ISI","","html-keyboard-response","207","204412","0.0-1.0-309.0","0","0","17750","","null","","","null","34","NaN","","","","","","","","","","","","","","",""
"","S2","","html-keyboard-response","208","204671","0.0-1.0-310.0","0","0","17750","","null","","","null","34","","NaN","","","","","","","","","","","","","",""
"","response","","html-keyboard-response","209","206427","0.0-1.0-311.0-0.0","0","0","17750","","null","","","null","34","","","1","34","training","adjacent","BA","2","1","N.jpg","M.jpg","NaN","0","0","",""
"","too_slow_prompt","","html-keyboard-response","210","207434","0.0-1.0-313.0-0.0","1","0","17750","","null","","","null","","","","","","","","","","","","","","","","",""
"","time_out","","html-keyboard-response","211","209462","0.0-1.0-314.0-0.0","0","0","17750","","null","","","null","34","","","","","","","","","","","","","","","",""
"","ITI","","html-keyboard-response","212","212263","0.0-1.0-315.0","0","0","17750","","null","","","null","34","","","","","","","","","","","","","","","NaN",""
"","S1","","html-keyboard-response","213","212635","0.0-1.0-317.0","0","0","17750","","null","","","null","35","","","","","","","","","","","","","","","",""
"","ISI","","html-keyboard-response","214","213139","0.0-1.0-318.0","0","0","17750","","null","","","null","35","NaN","","","","","","","","","","","","","","",""
"","S2","","html-keyboard-response","215","213397","0.0-1.0-319.0","0","0","17750","","null","","","null","35","","NaN","","","","","","","","","","","","","",""
"","response","","html-keyboard-response","216","213818","0.0-1.0-320.0-0.0","0","0","17750","","413","","","75","35","","","1","35","training","adjacent","AB","1","2","M.jpg","N.jpg","0","1","0","",""
"","feedback","","html-keyboard-response","217","214826","0.0-1.0-321.0-0.0","0","0","17750","","null","","","null","35","","","","","","","","","","","","","","","",""
"","time_out","","html-keyboard-response","218","216831","0.0-1.0-323.0-0.0","0","0","17750","","null","","","null","35","","","","","","","","","","","","","","","",""
"","ITI","","html-keyboard-response","219","217841","0.0-1.0-324.0","0","0","17750","","null","","","null","35","","","","","","","","","","","","","","","NaN",""
"","S1","","html-keyboard-response","220","218105","0.0-1.0-326.0","0","0","17750","","null","","","null","36","","","","","","","","","","","","","","","",""
"","ISI","","html-keyboard-response","221","218613","0.0-1.0-327.0","0","0","17750","","null","","","null","36","NaN","","","","","","","","","","","","","","",""
"","S2","","html-keyboard-response","222","218874","0.0-1.0-328.0","0","0","17750","","null","","","null","36","","NaN","","","","","","","","","","","","","",""
"","response","","html-keyboard-response","223","220633","0.0-1.0-329.0-0.0","0","0","17750","","null","","","null","36","","","1","36","training","adjacent","AB","1","2","M.jpg","N.jpg","NaN","1","0","",""
"","too_slow_prompt","","html-keyboard-response","224","221654","0.0-1.0-331.0-0.0","1","0","17750","","null","","","null","","","","","","","","","","","","","","","","",""
"","time_out","","html-keyboard-response","225","223661","0.0-1.0-332.0-0.0","0","0","17750","","null","","","null","36","","","","","","","","","","","","","","","",""
"","ITI","","html-keyboard-response","226","224705","0.0-1.0-333.0","0","0","17750","","null","","","null","36","","","","","","","","","","","","","","","NaN",""
"","S1","","html-keyboard-response","227","224961","0.0-1.0-335.0","0","0","17750","","null","","","null","37","","","","","","","","","","","","","","","",""
"","ISI","","html-keyboard-response","228","225470","0.0-1.0-336.0","0","0","17750","","null","","","null","37","NaN","","","","","","","","","","","","","","",""
"","S2","","html-keyboard-response","229","225727","0.0-1.0-337.0","0","0","17750","","null","","","null","37","","NaN","","","","","","","","","","","","","",""
"","response","","html-keyboard-response","230","227483","0.0-1.0-338.0-0.0","0","0","17750","","null","","","null","37","","","1","37","training","adjacent","FE","6","5","P.jpg","L.jpg","NaN","0","0","",""
"","too_slow_prompt","","html-keyboard-response","231","228493","0.0-1.0-340.0-0.0","1","0","17750","","null","","","null","","","","","","","","","","","","","","","","",""
"","time_out","","html-keyboard-response","232","230502","0.0-1.0-341.0-0.0","0","0","17750","","null","","","null","37","","","","","","","","","","","","","","","",""
"","ITI","","html-keyboard-response","233","231509","0.0-1.0-342.0","0","0","17750","","null","","","null","37","","","","","","","","","","","","","","","NaN",""
"","S1","","html-keyboard-response","234","231765","0.0-1.0-344.0","0","0","17750","","null","","","null","38","","","","","","","","","","","","","","","",""
"","ISI","","html-keyboard-response","235","232271","0.0-1.0-345.0","0","0","17750","","168","","","75","38","k","","","","","","","","","","","","","","",""
"","S2","","html-keyboard-response","236","232530","0.0-1.0-346.0","0","0","17750","","null","","","null","38","","NaN","","","","","","","","","","","","","",""
"","response","","html-keyboard-response","237","232546","0.0-1.0-347.0-0.0","0","0","17750","","13","","","75","38","","","1","38","training","adjacent","ED","5","4","L.jpg","Q.jpg","0","0","1","",""
"","feedback","","html-keyboard-response","238","233625","0.0-1.0-348.0-0.0","0","0","17750","","null","","","null","38","","","","","","","","","","","","","","","",""
"","ITI","","html-keyboard-response","239","234674","0.0-1.0-351.0","0","0","17750","","24","","","75","38","","","","","","","","","","","","","","","k",""
"","S1","","html-keyboard-response","240","234934","0.0-1.0-353.0","0","0","17750","","null","","","null","39","","","","","","","","","","","","","","","",""
"","ISI","","html-keyboard-response","241","235445","0.0-1.0-354.0","0","0","17750","","117","","","70","39","f","","","","","","","","","","","","","","",""
"","S2","","html-keyboard-response","242","235703","0.0-1.0-355.0","0","0","17750","","null","","","null","39","","NaN","","","","","","","","","","","","","",""
"","response","","html-keyboard-response","243","237459","0.0-1.0-356.0-0.0","0","0","17750","","null","","","null","39","","","1","39","training","adjacent","DE","4","5","Q.jpg","L.jpg","NaN","1","0","",""
"","too_slow_prompt","","html-keyboard-response","244","238463","0.0-1.0-358.0-0.0","1","0","17750","","null","","","null","","","","","","","","","","","","","","","","",""
"","time_out","","html-keyboard-response","245","240470","0.0-1.0-359.0-0.0","0","0","17750","","null","","","null","39","","","","","","","","","","","","","","","",""
"","ITI","","html-keyboard-response","246","241477","0.0-1.0-360.0","0","0","17750","","20","","","75","39","","","","","","","","","","","","","","","k",""
"","S1","","html-keyboard-response","247","241739","0.0-1.0-362.0","0","0","17750","","null","","","null","40","","","","","","","","","","","","","","","",""
"","ISI","","html-keyboard-response","248","242245","0.0-1.0-363.0","0","0","17750","","42","","","75","40","k","","","","","","","","","","","","","","",""
"","S2","","html-keyboard-response","249","242320","0.0-1.0-364.0","0","0","17750","","68","","","68","40","","d","1","40","training","adjacent","GF","7","6","R.jpg","P.jpg","1","0","0","",""
"","feedback","","html-keyboard-response","250","243331","0.0-1.0-366.0-0.0","0","0","17750","","null","","","null","40","","","","","","","","","","","","","","","",""
"","time_out","","html-keyboard-response","251","245341","0.0-1.0-368.0-0.0","0","0","17750","","null","","","null","40","","","","","","","","","","","","","","","",""
"","ITI","","html-keyboard-response","252","246352","0.0-1.0-369.0","0","0","17750","","3","","","68","40","","","","","","","","","","","","","","","d",""
"","S1","","html-keyboard-response","253","246609","0.0-1.0-371.0","0","0","17750","","null","","","null","41","","","","","","","","","","","","","","","",""
"","ISI","","html-keyboard-response","254","247116","0.0-1.0-372.0","0","0","17750","","149","","","68","41","d","","","","","","","","","","","","","","",""
"","S2","","html-keyboard-response","255","247145","0.0-1.0-373.0","0","0","17750","","22","","","68","41","","d","1","41","training","adjacent","CD","3","4","O.jpg","Q.jpg","1","1","1","",""
"","feedback","","html-keyboard-response","256","248150","0.0-1.0-375.0-0.0","0","0","17750","","null","","","null","41","","","","","","","","","","","","","","","",""
"","ITI","","html-keyboard-response","257","249165","0.0-1.0-378.0","0","0","17750","","159","","","68","41","","","","","","","","","","","","","","","d",""
"","S1","","html-keyboard-response","258","249423","0.0-1.0-380.0","0","0","17750","","null","","","null","42","","","","","","","","","","","","","","","",""
"","ISI","","html-keyboard-response","259","249931","0.0-1.0-381.0","0","0","17750","","182","","","68","42","d","","","","","","","","","","","","","","",""
"","S2","","html-keyboard-response","260","250106","0.0-1.0-382.0","0","0","17750","","168","","","68","42","","d","1","42","training","adjacent","DC","4","3","Q.jpg","O.jpg","1","0","0","",""
"","feedback","","html-keyboard-response","261","251116","0.0-1.0-384.0-0.0","0","0","17750","","null","","","null","42","","","","","","","","","","","","","","","",""
"","time_out","","html-keyboard-response","262","253125","0.0-1.0-386.0-0.0","0","0","17750","","null","","","null","42","","","","","","","","","","","","","","","",""
"","ITI","","html-keyboard-response","263","254134","0.0-1.0-387.0","0","0","17750","","147","","","68","42","","","","","","","","","","","","","","","d",""
"","S1","","html-keyboard-response","264","254394","0.0-1.0-389.0","0","0","17750","","null","","","null","43","","","","","","","","","","","","","","","",""
"","ISI","","html-keyboard-response","265","254917","0.0-1.0-390.0","0","0","17750","","98","","","68","43","d","","","","","","","","","","","","","","",""
"","S2","","html-keyboard-response","266","254923","0.0-1.0-391.0","0","0","17750","","0","","","68","43","","d","1","43","training","adjacent","CD","3","4","O.jpg","Q.jpg","1","1","1","",""
"","feedback","","html-keyboard-response","267","255929","0.0-1.0-393.0-0.0","0","0","17750","","null","","","null","43","","","","","","","","","","","","","","","",""
"","ITI","","html-keyboard-response","268","256938","0.0-1.0-396.0","0","0","17750","","11","","","68","43","","","","","","","","","","","","","","","d",""
"","S1","","html-keyboard-response","269","257201","0.0-1.0-398.0","0","0","17750","","null","","","null","44","","","","","","","","","","","","","","","",""
"","ISI","","html-keyboard-response","270","257708","0.0-1.0-399.0","0","0","17750","","40","","","68","44","d","","","","","","","","","","","","","","",""
"","S2","","html-keyboard-response","271","257804","0.0-1.0-400.0","0","0","17750","","91","","","68","44","","d","1","44","training","adjacent","FE","6","5","P.jpg","L.jpg","1","0","0","",""
"","feedback","","html-keyboard-response","272","258811","0.0-1.0-402.0-0.0","0","0","17750","","null","","","null","44","","","","","","","","","","","","","","","",""
"","time_out","","html-keyboard-response","273","260822","0.0-1.0-404.0-0.0","0","0","17750","","null","","","null","44","","","","","","","","","","","","","","","",""
"","ITI","","html-keyboard-response","274","261826","0.0-1.0-405.0","0","0","17750","","218","","","68","44","","","","","","","","","","","","","","","d",""
"","S1","","html-keyboard-response","275","262083","0.0-1.0-407.0","0","0","17750","","null","","","null","45","","","","","","","","","","","","","","","",""
"","ISI","","html-keyboard-response","276","262591","0.0-1.0-408.0","0","0","17750","","41","","","75","45","k","","","","","","","","","","","","","","",""
"","S2","","html-keyboard-response","277","262723","0.0-1.0-409.0","0","0","17750","","127","","","75","45","","k","1","45","training","adjacent","EF","5","6","L.jpg","P.jpg","0","1","0","",""
"","feedback","","html-keyboard-response","278","263726","0.0-1.0-411.0-0.0","0","0","17750","","null","","","null","45","","","","","","","","","","","","","","","",""
"","time_out","","html-keyboard-response","279","265731","0.0-1.0-413.0-0.0","0","0","17750","","null","","","null","45","","","","","","","","","","","","","","","",""
"","ITI","","html-keyboard-response","280","266738","0.0-1.0-414.0","0","0","17750","","51","","","75","45","","","","","","","","","","","","","","","k",""
"","S1","","html-keyboard-response","281","266993","0.0-1.0-416.0","0","0","17750","","null","","","null","46","","","","","","","","","","","","","","","",""
"","ISI","","html-keyboard-response","282","267498","0.0-1.0-417.0","0","0","17750","","null","","","null","46","NaN","","","","","","","","","","","","","","",""
"","S2","","html-keyboard-response","283","267754","0.0-1.0-418.0","0","0","17750","","null","","","null","46","","NaN","","","","","","","","","","","","","",""
"","response","","html-keyboard-response","284","267846","0.0-1.0-419.0-0.0","0","0","17750","","83","","","75","46","","","1","46","training","adjacent","EF","5","6","L.jpg","P.jpg","0","1","0","",""
"","feedback","","html-keyboard-response","285","268852","0.0-1.0-420.0-0.0","0","0","17750","","null","","","null","46","","","","","","","","","","","","","","","",""
"","time_out","","html-keyboard-response","286","270865","0.0-1.0-422.0-0.0","0","0","17750","","null","","","null","46","","","","","","","","","","","","","","","",""
"","ITI","","html-keyboard-response","287","271872","0.0-1.0-423.0","0","0","17750","","169","","","75","46","","","","","","","","","","","","","","","k",""
"","S1","","html-keyboard-response","288","272129","0.0-1.0-425.0","0","0","17750","","null","","","null","47","","","","","","","","","","","","","","","",""
"","ISI","","html-keyboard-response","289","272647","0.0-1.0-426.0","0","0","17750","","102","","","75","47","k","","","","","","","","","","","","","","",""
"","S2","","html-keyboard-response","290","272706","0.0-1.0-427.0","0","0","17750","","52","","","75","47","","k","1","47","training","adjacent","DC","4","3","Q.jpg","O.jpg","0","0","1","",""
"","feedback","","html-keyboard-response","291","273713","0.0-1.0-429.0-0.0","0","0","17750","","null","","","null","47","","","","","","","","","","","","","","","",""
"","ITI","","html-keyboard-response","292","274718","0.0-1.0-432.0","0","0","17750","","37","","","75","47","","","","","","","","","","","","","","","k",""
"","block_over","","html-keyboard-response","293","420690","0.0-1.0-433.0-0.0","0","0","17750","","145948","","","32","47","","","","","","","","","","","","","","","",""
"","S1","","html-keyboard-response","294","420949","0.0-1.0-434.0","0","0","17750","","null","","","null","48","","","","","","","","","","","","","","","",""
"","ISI","","html-keyboard-response","295","421454","0.0-1.0-435.0","0","0","17750","","51","","","68","48","d","","","","","","","","","","","","","","",""
"","S2","","html-keyboard-response","296","421488","0.0-1.0-436.0","0","0","17750","","26","","","68","48","","d","2","48","training","adjacent","ED","5","4","L.jpg","Q.jpg","1","0","0","",""
"","feedback","","html-keyboard-response","297","422495","0.0-1.0-438.0-0.0","0","0","17750","","null","","","null","48","","","","","","","","","","","","","","","",""
"","time_out","","html-keyboard-response","298","424522","0.0-1.0-440.0-0.0","0","0","17750","","null","","","null","48","","","","","","","","","","","","","","","",""
"","ITI","","html-keyboard-response","299","425548","0.0-1.0-441.0","0","0","17750","","227","","","75","48","","","","","","","","","","","","","","","k",""
"","S1","","html-keyboard-response","300","425810","0.0-1.0-443.0","0","0","17750","","null","","","null","49","","","","","","","","","","","","","","","",""
"","ISI","","html-keyboard-response","301","426317","0.0-1.0-444.0","0","0","17750","","8","","","75","49","k","","","","","","","","","","","","","","",""
"","S2","","html-keyboard-response","302","426496","0.0-1.0-445.0","0","0","17750","","168","","","75","49","","k","2","49","training","adjacent","EF","5","6","L.jpg","P.jpg","0","1","0","",""
"","feedback","","html-keyboard-response","303","427508","0.0-1.0-447.0-0.0","0","0","17750","","null","","","null","49","","","","","","","","","","","","","","","",""
"","time_out","","html-keyboard-response","304","429516","0.0-1.0-449.0-0.0","0","0","17750","","null","","","null","49","","","","","","","","","","","","","","","",""
"","ITI","","html-keyboard-response","305","430522","0.0-1.0-450.0","0","0","17750","","199","","","68","49","","","","","","","","","","","","","","","d",""
"","S1","","html-keyboard-response","306","430781","0.0-1.0-452.0","0","0","17750","","null","","","null","50","","","","","","","","","","","","","","","",""
"","ISI","","html-keyboard-response","307","431289","0.0-1.0-453.0","0","0","17750","","238","","","68","50","d","","","","","","","","","","","","","","",""
"","S2","","html-keyboard-response","308","431458","0.0-1.0-454.0","0","0","17750","","159","","","68","50","","d","2","50","training","adjacent","FG","6","7","P.jpg","R.jpg","1","1","1","",""
"","feedback","","html-keyboard-response","309","432469","0.0-1.0-456.0-0.0","0","0","17750","","null","","","null","50","","","","","","","","","","","","","","","",""
"","ITI","","html-keyboard-response","310","433479","0.0-1.0-459.0","0","0","17750","","120","","","68","50","","","","","","","","","","","","","","","d",""
"","S1","","html-keyboard-response","311","433738","0.0-1.0-461.0","0","0","17750","","null","","","null","51","","","","","","","","","","","","","","","",""
"","ISI","","html-keyboard-response","312","434246","0.0-1.0-462.0","0","0","17750","","171","","","68","51","d","","","","","","","","","","","","","","",""
"","S2","","html-keyboard-response","313","434376","0.0-1.0-463.0","0","0","17750","","120","","","68","51","","d","2","51","training","adjacent","CB","3","2","O.jpg","N.jpg","1","0","0","",""
"","feedback","","html-keyboard-response","314","435391","0.0-1.0-465.0-0.0","0","0","17750","","null","","","null","51","","","","","","","","","","","","","","","",""
"","time_out","","html-keyboard-response","315","437398","0.0-1.0-467.0-0.0","0","0","17750","","null","","","null","51","","","","","","","","","","","","","","","",""
"","ITI","","html-keyboard-response","316","438408","0.0-1.0-468.0","0","0","17750","","120","","","68","51","","","","","","","","","","","","","","","d",""
"","S1","","html-keyboard-response","317","438665","0.0-1.0-470.0","0","0","17750","","null","","","null","52","","","","","","","","","","","","","","","",""
"","ISI","","html-keyboard-response","318","439170","0.0-1.0-471.0","0","0","17750","","4","","","75","52","k","","","","","","","","","","","","","","",""
"","S2","","html-keyboard-response","319","439348","0.0-1.0-472.0","0","0","17750","","171","","","75","52","","k","2","52","training","adjacent","BA","2","1","N.jpg","M.jpg","0","0","1","",""
"","feedback","","html-keyboard-response","320","440357","0.0-1.0-474.0-0.0","0","0","17750","","null","","","null","52","","","","","","","","","","","","","","","",""
"","ITI","","html-keyboard-response","321","441364","0.0-1.0-477.0","0","0","17750","","142","","","68","52","","","","","","","","","","","","","","","d",""
"","S1","","html-keyboard-response","322","441621","0.0-1.0-479.0","0","0","17750","","null","","","null","53","","","","","","","","","","","","","","","",""
"","ISI","","html-keyboard-response","323","442127","0.0-1.0-480.0","0","0","17750","","75","","","75","53","k","","","","","","","","","","","","","","",""
"","S2","","html-keyboard-response","324","442331","0.0-1.0-481.0","0","0","17750","","197","","","68","53","","d","2","53","training","adjacent","AB","1","2","M.jpg","N.jpg","1","1","1","",""
"","feedback","","html-keyboard-response","325","443337","0.0-1.0-483.0-0.0","0","0","17750","","null","","","null","53","","","","","","","","","","","","","","","",""
"","ITI","","html-keyboard-response","326","444345","0.0-1.0-486.0","0","0","17750","","22","","","75","53","","","","","","","","","","","","","","","k",""
"","S1","","html-keyboard-response","327","444605","0.0-1.0-488.0","0","0","17750","","null","","","null","54","","","","","","","","","","","","","","","",""
"","ISI","","html-keyboard-response","328","445111","0.0-1.0-489.0","0","0","17750","","197","","","68","54","d","","","","","","","","","","","","","","",""
"","S2","","html-keyboard-response","329","445226","0.0-1.0-490.0","0","0","17750","","107","","","68","54","","d","2","54","training","adjacent","GF","7","6","R.jpg","P.jpg","1","0","0","",""
"","feedback","","html-keyboard-response","330","446236","0.0-1.0-492.0-0.0","0","0","17750","","null","","","null","54","","","","","","","","","","","","","","","",""
"","time_out","","html-keyboard-response","331","448244","0.0-1.0-494.0-0.0","0","0","17750","","null","","","null","54","","","","","","","","","","","","","","","",""
"","ITI","","html-keyboard-response","332","449253","0.0-1.0-495.0","0","0","17750","","53","","","75","54","","","","","","","","","","","","","","","k",""
"","S1","","html-keyboard-response","333","449509","0.0-1.0-497.0","0","0","17750","","null","","","null","55","","","","","","","","","","","","","","","",""
"","ISI","","html-keyboard-response","334","450012","0.0-1.0-498.0","0","0","17750","","48","","","68","55","d","","","","","","","","","","","","","","",""
"","S2","","html-keyboard-response","335","450025","0.0-1.0-499.0","0","0","17750","","8","","","68","55","","d","2","55","training","adjacent","BA","2","1","N.jpg","M.jpg","1","0","0","",""
"","feedback","","html-keyboard-response","336","451033","0.0-1.0-501.0-0.0","0","0","17750","","null","","","null","55","","","","","","","","","","","","","","","",""
"","time_out","","html-keyboard-response","337","453042","0.0-1.0-503.0-0.0","0","0","17750","","null","","","null","55","","","","","","","","","","","","","","","",""
"","ITI","","html-keyboard-response","338","454055","0.0-1.0-504.0","0","0","17750","","125","","","68","55","","","","","","","","","","","","","","","d",""
"","S1","","html-keyboard-response","339","454313","0.0-1.0-506.0","0","0","17750","","null","","","null","56","","","","","","","","","","","","","","","",""
"","ISI","","html-keyboard-response","340","454823","0.0-1.0-507.0","0","0","17750","","8","","","75","56","k","","","","","","","","","","","","","","",""
"","S2","","html-keyboard-response","341","454831","0.0-1.0-508.0","0","0","17750","","1","","","75","56","","k","2","56","training","adjacent","CB","3","2","O.jpg","N.jpg","0","0","1","",""
"","feedback","","html-keyboard-response","342","455842","0.0-1.0-510.0-0.0","0","0","17750","","null","","","null","56","","","","","","","","","","","","","","","",""
"","ITI","","html-keyboard-response","343","456851","0.0-1.0-513.0","0","0","17750","","16","","","75","56","","","","","","","","","","","","","","","k",""
"","S1","","html-keyboard-response","344","457113","0.0-1.0-515.0","0","0","17750","","null","","","null","57","","","","","","","","","","","","","","","",""
"","ISI","","html-keyboard-response","345","457622","0.0-1.0-516.0","0","0","17750","","36","","","68","57","d","","","","","","","","","","","","","","",""
"","S2","","html-keyboard-response","346","457885","0.0-1.0-517.0","0","0","17750","","null","","","null","57","","NaN","","","","","","","","","","","","","",""
"","response","","html-keyboard-response","347","457916","0.0-1.0-518.0-0.0","0","0","17750","","23","","","68","57","","","2","57","training","adjacent","FG","6","7","P.jpg","R.jpg","1","1","1","",""
"","feedback","","html-keyboard-response","348","458925","0.0-1.0-519.0-0.0","0","0","17750","","null","","","null","57","","","","","","","","","","","","","","","",""
"","ITI","","html-keyboard-response","349","459981","0.0-1.0-522.0","0","0","17750","","34","","","68","57","","","","","","","","","","","","","","","d",""
"","S1","","html-keyboard-response","350","460238","0.0-1.0-524.0","0","0","17750","","null","","","null","58","","","","","","","","","","","","","","","",""
"","ISI","","html-keyboard-response","351","460744","0.0-1.0-525.0","0","0","17750","","56","","","75","58","k","","","","","","","","","","","","","","",""
"","S2","","html-keyboard-response","352","460808","0.0-1.0-526.0","0","0","17750","","55","","","68","58","","d","2","58","training","adjacent","BC","2","3","N.jpg","O.jpg","1","1","1","",""
"","feedback","","html-keyboard-response","353","461816","0.0-1.0-528.0-0.0","0","0","17750","","null","","","null","58","","","","","","","","","","","","","","","",""
"","ITI","","html-keyboard-response","354","462823","0.0-1.0-531.0","0","0","17750","","34","","","68","58","","","","","","","","","","","","","","","d",""
"","S1","","html-keyboard-response","355","463082","0.0-1.0-533.0","0","0","17750","","null","","","null","59","","","","","","","","","","","","","","","",""
"","ISI","","html-keyboard-response","356","463602","0.0-1.0-534.0","0","0","17750","","78","","","68","59","d","","","","","","","","","","","","","","",""
"","S2","","html-keyboard-response","357","463691","0.0-1.0-535.0","0","0","17750","","69","","","68","59","","d","2","59","training","adjacent","DC","4","3","Q.jpg","O.jpg","1","0","0","",""
"","feedback","","html-keyboard-response","358","464700","0.0-1.0-537.0-0.0","0","0","17750","","null","","","null","59","","","","","","","","","","","","","","","",""
"","time_out","","html-keyboard-response","359","466716","0.0-1.0-539.0-0.0","0","0","17750","","null","","","null","59","","","","","","","","","","","","","","","",""
"","ITI","","html-keyboard-response","360","467728","0.0-1.0-540.0","0","0","17750","","29","","","68","59","","","","","","","","","","","","","","","d",""
"","S1","","html-keyboard-response","361","467985","0.0-1.0-542.0","0","0","17750","","null","","","null","60","","","","","","","","","","","","","","","",""
"","ISI","","html-keyboard-response","362","468490","0.0-1.0-543.0","0","0","17750","","127","","","68","60","d","","","","","","","","","","","","","","",""
"","S2","","html-keyboard-response","363","468614","0.0-1.0-544.0","0","0","17750","","113","","","68","60","","d","2","60","training","adjacent","FE","6","5","P.jpg","L.jpg","1","0","0","",""
"","feedback","","html-keyboard-response","364","469625","0.0-1.0-546.0-0.0","0","0","17750","","null","","","null","60","","","","","","","","","","","","","","","",""
"","time_out","","html-keyboard-response","365","471716","0.0-1.0-548.0-0.0","0","0","17750","","null","","","null","60","","","","","","","","","","","","","","","",""
"","ITI","","html-keyboard-response","366","472728","0.0-1.0-549.0","0","0","17750","","2","","","68","60","","","","","","","","","","","","","","","d",""
"","S1","","html-keyboard-response","367","472983","0.0-1.0-551.0","0","0","17750","","null","","","null","61","","","","","","","","","","","","","","","",""
"","ISI","","html-keyboard-response","368","473487","0.0-1.0-552.0","0","0","17750","","65","","","68","61","d","","","","","","","","","","","","","","",""
"","S2","","html-keyboard-response","369","473730","0.0-1.0-553.0","0","0","17750","","231","","","75","61","","k","2","61","training","adjacent","CD","3","4","O.jpg","Q.jpg","0","1","0","",""
"","feedback","","html-keyboard-response","370","474740","0.0-1.0-555.0-0.0","0","0","17750","","null","","","null","61","","","","","","","","","","","","","","","",""
"","time_out","","html-keyboard-response","371","476750","0.0-1.0-557.0-0.0","0","0","17750","","null","","","null","61","","","","","","","","","","","","","","","",""
"","ITI","","html-keyboard-response","372","477756","0.0-1.0-558.0","0","0","17750","","138","","","68","61","","","","","","","","","","","","","","","d",""
"","S1","","html-keyboard-response","373","478040","0.0-1.0-560.0","0","0","17750","","null","","","null","62","","","","","","","","","","","","","","","",""
"","ISI","","html-keyboard-response","374","478549","0.0-1.0-561.0","0","0","17750","","159","","","68","62","d","","","","","","","","","","","","","","",""
"","S2","","html-keyboard-response","375","478704","0.0-1.0-562.0","0","0","17750","","146","","","68","62","","d","2","62","training","adjacent","FG","6","7","P.jpg","R.jpg","1","1","1","",""
"","feedback","","html-keyboard-response","376","479714","0.0-1.0-564.0-0.0","0","0","17750","","null","","","null","62","","","","","","","","","","","","","","","",""
"","ITI","","html-keyboard-response","377","480725","0.0-1.0-567.0","0","0","17750","","141","","","68","62","","","","","","","","","","","","","","","d",""
"","S1","","html-keyboard-response","378","480981","0.0-1.0-569.0","0","0","17750","","null","","","null","63","","","","","","","","","","","","","","","",""
"","ISI","","html-keyboard-response","379","481490","0.0-1.0-570.0","0","0","17750","","136","","","75","63","k","","","","","","","","","","","","","","",""
"","S2","","html-keyboard-response","380","481753","0.0-1.0-571.0","0","0","17750","","null","","","null","63","","NaN","","","","","","","","","","","","","",""
"","response","","html-keyboard-response","381","481773","0.0-1.0-572.0-0.0","0","0","17750","","13","","","68","63","","","2","63","training","adjacent","DC","4","3","Q.jpg","O.jpg","1","0","0","",""
"","feedback","","html-keyboard-response","382","482778","0.0-1.0-573.0-0.0","0","0","17750","","null","","","null","63","","","","","","","","","","","","","","","",""
"","time_out","","html-keyboard-response","383","484785","0.0-1.0-575.0-0.0","0","0","17750","","null","","","null","63","","","","","","","","","","","","","","","",""
"","ITI","","html-keyboard-response","384","485790","0.0-1.0-576.0","0","0","17750","","173","","","75","63","","","","","","","","","","","","","","","k",""
"","S1","","html-keyboard-response","385","486045","0.0-1.0-578.0","0","0","17750","","null","","","null","64","","","","","","","","","","","","","","","",""
"","ISI","","html-keyboard-response","386","486551","0.0-1.0-579.0","0","0","17750","","46","","","68","64","d","","","","","","","","","","","","","","",""
"","S2","","html-keyboard-response","387","486592","0.0-1.0-580.0","0","0","17750","","33","","","75","64","","k","2","64","training","adjacent","EF","5","6","L.jpg","P.jpg","0","1","0","",""
"","feedback","","html-keyboard-response","388","487605","0.0-1.0-582.0-0.0","0","0","17750","","null","","","null","64","","","","","","","","","","","","","","","",""
"","time_out","","html-keyboard-response","389","489654","0.0-1.0-584.0-0.0","0","0","17750","","null","","","null","64","","","","","","","","","","","","","","","",""
"","ITI","","html-keyboard-response","390","490680","0.0-1.0-585.0","0","0","17750","","63","","","75","64","","","","","","","","","","","","","","","k",""
"","S1","","html-keyboard-response","391","490942","0.0-1.0-587.0","0","0","17750","","null","","","null","65","","","","","","","","","","","","","","","",""
"","ISI","","html-keyboard-response","392","491448","0.0-1.0-588.0","0","0","17750","","375","","","68","65","d","","","","","","","","","","","","","","",""
"","S2","","html-keyboard-response","393","491705","0.0-1.0-589.0","0","0","17750","","null","","","null","65","","NaN","","","","","","","","","","","","","",""
"","response","","html-keyboard-response","394","491797","0.0-1.0-590.0-0.0","0","0","17750","","83","","","68","65","","","2","65","training","adjacent","AB","1","2","M.jpg","N.jpg","1","1","1","",""
"","feedback","","html-keyboard-response","395","492804","0.0-1.0-591.0-0.0","0","0","17750","","null","","","null","65","","","","","","","","","","","","","","","",""
"","ITI","","html-keyboard-response","396","493817","0.0-1.0-594.0","0","0","17750","","124","","","68","65","","","","","","","","","","","","","","","d",""
"","S1","","html-keyboard-response","397","494074","0.0-1.0-596.0","0","0","17750","","null","","","null","66","","","","","","","","","","","","","","","",""
"","ISI","","html-keyboard-response","398","494581","0.0-1.0-597.0","0","0","17750","","137","","","68","66","d","","","","","","","","","","","","","","",""
"","S2","","html-keyboard-response","399","494691","0.0-1.0-598.0","0","0","17750","","105","","","68","66","","d","2","66","training","adjacent","DE","4","5","Q.jpg","L.jpg","1","1","1","",""
"","feedback","","html-keyboard-response","400","495714","0.0-1.0-600.0-0.0","0","0","17750","","null","","","null","66","","","","","","","","","","","","","","","",""
"","ITI","","html-keyboard-response","401","496731","0.0-1.0-603.0","0","0","17750","","15","","","68","66","","","","","","","","","","","","","","","d",""
"","S1","","html-keyboard-response","402","496989","0.0-1.0-605.0","0","0","17750","","null","","","null","67","","","","","","","","","","","","","","","",""
"","ISI","","html-keyboard-response","403","497495","0.0-1.0-606.0","0","0","17750","","149","","","68","67","d","","","","","","","","","","","","","","",""
"","S2","","html-keyboard-response","404","497709","0.0-1.0-607.0","0","0","17750","","206","","","68","67","","d","2","67","training","adjacent","AB","1","2","M.jpg","N.jpg","1","1","1","",""
"","feedback","","html-keyboard-response","405","498717","0.0-1.0-609.0-0.0","0","0","17750","","null","","","null","67","","","","","","","","","","","","","","","",""
"","ITI","","html-keyboard-response","406","499726","0.0-1.0-612.0","0","0","17750","","31","","","68","67","","","","","","","","","","","","","","","d",""
"","S1","","html-keyboard-response","407","499986","0.0-1.0-614.0","0","0","17750","","null","","","null","68","","","","","","","","","","","","","","","",""
"","ISI","","html-keyboard-response","408","500494","0.0-1.0-615.0","0","0","17750","","83","","","68","68","d","","","","","","","","","","","","","","",""
"","S2","","html-keyboard-response","409","500714","0.0-1.0-616.0","0","0","17750","","208","","","68","68","","d","2","68","training","adjacent","ED","5","4","L.jpg","Q.jpg","1","0","0","",""
"","feedback","","html-keyboard-response","410","501763","0.0-1.0-618.0-0.0","0","0","17750","","null","","","null","68","","","","","","","","","","","","","","","",""
"","time_out","","html-keyboard-response","411","503769","0.0-1.0-620.0-0.0","0","0","17750","","null","","","null","68","","","","","","","","","","","","","","","",""
"","ITI","","html-keyboard-response","412","504776","0.0-1.0-621.0","0","0","17750","","49","","","68","68","","","","","","","","","","","","","","","d",""
"","S1","","html-keyboard-response","413","505032","0.0-1.0-623.0","0","0","17750","","null","","","null","69","","","","","","","","","","","","","","","",""
"","ISI","","html-keyboard-response","414","505537","0.0-1.0-624.0","0","0","17750","","143","","","68","69","d","","","","","","","","","","","","","","",""
"","S2","","html-keyboard-response","415","505697","0.0-1.0-625.0","0","0","17750","","156","","","68","69","","d","2","69","training","adjacent","BC","2","3","N.jpg","O.jpg","1","1","1","",""
"","feedback","","html-keyboard-response","416","506704","0.0-1.0-627.0-0.0","0","0","17750","","null","","","null","69","","","","","","","","","","","","","","","",""
"","ITI","","html-keyboard-response","417","507708","0.0-1.0-630.0","0","0","17750","","193","","","68","69","","","","","","","","","","","","","","","d",""
"","S1","","html-keyboard-response","418","507963","0.0-1.0-632.0","0","0","17750","","null","","","null","70","","","","","","","","","","","","","","","",""
"","ISI","","html-keyboard-response","419","508474","0.0-1.0-633.0","0","0","17750","","153","","","68","70","d","","","","","","","","","","","","","","",""
"","S2","","html-keyboard-response","420","508576","0.0-1.0-634.0","0","0","17750","","93","","","68","70","","d","2","70","training","adjacent","DE","4","5","Q.jpg","L.jpg","1","1","1","",""
"","feedback","","html-keyboard-response","421","509603","0.0-1.0-636.0-0.0","0","0","17750","","null","","","null","70","","","","","","","","","","","","","","","",""
"","ITI","","html-keyboard-response","422","510616","0.0-1.0-639.0","0","0","17750","","12","","","68","70","","","","","","","","","","","","","","","d",""
"","S1","","html-keyboard-response","423","510876","0.0-1.0-641.0","0","0","17750","","null","","","null","71","","","","","","","","","","","","","","","",""
"","ISI","","html-keyboard-response","424","511383","0.0-1.0-642.0","0","0","17750","","56","","","68","71","d","","","","","","","","","","","","","","",""
"","S2","","html-keyboard-response","425","511463","0.0-1.0-643.0","0","0","17750","","72","","","68","71","","d","2","71","training","adjacent","FE","6","5","P.jpg","L.jpg","1","0","0","",""
"","feedback","","html-keyboard-response","426","512478","0.0-1.0-645.0-0.0","0","0","17750","","null","","","null","71","","","","","","","","","","","","","","","",""
"","time_out","","html-keyboard-response","427","514492","0.0-1.0-647.0-0.0","0","0","17750","","null","","","null","71","","","","","","","","","","","","","","","",""
"","ITI","","html-keyboard-response","428","515502","0.0-1.0-648.0","0","0","17750","","null","","","null","71","","","","","","","","","","","","","","","NaN",""
"","S1","","html-keyboard-response","429","515761","0.0-1.0-650.0","0","0","17750","","null","","","null","72","","","","","","","","","","","","","","","",""
"","ISI","","html-keyboard-response","430","516266","0.0-1.0-651.0","0","0","17750","","null","","","null","72","NaN","","","","","","","","","","","","","","",""
"","S2","","html-keyboard-response","431","516529","0.0-1.0-652.0","0","0","17750","","null","","","null","72","","NaN","","","","","","","","","","","","","",""
"","response","","html-keyboard-response","432","518288","0.0-1.0-653.0-0.0","0","0","17750","","null","","","null","72","","","2","72","training","adjacent","DC","4","3","Q.jpg","O.jpg","NaN","0","0","",""
"","too_slow_prompt","","html-keyboard-response","433","519294","0.0-1.0-655.0-0.0","1","0","17750","","null","","","null","","","","","","","","","","","","","","","","",""
"","time_out","","html-keyboard-response","434","521306","0.0-1.0-656.0-0.0","0","0","17750","","null","","","null","72","","","","","","","","","","","","","","","",""
"","ITI","","html-keyboard-response","435","522322","0.0-1.0-657.0","0","0","17750","","null","","","null","72","","","","","","","","","","","","","","","NaN",""
"","S1","","html-keyboard-response","436","522578","0.0-1.0-659.0","0","0","17750","","null","","","null","73","","","","","","","","","","","","","","","",""
"","ISI","","html-keyboard-response","437","523085","0.0-1.0-660.0","0","0","17750","","null","","","null","73","NaN","","","","","","","","","","","","","","",""
"","S2","","html-keyboard-response","438","523345","0.0-1.0-661.0","0","0","17750","","null","","","null","73","","NaN","","","","","","","","","","","","","",""
"","response","","html-keyboard-response","439","525104","0.0-1.0-662.0-0.0","0","0","17750","","null","","","null","73","","","2","73","training","adjacent","CB","3","2","O.jpg","N.jpg","NaN","0","0","",""
"","too_slow_prompt","","html-keyboard-response","440","526112","0.0-1.0-664.0-0.0","1","0","17750","","null","","","null","","","","","","","","","","","","","","","","",""
"","time_out","","html-keyboard-response","441","528122","0.0-1.0-665.0-0.0","0","0","17750","","null","","","null","73","","","","","","","","","","","","","","","",""
"","ITI","","html-keyboard-response","442","529128","0.0-1.0-666.0","0","0","17750","","null","","","null","73","","","","","","","","","","","","","","","NaN",""
"","S1","","html-keyboard-response","443","529383","0.0-1.0-668.0","0","0","17750","","null","","","null","74","","","","","","","","","","","","","","","",""
"","ISI","","html-keyboard-response","444","529887","0.0-1.0-669.0","0","0","17750","","null","","","null","74","NaN","","","","","","","","","","","","","","",""
"","S2","","html-keyboard-response","445","530142","0.0-1.0-670.0","0","0","17750","","null","","","null","74","","NaN","","","","","","","","","","","","","",""
"","response","","html-keyboard-response","446","531898","0.0-1.0-671.0-0.0","0","0","17750","","null","","","null","74","","","2","74","training","adjacent","FG","6","7","P.jpg","R.jpg","NaN","1","0","",""
"","too_slow_prompt","","html-keyboard-response","447","533223","0.0-1.0-673.0-0.0","1","0","17750","","null","","","null","","","","","","","","","","","","","","","","",""
"","time_out","","html-keyboard-response","448","535353","0.0-1.0-674.0-0.0","0","0","17750","","null","","","null","74","","","","","","","","","","","","","","","",""
"","ITI","","html-keyboard-response","449","536374","0.0-1.0-675.0","0","0","17750","","null","","","null","74","","","","","","","","","","","","","","","NaN",""
"","S1","","html-keyboard-response","450","536630","0.0-1.0-677.0","0","0","17750","","null","","","null","75","","","","","","","","","","","","","","","",""
"","ISI","","html-keyboard-response","451","537141","0.0-1.0-678.0","0","0","17750","","null","","","null","75","NaN","","","","","","","","","","","","","","",""
"","S2","","html-keyboard-response","452","537398","0.0-1.0-679.0","0","0","17750","","null","","","null","75","","NaN","","","","","","","","","","","","","",""
"","response","","html-keyboard-response","453","539159","0.0-1.0-680.0-0.0","0","0","17750","","null","","","null","75","","","2","75","training","adjacent","CD","3","4","O.jpg","Q.jpg","NaN","1","0","",""
"","too_slow_prompt","","html-keyboard-response","454","540179","0.0-1.0-682.0-0.0","1","0","17750","","null","","","null","","","","","","","","","","","","","","","","",""
"","time_out","","html-keyboard-response","455","542195","0.0-1.0-683.0-0.0","0","0","17750","","null","","","null","75","","","","","","","","","","","","","","","",""
"","ITI","","html-keyboard-response","456","543204","0.0-1.0-684.0","0","0","17750","","68","","","68","75","","","","","","","","","","","","","","","d",""
"","S1","","html-keyboard-response","457","543462","0.0-1.0-686.0","0","0","17750","","null","","","null","76","","","","","","","","","","","","","","","",""
"","ISI","","html-keyboard-response","458","543965","0.0-1.0-687.0","0","0","17750","","269","","","75","76","k","","","","","","","","","","","","","","",""
"","S2","","html-keyboard-response","459","544086","0.0-1.0-688.0","0","0","17750","","114","","","68","76","","d","2","76","training","adjacent","EF","5","6","L.jpg","P.jpg","1","1","1","",""
"","feedback","","html-keyboard-response","460","545093","0.0-1.0-690.0-0.0","0","0","17750","","null","","","null","76","","","","","","","","","","","","","","","",""
"","ITI","","html-keyboard-response","461","546099","0.0-1.0-693.0","0","0","17750","","120","","","68","76","","","","","","","","","","","","","","","d",""
"","S1","","html-keyboard-response","462","546356","0.0-1.0-695.0","0","0","17750","","null","","","null","77","","","","","","","","","","","","","","","",""
"","ISI","","html-keyboard-response","463","546863","0.0-1.0-696.0","0","0","17750","","148","","","68","77","d","","","","","","","","","","","","","","",""
"","S2","","html-keyboard-response","464","546959","0.0-1.0-697.0","0","0","17750","","88","","","68","77","","d","2","77","training","adjacent","GF","7","6","R.jpg","P.jpg","1","0","0","",""
"","feedback","","html-keyboard-response","465","548005","0.0-1.0-699.0-0.0","0","0","17750","","null","","","null","77","","","","","","","","","","","","","","","",""
"","time_out","","html-keyboard-response","466","550016","0.0-1.0-701.0-0.0","0","0","17750","","null","","","null","77","","","","","","","","","","","","","","","",""
"","ITI","","html-keyboard-response","467","551023","0.0-1.0-702.0","0","0","17750","","117","","","75","77","","","","","","","","","","","","","","","k",""
"","S1","","html-keyboard-response","468","551280","0.0-1.0-704.0","0","0","17750","","null","","","null","78","","","","","","","","","","","","","","","",""
"","ISI","","html-keyboard-response","469","551790","0.0-1.0-705.0","0","0","17750","","69","","","68","78","d","","","","","","","","","","","","","","",""
"","S2","","html-keyboard-response","470","551824","0.0-1.0-706.0","0","0","17750","","30","","","68","78","","d","2","78","training","adjacent","BA","2","1","N.jpg","M.jpg","1","0","0","",""
"","feedback","","html-keyboard-response","471","552832","0.0-1.0-708.0-0.0","0","0","17750","","null","","","null","78","","","","","","","","","","","","","","","",""
"","time_out","","html-keyboard-response","472","554839","0.0-1.0-710.0-0.0","0","0","17750","","null","","","null","78","","","","","","","","","","","","","","","",""
"","ITI","","html-keyboard-response","473","555845","0.0-1.0-711.0","0","0","17750","","162","","","75","78","","","","","","","","","","","","","","","k",""
"","S1","","html-keyboard-response","474","556101","0.0-1.0-713.0","0","0","17750","","null","","","null","79","","","","","","","","","","","","","","","",""
"","ISI","","html-keyboard-response","475","556608","0.0-1.0-714.0","0","0","17750","","31","","","68","79","d","","","","","","","","","","","","","","",""
"","S2","","html-keyboard-response","476","556817","0.0-1.0-715.0","0","0","17750","","202","","","68","79","","d","2","79","training","adjacent","FE","6","5","P.jpg","L.jpg","1","0","0","",""
"","feedback","","html-keyboard-response","477","557823","0.0-1.0-717.0-0.0","0","0","17750","","null","","","null","79","","","","","","","","","","","","","","","",""
"","time_out","","html-keyboard-response","478","559835","0.0-1.0-719.0-0.0","0","0","17750","","null","","","null","79","","","","","","","","","","","","","","","",""
"","ITI","","html-keyboard-response","479","560843","0.0-1.0-720.0","0","0","17750","","97","","","68","79","","","","","","","","","","","","","","","d",""
"","S1","","html-keyboard-response","480","561101","0.0-1.0-722.0","0","0","17750","","null","","","null","80","","","","","","","","","","","","","","","",""
"","ISI","","html-keyboard-response","481","561616","0.0-1.0-723.0","0","0","17750","","309","","","68","80","d","","","","","","","","","","","","","","",""
"","S2","","html-keyboard-response","482","561876","0.0-1.0-724.0","0","0","17750","","null","","","null","80","","NaN","","","","","","","","","","","","","",""
"","response","","html-keyboard-response","483","561985","0.0-1.0-725.0-0.0","0","0","17750","","103","","","68","80","","","2","80","training","adjacent","BC","2","3","N.jpg","O.jpg","1","1","1","",""
"","feedback","","html-keyboard-response","484","562995","0.0-1.0-726.0-0.0","0","0","17750","","null","","","null","80","","","","","","","","","","","","","","","",""
"","ITI","","html-keyboard-response","485","564004","0.0-1.0-729.0","0","0","17750","","515","","","68","80","","","","","","","","","","","","","","","d",""
"","S1","","html-keyboard-response","486","564262","0.0-1.0-731.0","0","0","17750","","null","","","null","81","","","","","","","","","","","","","","","",""
"","ISI","","html-keyboard-response","487","564769","0.0-1.0-732.0","0","0","17750","","29","","","68","81","d","","","","","","","","","","","","","","",""
"","S2","","html-keyboard-response","488","565030","0.0-1.0-733.0","0","0","17750","","null","","","null","81","","NaN","","","","","","","","","","","","","",""
"","response","","html-keyboard-response","489","565078","0.0-1.0-734.0-0.0","0","0","17750","","40","","","75","81","","","2","81","training","adjacent","GF","7","6","R.jpg","P.jpg","0","0","1","",""
"","feedback","","html-keyboard-response","490","566088","0.0-1.0-735.0-0.0","0","0","17750","","null","","","null","81","","","","","","","","","","","","","","","",""
"","ITI","","html-keyboard-response","491","567095","0.0-1.0-738.0","0","0","17750","","72","","","75","81","","","","","","","","","","","","","","","k",""
"","S1","","html-keyboard-response","492","567348","0.0-1.0-740.0","0","0","17750","","null","","","null","82","","","","","","","","","","","","","","","",""
"","ISI","","html-keyboard-response","493","567853","0.0-1.0-741.0","0","0","17750","","234","","","68","82","d","","","","","","","","","","","","","","",""
"","S2","","html-keyboard-response","494","568053","0.0-1.0-742.0","0","0","17750","","195","","","75","82","","k","2","82","training","adjacent","CD","3","4","O.jpg","Q.jpg","0","1","0","",""
"","feedback","","html-keyboard-response","495","569060","0.0-1.0-744.0-0.0","0","0","17750","","null","","","null","82","","","","","","","","","","","","","","","",""
"","time_out","","html-keyboard-response","496","571069","0.0-1.0-746.0-0.0","0","0","17750","","null","","","null","82","","","","","","","","","","","","","","","",""
"","ITI","","html-keyboard-response","497","572080","0.0-1.0-747.0","0","0","17750","","20","","","68","82","","","","","","","","","","","","","","","d",""
"","S1","","html-keyboard-response","498","572338","0.0-1.0-749.0","0","0","17750","","null","","","null","83","","","","","","","","","","","","","","","",""
"","ISI","","html-keyboard-response","499","572845","0.0-1.0-750.0","0","0","17750","","193","","","68","83","d","","","","","","","","","","","","","","",""
"","S2","","html-keyboard-response","500","572996","0.0-1.0-751.0","0","0","17750","","142","","","68","83","","d","2","83","training","adjacent","BC","2","3","N.jpg","O.jpg","1","1","1","",""
"","feedback","","html-keyboard-response","501","574009","0.0-1.0-753.0-0.0","0","0","17750","","null","","","null","83","","","","","","","","","","","","","","","",""
"","ITI","","html-keyboard-response","502","575015","0.0-1.0-756.0","0","0","17750","","104","","","75","83","","","","","","","","","","","","","","","k",""
"","S1","","html-keyboard-response","503","575272","0.0-1.0-758.0","0","0","17750","","null","","","null","84","","","","","","","","","","","","","","","",""
"","ISI","","html-keyboard-response","504","575780","0.0-1.0-759.0","0","0","17750","","178","","","75","84","k","","","","","","","","","","","","","","",""
"","S2","","html-keyboard-response","505","575852","0.0-1.0-760.0","0","0","17750","","65","","","68","84","","d","2","84","training","adjacent","DE","4","5","Q.jpg","L.jpg","1","1","1","",""
"","feedback","","html-keyboard-response","506","576856","0.0-1.0-762.0-0.0","0","0","17750","","null","","","null","84","","","","","","","","","","","","","","","",""
"","ITI","","html-keyboard-response","507","577862","0.0-1.0-765.0","0","0","17750","","297","","","68","84","","","","","","","","","","","","","","","d",""
"","S1","","html-keyboard-response","508","578118","0.0-1.0-767.0","0","0","17750","","null","","","null","85","","","","","","","","","","","","","","","",""
"","ISI","","html-keyboard-response","509","578622","0.0-1.0-768.0","0","0","17750","","109","","","75","85","k","","","","","","","","","","","","","","",""
"","S2","","html-keyboard-response","510","578664","0.0-1.0-769.0","0","0","17750","","37","","","68","85","","d","2","85","training","adjacent","EF","5","6","L.jpg","P.jpg","1","1","1","",""
"","feedback","","html-keyboard-response","511","579669","0.0-1.0-771.0-0.0","0","0","17750","","null","","","null","85","","","","","","","","","","","","","","","",""
"","ITI","","html-keyboard-response","512","580676","0.0-1.0-774.0","0","0","17750","","152","","","75","85","","","","","","","","","","","","","","","k",""
"","S1","","html-keyboard-response","513","580934","0.0-1.0-776.0","0","0","17750","","null","","","null","86","","","","","","","","","","","","","","","",""
"","ISI","","html-keyboard-response","514","581438","0.0-1.0-777.0","0","0","17750","","107","","","68","86","d","","","","","","","","","","","","","","",""
"","S2","","html-keyboard-response","515","581479","0.0-1.0-778.0","0","0","17750","","32","","","68","86","","d","2","86","training","adjacent","CD","3","4","O.jpg","Q.jpg","1","1","1","",""
"","feedback","","html-keyboard-response","516","582489","0.0-1.0-780.0-0.0","0","0","17750","","null","","","null","86","","","","","","","","","","","","","","","",""
"","ITI","","html-keyboard-response","517","583503","0.0-1.0-783.0","0","0","17750","","352","","","68","86","","","","","","","","","","","","","","","d",""
"","S1","","html-keyboard-response","518","583759","0.0-1.0-785.0","0","0","17750","","null","","","null","87","","","","","","","","","","","","","","","",""
"","ISI","","html-keyboard-response","519","584272","0.0-1.0-786.0","0","0","17750","","4","","","68","87","d","","","","","","","","","","","","","","",""
"","S2","","html-keyboard-response","520","584532","0.0-1.0-787.0","0","0","17750","","null","","","null","87","","NaN","","","","","","","","","","","","","",""
"","response","","html-keyboard-response","521","584555","0.0-1.0-788.0-0.0","0","0","17750","","17","","","68","87","","","2","87","training","adjacent","GF","7","6","R.jpg","P.jpg","1","0","0","",""
"","feedback","","html-keyboard-response","522","585565","0.0-1.0-789.0-0.0","0","0","17750","","null","","","null","87","","","","","","","","","","","","","","","",""
"","time_out","","html-keyboard-response","523","587572","0.0-1.0-791.0-0.0","0","0","17750","","null","","","null","87","","","","","","","","","","","","","","","",""
"","ITI","","html-keyboard-response","524","588578","0.0-1.0-792.0","0","0","17750","","29","","","68","87","","","","","","","","","","","","","","","d",""
"","S1","","html-keyboard-response","525","588836","0.0-1.0-794.0","0","0","17750","","null","","","null","88","","","","","","","","","","","","","","","",""
"","ISI","","html-keyboard-response","526","589345","0.0-1.0-795.0","0","0","17750","","179","","","68","88","d","","","","","","","","","","","","","","",""
"","S2","","html-keyboard-response","527","589356","0.0-1.0-796.0","0","0","17750","","6","","","68","88","","d","2","88","training","adjacent","DE","4","5","Q.jpg","L.jpg","1","1","1","",""
"","feedback","","html-keyboard-response","528","590428","0.0-1.0-798.0-0.0","0","0","17750","","null","","","null","88","","","","","","","","","","","","","","","",""
"","ITI","","html-keyboard-response","529","591440","0.0-1.0-801.0","0","0","17750","","93","","","75","88","","","","","","","","","","","","","","","k",""
"","S1","","html-keyboard-response","530","591700","0.0-1.0-803.0","0","0","17750","","null","","","null","89","","","","","","","","","","","","","","","",""
"","ISI","","html-keyboard-response","531","592210","0.0-1.0-804.0","0","0","17750","","null","","","null","89","NaN","","","","","","","","","","","","","","",""
"","S2","","html-keyboard-response","532","592467","0.0-1.0-805.0","0","0","17750","","null","","","null","89","","NaN","","","","","","","","","","","","","",""
"","response","","html-keyboard-response","533","594228","0.0-1.0-806.0-0.0","0","0","17750","","null","","","null","89","","","2","89","training","adjacent","CB","3","2","O.jpg","N.jpg","NaN","0","0","",""
"","too_slow_prompt","","html-keyboard-response","534","595236","0.0-1.0-808.0-0.0","1","0","17750","","null","","","null","","","","","","","","","","","","","","","","",""
"","time_out","","html-keyboard-response","535","597247","0.0-1.0-809.0-0.0","0","0","17750","","null","","","null","89","","","","","","","","","","","","","","","",""
"","ITI","","html-keyboard-response","536","598256","0.0-1.0-810.0","0","0","17750","","1","","","75","89","","","","","","","","","","","","","","","k",""
"","S1","","html-keyboard-response","537","598513","0.0-1.0-812.0","0","0","17750","","null","","","null","90","","","","","","","","","","","","","","","",""
"","ISI","","html-keyboard-response","538","599018","0.0-1.0-813.0","0","0","17750","","130","","","68","90","d","","","","","","","","","","","","","","",""
"","S2","","html-keyboard-response","539","599055","0.0-1.0-814.0","0","0","17750","","29","","","68","90","","d","2","90","training","adjacent","ED","5","4","L.jpg","Q.jpg","1","0","0","",""
"","feedback","","html-keyboard-response","540","600064","0.0-1.0-816.0-0.0","0","0","17750","","null","","","null","90","","","","","","","","","","","","","","","",""
"","time_out","","html-keyboard-response","541","602073","0.0-1.0-818.0-0.0","0","0","17750","","null","","","null","90","","","","","","","","","","","","","","","",""
"","ITI","","html-keyboard-response","542","603083","0.0-1.0-819.0","0","0","17750","","198","","","68","90","","","","","","","","","","","","","","","d",""
"","S1","","html-keyboard-response","543","603348","0.0-1.0-821.0","0","0","17750","","null","","","null","91","","","","","","","","","","","","","","","",""
"","ISI","","html-keyboard-response","544","603857","0.0-1.0-822.0","0","0","17750","","66","","","68","91","d","","","","","","","","","","","","","","",""
"","S2","","html-keyboard-response","545","603870","0.0-1.0-823.0","0","0","17750","","10","","","68","91","","d","2","91","training","adjacent","FE","6","5","P.jpg","L.jpg","1","0","0","",""
"","feedback","","html-keyboard-response","546","604890","0.0-1.0-825.0-0.0","0","0","17750","","null","","","null","91","","","","","","","","","","","","","","","",""
"","time_out","","html-keyboard-response","547","606897","0.0-1.0-827.0-0.0","0","0","17750","","null","","","null","91","","","","","","","","","","","","","","","",""
"","ITI","","html-keyboard-response","548","607903","0.0-1.0-828.0","0","0","17750","","244","","","68","91","","","","","","","","","","","","","","","d",""
"","S1","","html-keyboard-response","549","608158","0.0-1.0-830.0","0","0","17750","","null","","","null","92","","","","","","","","","","","","","","","",""
"","ISI","","html-keyboard-response","550","608667","0.0-1.0-831.0","0","0","17750","","142","","","68","92","d","","","","","","","","","","","","","","",""
"","S2","","html-keyboard-response","551","608858","0.0-1.0-832.0","0","0","17750","","185","","","75","92","","k","2","92","training","adjacent","AB","1","2","M.jpg","N.jpg","0","1","0","",""
"","feedback","","html-keyboard-response","552","609863","0.0-1.0-834.0-0.0","0","0","17750","","null","","","null","92","","","","","","","","","","","","","","","",""
"","time_out","","html-keyboard-response","553","611873","0.0-1.0-836.0-0.0","0","0","17750","","null","","","null","92","","","","","","","","","","","","","","","",""
"","ITI","","html-keyboard-response","554","612892","0.0-1.0-837.0","0","0","17750","","149","","","68","92","","","","","","","","","","","","","","","d",""
"","S1","","html-keyboard-response","555","613226","0.0-1.0-839.0","0","0","17750","","null","","","null","93","","","","","","","","","","","","","","","",""
"","ISI","","html-keyboard-response","556","613732","0.0-1.0-840.0","0","0","17750","","8","","","75","93","k","","","","","","","","","","","","","","",""
"","S2","","html-keyboard-response","557","613885","0.0-1.0-841.0","0","0","17750","","147","","","68","93","","d","2","93","training","adjacent","BA","2","1","N.jpg","M.jpg","1","0","0","",""
"","feedback","","html-keyboard-response","558","614899","0.0-1.0-843.0-0.0","0","0","17750","","null","","","null","93","","","","","","","","","","","","","","","",""
"","time_out","","html-keyboard-response","559","616907","0.0-1.0-845.0-0.0","0","0","17750","","null","","","null","93","","","","","","","","","","","","","","","",""
"","ITI","","html-keyboard-response","560","617913","0.0-1.0-846.0","0","0","17750","","166","","","68","93","","","","","","","","","","","","","","","d",""
"","S1","","html-keyboard-response","561","618169","0.0-1.0-848.0","0","0","17750","","null","","","null","94","","","","","","","","","","","","","","","",""
"","ISI","","html-keyboard-response","562","618673","0.0-1.0-849.0","0","0","17750","","88","","","68","94","d","","","","","","","","","","","","","","",""
"","S2","","html-keyboard-response","563","618834","0.0-1.0-850.0","0","0","17750","","155","","","68","94","","d","2","94","training","adjacent","ED","5","4","L.jpg","Q.jpg","1","0","0","",""
"","feedback","","html-keyboard-response","564","619840","0.0-1.0-852.0-0.0","0","0","17750","","null","","","null","94","","","","","","","","","","","","","","","",""
"","time_out","","html-keyboard-response","565","621847","0.0-1.0-854.0-0.0","0","0","17750","","null","","","null","94","","","","","","","","","","","","","","","",""
"","ITI","","html-keyboard-response","566","622852","0.0-1.0-855.0","0","0","17750","","0","","","68","94","","","","","","","","","","","","","","","d",""
"","S1","","html-keyboard-response","567","623107","0.0-1.0-857.0","0","0","17750","","null","","","null","95","","","","","","","","","","","","","","","",""
"","ISI","","html-keyboard-response","568","623613","0.0-1.0-858.0","0","0","17750","","253","","","75","95","k","","","","","","","","","","","","","","",""
"","S2","","html-keyboard-response","569","623806","0.0-1.0-859.0","0","0","17750","","185","","","68","95","","d","2","95","training","adjacent","DC","4","3","Q.jpg","O.jpg","1","0","0","",""
"","feedback","","html-keyboard-response","570","624812","0.0-1.0-861.0-0.0","0","0","17750","","null","","","null","95","","","","","","","","","","","","","","","",""
"","time_out","","html-keyboard-response","571","626817","0.0-1.0-863.0-0.0","0","0","17750","","null","","","null","95","","","","","","","","","","","","","","","",""
"","ITI","","html-keyboard-response","572","627821","0.0-1.0-864.0","0","0","17750","","192","","","75","95","","","","","","","","","","","","","","","k",""
"","block_over","","html-keyboard-response","573","630262","0.0-1.0-865.0-0.0","0","0","17750","","2431","","","32","95","","","","","","","","","","","","","","","",""
"","S1","","html-keyboard-response","574","630519","0.0-1.0-866.0","0","0","17750","","null","","","null","96","","","","","","","","","","","","","","","",""
"","ISI","","html-keyboard-response","575","631028","0.0-1.0-867.0","0","0","17750","","0","","","75","96","k","","","","","","","","","","","","","","",""
"","S2","","html-keyboard-response","576","631033","0.0-1.0-868.0","0","0","17750","","0","","","75","96","","k","3","96","training","adjacent","ED","5","4","L.jpg","Q.jpg","0","0","1","",""
"","feedback","","html-keyboard-response","577","632042","0.0-1.0-870.0-0.0","0","0","17750","","null","","","null","96","","","","","","","","","","","","","","","",""
"","ITI","","html-keyboard-response","578","633104","0.0-1.0-873.0","0","0","17750","","15","","","75","96","","","","","","","","","","","","","","","k",""
"","S1","","html-keyboard-response","579","633362","0.0-1.0-875.0","0","0","17750","","null","","","null","97","","","","","","","","","","","","","","","",""
"","ISI","","html-keyboard-response","580","633867","0.0-1.0-876.0","0","0","17750","","56","","","68","97","d","","","","","","","","","","","","","","",""
"","S2","","html-keyboard-response","581","634068","0.0-1.0-877.0","0","0","17750","","196","","","68","97","","d","3","97","training","adjacent","DC","4","3","Q.jpg","O.jpg","1","0","0","",""
"","feedback","","html-keyboard-response","582","635091","0.0-1.0-879.0-0.0","0","0","17750","","null","","","null","97","","","","","","","","","","","","","","","",""
"","time_out","","html-keyboard-response","583","637103","0.0-1.0-881.0-0.0","0","0","17750","","null","","","null","97","","","","","","","","","","","","","","","",""
"","ITI","","html-keyboard-response","584","638112","0.0-1.0-882.0","0","0","17750","","615","","","68","97","","","","","","","","","","","","","","","d",""
"","S1","","html-keyboard-response","585","638368","0.0-1.0-884.0","0","0","17750","","null","","","null","98","","","","","","","","","","","","","","","",""
"","ISI","","html-keyboard-response","586","638873","0.0-1.0-885.0","0","0","17750","","67","","","68","98","d","","","","","","","","","","","","","","",""
"","S2","","html-keyboard-response","587","638931","0.0-1.0-886.0","0","0","17750","","44","","","68","98","","d","3","98","training","adjacent","DC","4","3","Q.jpg","O.jpg","1","0","0","",""
"","feedback","","html-keyboard-response","588","639938","0.0-1.0-888.0-0.0","0","0","17750","","null","","","null","98","","","","","","","","","","","","","","","",""
