"success","ttype","start_time","trial_type","trial_index","time_elapsed","internal_node_id","warning","missed_checkup","PID","view_history","rt","responses","repeat_instructions","key_press","index","keypress_isi","keypress_S2","block","trial_num","phase","group_type","pair_type","S1_stim","S2_stim","S1_img","S2_img","S1_chosen","S1_higher","accuracy","keypress_iti","total_bonus_tally"
"true","full_screen","d03032023hr2211","fullscreen","0","12029","0.0-0.0","0","0","43789","","","","","","","","","","","","","","","","","","","","","",""
"","instructions","","instructions","1","50632","0.0-1.0-0.0-0.0","0","0","43789","[{""page_index"":0,""viewing_time"":9910},{""page_index"":1,""viewing_time"":5144},{""page_index"":2,""viewing_time"":2595},{""page_index"":3,""viewing_time"":2652},{""page_index"":2,""viewing_time"":15433},{""page_index"":3,""viewing_time"":2865}]","38600","","","","","","","","","","","","","","","","","","","",""
"","comprehension_check","","survey-multi-choice","2","67023","0.0-1.0-0.0-1.0","0","0","43789","","16386","{""Q0"":""True"",""Q1"":""D"",""Q2"":""Only when the screen 'MAKE A CHOICE' is shown"",""Q3"":""Green mark"",""Q4"":""Use a mouse""}","1","","","","","","","","","","","","","","","","","",""
"","missed_instruction_checkup","","html-keyboard-response","3","73505","0.0-1.0-0.0-2.0-0.0","0","1","43789","","6479","","","32","","","","","","","","","","","","","","","","",""
"","instructions","","instructions","4","82805","0.0-1.0-0.1-0.1","0","0","43789","[{""page_index"":0,""viewing_time"":1914},{""page_index"":1,""viewing_time"":4967},{""page_index"":2,""viewing_time"":1897},{""page_index"":3,""viewing_time"":520}]","9298","","","","","","","","","","","","","","","","","","","",""
"","comprehension_check","","survey-multi-choice","5","94125","0.0-1.0-0.1-1.1","0","0","43789","","11316","{""Q0"":""True"",""Q1"":""D"",""Q2"":""Only when the screen 'MAKE A CHOICE' is shown"",""Q3"":""Green mark"",""Q4"":""either D or K""}","1","","","","","","","","","","","","","","","","","",""
"","missed_instruction_checkup","","html-keyboard-response","6","100411","0.0-1.0-0.1-2.1-0.1","0","1","43789","","6284","","","32","","","","","","","","","","","","","","","","",""
"","instructions","","instructions","7","111550","0.0-1.0-0.2-0.2","0","0","43789","[{""page_index"":0,""viewing_time"":1922},{""page_index"":1,""viewing_time"":4497},{""page_index"":2,""viewing_time"":2685},{""page_index"":3,""viewing_time"":2034}]","11138","","","","","","","","","","","","","","","","","","","",""
"","comprehension_check","","survey-multi-choice","8","125574","0.0-1.0-0.2-1.2","0","0","43789","","14020","{""Q0"":""False"",""Q1"":""K"",""Q2"":""Once the second image appears and while the screen 'MAKE A CHOICE' is shown"",""Q3"":""Red cross"",""Q4"":""either D or K""}","1","","","","","","","","","","","","","","","","","",""
"","missed_instruction_checkup","","html-keyboard-response","9","127452","0.0-1.0-0.2-2.2-0.2","0","1","43789","","1875","","","32","","","","","","","","","","","","","","","","",""
"","instructions","","instructions","10","146118","0.0-1.0-0.3-0.3","0","0","43789","[{""page_index"":0,""viewing_time"":3272},{""page_index"":1,""viewing_time"":10456},{""page_index"":2,""viewing_time"":2041},{""page_index"":3,""viewing_time"":2896}]","18665","","","","","","","","","","","","","","","","","","","",""
"","comprehension_check","","survey-multi-choice","11","166006","0.0-1.0-0.3-1.3","0","0","43789","","19884","{""Q0"":""True"",""Q1"":""D"",""Q2"":""Once the second image appears and while the screen 'MAKE A CHOICE' is shown"",""Q3"":""Green mark"",""Q4"":""either D or K""}","1","","","","","","","","","","","","","","","","","",""
"","missed_instruction_checkup","","html-keyboard-response","12","168307","0.0-1.0-0.3-2.3-0.3","0","1","43789","","2300","","","32","","","","","","","","","","","","","","","","",""
"","instructions","","instructions","13","173887","0.0-1.0-0.4-0.4","0","0","43789","[{""page_index"":0,""viewing_time"":1817},{""page_index"":1,""viewing_time"":1502},{""page_index"":2,""viewing_time"":945},{""page_index"":3,""viewing_time"":1313}]","5578","","","","","","","","","","","","","","","","","","","",""
"","comprehension_check","","survey-multi-choice","14","185479","0.0-1.0-0.4-1.4","0","0","43789","","11588","{""Q0"":""True"",""Q1"":""K"",""Q2"":""Once the second image appears and while the screen 'MAKE A CHOICE' is shown"",""Q3"":""Green mark"",""Q4"":""either D or K""}","0","","","","","","","","","","","","","","","","","",""
"","start_exp","","html-keyboard-response","15","187640","0.0-1.0-1.0","0","0","43789","","2159","","","32","","","","","","","","","","","","","","","","",""
"","S1","","html-keyboard-response","16","187895","0.0-1.0-2.0","0","0","43789","","null","","","null","0","","","","","","","","","","","","","","","",""
"","ISI","","html-keyboard-response","17","188397","0.0-1.0-3.0","0","0","43789","","null","","","null","0","NaN","","","","","","","","","","","","","","",""
"","S2","","html-keyboard-response","18","188650","0.0-1.0-4.0","0","0","43789","","null","","","null","0","","NaN","","","","","","","","","","","","","",""
"","response","","html-keyboard-response","19","189828","0.0-1.0-5.0-0.0","0","0","43789","","1176","","","68","0","","","1","0","training","adjacent","BC","2","3","Q.jpg","P.jpg","0","1","0","",""
"","feedback","","html-keyboard-response","20","190830","0.0-1.0-6.0-0.0","0","0","43789","","null","","","null","0","","","","","","","","","","","","","","","",""
"","time_out","","html-keyboard-response","21","192848","0.0-1.0-8.0-0.0","0","0","43789","","null","","","null","0","","","","","","","","","","","","","","","",""
"","ITI","","html-keyboard-response","22","193850","0.0-1.0-9.0","0","0","43789","","null","","","null","0","","","","","","","","","","","","","","","NaN",""
"","S1","","html-keyboard-response","23","194103","0.0-1.0-11.0","0","0","43789","","null","","","null","1","","","","","","","","","","","","","","","",""
"","ISI","","html-keyboard-response","24","194605","0.0-1.0-12.0","0","0","43789","","476","","","75","1","k","","","","","","","","","","","","","","",""
"","S2","","html-keyboard-response","25","194697","0.0-1.0-13.0","0","0","43789","","89","","","68","1","","d","1","1","training","adjacent","DE","4","5","L.jpg","R.jpg","0","1","0","",""
"","feedback","","html-keyboard-response","26","195700","0.0-1.0-15.0-0.0","0","0","43789","","null","","","null","1","","","","","","","","","","","","","","","",""
"","time_out","","html-keyboard-response","27","197702","0.0-1.0-17.0-0.0","0","0","43789","","null","","","null","1","","","","","","","","","","","","","","","",""
"","ITI","","html-keyboard-response","28","198704","0.0-1.0-18.0","0","0","43789","","null","","","null","1","","","","","","","","","","","","","","","NaN",""
"","S1","","html-keyboard-response","29","198956","0.0-1.0-20.0","0","0","43789","","null","","","null","2","","","","","","","","","","","","","","","",""
"","ISI","","html-keyboard-response","30","199459","0.0-1.0-21.0","0","0","43789","","null","","","null","2","NaN","","","","","","","","","","","","","","",""
"","S2","","html-keyboard-response","31","199509","0.0-1.0-22.0","0","0","43789","","48","","","75","2","","k","1","2","training","adjacent","AB","1","2","N.jpg","Q.jpg","1","1","1","",""
"","feedback","","html-keyboard-response","32","200570","0.0-1.0-24.0-0.0","0","0","43789","","null","","","null","2","","","","","","","","","","","","","","","",""
"","ITI","","html-keyboard-response","33","201573","0.0-1.0-27.0","0","0","43789","","0","","","68","2","","","","","","","","","","","","","","","d",""
"","S1","","html-keyboard-response","34","201824","0.0-1.0-29.0","0","0","43789","","null","","","null","3","","","","","","","","","","","","","","","",""
"","ISI","","html-keyboard-response","35","202326","0.0-1.0-30.0","0","0","43789","","234","","","68","3","d","","","","","","","","","","","","","","",""
"","S2","","html-keyboard-response","36","202407","0.0-1.0-31.0","0","0","43789","","78","","","75","3","","k","1","3","training","adjacent","DC","4","3","L.jpg","P.jpg","1","0","0","",""
"","feedback","","html-keyboard-response","37","203410","0.0-1.0-33.0-0.0","0","0","43789","","null","","","null","3","","","","","","","","","","","","","","","",""
"","time_out","","html-keyboard-response","38","205411","0.0-1.0-35.0-0.0","0","0","43789","","null","","","null","3","","","","","","","","","","","","","","","",""
"","ITI","","html-keyboard-response","39","206412","0.0-1.0-36.0","0","0","43789","","153","","","68","3","","","","","","","","","","","","","","","d",""
"","S1","","html-keyboard-response","40","206664","0.0-1.0-38.0","0","0","43789","","null","","","null","4","","","","","","","","","","","","","","","",""
"","ISI","","html-keyboard-response","41","207165","0.0-1.0-39.0","0","0","43789","","35","","","68","4","d","","","","","","","","","","","","","","",""
"","S2","","html-keyboard-response","42","207189","0.0-1.0-40.0","0","0","43789","","18","","","68","4","","d","1","4","training","adjacent","ED","5","4","R.jpg","L.jpg","0","0","1","",""
"","feedback","","html-keyboard-response","43","208190","0.0-1.0-42.0-0.0","0","0","43789","","null","","","null","4","","","","","","","","","","","","","","","",""
"","ITI","","html-keyboard-response","44","209192","0.0-1.0-45.0","0","0","43789","","144","","","68","4","","","","","","","","","","","","","","","d",""
"","S1","","html-keyboard-response","45","209448","0.0-1.0-47.0","0","0","43789","","null","","","null","5","","","","","","","","","","","","","","","",""
"","ISI","","html-keyboard-response","46","209950","0.0-1.0-48.0","0","0","43789","","138","","","68","5","d","","","","","","","","","","","","","","",""
"","S2","","html-keyboard-response","47","210122","0.0-1.0-49.0","0","0","43789","","171","","","68","5","","d","1","5","training","adjacent","BC","2","3","Q.jpg","P.jpg","0","1","0","",""
"","feedback","","html-keyboard-response","48","211123","0.0-1.0-51.0-0.0","0","0","43789","","null","","","null","5","","","","","","","","","","","","","","","",""
"","time_out","","html-keyboard-response","49","213125","0.0-1.0-53.0-0.0","0","0","43789","","null","","","null","5","","","","","","","","","","","","","","","",""
"","ITI","","html-keyboard-response","50","214127","0.0-1.0-54.0","0","0","43789","","91","","","75","5","","","","","","","","","","","","","","","k",""
"","S1","","html-keyboard-response","51","214379","0.0-1.0-56.0","0","0","43789","","null","","","null","6","","","","","","","","","","","","","","","",""
"","ISI","","html-keyboard-response","52","214882","0.0-1.0-57.0","0","0","43789","","18","","","68","6","d","","","","","","","","","","","","","","",""
"","S2","","html-keyboard-response","53","215026","0.0-1.0-58.0","0","0","43789","","142","","","68","6","","d","1","6","training","adjacent","ED","5","4","R.jpg","L.jpg","0","0","1","",""
"","feedback","","html-keyboard-response","54","216029","0.0-1.0-60.0-0.0","0","0","43789","","null","","","null","6","","","","","","","","","","","","","","","",""
"","ITI","","html-keyboard-response","55","217030","0.0-1.0-63.0","0","0","43789","","143","","","68","6","","","","","","","","","","","","","","","d",""
"","S1","","html-keyboard-response","56","217282","0.0-1.0-65.0","0","0","43789","","null","","","null","7","","","","","","","","","","","","","","","",""
"","ISI","","html-keyboard-response","57","217788","0.0-1.0-66.0","0","0","43789","","10","","","68","7","d","","","","","","","","","","","","","","",""
"","S2","","html-keyboard-response","58","217970","0.0-1.0-67.0","0","0","43789","","180","","","75","7","","k","1","7","training","adjacent","CD","3","4","P.jpg","L.jpg","1","1","1","",""
"","feedback","","html-keyboard-response","59","218972","0.0-1.0-69.0-0.0","0","0","43789","","null","","","null","7","","","","","","","","","","","","","","","",""
"","ITI","","html-keyboard-response","60","219974","0.0-1.0-72.0","0","0","43789","","55","","","68","7","","","","","","","","","","","","","","","d",""
"","S1","","html-keyboard-response","61","220311","0.0-1.0-74.0","0","0","43789","","null","","","null","8","","","","","","","","","","","","","","","",""
"","ISI","","html-keyboard-response","62","220812","0.0-1.0-75.0","0","0","43789","","68","","","75","8","k","","","","","","","","","","","","","","",""
"","S2","","html-keyboard-response","63","220836","0.0-1.0-76.0","0","0","43789","","22","","","75","8","","k","1","8","training","adjacent","DE","4","5","L.jpg","R.jpg","1","1","1","",""
"","feedback","","html-keyboard-response","64","221838","0.0-1.0-78.0-0.0","0","0","43789","","null","","","null","8","","","","","","","","","","","","","","","",""
"","ITI","","html-keyboard-response","65","222842","0.0-1.0-81.0","0","0","43789","","52","","","68","8","","","","","","","","","","","","","","","d",""
"","S1","","html-keyboard-response","66","223094","0.0-1.0-83.0","0","0","43789","","null","","","null","9","","","","","","","","","","","","","","","",""
"","ISI","","html-keyboard-response","67","223603","0.0-1.0-84.0","0","0","43789","","65","","","75","9","k","","","","","","","","","","","","","","",""
"","S2","","html-keyboard-response","68","223614","0.0-1.0-85.0","0","0","43789","","10","","","75","9","","k","1","9","training","adjacent","BA","2","1","Q.jpg","N.jpg","1","0","0","",""
"","feedback","","html-keyboard-response","69","224616","0.0-1.0-87.0-0.0","0","0","43789","","null","","","null","9","","","","","","","","","","","","","","","",""
"","time_out","","html-keyboard-response","70","226619","0.0-1.0-89.0-0.0","0","0","43789","","null","","","null","9","","","","","","","","","","","","","","","",""
"","ITI","","html-keyboard-response","71","227621","0.0-1.0-90.0","0","0","43789","","64","","","68","9","","","","","","","","","","","","","","","d",""
"","S1","","html-keyboard-response","72","227880","0.0-1.0-92.0","0","0","43789","","null","","","null","10","","","","","","","","","","","","","","","",""
"","ISI","","html-keyboard-response","73","228382","0.0-1.0-93.0","0","0","43789","","142","","","68","10","d","","","","","","","","","","","","","","",""
"","S2","","html-keyboard-response","74","228516","0.0-1.0-94.0","0","0","43789","","132","","","75","10","","k","1","10","training","adjacent","FE","6","5","O.jpg","R.jpg","1","0","0","",""
"","feedback","","html-keyboard-response","75","229524","0.0-1.0-96.0-0.0","0","0","43789","","null","","","null","10","","","","","","","","","","","","","","","",""
"","time_out","","html-keyboard-response","76","231526","0.0-1.0-98.0-0.0","0","0","43789","","null","","","null","10","","","","","","","","","","","","","","","",""
"","ITI","","html-keyboard-response","77","232529","0.0-1.0-99.0","0","0","43789","","50","","","68","10","","","","","","","","","","","","","","","d",""
"","S1","","html-keyboard-response","78","232785","0.0-1.0-101.0","0","0","43789","","null","","","null","11","","","","","","","","","","","","","","","",""
"","ISI","","html-keyboard-response","79","233287","0.0-1.0-102.0","0","0","43789","","53","","","68","11","d","","","","","","","","","","","","","","",""
"","S2","","html-keyboard-response","80","233428","0.0-1.0-103.0","0","0","43789","","139","","","75","11","","k","1","11","training","adjacent","EF","5","6","R.jpg","O.jpg","1","1","1","",""
"","feedback","","html-keyboard-response","81","234431","0.0-1.0-105.0-0.0","0","0","43789","","null","","","null","11","","","","","","","","","","","","","","","",""
"","ITI","","html-keyboard-response","82","235432","0.0-1.0-108.0","0","0","43789","","173","","","68","11","","","","","","","","","","","","","","","d",""
"","S1","","html-keyboard-response","83","235684","0.0-1.0-110.0","0","0","43789","","null","","","null","12","","","","","","","","","","","","","","","",""
"","ISI","","html-keyboard-response","84","236185","0.0-1.0-111.0","0","0","43789","","162","","","68","12","d","","","","","","","","","","","","","","",""
"","S2","","html-keyboard-response","85","236296","0.0-1.0-112.0","0","0","43789","","109","","","68","12","","d","1","12","training","adjacent","CD","3","4","P.jpg","L.jpg","0","1","0","",""
"","feedback","","html-keyboard-response","86","237299","0.0-1.0-114.0-0.0","0","0","43789","","null","","","null","12","","","","","","","","","","","","","","","",""
"","time_out","","html-keyboard-response","87","239301","0.0-1.0-116.0-0.0","0","0","43789","","null","","","null","12","","","","","","","","","","","","","","","",""
"","ITI","","html-keyboard-response","88","240304","0.0-1.0-117.0","0","0","43789","","96","","","75","12","","","","","","","","","","","","","","","k",""
"","S1","","html-keyboard-response","89","240562","0.0-1.0-119.0","0","0","43789","","null","","","null","13","","","","","","","","","","","","","","","",""
"","ISI","","html-keyboard-response","90","241064","0.0-1.0-120.0","0","0","43789","","138","","","75","13","k","","","","","","","","","","","","","","",""
"","S2","","html-keyboard-response","91","241157","0.0-1.0-121.0","0","0","43789","","92","","","75","13","","k","1","13","training","adjacent","CD","3","4","P.jpg","L.jpg","1","1","1","",""
"","feedback","","html-keyboard-response","92","242160","0.0-1.0-123.0-0.0","0","0","43789","","null","","","null","13","","","","","","","","","","","","","","","",""
"","ITI","","html-keyboard-response","93","243162","0.0-1.0-126.0","0","0","43789","","247","","","68","13","","","","","","","","","","","","","","","d",""
"","S1","","html-keyboard-response","94","243413","0.0-1.0-128.0","0","0","43789","","null","","","null","14","","","","","","","","","","","","","","","",""
"","ISI","","html-keyboard-response","95","243916","0.0-1.0-129.0","0","0","43789","","99","","","75","14","k","","","","","","","","","","","","","","",""
"","S2","","html-keyboard-response","96","244008","0.0-1.0-130.0","0","0","43789","","90","","","75","14","","k","1","14","training","adjacent","ED","5","4","R.jpg","L.jpg","1","0","0","",""
"","feedback","","html-keyboard-response","97","245010","0.0-1.0-132.0-0.0","0","0","43789","","null","","","null","14","","","","","","","","","","","","","","","",""
"","time_out","","html-keyboard-response","98","247011","0.0-1.0-134.0-0.0","0","0","43789","","null","","","null","14","","","","","","","","","","","","","","","",""
"","ITI","","html-keyboard-response","99","248014","0.0-1.0-135.0","0","0","43789","","null","","","null","14","","","","","","","","","","","","","","","NaN",""
"","S1","","html-keyboard-response","100","248267","0.0-1.0-137.0","0","0","43789","","null","","","null","15","","","","","","","","","","","","","","","",""
"","ISI","","html-keyboard-response","101","248769","0.0-1.0-138.0","0","0","43789","","151","","","75","15","k","","","","","","","","","","","","","","",""
"","S2","","html-keyboard-response","102","249024","0.0-1.0-139.0","0","0","43789","","null","","","null","15","","NaN","","","","","","","","","","","","","",""
"","response","","html-keyboard-response","103","249195","0.0-1.0-140.0-0.0","0","0","43789","","169","","","68","15","","","1","15","training","adjacent","DE","4","5","L.jpg","R.jpg","0","1","0","",""
"","feedback","","html-keyboard-response","104","250197","0.0-1.0-141.0-0.0","0","0","43789","","null","","","null","15","","","","","","","","","","","","","","","",""
"","time_out","","html-keyboard-response","105","252198","0.0-1.0-143.0-0.0","0","0","43789","","null","","","null","15","","","","","","","","","","","","","","","",""
"","ITI","","html-keyboard-response","106","253200","0.0-1.0-144.0","0","0","43789","","110","","","75","15","","","","","","","","","","","","","","","k",""
"","S1","","html-keyboard-response","107","253451","0.0-1.0-146.0","0","0","43789","","null","","","null","16","","","","","","","","","","","","","","","",""
"","ISI","","html-keyboard-response","108","253954","0.0-1.0-147.0","0","0","43789","","212","","","75","16","k","","","","","","","","","","","","","","",""
"","S2","","html-keyboard-response","109","254205","0.0-1.0-148.0","0","0","43789","","249","","","68","16","","d","1","16","training","adjacent","FE","6","5","O.jpg","R.jpg","0","0","1","",""
"","feedback","","html-keyboard-response","110","255208","0.0-1.0-150.0-0.0","0","0","43789","","null","","","null","16","","","","","","","","","","","","","","","",""
"","ITI","","html-keyboard-response","111","256211","0.0-1.0-153.0","0","0","43789","","283","","","75","16","","","","","","","","","","","","","","","k",""
"","S1","","html-keyboard-response","112","256461","0.0-1.0-155.0","0","0","43789","","null","","","null","17","","","","","","","","","","","","","","","",""
"","ISI","","html-keyboard-response","113","256962","0.0-1.0-156.0","0","0","43789","","100","","","68","17","d","","","","","","","","","","","","","","",""
"","S2","","html-keyboard-response","114","257136","0.0-1.0-157.0","0","0","43789","","172","","","75","17","","k","1","17","training","adjacent","GF","7","6","M.jpg","O.jpg","1","0","0","",""
"","feedback","","html-keyboard-response","115","258139","0.0-1.0-159.0-0.0","0","0","43789","","null","","","null","17","","","","","","","","","","","","","","","",""
"","time_out","","html-keyboard-response","116","260140","0.0-1.0-161.0-0.0","0","0","43789","","null","","","null","17","","","","","","","","","","","","","","","",""
"","ITI","","html-keyboard-response","117","261142","0.0-1.0-162.0","0","0","43789","","28","","","68","17","","","","","","","","","","","","","","","d",""
"","S1","","html-keyboard-response","118","261394","0.0-1.0-164.0","0","0","43789","","null","","","null","18","","","","","","","","","","","","","","","",""
"","ISI","","html-keyboard-response","119","261898","0.0-1.0-165.0","0","0","43789","","273","","","68","18","d","","","","","","","","","","","","","","",""
"","S2","","html-keyboard-response","120","262057","0.0-1.0-166.0","0","0","43789","","158","","","75","18","","k","1","18","training","adjacent","BC","2","3","Q.jpg","P.jpg","1","1","1","",""
"","feedback","","html-keyboard-response","121","263059","0.0-1.0-168.0-0.0","0","0","43789","","null","","","null","18","","","","","","","","","","","","","","","",""
"","ITI","","html-keyboard-response","122","264062","0.0-1.0-171.0","0","0","43789","","72","","","68","18","","","","","","","","","","","","","","","d",""
"","S1","","html-keyboard-response","123","264315","0.0-1.0-173.0","0","0","43789","","null","","","null","19","","","","","","","","","","","","","","","",""
"","ISI","","html-keyboard-response","124","264816","0.0-1.0-174.0","0","0","43789","","199","","","68","19","d","","","","","","","","","","","","","","",""
"","S2","","html-keyboard-response","125","264871","0.0-1.0-175.0","0","0","43789","","48","","","68","19","","d","1","19","training","adjacent","CD","3","4","P.jpg","L.jpg","0","1","0","",""
"","feedback","","html-keyboard-response","126","265881","0.0-1.0-177.0-0.0","0","0","43789","","null","","","null","19","","","","","","","","","","","","","","","",""
"","time_out","","html-keyboard-response","127","267883","0.0-1.0-179.0-0.0","0","0","43789","","null","","","null","19","","","","","","","","","","","","","","","",""
"","ITI","","html-keyboard-response","128","268885","0.0-1.0-180.0","0","0","43789","","5","","","75","19","","","","","","","","","","","","","","","k",""
"","S1","","html-keyboard-response","129","269138","0.0-1.0-182.0","0","0","43789","","null","","","null","20","","","","","","","","","","","","","","","",""
"","ISI","","html-keyboard-response","130","269639","0.0-1.0-183.0","0","0","43789","","219","","","75","20","k","","","","","","","","","","","","","","",""
"","S2","","html-keyboard-response","131","269803","0.0-1.0-184.0","0","0","43789","","163","","","75","20","","k","1","20","training","adjacent","GF","7","6","M.jpg","O.jpg","1","0","0","",""
"","feedback","","html-keyboard-response","132","270804","0.0-1.0-186.0-0.0","0","0","43789","","null","","","null","20","","","","","","","","","","","","","","","",""
"","time_out","","html-keyboard-response","133","272805","0.0-1.0-188.0-0.0","0","0","43789","","null","","","null","20","","","","","","","","","","","","","","","",""
"","ITI","","html-keyboard-response","134","273808","0.0-1.0-189.0","0","0","43789","","260","","","75","20","","","","","","","","","","","","","","","k",""
"","S1","","html-keyboard-response","135","274113","0.0-1.0-191.0","0","0","43789","","null","","","null","21","","","","","","","","","","","","","","","",""
"","ISI","","html-keyboard-response","136","274614","0.0-1.0-192.0","0","0","43789","","88","","","68","21","d","","","","","","","","","","","","","","",""
"","S2","","html-keyboard-response","137","274837","0.0-1.0-193.0","0","0","43789","","222","","","68","21","","d","1","21","training","adjacent","ED","5","4","R.jpg","L.jpg","0","0","1","",""
"","feedback","","html-keyboard-response","138","275838","0.0-1.0-195.0-0.0","0","0","43789","","null","","","null","21","","","","","","","","","","","","","","","",""
"","ITI","","html-keyboard-response","139","276841","0.0-1.0-198.0","0","0","43789","","70","","","75","21","","","","","","","","","","","","","","","k",""
"","S1","","html-keyboard-response","140","277092","0.0-1.0-200.0","0","0","43789","","null","","","null","22","","","","","","","","","","","","","","","",""
"","ISI","","html-keyboard-response","141","277594","0.0-1.0-201.0","0","0","43789","","198","","","75","22","k","","","","","","","","","","","","","","",""
"","S2","","html-keyboard-response","142","277615","0.0-1.0-202.0","0","0","43789","","18","","","68","22","","d","1","22","training","adjacent","EF","5","6","R.jpg","O.jpg","0","1","0","",""
"","feedback","","html-keyboard-response","143","278617","0.0-1.0-204.0-0.0","0","0","43789","","null","","","null","22","","","","","","","","","","","","","","","",""
"","time_out","","html-keyboard-response","144","280619","0.0-1.0-206.0-0.0","0","0","43789","","null","","","null","22","","","","","","","","","","","","","","","",""
"","ITI","","html-keyboard-response","145","281622","0.0-1.0-207.0","0","0","43789","","139","","","75","22","","","","","","","","","","","","","","","k",""
"","S1","","html-keyboard-response","146","281884","0.0-1.0-209.0","0","0","43789","","null","","","null","23","","","","","","","","","","","","","","","",""
"","ISI","","html-keyboard-response","147","282385","0.0-1.0-210.0","0","0","43789","","66","","","68","23","d","","","","","","","","","","","","","","",""
"","S2","","html-keyboard-response","148","282552","0.0-1.0-211.0","0","0","43789","","165","","","68","23","","d","1","23","training","adjacent","GF","7","6","M.jpg","O.jpg","0","0","1","",""
"","feedback","","html-keyboard-response","149","283557","0.0-1.0-213.0-0.0","0","0","43789","","null","","","null","23","","","","","","","","","","","","","","","",""
"","ITI","","html-keyboard-response","150","284570","0.0-1.0-216.0","0","0","43789","","31","","","68","23","","","","","","","","","","","","","","","d",""
"","S1","","html-keyboard-response","151","284823","0.0-1.0-218.0","0","0","43789","","null","","","null","24","","","","","","","","","","","","","","","",""
"","ISI","","html-keyboard-response","152","285326","0.0-1.0-219.0","0","0","43789","","48","","","68","24","d","","","","","","","","","","","","","","",""
"","S2","","html-keyboard-response","153","285442","0.0-1.0-220.0","0","0","43789","","113","","","68","24","","d","1","24","training","adjacent","FG","6","7","O.jpg","M.jpg","0","1","0","",""
"","feedback","","html-keyboard-response","154","286445","0.0-1.0-222.0-0.0","0","0","43789","","null","","","null","24","","","","","","","","","","","","","","","",""
"","time_out","","html-keyboard-response","155","288447","0.0-1.0-224.0-0.0","0","0","43789","","null","","","null","24","","","","","","","","","","","","","","","",""
"","ITI","","html-keyboard-response","156","289465","0.0-1.0-225.0","0","0","43789","","408","","","68","24","","","","","","","","","","","","","","","d",""
"","S1","","html-keyboard-response","157","289716","0.0-1.0-227.0","0","0","43789","","null","","","null","25","","","","","","","","","","","","","","","",""
"","ISI","","html-keyboard-response","158","290218","0.0-1.0-228.0","0","0","43789","","476","","","68","25","d","","","","","","","","","","","","","","",""
"","S2","","html-keyboard-response","159","290469","0.0-1.0-229.0","0","0","43789","","null","","","null","25","","NaN","","","","","","","","","","","","","",""
"","response","","html-keyboard-response","160","290491","0.0-1.0-230.0-0.0","0","0","43789","","20","","","68","25","","","1","25","training","adjacent","CB","3","2","P.jpg","Q.jpg","0","0","1","",""
"","feedback","","html-keyboard-response","161","291493","0.0-1.0-231.0-0.0","0","0","43789","","null","","","null","25","","","","","","","","","","","","","","","",""
"","ITI","","html-keyboard-response","162","292494","0.0-1.0-234.0","0","0","43789","","89","","","68","25","","","","","","","","","","","","","","","d",""
"","S1","","html-keyboard-response","163","292747","0.0-1.0-236.0","0","0","43789","","null","","","null","26","","","","","","","","","","","","","","","",""
"","ISI","","html-keyboard-response","164","293248","0.0-1.0-237.0","0","0","43789","","286","","","68","26","d","","","","","","","","","","","","","","",""
"","S2","","html-keyboard-response","165","293297","0.0-1.0-238.0","0","0","43789","","47","","","68","26","","d","1","26","training","adjacent","AB","1","2","N.jpg","Q.jpg","0","1","0","",""
"","feedback","","html-keyboard-response","166","294300","0.0-1.0-240.0-0.0","0","0","43789","","null","","","null","26","","","","","","","","","","","","","","","",""
"","time_out","","html-keyboard-response","167","296303","0.0-1.0-242.0-0.0","0","0","43789","","null","","","null","26","","","","","","","","","","","","","","","",""
"","ITI","","html-keyboard-response","168","297304","0.0-1.0-243.0","0","0","43789","","70","","","68","26","","","","","","","","","","","","","","","d",""
"","S1","","html-keyboard-response","169","297555","0.0-1.0-245.0","0","0","43789","","null","","","null","27","","","","","","","","","","","","","","","",""
"","ISI","","html-keyboard-response","170","298057","0.0-1.0-246.0","0","0","43789","","238","","","68","27","d","","","","","","","","","","","","","","",""
"","S2","","html-keyboard-response","171","298155","0.0-1.0-247.0","0","0","43789","","97","","","68","27","","d","1","27","training","adjacent","FG","6","7","O.jpg","M.jpg","0","1","0","",""
"","feedback","","html-keyboard-response","172","299158","0.0-1.0-249.0-0.0","0","0","43789","","null","","","null","27","","","","","","","","","","","","","","","",""
"","time_out","","html-keyboard-response","173","301159","0.0-1.0-251.0-0.0","0","0","43789","","null","","","null","27","","","","","","","","","","","","","","","",""
"","ITI","","html-keyboard-response","174","302162","0.0-1.0-252.0","0","0","43789","","136","","","68","27","","","","","","","","","","","","","","","d",""
"","S1","","html-keyboard-response","175","302414","0.0-1.0-254.0","0","0","43789","","null","","","null","28","","","","","","","","","","","","","","","",""
"","ISI","","html-keyboard-response","176","302916","0.0-1.0-255.0","0","0","43789","","69","","","68","28","d","","","","","","","","","","","","","","",""
"","S2","","html-keyboard-response","177","303169","0.0-1.0-256.0","0","0","43789","","null","","","null","28","","NaN","","","","","","","","","","","","","",""
"","response","","html-keyboard-response","178","303280","0.0-1.0-257.0-0.0","0","0","43789","","109","","","68","28","","","1","28","training","adjacent","AB","1","2","N.jpg","Q.jpg","0","1","0","",""
"","feedback","","html-keyboard-response","179","304284","0.0-1.0-258.0-0.0","0","0","43789","","null","","","null","28","","","","","","","","","","","","","","","",""
"","time_out","","html-keyboard-response","180","306286","0.0-1.0-260.0-0.0","0","0","43789","","null","","","null","28","","","","","","","","","","","","","","","",""
"","ITI","","html-keyboard-response","181","307289","0.0-1.0-261.0","0","0","43789","","61","","","68","28","","","","","","","","","","","","","","","d",""
"","S1","","html-keyboard-response","182","307542","0.0-1.0-263.0","0","0","43789","","null","","","null","29","","","","","","","","","","","","","","","",""
"","ISI","","html-keyboard-response","183","308042","0.0-1.0-264.0","0","0","43789","","236","","","68","29","d","","","","","","","","","","","","","","",""
"","S2","","html-keyboard-response","184","308171","0.0-1.0-265.0","0","0","43789","","125","","","68","29","","d","1","29","training","adjacent","BA","2","1","Q.jpg","N.jpg","0","0","1","",""
"","feedback","","html-keyboard-response","185","309172","0.0-1.0-267.0-0.0","0","0","43789","","null","","","null","29","","","","","","","","","","","","","","","",""
"","ITI","","html-keyboard-response","186","310173","0.0-1.0-270.0","0","0","43789","","null","","","null","29","","","","","","","","","","","","","","","NaN",""
"","S1","","html-keyboard-response","187","310425","0.0-1.0-272.0","0","0","43789","","null","","","null","30","","","","","","","","","","","","","","","",""
"","ISI","","html-keyboard-response","188","310928","0.0-1.0-273.0","0","0","43789","","406","","","75","30","k","","","","","","","","","","","","","","",""
"","S2","","html-keyboard-response","189","311180","0.0-1.0-274.0","0","0","43789","","null","","","null","30","","NaN","","","","","","","","","","","","","",""
"","response","","html-keyboard-response","190","311201","0.0-1.0-275.0-0.0","0","0","43789","","20","","","68","30","","","1","30","training","adjacent","BA","2","1","Q.jpg","N.jpg","0","0","1","",""
"","feedback","","html-keyboard-response","191","312204","0.0-1.0-276.0-0.0","0","0","43789","","null","","","null","30","","","","","","","","","","","","","","","",""
"","ITI","","html-keyboard-response","192","313205","0.0-1.0-279.0","0","0","43789","","null","","","null","30","","","","","","","","","","","","","","","NaN",""
"","S1","","html-keyboard-response","193","313459","0.0-1.0-281.0","0","0","43789","","null","","","null","31","","","","","","","","","","","","","","","",""
"","ISI","","html-keyboard-response","194","313961","0.0-1.0-282.0","0","0","43789","","54","","","75","31","k","","","","","","","","","","","","","","",""
"","S2","","html-keyboard-response","195","314213","0.0-1.0-283.0","0","0","43789","","null","","","null","31","","NaN","","","","","","","","","","","","","",""
"","response","","html-keyboard-response","196","314256","0.0-1.0-284.0-0.0","0","0","43789","","42","","","75","31","","","1","31","training","adjacent","EF","5","6","R.jpg","O.jpg","1","1","1","",""
"","feedback","","html-keyboard-response","197","315259","0.0-1.0-285.0-0.0","0","0","43789","","null","","","null","31","","","","","","","","","","","","","","","",""
"","ITI","","html-keyboard-response","198","316261","0.0-1.0-288.0","0","0","43789","","305","","","68","31","","","","","","","","","","","","","","","d",""
"","S1","","html-keyboard-response","199","316546","0.0-1.0-290.0","0","0","43789","","null","","","null","32","","","","","","","","","","","","","","","",""
"","ISI","","html-keyboard-response","200","317051","0.0-1.0-291.0","0","0","43789","","277","","","68","32","d","","","","","","","","","","","","","","",""
"","S2","","html-keyboard-response","201","317213","0.0-1.0-292.0","0","0","43789","","159","","","75","32","","k","1","32","training","adjacent","CB","3","2","P.jpg","Q.jpg","1","0","0","",""
"","feedback","","html-keyboard-response","202","318215","0.0-1.0-294.0-0.0","0","0","43789","","null","","","null","32","","","","","","","","","","","","","","","",""
"","time_out","","html-keyboard-response","203","320216","0.0-1.0-296.0-0.0","0","0","43789","","null","","","null","32","","","","","","","","","","","","","","","",""
"","ITI","","html-keyboard-response","204","321217","0.0-1.0-297.0","0","0","43789","","47","","","75","32","","","","","","","","","","","","","","","k",""
"","S1","","html-keyboard-response","205","321469","0.0-1.0-299.0","0","0","43789","","null","","","null","33","","","","","","","","","","","","","","","",""
"","ISI","","html-keyboard-response","206","321970","0.0-1.0-300.0","0","0","43789","","15","","","68","33","d","","","","","","","","","","","","","","",""
"","S2","","html-keyboard-response","207","322221","0.0-1.0-301.0","0","0","43789","","null","","","null","33","","NaN","","","","","","","","","","","","","",""
"","response","","html-keyboard-response","208","322271","0.0-1.0-302.0-0.0","0","0","43789","","48","","","68","33","","","1","33","training","adjacent","AB","1","2","N.jpg","Q.jpg","0","1","0","",""
"","feedback","","html-keyboard-response","209","323274","0.0-1.0-303.0-0.0","0","0","43789","","null","","","null","33","","","","","","","","","","","","","","","",""
"","time_out","","html-keyboard-response","210","325276","0.0-1.0-305.0-0.0","0","0","43789","","null","","","null","33","","","","","","","","","","","","","","","",""
"","ITI","","html-keyboard-response","211","326277","0.0-1.0-306.0","0","0","43789","","298","","","75","33","","","","","","","","","","","","","","","k",""
"","S1","","html-keyboard-response","212","326530","0.0-1.0-308.0","0","0","43789","","null","","","null","34","","","","","","","","","","","","","","","",""
"","ISI","","html-keyboard-response","213","327032","0.0-1.0-309.0","0","0","43789","","280","","","75","34","k","","","","","","","","","","","","","","",""
"","S2","","html-keyboard-response","214","327232","0.0-1.0-310.0","0","0","43789","","198","","","75","34","","k","1","34","training","adjacent","DC","4","3","L.jpg","P.jpg","1","0","0","",""
"","feedback","","html-keyboard-response","215","328234","0.0-1.0-312.0-0.0","0","0","43789","","null","","","null","34","","","","","","","","","","","","","","","",""
"","time_out","","html-keyboard-response","216","330235","0.0-1.0-314.0-0.0","0","0","43789","","null","","","null","34","","","","","","","","","","","","","","","",""
"","ITI","","html-keyboard-response","217","331240","0.0-1.0-315.0","0","0","43789","","64","","","75","34","","","","","","","","","","","","","","","k",""
"","S1","","html-keyboard-response","218","331493","0.0-1.0-317.0","0","0","43789","","null","","","null","35","","","","","","","","","","","","","","","",""
"","ISI","","html-keyboard-response","219","331996","0.0-1.0-318.0","0","0","43789","","110","","","68","35","d","","","","","","","","","","","","","","",""
"","S2","","html-keyboard-response","220","332029","0.0-1.0-319.0","0","0","43789","","31","","","75","35","","k","1","35","training","adjacent","DC","4","3","L.jpg","P.jpg","1","0","0","",""
"","feedback","","html-keyboard-response","221","333031","0.0-1.0-321.0-0.0","0","0","43789","","null","","","null","35","","","","","","","","","","","","","","","",""
"","time_out","","html-keyboard-response","222","335033","0.0-1.0-323.0-0.0","0","0","43789","","null","","","null","35","","","","","","","","","","","","","","","",""
"","ITI","","html-keyboard-response","223","336035","0.0-1.0-324.0","0","0","43789","","258","","","68","35","","","","","","","","","","","","","","","d",""
"","S1","","html-keyboard-response","224","336287","0.0-1.0-326.0","0","0","43789","","null","","","null","36","","","","","","","","","","","","","","","",""
"","ISI","","html-keyboard-response","225","336790","0.0-1.0-327.0","0","0","43789","","178","","","75","36","k","","","","","","","","","","","","","","",""
"","S2","","html-keyboard-response","226","336863","0.0-1.0-328.0","0","0","43789","","72","","","75","36","","k","1","36","training","adjacent","GF","7","6","M.jpg","O.jpg","1","0","0","",""
"","feedback","","html-keyboard-response","227","337866","0.0-1.0-330.0-0.0","0","0","43789","","null","","","null","36","","","","","","","","","","","","","","","",""
"","time_out","","html-keyboard-response","228","339879","0.0-1.0-332.0-0.0","0","0","43789","","null","","","null","36","","","","","","","","","","","","","","","",""
"","ITI","","html-keyboard-response","229","340881","0.0-1.0-333.0","0","0","43789","","158","","","75","36","","","","","","","","","","","","","","","k",""
"","S1","","html-keyboard-response","230","341135","0.0-1.0-335.0","0","0","43789","","null","","","null","37","","","","","","","","","","","","","","","",""
"","ISI","","html-keyboard-response","231","341637","0.0-1.0-336.0","0","0","43789","","9","","","75","37","k","","","","","","","","","","","","","","",""
"","S2","","html-keyboard-response","232","341801","0.0-1.0-337.0","0","0","43789","","162","","","75","37","","k","1","37","training","adjacent","DE","4","5","L.jpg","R.jpg","1","1","1","",""
"","feedback","","html-keyboard-response","233","342803","0.0-1.0-339.0-0.0","0","0","43789","","null","","","null","37","","","","","","","","","","","","","","","",""
"","ITI","","html-keyboard-response","234","343805","0.0-1.0-342.0","0","0","43789","","52","","","68","37","","","","","","","","","","","","","","","d",""
"","S1","","html-keyboard-response","235","344057","0.0-1.0-344.0","0","0","43789","","null","","","null","38","","","","","","","","","","","","","","","",""
"","ISI","","html-keyboard-response","236","344558","0.0-1.0-345.0","0","0","43789","","null","","","null","38","NaN","","","","","","","","","","","","","","",""
"","S2","","html-keyboard-response","237","344811","0.0-1.0-346.0","0","0","43789","","null","","","null","38","","NaN","","","","","","","","","","","","","",""
"","response","","html-keyboard-response","238","346187","0.0-1.0-347.0-0.0","0","0","43789","","1373","","","75","38","","","1","38","training","adjacent","BA","2","1","Q.jpg","N.jpg","1","0","0","",""
"","feedback","","html-keyboard-response","239","347189","0.0-1.0-348.0-0.0","0","0","43789","","null","","","null","38","","","","","","","","","","","","","","","",""
"","time_out","","html-keyboard-response","240","349191","0.0-1.0-350.0-0.0","0","0","43789","","null","","","null","38","","","","","","","","","","","","","","","",""
"","ITI","","html-keyboard-response","241","350193","0.0-1.0-351.0","0","0","43789","","83","","","68","38","","","","","","","","","","","","","","","d",""
"","S1","","html-keyboard-response","242","350445","0.0-1.0-353.0","0","0","43789","","null","","","null","39","","","","","","","","","","","","","","","",""
"","ISI","","html-keyboard-response","243","350948","0.0-1.0-354.0","0","0","43789","","47","","","75","39","k","","","","","","","","","","","","","","",""
"","S2","","html-keyboard-response","244","350966","0.0-1.0-355.0","0","0","43789","","16","","","68","39","","d","1","39","training","adjacent","BC","2","3","Q.jpg","P.jpg","0","1","0","",""
"","feedback","","html-keyboard-response","245","351967","0.0-1.0-357.0-0.0","0","0","43789","","null","","","null","39","","","","","","","","","","","","","","","",""
"","time_out","","html-keyboard-response","246","353970","0.0-1.0-359.0-0.0","0","0","43789","","null","","","null","39","","","","","","","","","","","","","","","",""
"","ITI","","html-keyboard-response","247","354972","0.0-1.0-360.0","0","0","43789","","214","","","75","39","","","","","","","","","","","","","","","k",""
"","S1","","html-keyboard-response","248","355225","0.0-1.0-362.0","0","0","43789","","null","","","null","40","","","","","","","","","","","","","","","",""
"","ISI","","html-keyboard-response","249","355727","0.0-1.0-363.0","0","0","43789","","120","","","68","40","d","","","","","","","","","","","","","","",""
"","S2","","html-keyboard-response","250","355786","0.0-1.0-364.0","0","0","43789","","57","","","75","40","","k","1","40","training","adjacent","FG","6","7","O.jpg","M.jpg","1","1","1","",""
"","feedback","","html-keyboard-response","251","356789","0.0-1.0-366.0-0.0","0","0","43789","","null","","","null","40","","","","","","","","","","","","","","","",""
"","ITI","","html-keyboard-response","252","357791","0.0-1.0-369.0","0","0","43789","","4","","","75","40","","","","","","","","","","","","","","","k",""
"","S1","","html-keyboard-response","253","358044","0.0-1.0-371.0","0","0","43789","","null","","","null","41","","","","","","","","","","","","","","","",""
"","ISI","","html-keyboard-response","254","358545","0.0-1.0-372.0","0","0","43789","","111","","","68","41","d","","","","","","","","","","","","","","",""
"","S2","","html-keyboard-response","255","358647","0.0-1.0-373.0","0","0","43789","","100","","","75","41","","k","1","41","training","adjacent","FE","6","5","O.jpg","R.jpg","1","0","0","",""
"","feedback","","html-keyboard-response","256","359650","0.0-1.0-375.0-0.0","0","0","43789","","null","","","null","41","","","","","","","","","","","","","","","",""
"","time_out","","html-keyboard-response","257","361652","0.0-1.0-377.0-0.0","0","0","43789","","null","","","null","41","","","","","","","","","","","","","","","",""
"","ITI","","html-keyboard-response","258","362653","0.0-1.0-378.0","0","0","43789","","53","","","75","41","","","","","","","","","","","","","","","k",""
"","S1","","html-keyboard-response","259","362908","0.0-1.0-380.0","0","0","43789","","null","","","null","42","","","","","","","","","","","","","","","",""
"","ISI","","html-keyboard-response","260","363410","0.0-1.0-381.0","0","0","43789","","244","","","75","42","k","","","","","","","","","","","","","","",""
"","S2","","html-keyboard-response","261","363528","0.0-1.0-382.0","0","0","43789","","116","","","75","42","","k","1","42","training","adjacent","DC","4","3","L.jpg","P.jpg","1","0","0","",""
"","feedback","","html-keyboard-response","262","364531","0.0-1.0-384.0-0.0","0","0","43789","","null","","","null","42","","","","","","","","","","","","","","","",""
"","time_out","","html-keyboard-response","263","366533","0.0-1.0-386.0-0.0","0","0","43789","","null","","","null","42","","","","","","","","","","","","","","","",""
"","ITI","","html-keyboard-response","264","367536","0.0-1.0-387.0","0","0","43789","","178","","","75","42","","","","","","","","","","","","","","","k",""
"","S1","","html-keyboard-response","265","367787","0.0-1.0-389.0","0","0","43789","","null","","","null","43","","","","","","","","","","","","","","","",""
"","ISI","","html-keyboard-response","266","368289","0.0-1.0-390.0","0","0","43789","","187","","","68","43","d","","","","","","","","","","","","","","",""
"","S2","","html-keyboard-response","267","368504","0.0-1.0-391.0","0","0","43789","","213","","","68","43","","d","1","43","training","adjacent","FG","6","7","O.jpg","M.jpg","0","1","0","",""
"","feedback","","html-keyboard-response","268","369508","0.0-1.0-393.0-0.0","0","0","43789","","null","","","null","43","","","","","","","","","","","","","","","",""
"","time_out","","html-keyboard-response","269","371510","0.0-1.0-395.0-0.0","0","0","43789","","null","","","null","43","","","","","","","","","","","","","","","",""
"","ITI","","html-keyboard-response","270","372512","0.0-1.0-396.0","0","0","43789","","61","","","68","43","","","","","","","","","","","","","","","d",""
"","S1","","html-keyboard-response","271","372763","0.0-1.0-398.0","0","0","43789","","null","","","null","44","","","","","","","","","","","","","","","",""
"","ISI","","html-keyboard-response","272","373266","0.0-1.0-399.0","0","0","43789","","180","","","68","44","d","","","","","","","","","","","","","","",""
"","S2","","html-keyboard-response","273","373450","0.0-1.0-400.0","0","0","43789","","183","","","68","44","","d","1","44","training","adjacent","FE","6","5","O.jpg","R.jpg","0","0","1","",""
"","feedback","","html-keyboard-response","274","374452","0.0-1.0-402.0-0.0","0","0","43789","","null","","","null","44","","","","","","","","","","","","","","","",""
"","ITI","","html-keyboard-response","275","375455","0.0-1.0-405.0","0","0","43789","","9","","","68","44","","","","","","","","","","","","","","","d",""
"","S1","","html-keyboard-response","276","375708","0.0-1.0-407.0","0","0","43789","","null","","","null","45","","","","","","","","","","","","","","","",""
"","ISI","","html-keyboard-response","277","376210","0.0-1.0-408.0","0","0","43789","","71","","","75","45","k","","","","","","","","","","","","","","",""
"","S2","","html-keyboard-response","278","376232","0.0-1.0-409.0","0","0","43789","","21","","","75","45","","k","1","45","training","adjacent","CB","3","2","P.jpg","Q.jpg","1","0","0","",""
"","feedback","","html-keyboard-response","279","377235","0.0-1.0-411.0-0.0","0","0","43789","","null","","","null","45","","","","","","","","","","","","","","","",""
"","time_out","","html-keyboard-response","280","379236","0.0-1.0-413.0-0.0","0","0","43789","","null","","","null","45","","","","","","","","","","","","","","","",""
"","ITI","","html-keyboard-response","281","380248","0.0-1.0-414.0","0","0","43789","","62","","","75","45","","","","","","","","","","","","","","","k",""
"","S1","","html-keyboard-response","282","380501","0.0-1.0-416.0","0","0","43789","","null","","","null","46","","","","","","","","","","","","","","","",""
"","ISI","","html-keyboard-response","283","381005","0.0-1.0-417.0","0","0","43789","","21","","","68","46","d","","","","","","","","","","","","","","",""
"","S2","","html-keyboard-response","284","381219","0.0-1.0-418.0","0","0","43789","","212","","","75","46","","k","1","46","training","adjacent","CB","3","2","P.jpg","Q.jpg","1","0","0","",""
"","feedback","","html-keyboard-response","285","382223","0.0-1.0-420.0-0.0","0","0","43789","","null","","","null","46","","","","","","","","","","","","","","","",""
"","time_out","","html-keyboard-response","286","384225","0.0-1.0-422.0-0.0","0","0","43789","","null","","","null","46","","","","","","","","","","","","","","","",""
"","ITI","","html-keyboard-response","287","385228","0.0-1.0-423.0","0","0","43789","","106","","","68","46","","","","","","","","","","","","","","","d",""
"","S1","","html-keyboard-response","288","385480","0.0-1.0-425.0","0","0","43789","","null","","","null","47","","","","","","","","","","","","","","","",""
"","ISI","","html-keyboard-response","289","385982","0.0-1.0-426.0","0","0","43789","","251","","","68","47","d","","","","","","","","","","","","","","",""
"","S2","","html-keyboard-response","290","386186","0.0-1.0-427.0","0","0","43789","","201","","","75","47","","k","1","47","training","adjacent","EF","5","6","R.jpg","O.jpg","1","1","1","",""
"","feedback","","html-keyboard-response","291","387189","0.0-1.0-429.0-0.0","0","0","43789","","null","","","null","47","","","","","","","","","","","","","","","",""
"","ITI","","html-keyboard-response","292","388192","0.0-1.0-432.0","0","0","43789","","177","","","75","47","","","","","","","","","","","","","","","k",""
"","block_over","","html-keyboard-response","293","405669","0.0-1.0-433.0-0.0","0","0","43789","","17474","","","32","47","","","","","","","","","","","","","","","",""
"","S1","","html-keyboard-response","294","405922","0.0-1.0-434.0","0","0","43789","","null","","","null","48","","","","","","","","","","","","","","","",""
"","ISI","","html-keyboard-response","295","406424","0.0-1.0-435.0","0","0","43789","","null","","","null","48","NaN","","","","","","","","","","","","","","",""
"","S2","","html-keyboard-response","296","406666","0.0-1.0-436.0","0","0","43789","","240","","","68","48","","d","2","48","training","adjacent","EF","5","6","R.jpg","O.jpg","0","1","0","",""
"","feedback","","html-keyboard-response","297","407668","0.0-1.0-438.0-0.0","0","0","43789","","null","","","null","48","","","","","","","","","","","","","","","",""
"","time_out","","html-keyboard-response","298","409671","0.0-1.0-440.0-0.0","0","0","43789","","null","","","null","48","","","","","","","","","","","","","","","",""
"","ITI","","html-keyboard-response","299","410673","0.0-1.0-441.0","0","0","43789","","108","","","75","48","","","","","","","","","","","","","","","k",""
"","S1","","html-keyboard-response","300","410924","0.0-1.0-443.0","0","0","43789","","null","","","null","49","","","","","","","","","","","","","","","",""
"","ISI","","html-keyboard-response","301","411425","0.0-1.0-444.0","0","0","43789","","282","","","68","49","d","","","","","","","","","","","","","","",""
"","S2","","html-keyboard-response","302","411541","0.0-1.0-445.0","0","0","43789","","114","","","75","49","","k","2","49","training","adjacent","GF","7","6","M.jpg","O.jpg","1","0","0","",""
"","feedback","","html-keyboard-response","303","412543","0.0-1.0-447.0-0.0","0","0","43789","","null","","","null","49","","","","","","","","","","","","","","","",""
"","time_out","","html-keyboard-response","304","414570","0.0-1.0-449.0-0.0","0","0","43789","","null","","","null","49","","","","","","","","","","","","","","","",""
"","ITI","","html-keyboard-response","305","415572","0.0-1.0-450.0","0","0","43789","","92","","","68","49","","","","","","","","","","","","","","","d",""
"","S1","","html-keyboard-response","306","415825","0.0-1.0-452.0","0","0","43789","","null","","","null","50","","","","","","","","","","","","","","","",""
"","ISI","","html-keyboard-response","307","416328","0.0-1.0-453.0","0","0","43789","","276","","","68","50","d","","","","","","","","","","","","","","",""
"","S2","","html-keyboard-response","308","416369","0.0-1.0-454.0","0","0","43789","","40","","","68","50","","d","2","50","training","adjacent","AB","1","2","N.jpg","Q.jpg","0","1","0","",""
"","feedback","","html-keyboard-response","309","417371","0.0-1.0-456.0-0.0","0","0","43789","","null","","","null","50","","","","","","","","","","","","","","","",""
"","time_out","","html-keyboard-response","310","419374","0.0-1.0-458.0-0.0","0","0","43789","","null","","","null","50","","","","","","","","","","","","","","","",""
"","ITI","","html-keyboard-response","311","420376","0.0-1.0-459.0","0","0","43789","","364","","","32","50","","","","","","","","","","","","","","","space",""
"","S1","","html-keyboard-response","312","420629","0.0-1.0-461.0","0","0","43789","","null","","","null","51","","","","","","","","","","","","","","","",""
"","ISI","","html-keyboard-response","313","421132","0.0-1.0-462.0","0","0","43789","","48","","","32","51","space","","","","","","","","","","","","","","",""
"","S2","","html-keyboard-response","314","421334","0.0-1.0-463.0","0","0","43789","","199","","","75","51","","k","2","51","training","adjacent","BA","2","1","Q.jpg","N.jpg","1","0","0","",""
"","feedback","","html-keyboard-response","315","422336","0.0-1.0-465.0-0.0","0","0","43789","","null","","","null","51","","","","","","","","","","","","","","","",""
"","time_out","","html-keyboard-response","316","424338","0.0-1.0-467.0-0.0","0","0","43789","","null","","","null","51","","","","","","","","","","","","","","","",""
"","ITI","","html-keyboard-response","317","425340","0.0-1.0-468.0","0","0","43789","","145","","","68","51","","","","","","","","","","","","","","","d",""
"","S1","","html-keyboard-response","318","425593","0.0-1.0-470.0","0","0","43789","","null","","","null","52","","","","","","","","","","","","","","","",""
"","ISI","","html-keyboard-response","319","426096","0.0-1.0-471.0","0","0","43789","","157","","","68","52","d","","","","","","","","","","","","","","",""
"","S2","","html-keyboard-response","320","426186","0.0-1.0-472.0","0","0","43789","","88","","","68","52","","d","2","52","training","adjacent","AB","1","2","N.jpg","Q.jpg","0","1","0","",""
"","feedback","","html-keyboard-response","321","427188","0.0-1.0-474.0-0.0","0","0","43789","","null","","","null","52","","","","","","","","","","","","","","","",""
"","time_out","","html-keyboard-response","322","429192","0.0-1.0-476.0-0.0","0","0","43789","","null","","","null","52","","","","","","","","","","","","","","","",""
"","ITI","","html-keyboard-response","323","430193","0.0-1.0-477.0","0","0","43789","","220","","","68","52","","","","","","","","","","","","","","","d",""
"","S1","","html-keyboard-response","324","430492","0.0-1.0-479.0","0","0","43789","","null","","","null","53","","","","","","","","","","","","","","","",""
"","ISI","","html-keyboard-response","325","430994","0.0-1.0-480.0","0","0","43789","","156","","","68","53","d","","","","","","","","","","","","","","",""
"","S2","","html-keyboard-response","326","431016","0.0-1.0-481.0","0","0","43789","","19","","","75","53","","k","2","53","training","adjacent","AB","1","2","N.jpg","Q.jpg","1","1","1","",""
"","feedback","","html-keyboard-response","327","432018","0.0-1.0-483.0-0.0","0","0","43789","","null","","","null","53","","","","","","","","","","","","","","","",""
"","ITI","","html-keyboard-response","328","433021","0.0-1.0-486.0","0","0","43789","","8","","","32","53","","","","","","","","","","","","","","","space",""
"","S1","","html-keyboard-response","329","433274","0.0-1.0-488.0","0","0","43789","","null","","","null","54","","","","","","","","","","","","","","","",""
"","ISI","","html-keyboard-response","330","433775","0.0-1.0-489.0","0","0","43789","","39","","","68","54","d","","","","","","","","","","","","","","",""
"","S2","","html-keyboard-response","331","434028","0.0-1.0-490.0","0","0","43789","","null","","","null","54","","NaN","","","","","","","","","","","","","",""
"","response","","html-keyboard-response","332","434062","0.0-1.0-491.0-0.0","0","0","43789","","32","","","75","54","","","2","54","training","adjacent","FE","6","5","O.jpg","R.jpg","1","0","0","",""
"","feedback","","html-keyboard-response","333","435070","0.0-1.0-492.0-0.0","0","0","43789","","null","","","null","54","","","","","","","","","","","","","","","",""
"","time_out","","html-keyboard-response","334","437072","0.0-1.0-494.0-0.0","0","0","43789","","null","","","null","54","","","","","","","","","","","","","","","",""
"","ITI","","html-keyboard-response","335","438074","0.0-1.0-495.0","0","0","43789","","255","","","75","54","","","","","","","","","","","","","","","k",""
"","S1","","html-keyboard-response","336","438326","0.0-1.0-497.0","0","0","43789","","null","","","null","55","","","","","","","","","","","","","","","",""
"","ISI","","html-keyboard-response","337","438827","0.0-1.0-498.0","0","0","43789","","12","","","75","55","k","","","","","","","","","","","","","","",""
"","S2","","html-keyboard-response","338","439006","0.0-1.0-499.0","0","0","43789","","176","","","75","55","","k","2","55","training","adjacent","DC","4","3","L.jpg","P.jpg","1","0","0","",""
"","feedback","","html-keyboard-response","339","440007","0.0-1.0-501.0-0.0","0","0","43789","","null","","","null","55","","","","","","","","","","","","","","","",""
"","time_out","","html-keyboard-response","340","442010","0.0-1.0-503.0-0.0","0","0","43789","","null","","","null","55","","","","","","","","","","","","","","","",""
"","ITI","","html-keyboard-response","341","443012","0.0-1.0-504.0","0","0","43789","","132","","","68","55","","","","","","","","","","","","","","","d",""
"","S1","","html-keyboard-response","342","443265","0.0-1.0-506.0","0","0","43789","","null","","","null","56","","","","","","","","","","","","","","","",""
"","ISI","","html-keyboard-response","343","443768","0.0-1.0-507.0","0","0","43789","","71","","","32","56","space","","","","","","","","","","","","","","",""
"","S2","","html-keyboard-response","344","443910","0.0-1.0-508.0","0","0","43789","","140","","","68","56","","d","2","56","training","adjacent","FE","6","5","O.jpg","R.jpg","0","0","1","",""
"","feedback","","html-keyboard-response","345","444913","0.0-1.0-510.0-0.0","0","0","43789","","null","","","null","56","","","","","","","","","","","","","","","",""
"","ITI","","html-keyboard-response","346","445914","0.0-1.0-513.0","0","0","43789","","106","","","68","56","","","","","","","","","","","","","","","d",""
"","S1","","html-keyboard-response","347","446166","0.0-1.0-515.0","0","0","43789","","null","","","null","57","","","","","","","","","","","","","","","",""
"","ISI","","html-keyboard-response","348","446681","0.0-1.0-516.0","0","0","43789","","51","","","68","57","d","","","","","","","","","","","","","","",""
"","S2","","html-keyboard-response","349","446761","0.0-1.0-517.0","0","0","43789","","78","","","75","57","","k","2","57","training","adjacent","BC","2","3","Q.jpg","P.jpg","1","1","1","",""
"","feedback","","html-keyboard-response","350","447763","0.0-1.0-519.0-0.0","0","0","43789","","null","","","null","57","","","","","","","","","","","","","","","",""
"","ITI","","html-keyboard-response","351","448767","0.0-1.0-522.0","0","0","43789","","13","","","68","57","","","","","","","","","","","","","","","d",""
"","S1","","html-keyboard-response","352","449020","0.0-1.0-524.0","0","0","43789","","null","","","null","58","","","","","","","","","","","","","","","",""
"","ISI","","html-keyboard-response","353","449522","0.0-1.0-525.0","0","0","43789","","16","","","68","58","d","","","","","","","","","","","","","","",""
"","S2","","html-keyboard-response","354","449773","0.0-1.0-526.0","0","0","43789","","null","","","null","58","","NaN","","","","","","","","","","","","","",""
"","response","","html-keyboard-response","355","449880","0.0-1.0-527.0-0.0","0","0","43789","","106","","","68","58","","","2","58","training","adjacent","CB","3","2","P.jpg","Q.jpg","0","0","1","",""
"","feedback","","html-keyboard-response","356","450883","0.0-1.0-528.0-0.0","0","0","43789","","null","","","null","58","","","","","","","","","","","","","","","",""
"","ITI","","html-keyboard-response","357","451890","0.0-1.0-531.0","0","0","43789","","162","","","68","58","","","","","","","","","","","","","","","d",""
"","S1","","html-keyboard-response","358","452143","0.0-1.0-533.0","0","0","43789","","null","","","null","59","","","","","","","","","","","","","","","",""
"","ISI","","html-keyboard-response","359","452647","0.0-1.0-534.0","0","0","43789","","null","","","null","59","NaN","","","","","","","","","","","","","","",""
"","S2","","html-keyboard-response","360","452899","0.0-1.0-535.0","0","0","43789","","null","","","null","59","","NaN","","","","","","","","","","","","","",""
"","response","","html-keyboard-response","361","453142","0.0-1.0-536.0-0.0","0","0","43789","","242","","","68","59","","","2","59","training","adjacent","CD","3","4","P.jpg","L.jpg","0","1","0","",""
"","feedback","","html-keyboard-response","362","454145","0.0-1.0-537.0-0.0","0","0","43789","","null","","","null","59","","","","","","","","","","","","","","","",""
"","time_out","","html-keyboard-response","363","456146","0.0-1.0-539.0-0.0","0","0","43789","","null","","","null","59","","","","","","","","","","","","","","","",""
"","ITI","","html-keyboard-response","364","457148","0.0-1.0-540.0","0","0","43789","","44","","","75","59","","","","","","","","","","","","","","","k",""
"","S1","","html-keyboard-response","365","457399","0.0-1.0-542.0","0","0","43789","","null","","","null","60","","","","","","","","","","","","","","","",""
"","ISI","","html-keyboard-response","366","457911","0.0-1.0-543.0","0","0","43789","","94","","","68","60","d","","","","","","","","","","","","","","",""
"","S2","","html-keyboard-response","367","458014","0.0-1.0-544.0","0","0","43789","","100","","","75","60","","k","2","60","training","adjacent","DC","4","3","L.jpg","P.jpg","1","0","0","",""
"","feedback","","html-keyboard-response","368","459016","0.0-1.0-546.0-0.0","0","0","43789","","null","","","null","60","","","","","","","","","","","","","","","",""
"","time_out","","html-keyboard-response","369","461019","0.0-1.0-548.0-0.0","0","0","43789","","null","","","null","60","","","","","","","","","","","","","","","",""
"","ITI","","html-keyboard-response","370","462020","0.0-1.0-549.0","0","0","43789","","128","","","75","60","","","","","","","","","","","","","","","k",""
"","S1","","html-keyboard-response","371","462270","0.0-1.0-551.0","0","0","43789","","null","","","null","61","","","","","","","","","","","","","","","",""
"","ISI","","html-keyboard-response","372","462772","0.0-1.0-552.0","0","0","43789","","51","","","68","61","d","","","","","","","","","","","","","","",""
"","S2","","html-keyboard-response","373","463031","0.0-1.0-553.0","0","0","43789","","null","","","null","61","","NaN","","","","","","","","","","","","","",""
"","response","","html-keyboard-response","374","463044","0.0-1.0-554.0-0.0","0","0","43789","","9","","","75","61","","","2","61","training","adjacent","DE","4","5","L.jpg","R.jpg","1","1","1","",""
"","feedback","","html-keyboard-response","375","464046","0.0-1.0-555.0-0.0","0","0","43789","","null","","","null","61","","","","","","","","","","","","","","","",""
"","ITI","","html-keyboard-response","376","465049","0.0-1.0-558.0","0","0","43789","","144","","","75","61","","","","","","","","","","","","","","","k",""
"","S1","","html-keyboard-response","377","465300","0.0-1.0-560.0","0","0","43789","","null","","","null","62","","","","","","","","","","","","","","","",""
"","ISI","","html-keyboard-response","378","465803","0.0-1.0-561.0","0","0","43789","","47","","","75","62","k","","","","","","","","","","","","","","",""
"","S2","","html-keyboard-response","379","465905","0.0-1.0-562.0","0","0","43789","","100","","","68","62","","d","2","62","training","adjacent","FE","6","5","O.jpg","R.jpg","0","0","1","",""
"","feedback","","html-keyboard-response","380","466907","0.0-1.0-564.0-0.0","0","0","43789","","null","","","null","62","","","","","","","","","","","","","","","",""
"","ITI","","html-keyboard-response","381","467910","0.0-1.0-567.0","0","0","43789","","72","","","75","62","","","","","","","","","","","","","","","k",""
"","S1","","html-keyboard-response","382","468161","0.0-1.0-569.0","0","0","43789","","null","","","null","63","","","","","","","","","","","","","","","",""
"","ISI","","html-keyboard-response","383","468662","0.0-1.0-570.0","0","0","43789","","297","","","68","63","d","","","","","","","","","","","","","","",""
"","S2","","html-keyboard-response","384","468702","0.0-1.0-571.0","0","0","43789","","38","","","68","63","","d","2","63","training","adjacent","ED","5","4","R.jpg","L.jpg","0","0","1","",""
"","feedback","","html-keyboard-response","385","469704","0.0-1.0-573.0-0.0","0","0","43789","","null","","","null","63","","","","","","","","","","","","","","","",""
"","ITI","","html-keyboard-response","386","470705","0.0-1.0-576.0","0","0","43789","","107","","","68","63","","","","","","","","","","","","","","","d",""
"","S1","","html-keyboard-response","387","470957","0.0-1.0-578.0","0","0","43789","","null","","","null","64","","","","","","","","","","","","","","","",""
"","ISI","","html-keyboard-response","388","471458","0.0-1.0-579.0","0","0","43789","","218","","","68","64","d","","","","","","","","","","","","","","",""
"","S2","","html-keyboard-response","389","471473","0.0-1.0-580.0","0","0","43789","","12","","","68","64","","d","2","64","training","adjacent","DE","4","5","L.jpg","R.jpg","0","1","0","",""
"","feedback","","html-keyboard-response","390","472475","0.0-1.0-582.0-0.0","0","0","43789","","null","","","null","64","","","","","","","","","","","","","","","",""
"","time_out","","html-keyboard-response","391","474478","0.0-1.0-584.0-0.0","0","0","43789","","null","","","null","64","","","","","","","","","","","","","","","",""
"","ITI","","html-keyboard-response","392","475480","0.0-1.0-585.0","0","0","43789","","12","","","68","64","","","","","","","","","","","","","","","d",""
"","S1","","html-keyboard-response","393","475733","0.0-1.0-587.0","0","0","43789","","null","","","null","65","","","","","","","","","","","","","","","",""
"","ISI","","html-keyboard-response","394","476234","0.0-1.0-588.0","0","0","43789","","222","","","68","65","d","","","","","","","","","","","","","","",""
"","S2","","html-keyboard-response","395","476343","0.0-1.0-589.0","0","0","43789","","107","","","68","65","","d","2","65","training","adjacent","BC","2","3","Q.jpg","P.jpg","0","1","0","",""
"","feedback","","html-keyboard-response","396","477345","0.0-1.0-591.0-0.0","0","0","43789","","null","","","null","65","","","","","","","","","","","","","","","",""
"","time_out","","html-keyboard-response","397","479348","0.0-1.0-593.0-0.0","0","0","43789","","null","","","null","65","","","","","","","","","","","","","","","",""
"","ITI","","html-keyboard-response","398","480350","0.0-1.0-594.0","0","0","43789","","193","","","68","65","","","","","","","","","","","","","","","d",""
"","S1","","html-keyboard-response","399","480609","0.0-1.0-596.0","0","0","43789","","null","","","null","66","","","","","","","","","","","","","","","",""
"","ISI","","html-keyboard-response","400","481111","0.0-1.0-597.0","0","0","43789","","null","","","null","66","NaN","","","","","","","","","","","","","","",""
"","S2","","html-keyboard-response","401","481117","0.0-1.0-598.0","0","0","43789","","4","","","68","66","","d","2","66","training","adjacent","FG","6","7","O.jpg","M.jpg","0","1","0","",""
"","feedback","","html-keyboard-response","402","482119","0.0-1.0-600.0-0.0","0","0","43789","","null","","","null","66","","","","","","","","","","","","","","","",""
"","time_out","","html-keyboard-response","403","484121","0.0-1.0-602.0-0.0","0","0","43789","","null","","","null","66","","","","","","","","","","","","","","","",""
"","ITI","","html-keyboard-response","404","485123","0.0-1.0-603.0","0","0","43789","","216","","","68","66","","","","","","","","","","","","","","","d",""
"","S1","","html-keyboard-response","405","485376","0.0-1.0-605.0","0","0","43789","","null","","","null","67","","","","","","","","","","","","","","","",""
"","ISI","","html-keyboard-response","406","485878","0.0-1.0-606.0","0","0","43789","","67","","","68","67","d","","","","","","","","","","","","","","",""
"","S2","","html-keyboard-response","407","485948","0.0-1.0-607.0","0","0","43789","","67","","","68","67","","d","2","67","training","adjacent","ED","5","4","R.jpg","L.jpg","0","0","1","",""
"","feedback","","html-keyboard-response","408","486950","0.0-1.0-609.0-0.0","0","0","43789","","null","","","null","67","","","","","","","","","","","","","","","",""
"","ITI","","html-keyboard-response","409","487954","0.0-1.0-612.0","0","0","43789","","13","","","68","67","","","","","","","","","","","","","","","d",""
"","S1","","html-keyboard-response","410","488205","0.0-1.0-614.0","0","0","43789","","null","","","null","68","","","","","","","","","","","","","","","",""
"","ISI","","html-keyboard-response","411","488707","0.0-1.0-615.0","0","0","43789","","37","","","68","68","d","","","","","","","","","","","","","","",""
"","S2","","html-keyboard-response","412","488960","0.0-1.0-616.0","0","0","43789","","null","","","null","68","","NaN","","","","","","","","","","","","","",""
"","response","","html-keyboard-response","413","489249","0.0-1.0-617.0-0.0","0","0","43789","","288","","","68","68","","","2","68","training","adjacent","GF","7","6","M.jpg","O.jpg","0","0","1","",""
"","feedback","","html-keyboard-response","414","490251","0.0-1.0-618.0-0.0","0","0","43789","","null","","","null","68","","","","","","","","","","","","","","","",""
"","ITI","","html-keyboard-response","415","491253","0.0-1.0-621.0","0","0","43789","","174","","","68","68","","","","","","","","","","","","","","","d",""
"","S1","","html-keyboard-response","416","491505","0.0-1.0-623.0","0","0","43789","","null","","","null","69","","","","","","","","","","","","","","","",""
"","ISI","","html-keyboard-response","417","492006","0.0-1.0-624.0","0","0","43789","","null","","","null","69","NaN","","","","","","","","","","","","","","",""
"","S2","","html-keyboard-response","418","492258","0.0-1.0-625.0","0","0","43789","","null","","","null","69","","NaN","","","","","","","","","","","","","",""
"","response","","html-keyboard-response","419","493355","0.0-1.0-626.0-0.0","0","0","43789","","1095","","","68","69","","","2","69","training","adjacent","EF","5","6","R.jpg","O.jpg","0","1","0","",""
"","feedback","","html-keyboard-response","420","494358","0.0-1.0-627.0-0.0","0","0","43789","","null","","","null","69","","","","","","","","","","","","","","","",""
"","time_out","","html-keyboard-response","421","496360","0.0-1.0-629.0-0.0","0","0","43789","","null","","","null","69","","","","","","","","","","","","","","","",""
"","ITI","","html-keyboard-response","422","497362","0.0-1.0-630.0","0","0","43789","","177","","","75","69","","","","","","","","","","","","","","","k",""
"","S1","","html-keyboard-response","423","497614","0.0-1.0-632.0","0","0","43789","","null","","","null","70","","","","","","","","","","","","","","","",""
"","ISI","","html-keyboard-response","424","498116","0.0-1.0-633.0","0","0","43789","","36","","","68","70","d","","","","","","","","","","","","","","",""
"","S2","","html-keyboard-response","425","498285","0.0-1.0-634.0","0","0","43789","","167","","","68","70","","d","2","70","training","adjacent","DC","4","3","L.jpg","P.jpg","0","0","1","",""
"","feedback","","html-keyboard-response","426","499288","0.0-1.0-636.0-0.0","0","0","43789","","null","","","null","70","","","","","","","","","","","","","","","",""
"","ITI","","html-keyboard-response","427","500291","0.0-1.0-639.0","0","0","43789","","116","","","68","70","","","","","","","","","","","","","","","d",""
"","S1","","html-keyboard-response","428","500543","0.0-1.0-641.0","0","0","43789","","null","","","null","71","","","","","","","","","","","","","","","",""
"","ISI","","html-keyboard-response","429","501046","0.0-1.0-642.0","0","0","43789","","196","","","68","71","d","","","","","","","","","","","","","","",""
"","S2","","html-keyboard-response","430","501184","0.0-1.0-643.0","0","0","43789","","136","","","68","71","","d","2","71","training","adjacent","BA","2","1","Q.jpg","N.jpg","0","0","1","",""
"","feedback","","html-keyboard-response","431","502187","0.0-1.0-645.0-0.0","0","0","43789","","null","","","null","71","","","","","","","","","","","","","","","",""
"","ITI","","html-keyboard-response","432","503189","0.0-1.0-648.0","0","0","43789","","62","","","68","71","","","","","","","","","","","","","","","d",""
"","S1","","html-keyboard-response","433","503440","0.0-1.0-650.0","0","0","43789","","null","","","null","72","","","","","","","","","","","","","","","",""
"","ISI","","html-keyboard-response","434","503943","0.0-1.0-651.0","0","0","43789","","89","","","68","72","d","","","","","","","","","","","","","","",""
"","S2","","html-keyboard-response","435","504023","0.0-1.0-652.0","0","0","43789","","79","","","68","72","","d","2","72","training","adjacent","FG","6","7","O.jpg","M.jpg","0","1","0","",""
"","feedback","","html-keyboard-response","436","505026","0.0-1.0-654.0-0.0","0","0","43789","","null","","","null","72","","","","","","","","","","","","","","","",""
"","time_out","","html-keyboard-response","437","507027","0.0-1.0-656.0-0.0","0","0","43789","","null","","","null","72","","","","","","","","","","","","","","","",""
"","ITI","","html-keyboard-response","438","508028","0.0-1.0-657.0","0","0","43789","","145","","","68","72","","","","","","","","","","","","","","","d",""
"","S1","","html-keyboard-response","439","508280","0.0-1.0-659.0","0","0","43789","","null","","","null","73","","","","","","","","","","","","","","","",""
"","ISI","","html-keyboard-response","440","508782","0.0-1.0-660.0","0","0","43789","","259","","","68","73","d","","","","","","","","","","","","","","",""
"","S2","","html-keyboard-response","441","509034","0.0-1.0-661.0","0","0","43789","","251","","","68","73","","d","2","73","training","adjacent","BA","2","1","Q.jpg","N.jpg","0","0","1","",""
"","feedback","","html-keyboard-response","442","510037","0.0-1.0-663.0-0.0","0","0","43789","","null","","","null","73","","","","","","","","","","","","","","","",""
"","ITI","","html-keyboard-response","443","511039","0.0-1.0-666.0","0","0","43789","","266","","","68","73","","","","","","","","","","","","","","","d",""
"","S1","","html-keyboard-response","444","511291","0.0-1.0-668.0","0","0","43789","","null","","","null","74","","","","","","","","","","","","","","","",""
"","ISI","","html-keyboard-response","445","511792","0.0-1.0-669.0","0","0","43789","","null","","","null","74","NaN","","","","","","","","","","","","","","",""
"","S2","","html-keyboard-response","446","512044","0.0-1.0-670.0","0","0","43789","","null","","","null","74","","NaN","","","","","","","","","","","","","",""
"","response","","html-keyboard-response","447","512188","0.0-1.0-671.0-0.0","0","0","43789","","143","","","68","74","","","2","74","training","adjacent","ED","5","4","R.jpg","L.jpg","0","0","1","",""
"","feedback","","html-keyboard-response","448","513191","0.0-1.0-672.0-0.0","0","0","43789","","null","","","null","74","","","","","","","","","","","","","","","",""
"","ITI","","html-keyboard-response","449","514193","0.0-1.0-675.0","0","0","43789","","303","","","68","74","","","","","","","","","","","","","","","d",""
"","S1","","html-keyboard-response","450","514447","0.0-1.0-677.0","0","0","43789","","null","","","null","75","","","","","","","","","","","","","","","",""
"","ISI","","html-keyboard-response","451","514948","0.0-1.0-678.0","0","0","43789","","63","","","68","75","d","","","","","","","","","","","","","","",""
"","S2","","html-keyboard-response","452","515091","0.0-1.0-679.0","0","0","43789","","140","","","68","75","","d","2","75","training","adjacent","EF","5","6","R.jpg","O.jpg","0","1","0","",""
"","feedback","","html-keyboard-response","453","516095","0.0-1.0-681.0-0.0","0","0","43789","","null","","","null","75","","","","","","","","","","","","","","","",""
"","time_out","","html-keyboard-response","454","518097","0.0-1.0-683.0-0.0","0","0","43789","","null","","","null","75","","","","","","","","","","","","","","","",""
"","ITI","","html-keyboard-response","455","519099","0.0-1.0-684.0","0","0","43789","","193","","","68","75","","","","","","","","","","","","","","","d",""
"","S1","","html-keyboard-response","456","519351","0.0-1.0-686.0","0","0","43789","","null","","","null","76","","","","","","","","","","","","","","","",""
"","ISI","","html-keyboard-response","457","519854","0.0-1.0-687.0","0","0","43789","","69","","","68","76","d","","","","","","","","","","","","","","",""
"","S2","","html-keyboard-response","458","520106","0.0-1.0-688.0","0","0","43789","","null","","","null","76","","NaN","","","","","","","","","","","","","",""
"","response","","html-keyboard-response","459","520142","0.0-1.0-689.0-0.0","0","0","43789","","34","","","68","76","","","2","76","training","adjacent","DC","4","3","L.jpg","P.jpg","0","0","1","",""
"","feedback","","html-keyboard-response","460","521145","0.0-1.0-690.0-0.0","0","0","43789","","null","","","null","76","","","","","","","","","","","","","","","",""
"","ITI","","html-keyboard-response","461","522147","0.0-1.0-693.0","0","0","43789","","475","","","68","76","","","","","","","","","","","","","","","d",""
"","S1","","html-keyboard-response","462","522400","0.0-1.0-695.0","0","0","43789","","null","","","null","77","","","","","","","","","","","","","","","",""
"","ISI","","html-keyboard-response","463","522900","0.0-1.0-696.0","0","0","43789","","null","","","null","77","NaN","","","","","","","","","","","","","","",""
"","S2","","html-keyboard-response","464","522905","0.0-1.0-697.0","0","0","43789","","1","","","68","77","","d","2","77","training","adjacent","CD","3","4","P.jpg","L.jpg","0","1","0","",""
"","feedback","","html-keyboard-response","465","523905","0.0-1.0-699.0-0.0","0","0","43789","","null","","","null","77","","","","","","","","","","","","","","","",""
"","time_out","","html-keyboard-response","466","525930","0.0-1.0-701.0-0.0","0","0","43789","","null","","","null","77","","","","","","","","","","","","","","","",""
"","ITI","","html-keyboard-response","467","526933","0.0-1.0-702.0","0","0","43789","","254","","","68","77","","","","","","","","","","","","","","","d",""
"","S1","","html-keyboard-response","468","527186","0.0-1.0-704.0","0","0","43789","","null","","","null","78","","","","","","","","","","","","","","","",""
"","ISI","","html-keyboard-response","469","527688","0.0-1.0-705.0","0","0","43789","","140","","","68","78","d","","","","","","","","","","","","","","",""
"","S2","","html-keyboard-response","470","527877","0.0-1.0-706.0","0","0","43789","","187","","","68","78","","d","2","78","training","adjacent","CB","3","2","P.jpg","Q.jpg","0","0","1","",""
"","feedback","","html-keyboard-response","471","528880","0.0-1.0-708.0-0.0","0","0","43789","","null","","","null","78","","","","","","","","","","","","","","","",""
"","ITI","","html-keyboard-response","472","529881","0.0-1.0-711.0","0","0","43789","","436","","","68","78","","","","","","","","","","","","","","","d",""
"","S1","","html-keyboard-response","473","530134","0.0-1.0-713.0","0","0","43789","","null","","","null","79","","","","","","","","","","","","","","","",""
"","ISI","","html-keyboard-response","474","530636","0.0-1.0-714.0","0","0","43789","","6","","","75","79","k","","","","","","","","","","","","","","",""
"","S2","","html-keyboard-response","475","530712","0.0-1.0-715.0","0","0","43789","","73","","","68","79","","d","2","79","training","adjacent","CB","3","2","P.jpg","Q.jpg","0","0","1","",""
"","feedback","","html-keyboard-response","476","531714","0.0-1.0-717.0-0.0","0","0","43789","","null","","","null","79","","","","","","","","","","","","","","","",""
"","ITI","","html-keyboard-response","477","532716","0.0-1.0-720.0","0","0","43789","","656","","","68","79","","","","","","","","","","","","","","","d",""
"","S1","","html-keyboard-response","478","532967","0.0-1.0-722.0","0","0","43789","","null","","","null","80","","","","","","","","","","","","","","","",""
"","ISI","","html-keyboard-response","479","533468","0.0-1.0-723.0","0","0","43789","","256","","","68","80","d","","","","","","","","","","","","","","",""
"","S2","","html-keyboard-response","480","533577","0.0-1.0-724.0","0","0","43789","","108","","","75","80","","k","2","80","training","adjacent","FE","6","5","O.jpg","R.jpg","1","0","0","",""
"","feedback","","html-keyboard-response","481","534581","0.0-1.0-726.0-0.0","0","0","43789","","null","","","null","80","","","","","","","","","","","","","","","",""
"","time_out","","html-keyboard-response","482","536584","0.0-1.0-728.0-0.0","0","0","43789","","null","","","null","80","","","","","","","","","","","","","","","",""
"","ITI","","html-keyboard-response","483","537586","0.0-1.0-729.0","0","0","43789","","158","","","75","80","","","","","","","","","","","","","","","k",""
"","S1","","html-keyboard-response","484","537839","0.0-1.0-731.0","0","0","43789","","null","","","null","81","","","","","","","","","","","","","","","",""
"","ISI","","html-keyboard-response","485","538340","0.0-1.0-732.0","0","0","43789","","196","","","75","81","k","","","","","","","","","","","","","","",""
"","S2","","html-keyboard-response","486","538592","0.0-1.0-733.0","0","0","43789","","null","","","null","81","","NaN","","","","","","","","","","","","","",""
"","response","","html-keyboard-response","487","540049","0.0-1.0-734.0-0.0","0","0","43789","","1454","","","68","81","","","2","81","training","adjacent","GF","7","6","M.jpg","O.jpg","0","0","1","",""
"","feedback","","html-keyboard-response","488","541051","0.0-1.0-735.0-0.0","0","0","43789","","null","","","null","81","","","","","","","","","","","","","","","",""
"","ITI","","html-keyboard-response","489","542054","0.0-1.0-738.0","0","0","43789","","63","","","68","81","","","","","","","","","","","","","","","d",""
"","S1","","html-keyboard-response","490","542306","0.0-1.0-740.0","0","0","43789","","null","","","null","82","","","","","","","","","","","","","","","",""
"","ISI","","html-keyboard-response","491","542807","0.0-1.0-741.0","0","0","43789","","112","","","75","82","k","","","","","","","","","","","","","","",""
"","S2","","html-keyboard-response","492","542980","0.0-1.0-742.0","0","0","43789","","171","","","75","82","","k","2","82","training","adjacent","GF","7","6","M.jpg","O.jpg","1","0","0","",""
"","feedback","","html-keyboard-response","493","543983","0.0-1.0-744.0-0.0","0","0","43789","","null","","","null","82","","","","","","","","","","","","","","","",""
"","time_out","","html-keyboard-response","494","545985","0.0-1.0-746.0-0.0","0","0","43789","","null","","","null","82","","","","","","","","","","","","","","","",""
"","ITI","","html-keyboard-response","495","546988","0.0-1.0-747.0","0","0","43789","","376","","","75","82","","","","","","","","","","","","","","","k",""
"","S1","","html-keyboard-response","496","547240","0.0-1.0-749.0","0","0","43789","","null","","","null","83","","","","","","","","","","","","","","","",""
"","ISI","","html-keyboard-response","497","547837","0.0-1.0-750.0","0","0","43789","","283","","","75","83","k","","","","","","","","","","","","","","",""
"","S2","","html-keyboard-response","498","548092","0.0-1.0-751.0","0","0","43789","","null","","","null","83","","NaN","","","","","","","","","","","","","",""
"","response","","html-keyboard-response","499","548215","0.0-1.0-752.0-0.0","0","0","43789","","122","","","68","83","","","2","83","training","adjacent","BC","2","3","Q.jpg","P.jpg","0","1","0","",""
"","feedback","","html-keyboard-response","500","549218","0.0-1.0-753.0-0.0","0","0","43789","","null","","","null","83","","","","","","","","","","","","","","","",""
"","time_out","","html-keyboard-response","501","551220","0.0-1.0-755.0-0.0","0","0","43789","","null","","","null","83","","","","","","","","","","","","","","","",""
"","ITI","","html-keyboard-response","502","552221","0.0-1.0-756.0","0","0","43789","","37","","","68","83","","","","","","","","","","","","","","","d",""
"","S1","","html-keyboard-response","503","552473","0.0-1.0-758.0","0","0","43789","","null","","","null","84","","","","","","","","","","","","","","","",""
"","ISI","","html-keyboard-response","504","552974","0.0-1.0-759.0","0","0","43789","","21","","","68","84","d","","","","","","","","","","","","","","",""
"","S2","","html-keyboard-response","505","553113","0.0-1.0-760.0","0","0","43789","","137","","","68","84","","d","2","84","training","adjacent","BA","2","1","Q.jpg","N.jpg","0","0","1","",""
"","feedback","","html-keyboard-response","506","554116","0.0-1.0-762.0-0.0","0","0","43789","","null","","","null","84","","","","","","","","","","","","","","","",""
"","ITI","","html-keyboard-response","507","555117","0.0-1.0-765.0","0","0","43789","","115","","","68","84","","","","","","","","","","","","","","","d",""
"","S1","","html-keyboard-response","508","555369","0.0-1.0-767.0","0","0","43789","","null","","","null","85","","","","","","","","","","","","","","","",""
"","ISI","","html-keyboard-response","509","555870","0.0-1.0-768.0","0","0","43789","","166","","","75","85","k","","","","","","","","","","","","","","",""
"","S2","","html-keyboard-response","510","556066","0.0-1.0-769.0","0","0","43789","","194","","","75","85","","k","2","85","training","adjacent","EF","5","6","R.jpg","O.jpg","1","1","1","",""
"","feedback","","html-keyboard-response","511","557069","0.0-1.0-771.0-0.0","0","0","43789","","null","","","null","85","","","","","","","","","","","","","","","",""
"","ITI","","html-keyboard-response","512","558072","0.0-1.0-774.0","0","0","43789","","385","","","68","85","","","","","","","","","","","","","","","d",""
"","S1","","html-keyboard-response","513","558327","0.0-1.0-776.0","0","0","43789","","null","","","null","86","","","","","","","","","","","","","","","",""
"","ISI","","html-keyboard-response","514","558829","0.0-1.0-777.0","0","0","43789","","89","","","68","86","d","","","","","","","","","","","","","","",""
"","S2","","html-keyboard-response","515","558970","0.0-1.0-778.0","0","0","43789","","136","","","75","86","","k","2","86","training","adjacent","CD","3","4","P.jpg","L.jpg","1","1","1","",""
"","feedback","","html-keyboard-response","516","559974","0.0-1.0-780.0-0.0","0","0","43789","","null","","","null","86","","","","","","","","","","","","","","","",""
"","ITI","","html-keyboard-response","517","560976","0.0-1.0-783.0","0","0","43789","","28","","","75","86","","","","","","","","","","","","","","","k",""
"","S1","","html-keyboard-response","518","561227","0.0-1.0-785.0","0","0","43789","","null","","","null","87","","","","","","","","","","","","","","","",""
"","ISI","","html-keyboard-response","519","561729","0.0-1.0-786.0","0","0","43789","","77","","","75","87","k","","","","","","","","","","","","","","",""
"","S2","","html-keyboard-response","520","561908","0.0-1.0-787.0","0","0","43789","","178","","","75","87","","k","2","87","training","adjacent","DE","4","5","L.jpg","R.jpg","1","1","1","",""
"","feedback","","html-keyboard-response","521","562910","0.0-1.0-789.0-0.0","0","0","43789","","null","","","null","87","","","","","","","","","","","","","","","",""
"","ITI","","html-keyboard-response","522","563913","0.0-1.0-792.0","0","0","43789","","102","","","75","87","","","","","","","","","","","","","","","k",""
"","S1","","html-keyboard-response","523","564166","0.0-1.0-794.0","0","0","43789","","null","","","null","88","","","","","","","","","","","","","","","",""
"","ISI","","html-keyboard-response","524","564691","0.0-1.0-795.0","0","0","43789","","144","","","68","88","d","","","","","","","","","","","","","","",""
"","S2","","html-keyboard-response","525","564943","0.0-1.0-796.0","0","0","43789","","null","","","null","88","","NaN","","","","","","","","","","","","","",""
"","response","","html-keyboard-response","526","566092","0.0-1.0-797.0-0.0","0","0","43789","","1146","","","68","88","","","2","88","training","adjacent","FG","6","7","O.jpg","M.jpg","0","1","0","",""
"","feedback","","html-keyboard-response","527","567094","0.0-1.0-798.0-0.0","0","0","43789","","null","","","null","88","","","","","","","","","","","","","","","",""
"","time_out","","html-keyboard-response","528","569096","0.0-1.0-800.0-0.0","0","0","43789","","null","","","null","88","","","","","","","","","","","","","","","",""
"","ITI","","html-keyboard-response","529","570099","0.0-1.0-801.0","0","0","43789","","99","","","68","88","","","","","","","","","","","","","","","d",""
"","S1","","html-keyboard-response","530","570351","0.0-1.0-803.0","0","0","43789","","null","","","null","89","","","","","","","","","","","","","","","",""
"","ISI","","html-keyboard-response","531","570852","0.0-1.0-804.0","0","0","43789","","370","","","68","89","d","","","","","","","","","","","","","","",""
"","S2","","html-keyboard-response","532","570932","0.0-1.0-805.0","0","0","43789","","78","","","68","89","","d","2","89","training","adjacent","AB","1","2","N.jpg","Q.jpg","0","1","0","",""
"","feedback","","html-keyboard-response","533","571934","0.0-1.0-807.0-0.0","0","0","43789","","null","","","null","89","","","","","","","","","","","","","","","",""
"","time_out","","html-keyboard-response","534","573936","0.0-1.0-809.0-0.0","0","0","43789","","null","","","null","89","","","","","","","","","","","","","","","",""
"","ITI","","html-keyboard-response","535","574939","0.0-1.0-810.0","0","0","43789","","53","","","68","89","","","","","","","","","","","","","","","d",""
"","S1","","html-keyboard-response","536","575195","0.0-1.0-812.0","0","0","43789","","null","","","null","90","","","","","","","","","","","","","","","",""
"","ISI","","html-keyboard-response","537","575695","0.0-1.0-813.0","0","0","43789","","395","","","68","90","d","","","","","","","","","","","","","","",""
"","S2","","html-keyboard-response","538","575886","0.0-1.0-814.0","0","0","43789","","189","","","68","90","","d","2","90","training","adjacent","CB","3","2","P.jpg","Q.jpg","0","0","1","",""
"","feedback","","html-keyboard-response","539","576888","0.0-1.0-816.0-0.0","0","0","43789","","null","","","null","90","","","","","","","","","","","","","","","",""
"","ITI","","html-keyboard-response","540","577890","0.0-1.0-819.0","0","0","43789","","488","","","68","90","","","","","","","","","","","","","","","d",""
"","S1","","html-keyboard-response","541","578141","0.0-1.0-821.0","0","0","43789","","null","","","null","91","","","","","","","","","","","","","","","",""
"","ISI","","html-keyboard-response","542","578643","0.0-1.0-822.0","0","0","43789","","null","","","null","91","NaN","","","","","","","","","","","","","","",""
"","S2","","html-keyboard-response","543","578896","0.0-1.0-823.0","0","0","43789","","null","","","null","91","","NaN","","","","","","","","","","","","","",""
"","response","","html-keyboard-response","544","580325","0.0-1.0-824.0-0.0","0","0","43789","","1428","","","68","91","","","2","91","training","adjacent","DE","4","5","L.jpg","R.jpg","0","1","0","",""
"","feedback","","html-keyboard-response","545","581328","0.0-1.0-825.0-0.0","0","0","43789","","null","","","null","91","","","","","","","","","","","","","","","",""
"","time_out","","html-keyboard-response","546","583332","0.0-1.0-827.0-0.0","0","0","43789","","null","","","null","91","","","","","","","","","","","","","","","",""
"","ITI","","html-keyboard-response","547","584334","0.0-1.0-828.0","0","0","43789","","219","","","68","91","","","","","","","","","","","","","","","d",""
"","S1","","html-keyboard-response","548","584587","0.0-1.0-830.0","0","0","43789","","null","","","null","92","","","","","","","","","","","","","","","",""
"","ISI","","html-keyboard-response","549","585088","0.0-1.0-831.0","0","0","43789","","119","","","68","92","d","","","","","","","","","","","","","","",""
"","S2","","html-keyboard-response","550","585151","0.0-1.0-832.0","0","0","43789","","62","","","68","92","","d","2","92","training","adjacent","BC","2","3","Q.jpg","P.jpg","0","1","0","",""
"","feedback","","html-keyboard-response","551","586154","0.0-1.0-834.0-0.0","0","0","43789","","null","","","null","92","","","","","","","","","","","","","","","",""
"","time_out","","html-keyboard-response","552","588156","0.0-1.0-836.0-0.0","0","0","43789","","null","","","null","92","","","","","","","","","","","","","","","",""
"","ITI","","html-keyboard-response","553","589158","0.0-1.0-837.0","0","0","43789","","36","","","68","92","","","","","","","","","","","","","","","d",""
"","S1","","html-keyboard-response","554","589410","0.0-1.0-839.0","0","0","43789","","null","","","null","93","","","","","","","","","","","","","","","",""
"","ISI","","html-keyboard-response","555","589911","0.0-1.0-840.0","0","0","43789","","77","","","68","93","d","","","","","","","","","","","","","","",""
"","S2","","html-keyboard-response","556","590071","0.0-1.0-841.0","0","0","43789","","158","","","68","93","","d","2","93","training","adjacent","FG","6","7","O.jpg","M.jpg","0","1","0","",""
"","feedback","","html-keyboard-response","557","591073","0.0-1.0-843.0-0.0","0","0","43789","","null","","","null","93","","","","","","","","","","","","","","","",""
"","time_out","","html-keyboard-response","558","593080","0.0-1.0-845.0-0.0","0","0","43789","","null","","","null","93","","","","","","","","","","","","","","","",""
"","ITI","","html-keyboard-response","559","594082","0.0-1.0-846.0","0","0","43789","","87","","","68","93","","","","","","","","","","","","","","","d",""
"","S1","","html-keyboard-response","560","594336","0.0-1.0-848.0","0","0","43789","","null","","","null","94","","","","","","","","","","","","","","","",""
"","ISI","","html-keyboard-response","561","594838","0.0-1.0-849.0","0","0","43789","","181","","","68","94","d","","","","","","","","","","","","","","",""
"","S2","","html-keyboard-response","562","594953","0.0-1.0-850.0","0","0","43789","","113","","","68","94","","d","2","94","training","adjacent","CD","3","4","P.jpg","L.jpg","0","1","0","",""
"","feedback","","html-keyboard-response","563","595955","0.0-1.0-852.0-0.0","0","0","43789","","null","","","null","94","","","","","","","","","","","","","","","",""
"","time_out","","html-keyboard-response","564","597957","0.0-1.0-854.0-0.0","0","0","43789","","null","","","null","94","","","","","","","","","","","","","","","",""
"","ITI","","html-keyboard-response","565","598960","0.0-1.0-855.0","0","0","43789","","185","","","68","94","","","","","","","","","","","","","","","d",""
"","S1","","html-keyboard-response","566","599212","0.0-1.0-857.0","0","0","43789","","null","","","null","95","","","","","","","","","","","","","","","",""
"","ISI","","html-keyboard-response","567","599714","0.0-1.0-858.0","0","0","43789","","102","","","68","95","d","","","","","","","","","","","","","","",""
"","S2","","html-keyboard-response","568","599782","0.0-1.0-859.0","0","0","43789","","65","","","68","95","","d","2","95","training","adjacent","ED","5","4","R.jpg","L.jpg","0","0","1","",""
"","feedback","","html-keyboard-response","569","600785","0.0-1.0-861.0-0.0","0","0","43789","","null","","","null","95","","","","","","","","","","","","","","","",""
"","ITI","","html-keyboard-response","570","601787","0.0-1.0-864.0","0","0","43789","","76","","","68","95","","","","","","","","","","","","","","","d",""
"","block_over","","html-keyboard-response","571","603362","0.0-1.0-865.0-0.0","0","0","43789","","1572","","","32","95","","","","","","","","","","","","","","","",""
"","S1","","html-keyboard-response","572","603615","0.0-1.0-866.0","0","0","43789","","null","","","null","96","","","","","","","","","","","","","","","",""
"","ISI","","html-keyboard-response","573","604115","0.0-1.0-867.0","0","0","43789","","null","","","null","96","NaN","","","","","","","","","","","","","","",""
"","S2","","html-keyboard-response","574","604368","0.0-1.0-868.0","0","0","43789","","null","","","null","96","","NaN","","","","","","","","","","","","","",""
"","response","","html-keyboard-response","575","605217","0.0-1.0-869.0-0.0","0","0","43789","","846","","","68","96","","","3","96","training","adjacent","CB","3","2","P.jpg","Q.jpg","0","0","1","",""
"","feedback","","html-keyboard-response","576","606220","0.0-1.0-870.0-0.0","0","0","43789","","null","","","null","96","","","","","","","","","","","","","","","",""
"","ITI","","html-keyboard-response","577","607222","0.0-1.0-873.0","0","0","43789","","173","","","68","96","","","","","","","","","","","","","","","d",""
"","S1","","html-keyboard-response","578","607474","0.0-1.0-875.0","0","0","43789","","null","","","null","97","","","","","","","","","","","","","","","",""
"","ISI","","html-keyboard-response","579","607975","0.0-1.0-876.0","0","0","43789","","164","","","68","97","d","","","","","","","","","","","","","","",""
"","S2","","html-keyboard-response","580","608038","0.0-1.0-877.0","0","0","43789","","62","","","68","97","","d","3","97","training","adjacent","EF","5","6","R.jpg","O.jpg","0","1","0","",""
"","feedback","","html-keyboard-response","581","609040","0.0-1.0-879.0-0.0","0","0","43789","","null","","","null","97","","","","","","","","","","","","","","","",""
