"success","ttype","start_time","trial_type","trial_index","time_elapsed","internal_node_id","warning","missed_checkup","PID","view_history","rt","responses","repeat_instructions","key_press","index","keypress_isi","keypress_S2","block","trial_num","phase","group_type","pair_type","S1_stim","S2_stim","S1_img","S2_img","S1_chosen","S1_higher","accuracy","keypress_iti","total_bonus_tally"
"true","full_screen","d03082023hr1454","fullscreen","0","9720","0.0-0.0","0","0","62553","","","","","","","","","","","","","","","","","","","","","",""
"","instructions","","instructions","1","50845","0.0-1.0-0.0-0.0","0","0","62553","[{""page_index"":0,""viewing_time"":4319},{""page_index"":1,""viewing_time"":23094},{""page_index"":2,""viewing_time"":12228},{""page_index"":3,""viewing_time"":1482}]","41123","","","","","","","","","","","","","","","","","","","",""
"","comprehension_check","","survey-multi-choice","2","68122","0.0-1.0-0.0-1.0","0","0","62553","","17273","{""Q0"":""True"",""Q1"":""K"",""Q2"":""Once the second image appears and while the screen 'MAKE A CHOICE' is shown"",""Q3"":""Green mark"",""Q4"":""either D or K""}","0","","","","","","","","","","","","","","","","","",""
"","start_exp","","html-keyboard-response","3","70481","0.0-1.0-1.0","0","0","62553","","2358","","","32","","","","","","","","","","","","","","","","",""
"","S1","","html-keyboard-response","4","70734","0.0-1.0-2.0","0","0","62553","","null","","","null","0","","","","","","","","","","","","","","","",""
"","ISI","","html-keyboard-response","5","70901","0.0-1.0-3.0","0","0","62553","","null","","","null","0","NaN","","","","","","","","","","","","","","",""
"","S2","","html-keyboard-response","6","71153","0.0-1.0-4.0","0","0","62553","","null","","","null","0","","NaN","","","","","","","","","","","","","",""
"","response","","html-keyboard-response","7","72065","0.0-1.0-5.0-0.0","0","0","62553","","910","","","75","0","","","1","0","training","adjacent","CD","3","4","N.jpg","Q.jpg","1","1","1","",""
"","feedback","","html-keyboard-response","8","73073","0.0-1.0-6.0-0.0","0","0","62553","","null","","","null","0","","","","","","","","","","","","","","","",""
"","ITI","","html-keyboard-response","9","74075","0.0-1.0-9.0","0","0","62553","","null","","","null","0","","","","","","","","","","","","","","","NaN",""
"","S1","","html-keyboard-response","10","74328","0.0-1.0-11.0","0","0","62553","","null","","","null","1","","","","","","","","","","","","","","","",""
"","ISI","","html-keyboard-response","11","74480","0.0-1.0-12.0","0","0","62553","","null","","","null","1","NaN","","","","","","","","","","","","","","",""
"","S2","","html-keyboard-response","12","74732","0.0-1.0-13.0","0","0","62553","","null","","","null","1","","NaN","","","","","","","","","","","","","",""
"","response","","html-keyboard-response","13","75257","0.0-1.0-14.0-0.0","0","0","62553","","524","","","75","1","","","1","1","training","adjacent","EF","5","6","M.jpg","O.jpg","1","1","1","",""
"","feedback","","html-keyboard-response","14","76260","0.0-1.0-15.0-0.0","0","0","62553","","null","","","null","1","","","","","","","","","","","","","","","",""
"","ITI","","html-keyboard-response","15","77262","0.0-1.0-18.0","0","0","62553","","null","","","null","1","","","","","","","","","","","","","","","NaN",""
"","S1","","html-keyboard-response","16","77515","0.0-1.0-20.0","0","0","62553","","null","","","null","2","","","","","","","","","","","","","","","",""
"","ISI","","html-keyboard-response","17","77667","0.0-1.0-21.0","0","0","62553","","null","","","null","2","NaN","","","","","","","","","","","","","","",""
"","S2","","html-keyboard-response","18","77919","0.0-1.0-22.0","0","0","62553","","null","","","null","2","","NaN","","","","","","","","","","","","","",""
"","response","","html-keyboard-response","19","78385","0.0-1.0-23.0-0.0","0","0","62553","","464","","","68","2","","","1","2","training","adjacent","FE","6","5","O.jpg","M.jpg","0","0","1","",""
"","feedback","","html-keyboard-response","20","79387","0.0-1.0-24.0-0.0","0","0","62553","","null","","","null","2","","","","","","","","","","","","","","","",""
"","ITI","","html-keyboard-response","21","80389","0.0-1.0-27.0","0","0","62553","","null","","","null","2","","","","","","","","","","","","","","","NaN",""
"","S1","","html-keyboard-response","22","80641","0.0-1.0-29.0","0","0","62553","","null","","","null","3","","","","","","","","","","","","","","","",""
"","ISI","","html-keyboard-response","23","80793","0.0-1.0-30.0","0","0","62553","","null","","","null","3","NaN","","","","","","","","","","","","","","",""
"","S2","","html-keyboard-response","24","81045","0.0-1.0-31.0","0","0","62553","","null","","","null","3","","NaN","","","","","","","","","","","","","",""
"","response","","html-keyboard-response","25","81801","0.0-1.0-32.0-0.0","0","0","62553","","754","","","68","3","","","1","3","training","adjacent","FG","6","7","O.jpg","L.jpg","0","1","0","",""
"","feedback","","html-keyboard-response","26","82803","0.0-1.0-33.0-0.0","0","0","62553","","null","","","null","3","","","","","","","","","","","","","","","",""
"","time_out","","html-keyboard-response","27","84806","0.0-1.0-35.0-0.0","0","0","62553","","null","","","null","3","","","","","","","","","","","","","","","",""
"","ITI","","html-keyboard-response","28","85808","0.0-1.0-36.0","0","0","62553","","602","","","75","3","","","","","","","","","","","","","","","k",""
"","S1","","html-keyboard-response","29","86067","0.0-1.0-38.0","0","0","62553","","null","","","null","4","","","","","","","","","","","","","","","",""
"","ISI","","html-keyboard-response","30","86223","0.0-1.0-39.0","0","0","62553","","null","","","null","4","NaN","","","","","","","","","","","","","","",""
"","S2","","html-keyboard-response","31","86477","0.0-1.0-40.0","0","0","62553","","null","","","null","4","","NaN","","","","","","","","","","","","","",""
"","response","","html-keyboard-response","32","87025","0.0-1.0-41.0-0.0","0","0","62553","","547","","","68","4","","","1","4","training","adjacent","CD","3","4","N.jpg","Q.jpg","0","1","0","",""
"","feedback","","html-keyboard-response","33","88028","0.0-1.0-42.0-0.0","0","0","62553","","null","","","null","4","","","","","","","","","","","","","","","",""
"","time_out","","html-keyboard-response","34","90030","0.0-1.0-44.0-0.0","0","0","62553","","null","","","null","4","","","","","","","","","","","","","","","",""
"","ITI","","html-keyboard-response","35","91032","0.0-1.0-45.0","0","0","62553","","null","","","null","4","","","","","","","","","","","","","","","NaN",""
"","S1","","html-keyboard-response","36","91284","0.0-1.0-47.0","0","0","62553","","null","","","null","5","","","","","","","","","","","","","","","",""
"","ISI","","html-keyboard-response","37","91437","0.0-1.0-48.0","0","0","62553","","null","","","null","5","NaN","","","","","","","","","","","","","","",""
"","S2","","html-keyboard-response","38","91689","0.0-1.0-49.0","0","0","62553","","null","","","null","5","","NaN","","","","","","","","","","","","","",""
"","response","","html-keyboard-response","39","92305","0.0-1.0-50.0-0.0","0","0","62553","","615","","","75","5","","","1","5","training","adjacent","CB","3","2","N.jpg","R.jpg","1","0","0","",""
"","feedback","","html-keyboard-response","40","93309","0.0-1.0-51.0-0.0","0","0","62553","","null","","","null","5","","","","","","","","","","","","","","","",""
"","time_out","","html-keyboard-response","41","95311","0.0-1.0-53.0-0.0","0","0","62553","","null","","","null","5","","","","","","","","","","","","","","","",""
"","ITI","","html-keyboard-response","42","96314","0.0-1.0-54.0","0","0","62553","","null","","","null","5","","","","","","","","","","","","","","","NaN",""
"","S1","","html-keyboard-response","43","96566","0.0-1.0-56.0","0","0","62553","","null","","","null","6","","","","","","","","","","","","","","","",""
"","ISI","","html-keyboard-response","44","96719","0.0-1.0-57.0","0","0","62553","","null","","","null","6","NaN","","","","","","","","","","","","","","",""
"","S2","","html-keyboard-response","45","96972","0.0-1.0-58.0","0","0","62553","","null","","","null","6","","NaN","","","","","","","","","","","","","",""
"","response","","html-keyboard-response","46","97258","0.0-1.0-59.0-0.0","0","0","62553","","285","","","75","6","","","1","6","training","adjacent","DC","4","3","Q.jpg","N.jpg","1","0","0","",""
"","feedback","","html-keyboard-response","47","98261","0.0-1.0-60.0-0.0","0","0","62553","","null","","","null","6","","","","","","","","","","","","","","","",""
"","time_out","","html-keyboard-response","48","100263","0.0-1.0-62.0-0.0","0","0","62553","","null","","","null","6","","","","","","","","","","","","","","","",""
"","ITI","","html-keyboard-response","49","101264","0.0-1.0-63.0","0","0","62553","","null","","","null","6","","","","","","","","","","","","","","","NaN",""
"","S1","","html-keyboard-response","50","101516","0.0-1.0-65.0","0","0","62553","","null","","","null","7","","","","","","","","","","","","","","","",""
"","ISI","","html-keyboard-response","51","101668","0.0-1.0-66.0","0","0","62553","","null","","","null","7","NaN","","","","","","","","","","","","","","",""
"","S2","","html-keyboard-response","52","101920","0.0-1.0-67.0","0","0","62553","","null","","","null","7","","NaN","","","","","","","","","","","","","",""
"","response","","html-keyboard-response","53","102418","0.0-1.0-68.0-0.0","0","0","62553","","496","","","75","7","","","1","7","training","adjacent","BC","2","3","R.jpg","N.jpg","1","1","1","",""
"","feedback","","html-keyboard-response","54","103420","0.0-1.0-69.0-0.0","0","0","62553","","null","","","null","7","","","","","","","","","","","","","","","",""
"","ITI","","html-keyboard-response","55","104421","0.0-1.0-72.0","0","0","62553","","null","","","null","7","","","","","","","","","","","","","","","NaN",""
"","S1","","html-keyboard-response","56","104673","0.0-1.0-74.0","0","0","62553","","null","","","null","8","","","","","","","","","","","","","","","",""
"","ISI","","html-keyboard-response","57","104825","0.0-1.0-75.0","0","0","62553","","null","","","null","8","NaN","","","","","","","","","","","","","","",""
"","S2","","html-keyboard-response","58","105077","0.0-1.0-76.0","0","0","62553","","null","","","null","8","","NaN","","","","","","","","","","","","","",""
"","response","","html-keyboard-response","59","105689","0.0-1.0-77.0-0.0","0","0","62553","","610","","","68","8","","","1","8","training","adjacent","EF","5","6","M.jpg","O.jpg","0","1","0","",""
"","feedback","","html-keyboard-response","60","106691","0.0-1.0-78.0-0.0","0","0","62553","","null","","","null","8","","","","","","","","","","","","","","","",""
"","time_out","","html-keyboard-response","61","108693","0.0-1.0-80.0-0.0","0","0","62553","","null","","","null","8","","","","","","","","","","","","","","","",""
"","ITI","","html-keyboard-response","62","109696","0.0-1.0-81.0","0","0","62553","","null","","","null","8","","","","","","","","","","","","","","","NaN",""
"","S1","","html-keyboard-response","63","109948","0.0-1.0-83.0","0","0","62553","","null","","","null","9","","","","","","","","","","","","","","","",""
"","ISI","","html-keyboard-response","64","110100","0.0-1.0-84.0","0","0","62553","","null","","","null","9","NaN","","","","","","","","","","","","","","",""
"","S2","","html-keyboard-response","65","110352","0.0-1.0-85.0","0","0","62553","","null","","","null","9","","NaN","","","","","","","","","","","","","",""
"","response","","html-keyboard-response","66","110690","0.0-1.0-86.0-0.0","0","0","62553","","337","","","75","9","","","1","9","training","adjacent","BA","2","1","R.jpg","P.jpg","1","0","0","",""
"","feedback","","html-keyboard-response","67","111693","0.0-1.0-87.0-0.0","0","0","62553","","null","","","null","9","","","","","","","","","","","","","","","",""
"","time_out","","html-keyboard-response","68","113695","0.0-1.0-89.0-0.0","0","0","62553","","null","","","null","9","","","","","","","","","","","","","","","",""
"","ITI","","html-keyboard-response","69","114697","0.0-1.0-90.0","0","0","62553","","null","","","null","9","","","","","","","","","","","","","","","NaN",""
"","S1","","html-keyboard-response","70","114949","0.0-1.0-92.0","0","0","62553","","null","","","null","10","","","","","","","","","","","","","","","",""
"","ISI","","html-keyboard-response","71","115101","0.0-1.0-93.0","0","0","62553","","null","","","null","10","NaN","","","","","","","","","","","","","","",""
"","S2","","html-keyboard-response","72","115355","0.0-1.0-94.0","0","0","62553","","null","","","null","10","","NaN","","","","","","","","","","","","","",""
"","response","","html-keyboard-response","73","115858","0.0-1.0-95.0-0.0","0","0","62553","","502","","","68","10","","","1","10","training","adjacent","AB","1","2","P.jpg","R.jpg","0","1","0","",""
"","feedback","","html-keyboard-response","74","116860","0.0-1.0-96.0-0.0","0","0","62553","","null","","","null","10","","","","","","","","","","","","","","","",""
"","time_out","","html-keyboard-response","75","118861","0.0-1.0-98.0-0.0","0","0","62553","","null","","","null","10","","","","","","","","","","","","","","","",""
"","ITI","","html-keyboard-response","76","119868","0.0-1.0-99.0","0","0","62553","","null","","","null","10","","","","","","","","","","","","","","","NaN",""
"","S1","","html-keyboard-response","77","120121","0.0-1.0-101.0","0","0","62553","","null","","","null","11","","","","","","","","","","","","","","","",""
"","ISI","","html-keyboard-response","78","120273","0.0-1.0-102.0","0","0","62553","","null","","","null","11","NaN","","","","","","","","","","","","","","",""
"","S2","","html-keyboard-response","79","120525","0.0-1.0-103.0","0","0","62553","","null","","","null","11","","NaN","","","","","","","","","","","","","",""
"","response","","html-keyboard-response","80","121114","0.0-1.0-104.0-0.0","0","0","62553","","588","","","75","11","","","1","11","training","adjacent","AB","1","2","P.jpg","R.jpg","1","1","1","",""
"","feedback","","html-keyboard-response","81","122116","0.0-1.0-105.0-0.0","0","0","62553","","null","","","null","11","","","","","","","","","","","","","","","",""
"","ITI","","html-keyboard-response","82","123119","0.0-1.0-108.0","0","0","62553","","null","","","null","11","","","","","","","","","","","","","","","NaN",""
"","S1","","html-keyboard-response","83","123372","0.0-1.0-110.0","0","0","62553","","null","","","null","12","","","","","","","","","","","","","","","",""
"","ISI","","html-keyboard-response","84","123524","0.0-1.0-111.0","0","0","62553","","null","","","null","12","NaN","","","","","","","","","","","","","","",""
"","S2","","html-keyboard-response","85","123776","0.0-1.0-112.0","0","0","62553","","null","","","null","12","","NaN","","","","","","","","","","","","","",""
"","response","","html-keyboard-response","86","124146","0.0-1.0-113.0-0.0","0","0","62553","","369","","","68","12","","","1","12","training","adjacent","FE","6","5","O.jpg","M.jpg","0","0","1","",""
"","feedback","","html-keyboard-response","87","125148","0.0-1.0-114.0-0.0","0","0","62553","","null","","","null","12","","","","","","","","","","","","","","","",""
"","ITI","","html-keyboard-response","88","126150","0.0-1.0-117.0","0","0","62553","","null","","","null","12","","","","","","","","","","","","","","","NaN",""
"","S1","","html-keyboard-response","89","126402","0.0-1.0-119.0","0","0","62553","","null","","","null","13","","","","","","","","","","","","","","","",""
"","ISI","","html-keyboard-response","90","126554","0.0-1.0-120.0","0","0","62553","","null","","","null","13","NaN","","","","","","","","","","","","","","",""
"","S2","","html-keyboard-response","91","126806","0.0-1.0-121.0","0","0","62553","","null","","","null","13","","NaN","","","","","","","","","","","","","",""
"","response","","html-keyboard-response","92","127002","0.0-1.0-122.0-0.0","0","0","62553","","194","","","75","13","","","1","13","training","adjacent","BA","2","1","R.jpg","P.jpg","1","0","0","",""
"","feedback","","html-keyboard-response","93","128003","0.0-1.0-123.0-0.0","0","0","62553","","null","","","null","13","","","","","","","","","","","","","","","",""
"","time_out","","html-keyboard-response","94","130006","0.0-1.0-125.0-0.0","0","0","62553","","null","","","null","13","","","","","","","","","","","","","","","",""
"","ITI","","html-keyboard-response","95","131008","0.0-1.0-126.0","0","0","62553","","null","","","null","13","","","","","","","","","","","","","","","NaN",""
"","S1","","html-keyboard-response","96","131261","0.0-1.0-128.0","0","0","62553","","null","","","null","14","","","","","","","","","","","","","","","",""
"","ISI","","html-keyboard-response","97","131413","0.0-1.0-129.0","0","0","62553","","null","","","null","14","NaN","","","","","","","","","","","","","","",""
"","S2","","html-keyboard-response","98","131666","0.0-1.0-130.0","0","0","62553","","null","","","null","14","","NaN","","","","","","","","","","","","","",""
"","response","","html-keyboard-response","99","132090","0.0-1.0-131.0-0.0","0","0","62553","","423","","","68","14","","","1","14","training","adjacent","DC","4","3","Q.jpg","N.jpg","0","0","1","",""
"","feedback","","html-keyboard-response","100","133093","0.0-1.0-132.0-0.0","0","0","62553","","null","","","null","14","","","","","","","","","","","","","","","",""
"","ITI","","html-keyboard-response","101","134097","0.0-1.0-135.0","0","0","62553","","null","","","null","14","","","","","","","","","","","","","","","NaN",""
"","S1","","html-keyboard-response","102","134349","0.0-1.0-137.0","0","0","62553","","null","","","null","15","","","","","","","","","","","","","","","",""
"","ISI","","html-keyboard-response","103","134501","0.0-1.0-138.0","0","0","62553","","null","","","null","15","NaN","","","","","","","","","","","","","","",""
"","S2","","html-keyboard-response","104","134754","0.0-1.0-139.0","0","0","62553","","null","","","null","15","","NaN","","","","","","","","","","","","","",""
"","response","","html-keyboard-response","105","135178","0.0-1.0-140.0-0.0","0","0","62553","","422","","","75","15","","","1","15","training","adjacent","FG","6","7","O.jpg","L.jpg","1","1","1","",""
"","feedback","","html-keyboard-response","106","136181","0.0-1.0-141.0-0.0","0","0","62553","","null","","","null","15","","","","","","","","","","","","","","","",""
"","ITI","","html-keyboard-response","107","137183","0.0-1.0-144.0","0","0","62553","","null","","","null","15","","","","","","","","","","","","","","","NaN",""
"","S1","","html-keyboard-response","108","137435","0.0-1.0-146.0","0","0","62553","","null","","","null","16","","","","","","","","","","","","","","","",""
"","ISI","","html-keyboard-response","109","137587","0.0-1.0-147.0","0","0","62553","","null","","","null","16","NaN","","","","","","","","","","","","","","",""
"","S2","","html-keyboard-response","110","137839","0.0-1.0-148.0","0","0","62553","","null","","","null","16","","NaN","","","","","","","","","","","","","",""
"","response","","html-keyboard-response","111","138050","0.0-1.0-149.0-0.0","0","0","62553","","210","","","75","16","","","1","16","training","adjacent","BA","2","1","R.jpg","P.jpg","1","0","0","",""
"","feedback","","html-keyboard-response","112","139052","0.0-1.0-150.0-0.0","0","0","62553","","null","","","null","16","","","","","","","","","","","","","","","",""
"","time_out","","html-keyboard-response","113","141054","0.0-1.0-152.0-0.0","0","0","62553","","null","","","null","16","","","","","","","","","","","","","","","",""
"","ITI","","html-keyboard-response","114","142056","0.0-1.0-153.0","0","0","62553","","null","","","null","16","","","","","","","","","","","","","","","NaN",""
"","S1","","html-keyboard-response","115","142309","0.0-1.0-155.0","0","0","62553","","null","","","null","17","","","","","","","","","","","","","","","",""
"","ISI","","html-keyboard-response","116","142461","0.0-1.0-156.0","0","0","62553","","null","","","null","17","NaN","","","","","","","","","","","","","","",""
"","S2","","html-keyboard-response","117","142714","0.0-1.0-157.0","0","0","62553","","null","","","null","17","","NaN","","","","","","","","","","","","","",""
"","response","","html-keyboard-response","118","143170","0.0-1.0-158.0-0.0","0","0","62553","","454","","","68","17","","","1","17","training","adjacent","DE","4","5","Q.jpg","M.jpg","0","1","0","",""
"","feedback","","html-keyboard-response","119","144172","0.0-1.0-159.0-0.0","0","0","62553","","null","","","null","17","","","","","","","","","","","","","","","",""
"","time_out","","html-keyboard-response","120","146174","0.0-1.0-161.0-0.0","0","0","62553","","null","","","null","17","","","","","","","","","","","","","","","",""
"","ITI","","html-keyboard-response","121","147176","0.0-1.0-162.0","0","0","62553","","null","","","null","17","","","","","","","","","","","","","","","NaN",""
"","S1","","html-keyboard-response","122","147428","0.0-1.0-164.0","0","0","62553","","null","","","null","18","","","","","","","","","","","","","","","",""
"","ISI","","html-keyboard-response","123","147581","0.0-1.0-165.0","0","0","62553","","null","","","null","18","NaN","","","","","","","","","","","","","","",""
"","S2","","html-keyboard-response","124","147626","0.0-1.0-166.0","0","0","62553","","44","","","75","18","","k","1","18","training","adjacent","ED","5","4","M.jpg","Q.jpg","1","0","0","",""
"","feedback","","html-keyboard-response","125","148629","0.0-1.0-168.0-0.0","0","0","62553","","null","","","null","18","","","","","","","","","","","","","","","",""
"","time_out","","html-keyboard-response","126","150632","0.0-1.0-170.0-0.0","0","0","62553","","null","","","null","18","","","","","","","","","","","","","","","",""
"","ITI","","html-keyboard-response","127","151635","0.0-1.0-171.0","0","0","62553","","null","","","null","18","","","","","","","","","","","","","","","NaN",""
"","S1","","html-keyboard-response","128","151887","0.0-1.0-173.0","0","0","62553","","null","","","null","19","","","","","","","","","","","","","","","",""
"","ISI","","html-keyboard-response","129","152040","0.0-1.0-174.0","0","0","62553","","null","","","null","19","NaN","","","","","","","","","","","","","","",""
"","S2","","html-keyboard-response","130","152292","0.0-1.0-175.0","0","0","62553","","null","","","null","19","","NaN","","","","","","","","","","","","","",""
"","response","","html-keyboard-response","131","152898","0.0-1.0-176.0-0.0","0","0","62553","","605","","","75","19","","","1","19","training","adjacent","DE","4","5","Q.jpg","M.jpg","1","1","1","",""
"","feedback","","html-keyboard-response","132","153900","0.0-1.0-177.0-0.0","0","0","62553","","null","","","null","19","","","","","","","","","","","","","","","",""
"","ITI","","html-keyboard-response","133","154902","0.0-1.0-180.0","0","0","62553","","null","","","null","19","","","","","","","","","","","","","","","NaN",""
"","S1","","html-keyboard-response","134","155154","0.0-1.0-182.0","0","0","62553","","null","","","null","20","","","","","","","","","","","","","","","",""
"","ISI","","html-keyboard-response","135","155307","0.0-1.0-183.0","0","0","62553","","null","","","null","20","NaN","","","","","","","","","","","","","","",""
"","S2","","html-keyboard-response","136","155559","0.0-1.0-184.0","0","0","62553","","null","","","null","20","","NaN","","","","","","","","","","","","","",""
"","response","","html-keyboard-response","137","155890","0.0-1.0-185.0-0.0","0","0","62553","","330","","","75","20","","","1","20","training","adjacent","ED","5","4","M.jpg","Q.jpg","1","0","0","",""
"","feedback","","html-keyboard-response","138","156892","0.0-1.0-186.0-0.0","0","0","62553","","null","","","null","20","","","","","","","","","","","","","","","",""
"","time_out","","html-keyboard-response","139","158894","0.0-1.0-188.0-0.0","0","0","62553","","null","","","null","20","","","","","","","","","","","","","","","",""
"","ITI","","html-keyboard-response","140","159896","0.0-1.0-189.0","0","0","62553","","null","","","null","20","","","","","","","","","","","","","","","NaN",""
"","S1","","html-keyboard-response","141","160149","0.0-1.0-191.0","0","0","62553","","null","","","null","21","","","","","","","","","","","","","","","",""
"","ISI","","html-keyboard-response","142","160306","0.0-1.0-192.0","0","0","62553","","null","","","null","21","NaN","","","","","","","","","","","","","","",""
"","S2","","html-keyboard-response","143","160558","0.0-1.0-193.0","0","0","62553","","null","","","null","21","","NaN","","","","","","","","","","","","","",""
"","response","","html-keyboard-response","144","160874","0.0-1.0-194.0-0.0","0","0","62553","","315","","","68","21","","","1","21","training","adjacent","DC","4","3","Q.jpg","N.jpg","0","0","1","",""
"","feedback","","html-keyboard-response","145","161876","0.0-1.0-195.0-0.0","0","0","62553","","null","","","null","21","","","","","","","","","","","","","","","",""
"","ITI","","html-keyboard-response","146","162879","0.0-1.0-198.0","0","0","62553","","null","","","null","21","","","","","","","","","","","","","","","NaN",""
"","S1","","html-keyboard-response","147","163131","0.0-1.0-200.0","0","0","62553","","null","","","null","22","","","","","","","","","","","","","","","",""
"","ISI","","html-keyboard-response","148","163283","0.0-1.0-201.0","0","0","62553","","null","","","null","22","NaN","","","","","","","","","","","","","","",""
"","S2","","html-keyboard-response","149","163535","0.0-1.0-202.0","0","0","62553","","null","","","null","22","","NaN","","","","","","","","","","","","","",""
"","response","","html-keyboard-response","150","163810","0.0-1.0-203.0-0.0","0","0","62553","","273","","","75","22","","","1","22","training","adjacent","BA","2","1","R.jpg","P.jpg","1","0","0","",""
"","feedback","","html-keyboard-response","151","164812","0.0-1.0-204.0-0.0","0","0","62553","","null","","","null","22","","","","","","","","","","","","","","","",""
"","time_out","","html-keyboard-response","152","166815","0.0-1.0-206.0-0.0","0","0","62553","","null","","","null","22","","","","","","","","","","","","","","","",""
"","ITI","","html-keyboard-response","153","167816","0.0-1.0-207.0","0","0","62553","","null","","","null","22","","","","","","","","","","","","","","","NaN",""
"","S1","","html-keyboard-response","154","168069","0.0-1.0-209.0","0","0","62553","","null","","","null","23","","","","","","","","","","","","","","","",""
"","ISI","","html-keyboard-response","155","168229","0.0-1.0-210.0","0","0","62553","","null","","","null","23","NaN","","","","","","","","","","","","","","",""
"","S2","","html-keyboard-response","156","168481","0.0-1.0-211.0","0","0","62553","","null","","","null","23","","NaN","","","","","","","","","","","","","",""
"","response","","html-keyboard-response","157","168642","0.0-1.0-212.0-0.0","0","0","62553","","159","","","68","23","","","1","23","training","adjacent","FE","6","5","O.jpg","M.jpg","0","0","1","",""
"","feedback","","html-keyboard-response","158","169645","0.0-1.0-213.0-0.0","0","0","62553","","null","","","null","23","","","","","","","","","","","","","","","",""
"","ITI","","html-keyboard-response","159","170648","0.0-1.0-216.0","0","0","62553","","null","","","null","23","","","","","","","","","","","","","","","NaN",""
"","S1","","html-keyboard-response","160","170900","0.0-1.0-218.0","0","0","62553","","null","","","null","24","","","","","","","","","","","","","","","",""
"","ISI","","html-keyboard-response","161","171052","0.0-1.0-219.0","0","0","62553","","null","","","null","24","NaN","","","","","","","","","","","","","","",""
"","S2","","html-keyboard-response","162","171304","0.0-1.0-220.0","0","0","62553","","null","","","null","24","","NaN","","","","","","","","","","","","","",""
"","response","","html-keyboard-response","163","171490","0.0-1.0-221.0-0.0","0","0","62553","","185","","","68","24","","","1","24","training","adjacent","GF","7","6","L.jpg","O.jpg","0","0","1","",""
"","feedback","","html-keyboard-response","164","172493","0.0-1.0-222.0-0.0","0","0","62553","","null","","","null","24","","","","","","","","","","","","","","","",""
"","ITI","","html-keyboard-response","165","173495","0.0-1.0-225.0","0","0","62553","","null","","","null","24","","","","","","","","","","","","","","","NaN",""
"","S1","","html-keyboard-response","166","173747","0.0-1.0-227.0","0","0","62553","","null","","","null","25","","","","","","","","","","","","","","","",""
"","ISI","","html-keyboard-response","167","173899","0.0-1.0-228.0","0","0","62553","","null","","","null","25","NaN","","","","","","","","","","","","","","",""
"","S2","","html-keyboard-response","168","174152","0.0-1.0-229.0","0","0","62553","","null","","","null","25","","NaN","","","","","","","","","","","","","",""
"","response","","html-keyboard-response","169","174330","0.0-1.0-230.0-0.0","0","0","62553","","177","","","68","25","","","1","25","training","adjacent","EF","5","6","M.jpg","O.jpg","0","1","0","",""
"","feedback","","html-keyboard-response","170","175333","0.0-1.0-231.0-0.0","0","0","62553","","null","","","null","25","","","","","","","","","","","","","","","",""
"","time_out","","html-keyboard-response","171","177334","0.0-1.0-233.0-0.0","0","0","62553","","null","","","null","25","","","","","","","","","","","","","","","",""
"","ITI","","html-keyboard-response","172","178336","0.0-1.0-234.0","0","0","62553","","null","","","null","25","","","","","","","","","","","","","","","NaN",""
"","S1","","html-keyboard-response","173","178589","0.0-1.0-236.0","0","0","62553","","null","","","null","26","","","","","","","","","","","","","","","",""
"","ISI","","html-keyboard-response","174","178741","0.0-1.0-237.0","0","0","62553","","null","","","null","26","NaN","","","","","","","","","","","","","","",""
"","S2","","html-keyboard-response","175","178993","0.0-1.0-238.0","0","0","62553","","null","","","null","26","","NaN","","","","","","","","","","","","","",""
"","response","","html-keyboard-response","176","179122","0.0-1.0-239.0-0.0","0","0","62553","","127","","","75","26","","","1","26","training","adjacent","ED","5","4","M.jpg","Q.jpg","1","0","0","",""
"","feedback","","html-keyboard-response","177","180125","0.0-1.0-240.0-0.0","0","0","62553","","null","","","null","26","","","","","","","","","","","","","","","",""
"","time_out","","html-keyboard-response","178","182127","0.0-1.0-242.0-0.0","0","0","62553","","null","","","null","26","","","","","","","","","","","","","","","",""
"","ITI","","html-keyboard-response","179","183129","0.0-1.0-243.0","0","0","62553","","null","","","null","26","","","","","","","","","","","","","","","NaN",""
"","S1","","html-keyboard-response","180","183382","0.0-1.0-245.0","0","0","62553","","null","","","null","27","","","","","","","","","","","","","","","",""
"","ISI","","html-keyboard-response","181","183534","0.0-1.0-246.0","0","0","62553","","null","","","null","27","NaN","","","","","","","","","","","","","","",""
"","S2","","html-keyboard-response","182","183787","0.0-1.0-247.0","0","0","62553","","null","","","null","27","","NaN","","","","","","","","","","","","","",""
"","response","","html-keyboard-response","183","184106","0.0-1.0-248.0-0.0","0","0","62553","","318","","","75","27","","","1","27","training","adjacent","FE","6","5","O.jpg","M.jpg","1","0","0","",""
"","feedback","","html-keyboard-response","184","185108","0.0-1.0-249.0-0.0","0","0","62553","","null","","","null","27","","","","","","","","","","","","","","","",""
"","time_out","","html-keyboard-response","185","187110","0.0-1.0-251.0-0.0","0","0","62553","","null","","","null","27","","","","","","","","","","","","","","","",""
"","ITI","","html-keyboard-response","186","188113","0.0-1.0-252.0","0","0","62553","","null","","","null","27","","","","","","","","","","","","","","","NaN",""
"","S1","","html-keyboard-response","187","188365","0.0-1.0-254.0","0","0","62553","","null","","","null","28","","","","","","","","","","","","","","","",""
"","ISI","","html-keyboard-response","188","188518","0.0-1.0-255.0","0","0","62553","","null","","","null","28","NaN","","","","","","","","","","","","","","",""
"","S2","","html-keyboard-response","189","188783","0.0-1.0-256.0","0","0","62553","","null","","","null","28","","NaN","","","","","","","","","","","","","",""
"","response","","html-keyboard-response","190","188850","0.0-1.0-257.0-0.0","0","0","62553","","66","","","68","28","","","1","28","training","adjacent","GF","7","6","L.jpg","O.jpg","0","0","1","",""
"","feedback","","html-keyboard-response","191","189860","0.0-1.0-258.0-0.0","0","0","62553","","null","","","null","28","","","","","","","","","","","","","","","",""
"","ITI","","html-keyboard-response","192","190862","0.0-1.0-261.0","0","0","62553","","null","","","null","28","","","","","","","","","","","","","","","NaN",""
"","S1","","html-keyboard-response","193","191114","0.0-1.0-263.0","0","0","62553","","null","","","null","29","","","","","","","","","","","","","","","",""
"","ISI","","html-keyboard-response","194","191266","0.0-1.0-264.0","0","0","62553","","null","","","null","29","NaN","","","","","","","","","","","","","","",""
"","S2","","html-keyboard-response","195","191519","0.0-1.0-265.0","0","0","62553","","null","","","null","29","","NaN","","","","","","","","","","","","","",""
"","response","","html-keyboard-response","196","191890","0.0-1.0-266.0-0.0","0","0","62553","","370","","","75","29","","","1","29","training","adjacent","BC","2","3","R.jpg","N.jpg","1","1","1","",""
"","feedback","","html-keyboard-response","197","192893","0.0-1.0-267.0-0.0","0","0","62553","","null","","","null","29","","","","","","","","","","","","","","","",""
"","ITI","","html-keyboard-response","198","193895","0.0-1.0-270.0","0","0","62553","","null","","","null","29","","","","","","","","","","","","","","","NaN",""
"","S1","","html-keyboard-response","199","194147","0.0-1.0-272.0","0","0","62553","","null","","","null","30","","","","","","","","","","","","","","","",""
"","ISI","","html-keyboard-response","200","194305","0.0-1.0-273.0","0","0","62553","","null","","","null","30","NaN","","","","","","","","","","","","","","",""
"","S2","","html-keyboard-response","201","194557","0.0-1.0-274.0","0","0","62553","","null","","","null","30","","NaN","","","","","","","","","","","","","",""
"","response","","html-keyboard-response","202","195082","0.0-1.0-275.0-0.0","0","0","62553","","524","","","75","30","","","1","30","training","adjacent","FG","6","7","O.jpg","L.jpg","1","1","1","",""
"","feedback","","html-keyboard-response","203","196084","0.0-1.0-276.0-0.0","0","0","62553","","null","","","null","30","","","","","","","","","","","","","","","",""
"","ITI","","html-keyboard-response","204","197086","0.0-1.0-279.0","0","0","62553","","null","","","null","30","","","","","","","","","","","","","","","NaN",""
"","S1","","html-keyboard-response","205","197338","0.0-1.0-281.0","0","0","62553","","null","","","null","31","","","","","","","","","","","","","","","",""
"","ISI","","html-keyboard-response","206","197494","0.0-1.0-282.0","0","0","62553","","null","","","null","31","NaN","","","","","","","","","","","","","","",""
"","S2","","html-keyboard-response","207","197738","0.0-1.0-283.0","0","0","62553","","242","","","75","31","","k","1","31","training","adjacent","CD","3","4","N.jpg","Q.jpg","1","1","1","",""
"","feedback","","html-keyboard-response","208","198740","0.0-1.0-285.0-0.0","0","0","62553","","null","","","null","31","","","","","","","","","","","","","","","",""
"","ITI","","html-keyboard-response","209","199742","0.0-1.0-288.0","0","0","62553","","null","","","null","31","","","","","","","","","","","","","","","NaN",""
"","S1","","html-keyboard-response","210","199994","0.0-1.0-290.0","0","0","62553","","null","","","null","32","","","","","","","","","","","","","","","",""
"","ISI","","html-keyboard-response","211","200146","0.0-1.0-291.0","0","0","62553","","null","","","null","32","NaN","","","","","","","","","","","","","","",""
"","S2","","html-keyboard-response","212","200398","0.0-1.0-292.0","0","0","62553","","null","","","null","32","","NaN","","","","","","","","","","","","","",""
"","response","","html-keyboard-response","213","200690","0.0-1.0-293.0-0.0","0","0","62553","","290","","","75","32","","","1","32","training","adjacent","CB","3","2","N.jpg","R.jpg","1","0","0","",""
"","feedback","","html-keyboard-response","214","201692","0.0-1.0-294.0-0.0","0","0","62553","","null","","","null","32","","","","","","","","","","","","","","","",""
"","time_out","","html-keyboard-response","215","203694","0.0-1.0-296.0-0.0","0","0","62553","","null","","","null","32","","","","","","","","","","","","","","","",""
"","ITI","","html-keyboard-response","216","204696","0.0-1.0-297.0","0","0","62553","","null","","","null","32","","","","","","","","","","","","","","","NaN",""
"","S1","","html-keyboard-response","217","204948","0.0-1.0-299.0","0","0","62553","","null","","","null","33","","","","","","","","","","","","","","","",""
"","ISI","","html-keyboard-response","218","205103","0.0-1.0-300.0","0","0","62553","","null","","","null","33","NaN","","","","","","","","","","","","","","",""
"","S2","","html-keyboard-response","219","205314","0.0-1.0-301.0","0","0","62553","","209","","","68","33","","d","1","33","training","adjacent","DE","4","5","Q.jpg","M.jpg","0","1","0","",""
"","feedback","","html-keyboard-response","220","206316","0.0-1.0-303.0-0.0","0","0","62553","","null","","","null","33","","","","","","","","","","","","","","","",""
"","time_out","","html-keyboard-response","221","208318","0.0-1.0-305.0-0.0","0","0","62553","","null","","","null","33","","","","","","","","","","","","","","","",""
"","ITI","","html-keyboard-response","222","209320","0.0-1.0-306.0","0","0","62553","","null","","","null","33","","","","","","","","","","","","","","","NaN",""
"","S1","","html-keyboard-response","223","209573","0.0-1.0-308.0","0","0","62553","","null","","","null","34","","","","","","","","","","","","","","","",""
"","ISI","","html-keyboard-response","224","209724","0.0-1.0-309.0","0","0","62553","","null","","","null","34","NaN","","","","","","","","","","","","","","",""
"","S2","","html-keyboard-response","225","209977","0.0-1.0-310.0","0","0","62553","","null","","","null","34","","NaN","","","","","","","","","","","","","",""
"","response","","html-keyboard-response","226","211729","0.0-1.0-311.0-0.0","0","0","62553","","null","","","null","34","","","1","34","training","adjacent","BC","2","3","R.jpg","N.jpg","NaN","1","0","",""
"","too_slow_prompt","","html-keyboard-response","227","212730","0.0-1.0-313.0-0.0","1","0","62553","","null","","","null","","","","","","","","","","","","","","","","",""
"","time_out","","html-keyboard-response","228","214733","0.0-1.0-314.0-0.0","0","0","62553","","null","","","null","34","","","","","","","","","","","","","","","",""
"","ITI","","html-keyboard-response","229","215735","0.0-1.0-315.0","0","0","62553","","null","","","null","34","","","","","","","","","","","","","","","NaN",""
"","S1","","html-keyboard-response","230","215987","0.0-1.0-317.0","0","0","62553","","null","","","null","35","","","","","","","","","","","","","","","",""
"","ISI","","html-keyboard-response","231","216153","0.0-1.0-318.0","0","0","62553","","null","","","null","35","NaN","","","","","","","","","","","","","","",""
"","S2","","html-keyboard-response","232","216210","0.0-1.0-319.0","0","0","62553","","55","","","68","35","","d","1","35","training","adjacent","AB","1","2","P.jpg","R.jpg","0","1","0","",""
"","feedback","","html-keyboard-response","233","217213","0.0-1.0-321.0-0.0","0","0","62553","","null","","","null","35","","","","","","","","","","","","","","","",""
"","time_out","","html-keyboard-response","234","219215","0.0-1.0-323.0-0.0","0","0","62553","","null","","","null","35","","","","","","","","","","","","","","","",""
"","ITI","","html-keyboard-response","235","220217","0.0-1.0-324.0","0","0","62553","","null","","","null","35","","","","","","","","","","","","","","","NaN",""
"","S1","","html-keyboard-response","236","220471","0.0-1.0-326.0","0","0","62553","","null","","","null","36","","","","","","","","","","","","","","","",""
"","ISI","","html-keyboard-response","237","220623","0.0-1.0-327.0","0","0","62553","","82","","","75","36","k","","","","","","","","","","","","","","",""
"","S2","","html-keyboard-response","238","220876","0.0-1.0-328.0","0","0","62553","","null","","","null","36","","NaN","","","","","","","","","","","","","",""
"","response","","html-keyboard-response","239","221210","0.0-1.0-329.0-0.0","0","0","62553","","333","","","68","36","","","1","36","training","adjacent","CB","3","2","N.jpg","R.jpg","0","0","1","",""
"","feedback","","html-keyboard-response","240","222213","0.0-1.0-330.0-0.0","0","0","62553","","null","","","null","36","","","","","","","","","","","","","","","",""
"","ITI","","html-keyboard-response","241","223215","0.0-1.0-333.0","0","0","62553","","null","","","null","36","","","","","","","","","","","","","","","NaN",""
"","S1","","html-keyboard-response","242","223467","0.0-1.0-335.0","0","0","62553","","null","","","null","37","","","","","","","","","","","","","","","",""
"","ISI","","html-keyboard-response","243","223619","0.0-1.0-336.0","0","0","62553","","null","","","null","37","NaN","","","","","","","","","","","","","","",""
"","S2","","html-keyboard-response","244","223872","0.0-1.0-337.0","0","0","62553","","null","","","null","37","","NaN","","","","","","","","","","","","","",""
"","response","","html-keyboard-response","245","224682","0.0-1.0-338.0-0.0","0","0","62553","","809","","","75","37","","","1","37","training","adjacent","BC","2","3","R.jpg","N.jpg","1","1","1","",""
"","feedback","","html-keyboard-response","246","225685","0.0-1.0-339.0-0.0","0","0","62553","","null","","","null","37","","","","","","","","","","","","","","","",""
"","ITI","","html-keyboard-response","247","226687","0.0-1.0-342.0","0","0","62553","","null","","","null","37","","","","","","","","","","","","","","","NaN",""
"","S1","","html-keyboard-response","248","226940","0.0-1.0-344.0","0","0","62553","","null","","","null","38","","","","","","","","","","","","","","","",""
"","ISI","","html-keyboard-response","249","227092","0.0-1.0-345.0","0","0","62553","","null","","","null","38","NaN","","","","","","","","","","","","","","",""
"","S2","","html-keyboard-response","250","227344","0.0-1.0-346.0","0","0","62553","","null","","","null","38","","NaN","","","","","","","","","","","","","",""
"","response","","html-keyboard-response","251","227450","0.0-1.0-347.0-0.0","0","0","62553","","105","","","75","38","","","1","38","training","adjacent","FG","6","7","O.jpg","L.jpg","1","1","1","",""
"","feedback","","html-keyboard-response","252","228452","0.0-1.0-348.0-0.0","0","0","62553","","null","","","null","38","","","","","","","","","","","","","","","",""
"","ITI","","html-keyboard-response","253","229455","0.0-1.0-351.0","0","0","62553","","null","","","null","38","","","","","","","","","","","","","","","NaN",""
"","S1","","html-keyboard-response","254","229707","0.0-1.0-353.0","0","0","62553","","null","","","null","39","","","","","","","","","","","","","","","",""
"","ISI","","html-keyboard-response","255","229860","0.0-1.0-354.0","0","0","62553","","109","","","75","39","k","","","","","","","","","","","","","","",""
"","S2","","html-keyboard-response","256","230112","0.0-1.0-355.0","0","0","62553","","null","","","null","39","","NaN","","","","","","","","","","","","","",""
"","response","","html-keyboard-response","257","230402","0.0-1.0-356.0-0.0","0","0","62553","","288","","","75","39","","","1","39","training","adjacent","CB","3","2","N.jpg","R.jpg","1","0","0","",""
"","feedback","","html-keyboard-response","258","231405","0.0-1.0-357.0-0.0","0","0","62553","","null","","","null","39","","","","","","","","","","","","","","","",""
"","time_out","","html-keyboard-response","259","233407","0.0-1.0-359.0-0.0","0","0","62553","","null","","","null","39","","","","","","","","","","","","","","","",""
"","ITI","","html-keyboard-response","260","234410","0.0-1.0-360.0","0","0","62553","","954","","","75","39","","","","","","","","","","","","","","","k",""
"","S1","","html-keyboard-response","261","234662","0.0-1.0-362.0","0","0","62553","","null","","","null","40","","","","","","","","","","","","","","","",""
"","ISI","","html-keyboard-response","262","234815","0.0-1.0-363.0","0","0","62553","","null","","","null","40","NaN","","","","","","","","","","","","","","",""
"","S2","","html-keyboard-response","263","234986","0.0-1.0-364.0","0","0","62553","","170","","","75","40","","k","1","40","training","adjacent","AB","1","2","P.jpg","R.jpg","1","1","1","",""
"","feedback","","html-keyboard-response","264","235989","0.0-1.0-366.0-0.0","0","0","62553","","null","","","null","40","","","","","","","","","","","","","","","",""
"","ITI","","html-keyboard-response","265","236992","0.0-1.0-369.0","0","0","62553","","null","","","null","40","","","","","","","","","","","","","","","NaN",""
"","S1","","html-keyboard-response","266","237244","0.0-1.0-371.0","0","0","62553","","null","","","null","41","","","","","","","","","","","","","","","",""
"","ISI","","html-keyboard-response","267","237395","0.0-1.0-372.0","0","0","62553","","101","","","75","41","k","","","","","","","","","","","","","","",""
"","S2","","html-keyboard-response","268","237647","0.0-1.0-373.0","0","0","62553","","null","","","null","41","","NaN","","","","","","","","","","","","","",""
"","response","","html-keyboard-response","269","237962","0.0-1.0-374.0-0.0","0","0","62553","","313","","","75","41","","","1","41","training","adjacent","GF","7","6","L.jpg","O.jpg","1","0","0","",""
"","feedback","","html-keyboard-response","270","238964","0.0-1.0-375.0-0.0","0","0","62553","","null","","","null","41","","","","","","","","","","","","","","","",""
"","time_out","","html-keyboard-response","271","240968","0.0-1.0-377.0-0.0","0","0","62553","","null","","","null","41","","","","","","","","","","","","","","","",""
"","ITI","","html-keyboard-response","272","241969","0.0-1.0-378.0","0","0","62553","","473","","","68","41","","","","","","","","","","","","","","","d",""
"","S1","","html-keyboard-response","273","242222","0.0-1.0-380.0","0","0","62553","","null","","","null","42","","","","","","","","","","","","","","","",""
"","ISI","","html-keyboard-response","274","242374","0.0-1.0-381.0","0","0","62553","","83","","","68","42","d","","","","","","","","","","","","","","",""
"","S2","","html-keyboard-response","275","242627","0.0-1.0-382.0","0","0","62553","","null","","","null","42","","NaN","","","","","","","","","","","","","",""
"","response","","html-keyboard-response","276","242746","0.0-1.0-383.0-0.0","0","0","62553","","118","","","68","42","","","1","42","training","adjacent","GF","7","6","L.jpg","O.jpg","0","0","1","",""
"","feedback","","html-keyboard-response","277","243749","0.0-1.0-384.0-0.0","0","0","62553","","null","","","null","42","","","","","","","","","","","","","","","",""
"","ITI","","html-keyboard-response","278","244752","0.0-1.0-387.0","0","0","62553","","null","","","null","42","","","","","","","","","","","","","","","NaN",""
"","S1","","html-keyboard-response","279","245004","0.0-1.0-389.0","0","0","62553","","null","","","null","43","","","","","","","","","","","","","","","",""
"","ISI","","html-keyboard-response","280","245156","0.0-1.0-390.0","0","0","62553","","null","","","null","43","NaN","","","","","","","","","","","","","","",""
"","S2","","html-keyboard-response","281","245394","0.0-1.0-391.0","0","0","62553","","237","","","68","43","","d","1","43","training","adjacent","EF","5","6","M.jpg","O.jpg","0","1","0","",""
"","feedback","","html-keyboard-response","282","246397","0.0-1.0-393.0-0.0","0","0","62553","","null","","","null","43","","","","","","","","","","","","","","","",""
"","time_out","","html-keyboard-response","283","248399","0.0-1.0-395.0-0.0","0","0","62553","","null","","","null","43","","","","","","","","","","","","","","","",""
"","ITI","","html-keyboard-response","284","249403","0.0-1.0-396.0","0","0","62553","","null","","","null","43","","","","","","","","","","","","","","","NaN",""
"","S1","","html-keyboard-response","285","249655","0.0-1.0-398.0","0","0","62553","","null","","","null","44","","","","","","","","","","","","","","","",""
"","ISI","","html-keyboard-response","286","249807","0.0-1.0-399.0","0","0","62553","","null","","","null","44","NaN","","","","","","","","","","","","","","",""
"","S2","","html-keyboard-response","287","249826","0.0-1.0-400.0","0","0","62553","","17","","","68","44","","d","1","44","training","adjacent","ED","5","4","M.jpg","Q.jpg","0","0","1","",""
"","feedback","","html-keyboard-response","288","250829","0.0-1.0-402.0-0.0","0","0","62553","","null","","","null","44","","","","","","","","","","","","","","","",""
"","ITI","","html-keyboard-response","289","251831","0.0-1.0-405.0","0","0","62553","","null","","","null","44","","","","","","","","","","","","","","","NaN",""
"","S1","","html-keyboard-response","290","252084","0.0-1.0-407.0","0","0","62553","","null","","","null","45","","","","","","","","","","","","","","","",""
"","ISI","","html-keyboard-response","291","252236","0.0-1.0-408.0","0","0","62553","","null","","","null","45","NaN","","","","","","","","","","","","","","",""
"","S2","","html-keyboard-response","292","252314","0.0-1.0-409.0","0","0","62553","","77","","","68","45","","d","1","45","training","adjacent","DC","4","3","Q.jpg","N.jpg","0","0","1","",""
"","feedback","","html-keyboard-response","293","253317","0.0-1.0-411.0-0.0","0","0","62553","","null","","","null","45","","","","","","","","","","","","","","","",""
"","ITI","","html-keyboard-response","294","254319","0.0-1.0-414.0","0","0","62553","","null","","","null","45","","","","","","","","","","","","","","","NaN",""
"","S1","","html-keyboard-response","295","254572","0.0-1.0-416.0","0","0","62553","","null","","","null","46","","","","","","","","","","","","","","","",""
"","ISI","","html-keyboard-response","296","254724","0.0-1.0-417.0","0","0","62553","","37","","","68","46","d","","","","","","","","","","","","","","",""
"","S2","","html-keyboard-response","297","254976","0.0-1.0-418.0","0","0","62553","","null","","","null","46","","NaN","","","","","","","","","","","","","",""
"","response","","html-keyboard-response","298","255130","0.0-1.0-419.0-0.0","0","0","62553","","153","","","68","46","","","1","46","training","adjacent","DE","4","5","Q.jpg","M.jpg","0","1","0","",""
"","feedback","","html-keyboard-response","299","256133","0.0-1.0-420.0-0.0","0","0","62553","","null","","","null","46","","","","","","","","","","","","","","","",""
"","time_out","","html-keyboard-response","300","258136","0.0-1.0-422.0-0.0","0","0","62553","","null","","","null","46","","","","","","","","","","","","","","","",""
"","ITI","","html-keyboard-response","301","259137","0.0-1.0-423.0","0","0","62553","","null","","","null","46","","","","","","","","","","","","","","","NaN",""
"","S1","","html-keyboard-response","302","259390","0.0-1.0-425.0","0","0","62553","","null","","","null","47","","","","","","","","","","","","","","","",""
"","ISI","","html-keyboard-response","303","259542","0.0-1.0-426.0","0","0","62553","","null","","","null","47","NaN","","","","","","","","","","","","","","",""
"","S2","","html-keyboard-response","304","259594","0.0-1.0-427.0","0","0","62553","","51","","","75","47","","k","1","47","training","adjacent","CD","3","4","N.jpg","Q.jpg","1","1","1","",""
"","feedback","","html-keyboard-response","305","260599","0.0-1.0-429.0-0.0","0","0","62553","","null","","","null","47","","","","","","","","","","","","","","","",""
"","ITI","","html-keyboard-response","306","261607","0.0-1.0-432.0","0","0","62553","","null","","","null","47","","","","","","","","","","","","","","","NaN",""
"","block_over","","html-keyboard-response","307","267138","0.0-1.0-433.0-0.0","0","0","62553","","5529","","","32","47","","","","","","","","","","","","","","","",""
"","S1","","html-keyboard-response","308","267391","0.0-1.0-434.0","0","0","62553","","null","","","null","48","","","","","","","","","","","","","","","",""
"","ISI","","html-keyboard-response","309","267543","0.0-1.0-435.0","0","0","62553","","null","","","null","48","NaN","","","","","","","","","","","","","","",""
"","S2","","html-keyboard-response","310","267795","0.0-1.0-436.0","0","0","62553","","null","","","null","48","","NaN","","","","","","","","","","","","","",""
"","response","","html-keyboard-response","311","267930","0.0-1.0-437.0-0.0","0","0","62553","","134","","","75","48","","","2","48","training","adjacent","CB","3","2","N.jpg","R.jpg","1","0","0","",""
"","feedback","","html-keyboard-response","312","268932","0.0-1.0-438.0-0.0","0","0","62553","","null","","","null","48","","","","","","","","","","","","","","","",""
"","time_out","","html-keyboard-response","313","270935","0.0-1.0-440.0-0.0","0","0","62553","","null","","","null","48","","","","","","","","","","","","","","","",""
"","ITI","","html-keyboard-response","314","271938","0.0-1.0-441.0","0","0","62553","","null","","","null","48","","","","","","","","","","","","","","","NaN",""
"","S1","","html-keyboard-response","315","272190","0.0-1.0-443.0","0","0","62553","","null","","","null","49","","","","","","","","","","","","","","","",""
"","ISI","","html-keyboard-response","316","272342","0.0-1.0-444.0","0","0","62553","","null","","","null","49","NaN","","","","","","","","","","","","","","",""
"","S2","","html-keyboard-response","317","272562","0.0-1.0-445.0","0","0","62553","","219","","","68","49","","d","2","49","training","adjacent","CD","3","4","N.jpg","Q.jpg","0","1","0","",""
"","feedback","","html-keyboard-response","318","273565","0.0-1.0-447.0-0.0","0","0","62553","","null","","","null","49","","","","","","","","","","","","","","","",""
"","time_out","","html-keyboard-response","319","275567","0.0-1.0-449.0-0.0","0","0","62553","","null","","","null","49","","","","","","","","","","","","","","","",""
"","ITI","","html-keyboard-response","320","276569","0.0-1.0-450.0","0","0","62553","","null","","","null","49","","","","","","","","","","","","","","","NaN",""
"","S1","","html-keyboard-response","321","276822","0.0-1.0-452.0","0","0","62553","","null","","","null","50","","","","","","","","","","","","","","","",""
"","ISI","","html-keyboard-response","322","276974","0.0-1.0-453.0","0","0","62553","","null","","","null","50","NaN","","","","","","","","","","","","","","",""
"","S2","","html-keyboard-response","323","277107","0.0-1.0-454.0","0","0","62553","","131","","","75","50","","k","2","50","training","adjacent","BC","2","3","R.jpg","N.jpg","1","1","1","",""
"","feedback","","html-keyboard-response","324","278109","0.0-1.0-456.0-0.0","0","0","62553","","null","","","null","50","","","","","","","","","","","","","","","",""
"","ITI","","html-keyboard-response","325","279112","0.0-1.0-459.0","0","0","62553","","null","","","null","50","","","","","","","","","","","","","","","NaN",""
"","S1","","html-keyboard-response","326","279364","0.0-1.0-461.0","0","0","62553","","null","","","null","51","","","","","","","","","","","","","","","",""
"","ISI","","html-keyboard-response","327","279516","0.0-1.0-462.0","0","0","62553","","null","","","null","51","NaN","","","","","","","","","","","","","","",""
"","S2","","html-keyboard-response","328","279667","0.0-1.0-463.0","0","0","62553","","150","","","75","51","","k","2","51","training","adjacent","BA","2","1","R.jpg","P.jpg","1","0","0","",""
"","feedback","","html-keyboard-response","329","280669","0.0-1.0-465.0-0.0","0","0","62553","","null","","","null","51","","","","","","","","","","","","","","","",""
"","time_out","","html-keyboard-response","330","282671","0.0-1.0-467.0-0.0","0","0","62553","","null","","","null","51","","","","","","","","","","","","","","","",""
"","ITI","","html-keyboard-response","331","283673","0.0-1.0-468.0","0","0","62553","","null","","","null","51","","","","","","","","","","","","","","","NaN",""
"","S1","","html-keyboard-response","332","283926","0.0-1.0-470.0","0","0","62553","","null","","","null","52","","","","","","","","","","","","","","","",""
"","ISI","","html-keyboard-response","333","284078","0.0-1.0-471.0","0","0","62553","","null","","","null","52","NaN","","","","","","","","","","","","","","",""
"","S2","","html-keyboard-response","334","284330","0.0-1.0-472.0","0","0","62553","","null","","","null","52","","NaN","","","","","","","","","","","","","",""
"","response","","html-keyboard-response","335","284427","0.0-1.0-473.0-0.0","0","0","62553","","96","","","68","52","","","2","52","training","adjacent","AB","1","2","P.jpg","R.jpg","0","1","0","",""
"","feedback","","html-keyboard-response","336","285429","0.0-1.0-474.0-0.0","0","0","62553","","null","","","null","52","","","","","","","","","","","","","","","",""
"","time_out","","html-keyboard-response","337","287432","0.0-1.0-476.0-0.0","0","0","62553","","null","","","null","52","","","","","","","","","","","","","","","",""
"","ITI","","html-keyboard-response","338","288434","0.0-1.0-477.0","0","0","62553","","null","","","null","52","","","","","","","","","","","","","","","NaN",""
"","S1","","html-keyboard-response","339","288686","0.0-1.0-479.0","0","0","62553","","null","","","null","53","","","","","","","","","","","","","","","",""
"","ISI","","html-keyboard-response","340","288839","0.0-1.0-480.0","0","0","62553","","null","","","null","53","NaN","","","","","","","","","","","","","","",""
"","S2","","html-keyboard-response","341","289026","0.0-1.0-481.0","0","0","62553","","187","","","75","53","","k","2","53","training","adjacent","FG","6","7","O.jpg","L.jpg","1","1","1","",""
"","feedback","","html-keyboard-response","342","290029","0.0-1.0-483.0-0.0","0","0","62553","","null","","","null","53","","","","","","","","","","","","","","","",""
"","ITI","","html-keyboard-response","343","291031","0.0-1.0-486.0","0","0","62553","","null","","","null","53","","","","","","","","","","","","","","","NaN",""
"","S1","","html-keyboard-response","344","291284","0.0-1.0-488.0","0","0","62553","","null","","","null","54","","","","","","","","","","","","","","","",""
"","ISI","","html-keyboard-response","345","291436","0.0-1.0-489.0","0","0","62553","","null","","","null","54","NaN","","","","","","","","","","","","","","",""
"","S2","","html-keyboard-response","346","291689","0.0-1.0-490.0","0","0","62553","","null","","","null","54","","NaN","","","","","","","","","","","","","",""
"","response","","html-keyboard-response","347","291907","0.0-1.0-491.0-0.0","0","0","62553","","217","","","68","54","","","2","54","training","adjacent","GF","7","6","L.jpg","O.jpg","0","0","1","",""
"","feedback","","html-keyboard-response","348","292909","0.0-1.0-492.0-0.0","0","0","62553","","null","","","null","54","","","","","","","","","","","","","","","",""
"","ITI","","html-keyboard-response","349","293912","0.0-1.0-495.0","0","0","62553","","null","","","null","54","","","","","","","","","","","","","","","NaN",""
"","S1","","html-keyboard-response","350","294164","0.0-1.0-497.0","0","0","62553","","null","","","null","55","","","","","","","","","","","","","","","",""
"","ISI","","html-keyboard-response","351","294316","0.0-1.0-498.0","0","0","62553","","null","","","null","55","NaN","","","","","","","","","","","","","","",""
"","S2","","html-keyboard-response","352","294539","0.0-1.0-499.0","0","0","62553","","222","","","75","55","","k","2","55","training","adjacent","FE","6","5","O.jpg","M.jpg","1","0","0","",""
"","feedback","","html-keyboard-response","353","295542","0.0-1.0-501.0-0.0","0","0","62553","","null","","","null","55","","","","","","","","","","","","","","","",""
"","time_out","","html-keyboard-response","354","297544","0.0-1.0-503.0-0.0","0","0","62553","","null","","","null","55","","","","","","","","","","","","","","","",""
"","ITI","","html-keyboard-response","355","298546","0.0-1.0-504.0","0","0","62553","","null","","","null","55","","","","","","","","","","","","","","","NaN",""
"","S1","","html-keyboard-response","356","298798","0.0-1.0-506.0","0","0","62553","","null","","","null","56","","","","","","","","","","","","","","","",""
"","ISI","","html-keyboard-response","357","298950","0.0-1.0-507.0","0","0","62553","","99","","","68","56","d","","","","","","","","","","","","","","",""
"","S2","","html-keyboard-response","358","299202","0.0-1.0-508.0","0","0","62553","","null","","","null","56","","NaN","","","","","","","","","","","","","",""
"","response","","html-keyboard-response","359","299371","0.0-1.0-509.0-0.0","0","0","62553","","168","","","68","56","","","2","56","training","adjacent","EF","5","6","M.jpg","O.jpg","0","1","0","",""
"","feedback","","html-keyboard-response","360","300373","0.0-1.0-510.0-0.0","0","0","62553","","null","","","null","56","","","","","","","","","","","","","","","",""
"","time_out","","html-keyboard-response","361","302375","0.0-1.0-512.0-0.0","0","0","62553","","null","","","null","56","","","","","","","","","","","","","","","",""
"","ITI","","html-keyboard-response","362","303377","0.0-1.0-513.0","0","0","62553","","null","","","null","56","","","","","","","","","","","","","","","NaN",""
"","S1","","html-keyboard-response","363","303630","0.0-1.0-515.0","0","0","62553","","null","","","null","57","","","","","","","","","","","","","","","",""
"","ISI","","html-keyboard-response","364","303782","0.0-1.0-516.0","0","0","62553","","43","","","75","57","k","","","","","","","","","","","","","","",""
"","S2","","html-keyboard-response","365","304034","0.0-1.0-517.0","0","0","62553","","null","","","null","57","","NaN","","","","","","","","","","","","","",""
"","response","","html-keyboard-response","366","304155","0.0-1.0-518.0-0.0","0","0","62553","","119","","","75","57","","","2","57","training","adjacent","DC","4","3","Q.jpg","N.jpg","1","0","0","",""
"","feedback","","html-keyboard-response","367","305157","0.0-1.0-519.0-0.0","0","0","62553","","null","","","null","57","","","","","","","","","","","","","","","",""
"","time_out","","html-keyboard-response","368","307160","0.0-1.0-521.0-0.0","0","0","62553","","null","","","null","57","","","","","","","","","","","","","","","",""
"","ITI","","html-keyboard-response","369","308161","0.0-1.0-522.0","0","0","62553","","null","","","null","57","","","","","","","","","","","","","","","NaN",""
"","S1","","html-keyboard-response","370","308414","0.0-1.0-524.0","0","0","62553","","null","","","null","58","","","","","","","","","","","","","","","",""
"","ISI","","html-keyboard-response","371","308566","0.0-1.0-525.0","0","0","62553","","36","","","68","58","d","","","","","","","","","","","","","","",""
"","S2","","html-keyboard-response","372","308818","0.0-1.0-526.0","0","0","62553","","null","","","null","58","","NaN","","","","","","","","","","","","","",""
"","response","","html-keyboard-response","373","308923","0.0-1.0-527.0-0.0","0","0","62553","","103","","","68","58","","","2","58","training","adjacent","BC","2","3","R.jpg","N.jpg","0","1","0","",""
"","feedback","","html-keyboard-response","374","309925","0.0-1.0-528.0-0.0","0","0","62553","","null","","","null","58","","","","","","","","","","","","","","","",""
"","time_out","","html-keyboard-response","375","311927","0.0-1.0-530.0-0.0","0","0","62553","","null","","","null","58","","","","","","","","","","","","","","","",""
"","ITI","","html-keyboard-response","376","312930","0.0-1.0-531.0","0","0","62553","","null","","","null","58","","","","","","","","","","","","","","","NaN",""
"","S1","","html-keyboard-response","377","313182","0.0-1.0-533.0","0","0","62553","","null","","","null","59","","","","","","","","","","","","","","","",""
"","ISI","","html-keyboard-response","378","313336","0.0-1.0-534.0","0","0","62553","","43","","","75","59","k","","","","","","","","","","","","","","",""
"","S2","","html-keyboard-response","379","313588","0.0-1.0-535.0","0","0","62553","","null","","","null","59","","NaN","","","","","","","","","","","","","",""
"","response","","html-keyboard-response","380","313803","0.0-1.0-536.0-0.0","0","0","62553","","213","","","75","59","","","2","59","training","adjacent","DC","4","3","Q.jpg","N.jpg","1","0","0","",""
"","feedback","","html-keyboard-response","381","314805","0.0-1.0-537.0-0.0","0","0","62553","","null","","","null","59","","","","","","","","","","","","","","","",""
"","time_out","","html-keyboard-response","382","316808","0.0-1.0-539.0-0.0","0","0","62553","","null","","","null","59","","","","","","","","","","","","","","","",""
"","ITI","","html-keyboard-response","383","317809","0.0-1.0-540.0","0","0","62553","","null","","","null","59","","","","","","","","","","","","","","","NaN",""
"","S1","","html-keyboard-response","384","318062","0.0-1.0-542.0","0","0","62553","","null","","","null","60","","","","","","","","","","","","","","","",""
"","ISI","","html-keyboard-response","385","318214","0.0-1.0-543.0","0","0","62553","","36","","","68","60","d","","","","","","","","","","","","","","",""
"","S2","","html-keyboard-response","386","318467","0.0-1.0-544.0","0","0","62553","","null","","","null","60","","NaN","","","","","","","","","","","","","",""
"","response","","html-keyboard-response","387","318491","0.0-1.0-545.0-0.0","0","0","62553","","23","","","68","60","","","2","60","training","adjacent","CB","3","2","N.jpg","R.jpg","0","0","1","",""
"","feedback","","html-keyboard-response","388","319494","0.0-1.0-546.0-0.0","0","0","62553","","null","","","null","60","","","","","","","","","","","","","","","",""
"","ITI","","html-keyboard-response","389","320496","0.0-1.0-549.0","0","0","62553","","null","","","null","60","","","","","","","","","","","","","","","NaN",""
"","S1","","html-keyboard-response","390","320749","0.0-1.0-551.0","0","0","62553","","null","","","null","61","","","","","","","","","","","","","","","",""
"","ISI","","html-keyboard-response","391","320902","0.0-1.0-552.0","0","0","62553","","null","","","null","61","NaN","","","","","","","","","","","","","","",""
"","S2","","html-keyboard-response","392","321099","0.0-1.0-553.0","0","0","62553","","195","","","68","61","","d","2","61","training","adjacent","DE","4","5","Q.jpg","M.jpg","0","1","0","",""
"","feedback","","html-keyboard-response","393","322102","0.0-1.0-555.0-0.0","0","0","62553","","null","","","null","61","","","","","","","","","","","","","","","",""
"","time_out","","html-keyboard-response","394","324104","0.0-1.0-557.0-0.0","0","0","62553","","null","","","null","61","","","","","","","","","","","","","","","",""
"","ITI","","html-keyboard-response","395","325106","0.0-1.0-558.0","0","0","62553","","null","","","null","61","","","","","","","","","","","","","","","NaN",""
"","S1","","html-keyboard-response","396","325358","0.0-1.0-560.0","0","0","62553","","null","","","null","62","","","","","","","","","","","","","","","",""
"","ISI","","html-keyboard-response","397","325510","0.0-1.0-561.0","0","0","62553","","140","","","75","62","k","","","","","","","","","","","","","","",""
"","S2","","html-keyboard-response","398","325762","0.0-1.0-562.0","0","0","62553","","null","","","null","62","","NaN","","","","","","","","","","","","","",""
"","response","","html-keyboard-response","399","325947","0.0-1.0-563.0-0.0","0","0","62553","","184","","","75","62","","","2","62","training","adjacent","FE","6","5","O.jpg","M.jpg","1","0","0","",""
"","feedback","","html-keyboard-response","400","326949","0.0-1.0-564.0-0.0","0","0","62553","","null","","","null","62","","","","","","","","","","","","","","","",""
"","time_out","","html-keyboard-response","401","328952","0.0-1.0-566.0-0.0","0","0","62553","","null","","","null","62","","","","","","","","","","","","","","","",""
"","ITI","","html-keyboard-response","402","329956","0.0-1.0-567.0","0","0","62553","","978","","","68","62","","","","","","","","","","","","","","","d",""
"","S1","","html-keyboard-response","403","330208","0.0-1.0-569.0","0","0","62553","","null","","","null","63","","","","","","","","","","","","","","","",""
"","ISI","","html-keyboard-response","404","330360","0.0-1.0-570.0","0","0","62553","","null","","","null","63","NaN","","","","","","","","","","","","","","",""
"","S2","","html-keyboard-response","405","330507","0.0-1.0-571.0","0","0","62553","","146","","","68","63","","d","2","63","training","adjacent","AB","1","2","P.jpg","R.jpg","0","1","0","",""
"","feedback","","html-keyboard-response","406","331510","0.0-1.0-573.0-0.0","0","0","62553","","null","","","null","63","","","","","","","","","","","","","","","",""
"","time_out","","html-keyboard-response","407","333512","0.0-1.0-575.0-0.0","0","0","62553","","null","","","null","63","","","","","","","","","","","","","","","",""
"","ITI","","html-keyboard-response","408","334515","0.0-1.0-576.0","0","0","62553","","378","","","75","63","","","","","","","","","","","","","","","k",""
"","S1","","html-keyboard-response","409","334767","0.0-1.0-578.0","0","0","62553","","null","","","null","64","","","","","","","","","","","","","","","",""
"","ISI","","html-keyboard-response","410","334919","0.0-1.0-579.0","0","0","62553","","null","","","null","64","NaN","","","","","","","","","","","","","","",""
"","S2","","html-keyboard-response","411","335172","0.0-1.0-580.0","0","0","62553","","null","","","null","64","","NaN","","","","","","","","","","","","","",""
"","response","","html-keyboard-response","412","335203","0.0-1.0-581.0-0.0","0","0","62553","","29","","","75","64","","","2","64","training","adjacent","AB","1","2","P.jpg","R.jpg","1","1","1","",""
"","feedback","","html-keyboard-response","413","336205","0.0-1.0-582.0-0.0","0","0","62553","","null","","","null","64","","","","","","","","","","","","","","","",""
"","ITI","","html-keyboard-response","414","337207","0.0-1.0-585.0","0","0","62553","","null","","","null","64","","","","","","","","","","","","","","","NaN",""
"","S1","","html-keyboard-response","415","337459","0.0-1.0-587.0","0","0","62553","","null","","","null","65","","","","","","","","","","","","","","","",""
"","ISI","","html-keyboard-response","416","337612","0.0-1.0-588.0","0","0","62553","","null","","","null","65","NaN","","","","","","","","","","","","","","",""
"","S2","","html-keyboard-response","417","337864","0.0-1.0-589.0","0","0","62553","","null","","","null","65","","NaN","","","","","","","","","","","","","",""
"","response","","html-keyboard-response","418","337891","0.0-1.0-590.0-0.0","0","0","62553","","26","","","68","65","","","2","65","training","adjacent","ED","5","4","M.jpg","Q.jpg","0","0","1","",""
"","feedback","","html-keyboard-response","419","338894","0.0-1.0-591.0-0.0","0","0","62553","","null","","","null","65","","","","","","","","","","","","","","","",""
"","ITI","","html-keyboard-response","420","339896","0.0-1.0-594.0","0","0","62553","","null","","","null","65","","","","","","","","","","","","","","","NaN",""
"","S1","","html-keyboard-response","421","340148","0.0-1.0-596.0","0","0","62553","","null","","","null","66","","","","","","","","","","","","","","","",""
"","ISI","","html-keyboard-response","422","340301","0.0-1.0-597.0","0","0","62553","","null","","","null","66","NaN","","","","","","","","","","","","","","",""
"","S2","","html-keyboard-response","423","340347","0.0-1.0-598.0","0","0","62553","","44","","","75","66","","k","2","66","training","adjacent","DE","4","5","Q.jpg","M.jpg","1","1","1","",""
"","feedback","","html-keyboard-response","424","341349","0.0-1.0-600.0-0.0","0","0","62553","","null","","","null","66","","","","","","","","","","","","","","","",""
"","ITI","","html-keyboard-response","425","342352","0.0-1.0-603.0","0","0","62553","","null","","","null","66","","","","","","","","","","","","","","","NaN",""
"","S1","","html-keyboard-response","426","342604","0.0-1.0-605.0","0","0","62553","","null","","","null","67","","","","","","","","","","","","","","","",""
"","ISI","","html-keyboard-response","427","342756","0.0-1.0-606.0","0","0","62553","","null","","","null","67","NaN","","","","","","","","","","","","","","",""
"","S2","","html-keyboard-response","428","343009","0.0-1.0-607.0","0","0","62553","","null","","","null","67","","NaN","","","","","","","","","","","","","",""
"","response","","html-keyboard-response","429","343067","0.0-1.0-608.0-0.0","0","0","62553","","57","","","75","67","","","2","67","training","adjacent","EF","5","6","M.jpg","O.jpg","1","1","1","",""
"","feedback","","html-keyboard-response","430","344069","0.0-1.0-609.0-0.0","0","0","62553","","null","","","null","67","","","","","","","","","","","","","","","",""
"","ITI","","html-keyboard-response","431","345071","0.0-1.0-612.0","0","0","62553","","null","","","null","67","","","","","","","","","","","","","","","NaN",""
"","S1","","html-keyboard-response","432","345323","0.0-1.0-614.0","0","0","62553","","null","","","null","68","","","","","","","","","","","","","","","",""
"","ISI","","html-keyboard-response","433","345476","0.0-1.0-615.0","0","0","62553","","null","","","null","68","NaN","","","","","","","","","","","","","","",""
"","S2","","html-keyboard-response","434","345728","0.0-1.0-616.0","0","0","62553","","null","","","null","68","","NaN","","","","","","","","","","","","","",""
"","response","","html-keyboard-response","435","345851","0.0-1.0-617.0-0.0","0","0","62553","","122","","","75","68","","","2","68","training","adjacent","ED","5","4","M.jpg","Q.jpg","1","0","0","",""
"","feedback","","html-keyboard-response","436","346853","0.0-1.0-618.0-0.0","0","0","62553","","null","","","null","68","","","","","","","","","","","","","","","",""
"","time_out","","html-keyboard-response","437","348855","0.0-1.0-620.0-0.0","0","0","62553","","null","","","null","68","","","","","","","","","","","","","","","",""
"","ITI","","html-keyboard-response","438","349858","0.0-1.0-621.0","0","0","62553","","null","","","null","68","","","","","","","","","","","","","","","NaN",""
"","S1","","html-keyboard-response","439","350116","0.0-1.0-623.0","0","0","62553","","null","","","null","69","","","","","","","","","","","","","","","",""
"","ISI","","html-keyboard-response","440","350269","0.0-1.0-624.0","0","0","62553","","null","","","null","69","NaN","","","","","","","","","","","","","","",""
"","S2","","html-keyboard-response","441","350536","0.0-1.0-625.0","0","0","62553","","null","","","null","69","","NaN","","","","","","","","","","","","","",""
"","response","","html-keyboard-response","442","351051","0.0-1.0-626.0-0.0","0","0","62553","","514","","","68","69","","","2","69","training","adjacent","DE","4","5","Q.jpg","M.jpg","0","1","0","",""
"","feedback","","html-keyboard-response","443","352053","0.0-1.0-627.0-0.0","0","0","62553","","null","","","null","69","","","","","","","","","","","","","","","",""
"","time_out","","html-keyboard-response","444","354056","0.0-1.0-629.0-0.0","0","0","62553","","null","","","null","69","","","","","","","","","","","","","","","",""
"","ITI","","html-keyboard-response","445","355058","0.0-1.0-630.0","0","0","62553","","null","","","null","69","","","","","","","","","","","","","","","NaN",""
"","S1","","html-keyboard-response","446","355310","0.0-1.0-632.0","0","0","62553","","null","","","null","70","","","","","","","","","","","","","","","",""
"","ISI","","html-keyboard-response","447","355463","0.0-1.0-633.0","0","0","62553","","null","","","null","70","NaN","","","","","","","","","","","","","","",""
"","S2","","html-keyboard-response","448","355507","0.0-1.0-634.0","0","0","62553","","43","","","75","70","","k","2","70","training","adjacent","ED","5","4","M.jpg","Q.jpg","1","0","0","",""
"","feedback","","html-keyboard-response","449","356509","0.0-1.0-636.0-0.0","0","0","62553","","null","","","null","70","","","","","","","","","","","","","","","",""
"","time_out","","html-keyboard-response","450","358511","0.0-1.0-638.0-0.0","0","0","62553","","null","","","null","70","","","","","","","","","","","","","","","",""
"","ITI","","html-keyboard-response","451","359514","0.0-1.0-639.0","0","0","62553","","null","","","null","70","","","","","","","","","","","","","","","NaN",""
"","S1","","html-keyboard-response","452","359766","0.0-1.0-641.0","0","0","62553","","null","","","null","71","","","","","","","","","","","","","","","",""
"","ISI","","html-keyboard-response","453","359919","0.0-1.0-642.0","0","0","62553","","27","","","75","71","k","","","","","","","","","","","","","","",""
"","S2","","html-keyboard-response","454","360172","0.0-1.0-643.0","0","0","62553","","null","","","null","71","","NaN","","","","","","","","","","","","","",""
"","response","","html-keyboard-response","455","360291","0.0-1.0-644.0-0.0","0","0","62553","","118","","","75","71","","","2","71","training","adjacent","GF","7","6","L.jpg","O.jpg","1","0","0","",""
"","feedback","","html-keyboard-response","456","361293","0.0-1.0-645.0-0.0","0","0","62553","","null","","","null","71","","","","","","","","","","","","","","","",""
"","time_out","","html-keyboard-response","457","363296","0.0-1.0-647.0-0.0","0","0","62553","","null","","","null","71","","","","","","","","","","","","","","","",""
"","ITI","","html-keyboard-response","458","364298","0.0-1.0-648.0","0","0","62553","","818","","","68","71","","","","","","","","","","","","","","","d",""
"","S1","","html-keyboard-response","459","364554","0.0-1.0-650.0","0","0","62553","","null","","","null","72","","","","","","","","","","","","","","","",""
"","ISI","","html-keyboard-response","460","364706","0.0-1.0-651.0","0","0","62553","","8","","","68","72","d","","","","","","","","","","","","","","",""
"","S2","","html-keyboard-response","461","364960","0.0-1.0-652.0","0","0","62553","","null","","","null","72","","NaN","","","","","","","","","","","","","",""
"","response","","html-keyboard-response","462","365051","0.0-1.0-653.0-0.0","0","0","62553","","89","","","68","72","","","2","72","training","adjacent","BA","2","1","R.jpg","P.jpg","0","0","1","",""
"","feedback","","html-keyboard-response","463","366053","0.0-1.0-654.0-0.0","0","0","62553","","null","","","null","72","","","","","","","","","","","","","","","",""
"","ITI","","html-keyboard-response","464","367056","0.0-1.0-657.0","0","0","62553","","null","","","null","72","","","","","","","","","","","","","","","NaN",""
"","S1","","html-keyboard-response","465","367309","0.0-1.0-659.0","0","0","62553","","null","","","null","73","","","","","","","","","","","","","","","",""
"","ISI","","html-keyboard-response","466","367475","0.0-1.0-660.0","0","0","62553","","null","","","null","73","NaN","","","","","","","","","","","","","","",""
"","S2","","html-keyboard-response","467","367727","0.0-1.0-661.0","0","0","62553","","null","","","null","73","","NaN","","","","","","","","","","","","","",""
"","response","","html-keyboard-response","468","367731","0.0-1.0-662.0-0.0","0","0","62553","","3","","","75","73","","","2","73","training","adjacent","DC","4","3","Q.jpg","N.jpg","1","0","0","",""
"","feedback","","html-keyboard-response","469","368733","0.0-1.0-663.0-0.0","0","0","62553","","null","","","null","73","","","","","","","","","","","","","","","",""
"","time_out","","html-keyboard-response","470","370736","0.0-1.0-665.0-0.0","0","0","62553","","null","","","null","73","","","","","","","","","","","","","","","",""
"","ITI","","html-keyboard-response","471","371738","0.0-1.0-666.0","0","0","62553","","null","","","null","73","","","","","","","","","","","","","","","NaN",""
"","S1","","html-keyboard-response","472","371990","0.0-1.0-668.0","0","0","62553","","null","","","null","74","","","","","","","","","","","","","","","",""
"","ISI","","html-keyboard-response","473","372143","0.0-1.0-669.0","0","0","62553","","11","","","68","74","d","","","","","","","","","","","","","","",""
"","S2","","html-keyboard-response","474","372396","0.0-1.0-670.0","0","0","62553","","null","","","null","74","","NaN","","","","","","","","","","","","","",""
"","response","","html-keyboard-response","475","372451","0.0-1.0-671.0-0.0","0","0","62553","","54","","","68","74","","","2","74","training","adjacent","CB","3","2","N.jpg","R.jpg","0","0","1","",""
"","feedback","","html-keyboard-response","476","373465","0.0-1.0-672.0-0.0","0","0","62553","","null","","","null","74","","","","","","","","","","","","","","","",""
"","ITI","","html-keyboard-response","477","374468","0.0-1.0-675.0","0","0","62553","","null","","","null","74","","","","","","","","","","","","","","","NaN",""
"","S1","","html-keyboard-response","478","374721","0.0-1.0-677.0","0","0","62553","","null","","","null","75","","","","","","","","","","","","","","","",""
"","ISI","","html-keyboard-response","479","374874","0.0-1.0-678.0","0","0","62553","","null","","","null","75","NaN","","","","","","","","","","","","","","",""
"","S2","","html-keyboard-response","480","375051","0.0-1.0-679.0","0","0","62553","","176","","","68","75","","d","2","75","training","adjacent","BA","2","1","R.jpg","P.jpg","0","0","1","",""
"","feedback","","html-keyboard-response","481","376053","0.0-1.0-681.0-0.0","0","0","62553","","null","","","null","75","","","","","","","","","","","","","","","",""
"","ITI","","html-keyboard-response","482","377056","0.0-1.0-684.0","0","0","62553","","null","","","null","75","","","","","","","","","","","","","","","NaN",""
"","S1","","html-keyboard-response","483","377308","0.0-1.0-686.0","0","0","62553","","null","","","null","76","","","","","","","","","","","","","","","",""
"","ISI","","html-keyboard-response","484","377461","0.0-1.0-687.0","0","0","62553","","54","","","68","76","d","","","","","","","","","","","","","","",""
"","S2","","html-keyboard-response","485","377713","0.0-1.0-688.0","0","0","62553","","null","","","null","76","","NaN","","","","","","","","","","","","","",""
"","response","","html-keyboard-response","486","377763","0.0-1.0-689.0-0.0","0","0","62553","","49","","","68","76","","","2","76","training","adjacent","BC","2","3","R.jpg","N.jpg","0","1","0","",""
"","feedback","","html-keyboard-response","487","378765","0.0-1.0-690.0-0.0","0","0","62553","","null","","","null","76","","","","","","","","","","","","","","","",""
"","time_out","","html-keyboard-response","488","380768","0.0-1.0-692.0-0.0","0","0","62553","","null","","","null","76","","","","","","","","","","","","","","","",""
"","ITI","","html-keyboard-response","489","381769","0.0-1.0-693.0","0","0","62553","","null","","","null","76","","","","","","","","","","","","","","","NaN",""
"","S1","","html-keyboard-response","490","382021","0.0-1.0-695.0","0","0","62553","","null","","","null","77","","","","","","","","","","","","","","","",""
"","ISI","","html-keyboard-response","491","382174","0.0-1.0-696.0","0","0","62553","","null","","","null","77","NaN","","","","","","","","","","","","","","",""
"","S2","","html-keyboard-response","492","382426","0.0-1.0-697.0","0","0","62553","","null","","","null","77","","NaN","","","","","","","","","","","","","",""
"","response","","html-keyboard-response","493","382467","0.0-1.0-698.0-0.0","0","0","62553","","40","","","75","77","","","2","77","training","adjacent","BA","2","1","R.jpg","P.jpg","1","0","0","",""
"","feedback","","html-keyboard-response","494","383469","0.0-1.0-699.0-0.0","0","0","62553","","null","","","null","77","","","","","","","","","","","","","","","",""
"","time_out","","html-keyboard-response","495","385471","0.0-1.0-701.0-0.0","0","0","62553","","null","","","null","77","","","","","","","","","","","","","","","",""
"","ITI","","html-keyboard-response","496","386473","0.0-1.0-702.0","0","0","62553","","null","","","null","77","","","","","","","","","","","","","","","NaN",""
"","S1","","html-keyboard-response","497","386726","0.0-1.0-704.0","0","0","62553","","null","","","null","78","","","","","","","","","","","","","","","",""
"","ISI","","html-keyboard-response","498","386878","0.0-1.0-705.0","0","0","62553","","36","","","68","78","d","","","","","","","","","","","","","","",""
"","S2","","html-keyboard-response","499","387129","0.0-1.0-706.0","0","0","62553","","null","","","null","78","","NaN","","","","","","","","","","","","","",""
"","response","","html-keyboard-response","500","387195","0.0-1.0-707.0-0.0","0","0","62553","","64","","","68","78","","","2","78","training","adjacent","ED","5","4","M.jpg","Q.jpg","0","0","1","",""
"","feedback","","html-keyboard-response","501","388198","0.0-1.0-708.0-0.0","0","0","62553","","null","","","null","78","","","","","","","","","","","","","","","",""
"","ITI","","html-keyboard-response","502","389201","0.0-1.0-711.0","0","0","62553","","null","","","null","78","","","","","","","","","","","","","","","NaN",""
"","S1","","html-keyboard-response","503","389453","0.0-1.0-713.0","0","0","62553","","null","","","null","79","","","","","","","","","","","","","","","",""
"","ISI","","html-keyboard-response","504","389605","0.0-1.0-714.0","0","0","62553","","null","","","null","79","NaN","","","","","","","","","","","","","","",""
"","S2","","html-keyboard-response","505","389857","0.0-1.0-715.0","0","0","62553","","null","","","null","79","","NaN","","","","","","","","","","","","","",""
"","response","","html-keyboard-response","506","390051","0.0-1.0-716.0-0.0","0","0","62553","","192","","","68","79","","","2","79","training","adjacent","FG","6","7","O.jpg","L.jpg","0","1","0","",""
"","feedback","","html-keyboard-response","507","391053","0.0-1.0-717.0-0.0","0","0","62553","","null","","","null","79","","","","","","","","","","","","","","","",""
"","time_out","","html-keyboard-response","508","393056","0.0-1.0-719.0-0.0","0","0","62553","","null","","","null","79","","","","","","","","","","","","","","","",""
"","ITI","","html-keyboard-response","509","394059","0.0-1.0-720.0","0","0","62553","","null","","","null","79","","","","","","","","","","","","","","","NaN",""
"","S1","","html-keyboard-response","510","394311","0.0-1.0-722.0","0","0","62553","","null","","","null","80","","","","","","","","","","","","","","","",""
"","ISI","","html-keyboard-response","511","394463","0.0-1.0-723.0","0","0","62553","","null","","","null","80","NaN","","","","","","","","","","","","","","",""
"","S2","","html-keyboard-response","512","394716","0.0-1.0-724.0","0","0","62553","","null","","","null","80","","NaN","","","","","","","","","","","","","",""
"","response","","html-keyboard-response","513","394875","0.0-1.0-725.0-0.0","0","0","62553","","158","","","68","80","","","2","80","training","adjacent","GF","7","6","L.jpg","O.jpg","0","0","1","",""
"","feedback","","html-keyboard-response","514","395877","0.0-1.0-726.0-0.0","0","0","62553","","null","","","null","80","","","","","","","","","","","","","","","",""
"","ITI","","html-keyboard-response","515","396880","0.0-1.0-729.0","0","0","62553","","null","","","null","80","","","","","","","","","","","","","","","NaN",""
"","S1","","html-keyboard-response","516","397132","0.0-1.0-731.0","0","0","62553","","null","","","null","81","","","","","","","","","","","","","","","",""
"","ISI","","html-keyboard-response","517","397284","0.0-1.0-732.0","0","0","62553","","null","","","null","81","NaN","","","","","","","","","","","","","","",""
"","S2","","html-keyboard-response","518","397537","0.0-1.0-733.0","0","0","62553","","null","","","null","81","","NaN","","","","","","","","","","","","","",""
"","response","","html-keyboard-response","519","397611","0.0-1.0-734.0-0.0","0","0","62553","","73","","","68","81","","","2","81","training","adjacent","EF","5","6","M.jpg","O.jpg","0","1","0","",""
"","feedback","","html-keyboard-response","520","398614","0.0-1.0-735.0-0.0","0","0","62553","","null","","","null","81","","","","","","","","","","","","","","","",""
"","time_out","","html-keyboard-response","521","400616","0.0-1.0-737.0-0.0","0","0","62553","","null","","","null","81","","","","","","","","","","","","","","","",""
"","ITI","","html-keyboard-response","522","401619","0.0-1.0-738.0","0","0","62553","","null","","","null","81","","","","","","","","","","","","","","","NaN",""
"","S1","","html-keyboard-response","523","401872","0.0-1.0-740.0","0","0","62553","","null","","","null","82","","","","","","","","","","","","","","","",""
"","ISI","","html-keyboard-response","524","402024","0.0-1.0-741.0","0","0","62553","","null","","","null","82","NaN","","","","","","","","","","","","","","",""
"","S2","","html-keyboard-response","525","402276","0.0-1.0-742.0","0","0","62553","","null","","","null","82","","NaN","","","","","","","","","","","","","",""
"","response","","html-keyboard-response","526","402315","0.0-1.0-743.0-0.0","0","0","62553","","37","","","75","82","","","2","82","training","adjacent","CD","3","4","N.jpg","Q.jpg","1","1","1","",""
"","feedback","","html-keyboard-response","527","403318","0.0-1.0-744.0-0.0","0","0","62553","","null","","","null","82","","","","","","","","","","","","","","","",""
"","ITI","","html-keyboard-response","528","404321","0.0-1.0-747.0","0","0","62553","","null","","","null","82","","","","","","","","","","","","","","","NaN",""
"","S1","","html-keyboard-response","529","404574","0.0-1.0-749.0","0","0","62553","","null","","","null","83","","","","","","","","","","","","","","","",""
"","ISI","","html-keyboard-response","530","404726","0.0-1.0-750.0","0","0","62553","","null","","","null","83","NaN","","","","","","","","","","","","","","",""
"","S2","","html-keyboard-response","531","404978","0.0-1.0-751.0","0","0","62553","","null","","","null","83","","NaN","","","","","","","","","","","","","",""
"","response","","html-keyboard-response","532","405051","0.0-1.0-752.0-0.0","0","0","62553","","72","","","68","83","","","2","83","training","adjacent","CB","3","2","N.jpg","R.jpg","0","0","1","",""
"","feedback","","html-keyboard-response","533","406054","0.0-1.0-753.0-0.0","0","0","62553","","null","","","null","83","","","","","","","","","","","","","","","",""
"","ITI","","html-keyboard-response","534","407056","0.0-1.0-756.0","0","0","62553","","null","","","null","83","","","","","","","","","","","","","","","NaN",""
"","S1","","html-keyboard-response","535","407308","0.0-1.0-758.0","0","0","62553","","null","","","null","84","","","","","","","","","","","","","","","",""
"","ISI","","html-keyboard-response","536","407460","0.0-1.0-759.0","0","0","62553","","null","","","null","84","NaN","","","","","","","","","","","","","","",""
"","S2","","html-keyboard-response","537","407712","0.0-1.0-760.0","0","0","62553","","null","","","null","84","","NaN","","","","","","","","","","","","","",""
"","response","","html-keyboard-response","538","407899","0.0-1.0-761.0-0.0","0","0","62553","","185","","","75","84","","","2","84","training","adjacent","FE","6","5","O.jpg","M.jpg","1","0","0","",""
"","feedback","","html-keyboard-response","539","408902","0.0-1.0-762.0-0.0","0","0","62553","","null","","","null","84","","","","","","","","","","","","","","","",""
"","time_out","","html-keyboard-response","540","410904","0.0-1.0-764.0-0.0","0","0","62553","","null","","","null","84","","","","","","","","","","","","","","","",""
"","ITI","","html-keyboard-response","541","411906","0.0-1.0-765.0","0","0","62553","","null","","","null","84","","","","","","","","","","","","","","","NaN",""
"","S1","","html-keyboard-response","542","412158","0.0-1.0-767.0","0","0","62553","","null","","","null","85","","","","","","","","","","","","","","","",""
"","ISI","","html-keyboard-response","543","412310","0.0-1.0-768.0","0","0","62553","","null","","","null","85","NaN","","","","","","","","","","","","","","",""
"","S2","","html-keyboard-response","544","412563","0.0-1.0-769.0","0","0","62553","","null","","","null","85","","NaN","","","","","","","","","","","","","",""
"","response","","html-keyboard-response","545","412564","0.0-1.0-770.0-0.0","0","0","62553","","0","","","68","85","","","2","85","training","adjacent","CD","3","4","N.jpg","Q.jpg","0","1","0","",""
"","feedback","","html-keyboard-response","546","413566","0.0-1.0-771.0-0.0","0","0","62553","","null","","","null","85","","","","","","","","","","","","","","","",""
"","time_out","","html-keyboard-response","547","415568","0.0-1.0-773.0-0.0","0","0","62553","","null","","","null","85","","","","","","","","","","","","","","","",""
"","ITI","","html-keyboard-response","548","416570","0.0-1.0-774.0","0","0","62553","","null","","","null","85","","","","","","","","","","","","","","","NaN",""
"","S1","","html-keyboard-response","549","416823","0.0-1.0-776.0","0","0","62553","","null","","","null","86","","","","","","","","","","","","","","","",""
"","ISI","","html-keyboard-response","550","416975","0.0-1.0-777.0","0","0","62553","","147","","","75","86","k","","","","","","","","","","","","","","",""
"","S2","","html-keyboard-response","551","417227","0.0-1.0-778.0","0","0","62553","","null","","","null","86","","NaN","","","","","","","","","","","","","",""
"","response","","html-keyboard-response","552","417395","0.0-1.0-779.0-0.0","0","0","62553","","166","","","75","86","","","2","86","training","adjacent","DC","4","3","Q.jpg","N.jpg","1","0","0","",""
"","feedback","","html-keyboard-response","553","418411","0.0-1.0-780.0-0.0","0","0","62553","","null","","","null","86","","","","","","","","","","","","","","","",""
"","time_out","","html-keyboard-response","554","420413","0.0-1.0-782.0-0.0","0","0","62553","","null","","","null","86","","","","","","","","","","","","","","","",""
"","ITI","","html-keyboard-response","555","421415","0.0-1.0-783.0","0","0","62553","","null","","","null","86","","","","","","","","","","","","","","","NaN",""
"","S1","","html-keyboard-response","556","421668","0.0-1.0-785.0","0","0","62553","","null","","","null","87","","","","","","","","","","","","","","","",""
"","ISI","","html-keyboard-response","557","421820","0.0-1.0-786.0","0","0","62553","","78","","","68","87","d","","","","","","","","","","","","","","",""
"","S2","","html-keyboard-response","558","421979","0.0-1.0-787.0","0","0","62553","","158","","","68","87","","d","2","87","training","adjacent","DE","4","5","Q.jpg","M.jpg","0","1","0","",""
"","feedback","","html-keyboard-response","559","422982","0.0-1.0-789.0-0.0","0","0","62553","","null","","","null","87","","","","","","","","","","","","","","","",""
"","time_out","","html-keyboard-response","560","424994","0.0-1.0-791.0-0.0","0","0","62553","","null","","","null","87","","","","","","","","","","","","","","","",""
"","ITI","","html-keyboard-response","561","426007","0.0-1.0-792.0","0","0","62553","","null","","","null","87","","","","","","","","","","","","","","","NaN",""
"","S1","","html-keyboard-response","562","426259","0.0-1.0-794.0","0","0","62553","","null","","","null","88","","","","","","","","","","","","","","","",""
"","ISI","","html-keyboard-response","563","426412","0.0-1.0-795.0","0","0","62553","","null","","","null","88","NaN","","","","","","","","","","","","","","",""
"","S2","","html-keyboard-response","564","426665","0.0-1.0-796.0","0","0","62553","","null","","","null","88","","NaN","","","","","","","","","","","","","",""
"","response","","html-keyboard-response","565","426683","0.0-1.0-797.0-0.0","0","0","62553","","17","","","75","88","","","2","88","training","adjacent","BC","2","3","R.jpg","N.jpg","1","1","1","",""
"","feedback","","html-keyboard-response","566","427685","0.0-1.0-798.0-0.0","0","0","62553","","null","","","null","88","","","","","","","","","","","","","","","",""
"","ITI","","html-keyboard-response","567","428688","0.0-1.0-801.0","0","0","62553","","null","","","null","88","","","","","","","","","","","","","","","NaN",""
"","S1","","html-keyboard-response","568","428939","0.0-1.0-803.0","0","0","62553","","null","","","null","89","","","","","","","","","","","","","","","",""
"","ISI","","html-keyboard-response","569","429091","0.0-1.0-804.0","0","0","62553","","null","","","null","89","NaN","","","","","","","","","","","","","","",""
"","S2","","html-keyboard-response","570","429343","0.0-1.0-805.0","0","0","62553","","null","","","null","89","","NaN","","","","","","","","","","","","","",""
"","response","","html-keyboard-response","571","429387","0.0-1.0-806.0-0.0","0","0","62553","","43","","","75","89","","","2","89","training","adjacent","AB","1","2","P.jpg","R.jpg","1","1","1","",""
"","feedback","","html-keyboard-response","572","430390","0.0-1.0-807.0-0.0","0","0","62553","","null","","","null","89","","","","","","","","","","","","","","","",""
"","ITI","","html-keyboard-response","573","431393","0.0-1.0-810.0","0","0","62553","","null","","","null","89","","","","","","","","","","","","","","","NaN",""
"","S1","","html-keyboard-response","574","431645","0.0-1.0-812.0","0","0","62553","","null","","","null","90","","","","","","","","","","","","","","","",""
"","ISI","","html-keyboard-response","575","431797","0.0-1.0-813.0","0","0","62553","","null","","","null","90","NaN","","","","","","","","","","","","","","",""
"","S2","","html-keyboard-response","576","431947","0.0-1.0-814.0","0","0","62553","","148","","","75","90","","k","2","90","training","adjacent","FG","6","7","O.jpg","L.jpg","1","1","1","",""
"","feedback","","html-keyboard-response","577","432950","0.0-1.0-816.0-0.0","0","0","62553","","null","","","null","90","","","","","","","","","","","","","","","",""
"","ITI","","html-keyboard-response","578","433953","0.0-1.0-819.0","0","0","62553","","null","","","null","90","","","","","","","","","","","","","","","NaN",""
"","S1","","html-keyboard-response","579","434205","0.0-1.0-821.0","0","0","62553","","null","","","null","91","","","","","","","","","","","","","","","",""
"","ISI","","html-keyboard-response","580","434358","0.0-1.0-822.0","0","0","62553","","null","","","null","91","NaN","","","","","","","","","","","","","","",""
"","S2","","html-keyboard-response","581","434555","0.0-1.0-823.0","0","0","62553","","196","","","68","91","","d","2","91","training","adjacent","CD","3","4","N.jpg","Q.jpg","0","1","0","",""
"","feedback","","html-keyboard-response","582","435558","0.0-1.0-825.0-0.0","0","0","62553","","null","","","null","91","","","","","","","","","","","","","","","",""
"","time_out","","html-keyboard-response","583","437561","0.0-1.0-827.0-0.0","0","0","62553","","null","","","null","91","","","","","","","","","","","","","","","",""
"","ITI","","html-keyboard-response","584","438563","0.0-1.0-828.0","0","0","62553","","null","","","null","91","","","","","","","","","","","","","","","NaN",""
