"success","ttype","start_time","trial_type","trial_index","time_elapsed","internal_node_id","warning","missed_checkup","PID","view_history","rt","responses","repeat_instructions","key_press","index","keypress_isi","keypress_S2","block","trial_num","phase","group_type","pair_type","S1_stim","S2_stim","S1_img","S2_img","S1_chosen","S1_higher","accuracy","keypress_iti","total_bonus_tally"
"true","full_screen","d08012022hr1501","fullscreen","0","15438","0.0-0.0","0","0","72036","","","","","","","","","","","","","","","","","","","","","",""
"","instructions","","instructions","1","44046","0.0-1.0-0.0-0.0","0","0","72036","[{""page_index"":0,""viewing_time"":4949},{""page_index"":1,""viewing_time"":8988},{""page_index"":2,""viewing_time"":13244},{""page_index"":3,""viewing_time"":1422}]","28603","","","","","","","","","","","","","","","","","","","",""
"","comprehension_check","","survey-multi-choice","2","56772","0.0-1.0-0.0-1.0","0","0","72036","","12720","{""Q0"":""True"",""Q1"":""D"",""Q2"":""When you see the prompt 'MAKE A CHOICE' after the second image was presented"",""Q3"":""Green mark"",""Q4"":""either D or K""}","0","","","","","","","","","","","","","","","","","",""
"","start_exp","","html-keyboard-response","3","64168","0.0-1.0-1.0","0","0","72036","","7391","","","32","","","","","","","","","","","","","","","","",""
"","S1","","html-keyboard-response","4","64421","0.0-1.0-2.0","0","0","72036","","null","","","null","0","","","","","","","","","","","","","","","",""
"","ISI","","html-keyboard-response","5","66423","0.0-1.0-3.0","0","0","72036","","null","","","null","0","NaN","","","","","","","","","","","","","","",""
"","S2","","html-keyboard-response","6","66676","0.0-1.0-4.0","0","0","72036","","null","","","null","0","","NaN","","","","","","","","","","","","","",""
"","response","","html-keyboard-response","7","67303","0.0-1.0-5.0","0","0","72036","","624","","","75","0","","","1","0","training","adjacent","BA","2","1","L.jpg","R.jpg","0","0","1","",""
"","feedback","","html-keyboard-response","8","68306","0.0-1.0-6.0-0.0","0","0","72036","","null","","","null","0","","","","","","","","","","","","","","","",""
"","ITI","","html-keyboard-response","9","69309","0.0-1.0-9.0","0","0","72036","","null","","","null","0","","","","","","","","","","","","","","","NaN",""
"","S1","","html-keyboard-response","10","69561","0.0-1.0-11.0","0","0","72036","","null","","","null","1","","","","","","","","","","","","","","","",""
"","ISI","","html-keyboard-response","11","71564","0.0-1.0-12.0","0","0","72036","","null","","","null","1","NaN","","","","","","","","","","","","","","",""
"","S2","","html-keyboard-response","12","71817","0.0-1.0-13.0","0","0","72036","","null","","","null","1","","NaN","","","","","","","","","","","","","",""
"","response","","html-keyboard-response","13","72359","0.0-1.0-14.0","0","0","72036","","539","","","68","1","","","1","1","training","adjacent","DC","4","3","M.jpg","O.jpg","1","0","0","",""
"","feedback","","html-keyboard-response","14","73362","0.0-1.0-15.0-0.0","0","0","72036","","null","","","null","1","","","","","","","","","","","","","","","",""
"","time_out","","html-keyboard-response","15","75365","0.0-1.0-17.0-0.0","0","0","72036","","null","","","null","1","","","","","","","","","","","","","","","",""
"","ITI","","html-keyboard-response","16","76366","0.0-1.0-18.0","0","0","72036","","null","","","null","1","","","","","","","","","","","","","","","NaN",""
"","S1","","html-keyboard-response","17","76618","0.0-1.0-20.0","0","0","72036","","null","","","null","2","","","","","","","","","","","","","","","",""
"","ISI","","html-keyboard-response","18","78621","0.0-1.0-21.0","0","0","72036","","null","","","null","2","NaN","","","","","","","","","","","","","","",""
"","S2","","html-keyboard-response","19","78873","0.0-1.0-22.0","0","0","72036","","null","","","null","2","","NaN","","","","","","","","","","","","","",""
"","response","","html-keyboard-response","20","79236","0.0-1.0-23.0","0","0","72036","","360","","","68","2","","","1","2","training","adjacent","AB","1","2","R.jpg","L.jpg","1","1","1","",""
"","feedback","","html-keyboard-response","21","80238","0.0-1.0-24.0-0.0","0","0","72036","","null","","","null","2","","","","","","","","","","","","","","","",""
"","ITI","","html-keyboard-response","22","81241","0.0-1.0-27.0","0","0","72036","","null","","","null","2","","","","","","","","","","","","","","","NaN",""
"","S1","","html-keyboard-response","23","81493","0.0-1.0-29.0","0","0","72036","","null","","","null","3","","","","","","","","","","","","","","","",""
"","ISI","","html-keyboard-response","24","83495","0.0-1.0-30.0","0","0","72036","","null","","","null","3","NaN","","","","","","","","","","","","","","",""
"","S2","","html-keyboard-response","25","83747","0.0-1.0-31.0","0","0","72036","","null","","","null","3","","NaN","","","","","","","","","","","","","",""
"","response","","html-keyboard-response","26","84231","0.0-1.0-32.0","0","0","72036","","482","","","75","3","","","1","3","training","adjacent","DC","4","3","M.jpg","O.jpg","0","0","1","",""
"","feedback","","html-keyboard-response","27","85234","0.0-1.0-33.0-0.0","0","0","72036","","null","","","null","3","","","","","","","","","","","","","","","",""
"","ITI","","html-keyboard-response","28","86236","0.0-1.0-36.0","0","0","72036","","null","","","null","3","","","","","","","","","","","","","","","NaN",""
"","S1","","html-keyboard-response","29","86488","0.0-1.0-38.0","0","0","72036","","null","","","null","4","","","","","","","","","","","","","","","",""
"","ISI","","html-keyboard-response","30","88490","0.0-1.0-39.0","0","0","72036","","null","","","null","4","NaN","","","","","","","","","","","","","","",""
"","S2","","html-keyboard-response","31","88742","0.0-1.0-40.0","0","0","72036","","null","","","null","4","","NaN","","","","","","","","","","","","","",""
"","response","","html-keyboard-response","32","89254","0.0-1.0-41.0","0","0","72036","","511","","","75","4","","","1","4","training","adjacent","BC","2","3","L.jpg","O.jpg","0","1","0","",""
"","feedback","","html-keyboard-response","33","90256","0.0-1.0-42.0-0.0","0","0","72036","","null","","","null","4","","","","","","","","","","","","","","","",""
"","time_out","","html-keyboard-response","34","92258","0.0-1.0-44.0-0.0","0","0","72036","","null","","","null","4","","","","","","","","","","","","","","","",""
"","ITI","","html-keyboard-response","35","93260","0.0-1.0-45.0","0","0","72036","","null","","","null","4","","","","","","","","","","","","","","","NaN",""
"","S1","","html-keyboard-response","36","93512","0.0-1.0-47.0","0","0","72036","","null","","","null","5","","","","","","","","","","","","","","","",""
"","ISI","","html-keyboard-response","37","95514","0.0-1.0-48.0","0","0","72036","","null","","","null","5","NaN","","","","","","","","","","","","","","",""
"","S2","","html-keyboard-response","38","95767","0.0-1.0-49.0","0","0","72036","","null","","","null","5","","NaN","","","","","","","","","","","","","",""
"","response","","html-keyboard-response","39","97686","0.0-1.0-50.0","0","0","72036","","1917","","","75","5","","","1","5","training","adjacent","GF","7","6","P.jpg","N.jpg","0","0","1","",""
"","feedback","","html-keyboard-response","40","98689","0.0-1.0-51.0-0.0","0","0","72036","","null","","","null","5","","","","","","","","","","","","","","","",""
"","ITI","","html-keyboard-response","41","99690","0.0-1.0-54.0","0","0","72036","","null","","","null","5","","","","","","","","","","","","","","","NaN",""
"","S1","","html-keyboard-response","42","99943","0.0-1.0-56.0","0","0","72036","","null","","","null","6","","","","","","","","","","","","","","","",""
"","ISI","","html-keyboard-response","43","101945","0.0-1.0-57.0","0","0","72036","","null","","","null","6","NaN","","","","","","","","","","","","","","",""
"","S2","","html-keyboard-response","44","102198","0.0-1.0-58.0","0","0","72036","","null","","","null","6","","NaN","","","","","","","","","","","","","",""
"","response","","html-keyboard-response","45","102661","0.0-1.0-59.0","0","0","72036","","462","","","75","6","","","1","6","training","adjacent","DC","4","3","M.jpg","O.jpg","0","0","1","",""
"","feedback","","html-keyboard-response","46","103664","0.0-1.0-60.0-0.0","0","0","72036","","null","","","null","6","","","","","","","","","","","","","","","",""
"","ITI","","html-keyboard-response","47","104667","0.0-1.0-63.0","0","0","72036","","null","","","null","6","","","","","","","","","","","","","","","NaN",""
"","S1","","html-keyboard-response","48","104919","0.0-1.0-65.0","0","0","72036","","null","","","null","7","","","","","","","","","","","","","","","",""
"","ISI","","html-keyboard-response","49","106921","0.0-1.0-66.0","0","0","72036","","null","","","null","7","NaN","","","","","","","","","","","","","","",""
"","S2","","html-keyboard-response","50","107174","0.0-1.0-67.0","0","0","72036","","null","","","null","7","","NaN","","","","","","","","","","","","","",""
"","response","","html-keyboard-response","51","107645","0.0-1.0-68.0","0","0","72036","","470","","","68","7","","","1","7","training","adjacent","FE","6","5","N.jpg","Q.jpg","1","0","0","",""
"","feedback","","html-keyboard-response","52","108647","0.0-1.0-69.0-0.0","0","0","72036","","null","","","null","7","","","","","","","","","","","","","","","",""
"","time_out","","html-keyboard-response","53","110650","0.0-1.0-71.0-0.0","0","0","72036","","null","","","null","7","","","","","","","","","","","","","","","",""
"","ITI","","html-keyboard-response","54","111651","0.0-1.0-72.0","0","0","72036","","null","","","null","7","","","","","","","","","","","","","","","NaN",""
"","S1","","html-keyboard-response","55","111905","0.0-1.0-74.0","0","0","72036","","null","","","null","8","","","","","","","","","","","","","","","",""
"","ISI","","html-keyboard-response","56","113906","0.0-1.0-75.0","0","0","72036","","null","","","null","8","NaN","","","","","","","","","","","","","","",""
"","S2","","html-keyboard-response","57","114159","0.0-1.0-76.0","0","0","72036","","null","","","null","8","","NaN","","","","","","","","","","","","","",""
"","response","","html-keyboard-response","58","114525","0.0-1.0-77.0","0","0","72036","","365","","","75","8","","","1","8","training","adjacent","BA","2","1","L.jpg","R.jpg","0","0","1","",""
"","feedback","","html-keyboard-response","59","115528","0.0-1.0-78.0-0.0","0","0","72036","","null","","","null","8","","","","","","","","","","","","","","","",""
"","ITI","","html-keyboard-response","60","116532","0.0-1.0-81.0","0","0","72036","","null","","","null","8","","","","","","","","","","","","","","","NaN",""
"","S1","","html-keyboard-response","61","116784","0.0-1.0-83.0","0","0","72036","","null","","","null","9","","","","","","","","","","","","","","","",""
"","ISI","","html-keyboard-response","62","118786","0.0-1.0-84.0","0","0","72036","","null","","","null","9","NaN","","","","","","","","","","","","","","",""
"","S2","","html-keyboard-response","63","119038","0.0-1.0-85.0","0","0","72036","","null","","","null","9","","NaN","","","","","","","","","","","","","",""
"","response","","html-keyboard-response","64","119637","0.0-1.0-86.0","0","0","72036","","597","","","75","9","","","1","9","training","adjacent","FE","6","5","N.jpg","Q.jpg","0","0","1","",""
"","feedback","","html-keyboard-response","65","120639","0.0-1.0-87.0-0.0","0","0","72036","","null","","","null","9","","","","","","","","","","","","","","","",""
"","ITI","","html-keyboard-response","66","121641","0.0-1.0-90.0","0","0","72036","","null","","","null","9","","","","","","","","","","","","","","","NaN",""
"","S1","","html-keyboard-response","67","121894","0.0-1.0-92.0","0","0","72036","","null","","","null","10","","","","","","","","","","","","","","","",""
"","ISI","","html-keyboard-response","68","123896","0.0-1.0-93.0","0","0","72036","","null","","","null","10","NaN","","","","","","","","","","","","","","",""
"","S2","","html-keyboard-response","69","124149","0.0-1.0-94.0","0","0","72036","","null","","","null","10","","NaN","","","","","","","","","","","","","",""
"","response","","html-keyboard-response","70","124469","0.0-1.0-95.0","0","0","72036","","318","","","75","10","","","1","10","training","adjacent","BA","2","1","L.jpg","R.jpg","0","0","1","",""
"","feedback","","html-keyboard-response","71","125471","0.0-1.0-96.0-0.0","0","0","72036","","null","","","null","10","","","","","","","","","","","","","","","",""
"","ITI","","html-keyboard-response","72","126473","0.0-1.0-99.0","0","0","72036","","null","","","null","10","","","","","","","","","","","","","","","NaN",""
"","S1","","html-keyboard-response","73","126726","0.0-1.0-101.0","0","0","72036","","null","","","null","11","","","","","","","","","","","","","","","",""
"","ISI","","html-keyboard-response","74","128727","0.0-1.0-102.0","0","0","72036","","null","","","null","11","NaN","","","","","","","","","","","","","","",""
"","S2","","html-keyboard-response","75","128979","0.0-1.0-103.0","0","0","72036","","null","","","null","11","","NaN","","","","","","","","","","","","","",""
"","response","","html-keyboard-response","76","129534","0.0-1.0-104.0","0","0","72036","","552","","","68","11","","","1","11","training","adjacent","FG","6","7","N.jpg","P.jpg","1","1","1","",""
"","feedback","","html-keyboard-response","77","130536","0.0-1.0-105.0-0.0","0","0","72036","","null","","","null","11","","","","","","","","","","","","","","","",""
"","ITI","","html-keyboard-response","78","131538","0.0-1.0-108.0","0","0","72036","","null","","","null","11","","","","","","","","","","","","","","","NaN",""
"","S1","","html-keyboard-response","79","131789","0.0-1.0-110.0","0","0","72036","","null","","","null","12","","","","","","","","","","","","","","","",""
"","ISI","","html-keyboard-response","80","133792","0.0-1.0-111.0","0","0","72036","","null","","","null","12","NaN","","","","","","","","","","","","","","",""
"","S2","","html-keyboard-response","81","134044","0.0-1.0-112.0","0","0","72036","","null","","","null","12","","NaN","","","","","","","","","","","","","",""
"","response","","html-keyboard-response","82","134405","0.0-1.0-113.0","0","0","72036","","359","","","75","12","","","1","12","training","adjacent","GF","7","6","P.jpg","N.jpg","0","0","1","",""
"","feedback","","html-keyboard-response","83","135408","0.0-1.0-114.0-0.0","0","0","72036","","null","","","null","12","","","","","","","","","","","","","","","",""
"","ITI","","html-keyboard-response","84","136409","0.0-1.0-117.0","0","0","72036","","null","","","null","12","","","","","","","","","","","","","","","NaN",""
"","S1","","html-keyboard-response","85","136662","0.0-1.0-119.0","0","0","72036","","null","","","null","13","","","","","","","","","","","","","","","",""
"","ISI","","html-keyboard-response","86","138665","0.0-1.0-120.0","0","0","72036","","null","","","null","13","NaN","","","","","","","","","","","","","","",""
"","S2","","html-keyboard-response","87","138916","0.0-1.0-121.0","0","0","72036","","null","","","null","13","","NaN","","","","","","","","","","","","","",""
"","response","","html-keyboard-response","88","139324","0.0-1.0-122.0","0","0","72036","","407","","","75","13","","","1","13","training","adjacent","EF","5","6","Q.jpg","N.jpg","0","1","0","",""
"","feedback","","html-keyboard-response","89","140328","0.0-1.0-123.0-0.0","0","0","72036","","null","","","null","13","","","","","","","","","","","","","","","",""
"","time_out","","html-keyboard-response","90","142331","0.0-1.0-125.0-0.0","0","0","72036","","null","","","null","13","","","","","","","","","","","","","","","",""
"","ITI","","html-keyboard-response","91","143332","0.0-1.0-126.0","0","0","72036","","null","","","null","13","","","","","","","","","","","","","","","NaN",""
"","S1","","html-keyboard-response","92","143585","0.0-1.0-128.0","0","0","72036","","null","","","null","14","","","","","","","","","","","","","","","",""
"","ISI","","html-keyboard-response","93","145587","0.0-1.0-129.0","0","0","72036","","null","","","null","14","NaN","","","","","","","","","","","","","","",""
"","S2","","html-keyboard-response","94","145839","0.0-1.0-130.0","0","0","72036","","null","","","null","14","","NaN","","","","","","","","","","","","","",""
"","response","","html-keyboard-response","95","146165","0.0-1.0-131.0","0","0","72036","","323","","","68","14","","","1","14","training","adjacent","EF","5","6","Q.jpg","N.jpg","1","1","1","",""
"","feedback","","html-keyboard-response","96","147168","0.0-1.0-132.0-0.0","0","0","72036","","null","","","null","14","","","","","","","","","","","","","","","",""
"","ITI","","html-keyboard-response","97","148170","0.0-1.0-135.0","0","0","72036","","null","","","null","14","","","","","","","","","","","","","","","NaN",""
"","S1","","html-keyboard-response","98","148422","0.0-1.0-137.0","0","0","72036","","null","","","null","15","","","","","","","","","","","","","","","",""
"","ISI","","html-keyboard-response","99","150424","0.0-1.0-138.0","0","0","72036","","null","","","null","15","NaN","","","","","","","","","","","","","","",""
"","S2","","html-keyboard-response","100","150676","0.0-1.0-139.0","0","0","72036","","null","","","null","15","","NaN","","","","","","","","","","","","","",""
"","response","","html-keyboard-response","101","151236","0.0-1.0-140.0","0","0","72036","","558","","","68","15","","","1","15","training","adjacent","FE","6","5","N.jpg","Q.jpg","1","0","0","",""
"","feedback","","html-keyboard-response","102","152238","0.0-1.0-141.0-0.0","0","0","72036","","null","","","null","15","","","","","","","","","","","","","","","",""
"","time_out","","html-keyboard-response","103","154240","0.0-1.0-143.0-0.0","0","0","72036","","null","","","null","15","","","","","","","","","","","","","","","",""
"","ITI","","html-keyboard-response","104","155253","0.0-1.0-144.0","0","0","72036","","null","","","null","15","","","","","","","","","","","","","","","NaN",""
"","S1","","html-keyboard-response","105","155505","0.0-1.0-146.0","0","0","72036","","null","","","null","16","","","","","","","","","","","","","","","",""
"","ISI","","html-keyboard-response","106","157507","0.0-1.0-147.0","0","0","72036","","null","","","null","16","NaN","","","","","","","","","","","","","","",""
"","S2","","html-keyboard-response","107","157759","0.0-1.0-148.0","0","0","72036","","null","","","null","16","","NaN","","","","","","","","","","","","","",""
"","response","","html-keyboard-response","108","158323","0.0-1.0-149.0","0","0","72036","","563","","","68","16","","","1","16","training","adjacent","ED","5","4","Q.jpg","M.jpg","1","0","0","",""
"","feedback","","html-keyboard-response","109","159327","0.0-1.0-150.0-0.0","0","0","72036","","null","","","null","16","","","","","","","","","","","","","","","",""
"","time_out","","html-keyboard-response","110","161328","0.0-1.0-152.0-0.0","0","0","72036","","null","","","null","16","","","","","","","","","","","","","","","",""
"","ITI","","html-keyboard-response","111","162330","0.0-1.0-153.0","0","0","72036","","null","","","null","16","","","","","","","","","","","","","","","NaN",""
"","S1","","html-keyboard-response","112","162583","0.0-1.0-155.0","0","0","72036","","null","","","null","17","","","","","","","","","","","","","","","",""
"","ISI","","html-keyboard-response","113","164585","0.0-1.0-156.0","0","0","72036","","null","","","null","17","NaN","","","","","","","","","","","","","","",""
"","S2","","html-keyboard-response","114","164838","0.0-1.0-157.0","0","0","72036","","null","","","null","17","","NaN","","","","","","","","","","","","","",""
"","response","","html-keyboard-response","115","165276","0.0-1.0-158.0","0","0","72036","","435","","","68","17","","","1","17","training","adjacent","CB","3","2","O.jpg","L.jpg","1","0","0","",""
"","feedback","","html-keyboard-response","116","166277","0.0-1.0-159.0-0.0","0","0","72036","","null","","","null","17","","","","","","","","","","","","","","","",""
"","time_out","","html-keyboard-response","117","168280","0.0-1.0-161.0-0.0","0","0","72036","","null","","","null","17","","","","","","","","","","","","","","","",""
"","ITI","","html-keyboard-response","118","169281","0.0-1.0-162.0","0","0","72036","","null","","","null","17","","","","","","","","","","","","","","","NaN",""
"","S1","","html-keyboard-response","119","169534","0.0-1.0-164.0","0","0","72036","","null","","","null","18","","","","","","","","","","","","","","","",""
"","ISI","","html-keyboard-response","120","171536","0.0-1.0-165.0","0","0","72036","","null","","","null","18","NaN","","","","","","","","","","","","","","",""
"","S2","","html-keyboard-response","121","171788","0.0-1.0-166.0","0","0","72036","","null","","","null","18","","NaN","","","","","","","","","","","","","",""
"","response","","html-keyboard-response","122","172340","0.0-1.0-167.0","0","0","72036","","550","","","75","18","","","1","18","training","adjacent","DE","4","5","M.jpg","Q.jpg","0","1","0","",""
"","feedback","","html-keyboard-response","123","173341","0.0-1.0-168.0-0.0","0","0","72036","","null","","","null","18","","","","","","","","","","","","","","","",""
"","time_out","","html-keyboard-response","124","175344","0.0-1.0-170.0-0.0","0","0","72036","","null","","","null","18","","","","","","","","","","","","","","","",""
"","ITI","","html-keyboard-response","125","176345","0.0-1.0-171.0","0","0","72036","","null","","","null","18","","","","","","","","","","","","","","","NaN",""
"","S1","","html-keyboard-response","126","176598","0.0-1.0-173.0","0","0","72036","","null","","","null","19","","","","","","","","","","","","","","","",""
"","ISI","","html-keyboard-response","127","178601","0.0-1.0-174.0","0","0","72036","","null","","","null","19","NaN","","","","","","","","","","","","","","",""
"","S2","","html-keyboard-response","128","178853","0.0-1.0-175.0","0","0","72036","","null","","","null","19","","NaN","","","","","","","","","","","","","",""
"","response","","html-keyboard-response","129","179235","0.0-1.0-176.0","0","0","72036","","381","","","68","19","","","1","19","training","adjacent","DE","4","5","M.jpg","Q.jpg","1","1","1","",""
"","feedback","","html-keyboard-response","130","180238","0.0-1.0-177.0-0.0","0","0","72036","","null","","","null","19","","","","","","","","","","","","","","","",""
"","ITI","","html-keyboard-response","131","181240","0.0-1.0-180.0","0","0","72036","","null","","","null","19","","","","","","","","","","","","","","","NaN",""
"","S1","","html-keyboard-response","132","181492","0.0-1.0-182.0","0","0","72036","","null","","","null","20","","","","","","","","","","","","","","","",""
"","ISI","","html-keyboard-response","133","183495","0.0-1.0-183.0","0","0","72036","","null","","","null","20","NaN","","","","","","","","","","","","","","",""
"","S2","","html-keyboard-response","134","183747","0.0-1.0-184.0","0","0","72036","","null","","","null","20","","NaN","","","","","","","","","","","","","",""
"","response","","html-keyboard-response","135","184027","0.0-1.0-185.0","0","0","72036","","279","","","75","20","","","1","20","training","adjacent","BA","2","1","L.jpg","R.jpg","0","0","1","",""
"","feedback","","html-keyboard-response","136","185030","0.0-1.0-186.0-0.0","0","0","72036","","null","","","null","20","","","","","","","","","","","","","","","",""
"","ITI","","html-keyboard-response","137","186032","0.0-1.0-189.0","0","0","72036","","null","","","null","20","","","","","","","","","","","","","","","NaN",""
"","S1","","html-keyboard-response","138","186285","0.0-1.0-191.0","0","0","72036","","null","","","null","21","","","","","","","","","","","","","","","",""
"","ISI","","html-keyboard-response","139","188287","0.0-1.0-192.0","0","0","72036","","null","","","null","21","NaN","","","","","","","","","","","","","","",""
"","S2","","html-keyboard-response","140","188539","0.0-1.0-193.0","0","0","72036","","null","","","null","21","","NaN","","","","","","","","","","","","","",""
"","response","","html-keyboard-response","141","188915","0.0-1.0-194.0","0","0","72036","","374","","","75","21","","","1","21","training","adjacent","GF","7","6","P.jpg","N.jpg","0","0","1","",""
"","feedback","","html-keyboard-response","142","189917","0.0-1.0-195.0-0.0","0","0","72036","","null","","","null","21","","","","","","","","","","","","","","","",""
"","ITI","","html-keyboard-response","143","190919","0.0-1.0-198.0","0","0","72036","","null","","","null","21","","","","","","","","","","","","","","","NaN",""
"","S1","","html-keyboard-response","144","191171","0.0-1.0-200.0","0","0","72036","","null","","","null","22","","","","","","","","","","","","","","","",""
"","ISI","","html-keyboard-response","145","193173","0.0-1.0-201.0","0","0","72036","","null","","","null","22","NaN","","","","","","","","","","","","","","",""
"","S2","","html-keyboard-response","146","193426","0.0-1.0-202.0","0","0","72036","","null","","","null","22","","NaN","","","","","","","","","","","","","",""
"","response","","html-keyboard-response","147","193819","0.0-1.0-203.0","0","0","72036","","391","","","75","22","","","1","22","training","adjacent","BC","2","3","L.jpg","O.jpg","0","1","0","",""
"","feedback","","html-keyboard-response","148","194821","0.0-1.0-204.0-0.0","0","0","72036","","null","","","null","22","","","","","","","","","","","","","","","",""
"","time_out","","html-keyboard-response","149","196823","0.0-1.0-206.0-0.0","0","0","72036","","null","","","null","22","","","","","","","","","","","","","","","",""
"","ITI","","html-keyboard-response","150","197826","0.0-1.0-207.0","0","0","72036","","null","","","null","22","","","","","","","","","","","","","","","NaN",""
"","S1","","html-keyboard-response","151","198078","0.0-1.0-209.0","0","0","72036","","null","","","null","23","","","","","","","","","","","","","","","",""
"","ISI","","html-keyboard-response","152","200080","0.0-1.0-210.0","0","0","72036","","null","","","null","23","NaN","","","","","","","","","","","","","","",""
"","S2","","html-keyboard-response","153","200333","0.0-1.0-211.0","0","0","72036","","null","","","null","23","","NaN","","","","","","","","","","","","","",""
"","response","","html-keyboard-response","154","200643","0.0-1.0-212.0","0","0","72036","","308","","","68","23","","","1","23","training","adjacent","AB","1","2","R.jpg","L.jpg","1","1","1","",""
"","feedback","","html-keyboard-response","155","201644","0.0-1.0-213.0-0.0","0","0","72036","","null","","","null","23","","","","","","","","","","","","","","","",""
"","ITI","","html-keyboard-response","156","202647","0.0-1.0-216.0","0","0","72036","","null","","","null","23","","","","","","","","","","","","","","","NaN",""
"","S1","","html-keyboard-response","157","202899","0.0-1.0-218.0","0","0","72036","","null","","","null","24","","","","","","","","","","","","","","","",""
"","ISI","","html-keyboard-response","158","204900","0.0-1.0-219.0","0","0","72036","","null","","","null","24","NaN","","","","","","","","","","","","","","",""
"","S2","","html-keyboard-response","159","205153","0.0-1.0-220.0","0","0","72036","","null","","","null","24","","NaN","","","","","","","","","","","","","",""
"","response","","html-keyboard-response","160","205474","0.0-1.0-221.0","0","0","72036","","320","","","75","24","","","1","24","training","adjacent","CB","3","2","O.jpg","L.jpg","0","0","1","",""
"","feedback","","html-keyboard-response","161","206477","0.0-1.0-222.0-0.0","0","0","72036","","null","","","null","24","","","","","","","","","","","","","","","",""
"","ITI","","html-keyboard-response","162","207479","0.0-1.0-225.0","0","0","72036","","null","","","null","24","","","","","","","","","","","","","","","NaN",""
"","S1","","html-keyboard-response","163","207731","0.0-1.0-227.0","0","0","72036","","null","","","null","25","","","","","","","","","","","","","","","",""
"","ISI","","html-keyboard-response","164","209733","0.0-1.0-228.0","0","0","72036","","null","","","null","25","NaN","","","","","","","","","","","","","","",""
"","S2","","html-keyboard-response","165","209985","0.0-1.0-229.0","0","0","72036","","null","","","null","25","","NaN","","","","","","","","","","","","","",""
"","response","","html-keyboard-response","166","210443","0.0-1.0-230.0","0","0","72036","","455","","","75","25","","","1","25","training","adjacent","DC","4","3","M.jpg","O.jpg","0","0","1","",""
"","feedback","","html-keyboard-response","167","211444","0.0-1.0-231.0-0.0","0","0","72036","","null","","","null","25","","","","","","","","","","","","","","","",""
"","ITI","","html-keyboard-response","168","212450","0.0-1.0-234.0","0","0","72036","","null","","","null","25","","","","","","","","","","","","","","","NaN",""
"","S1","","html-keyboard-response","169","212702","0.0-1.0-236.0","0","0","72036","","null","","","null","26","","","","","","","","","","","","","","","",""
"","ISI","","html-keyboard-response","170","214704","0.0-1.0-237.0","0","0","72036","","null","","","null","26","NaN","","","","","","","","","","","","","","",""
"","S2","","html-keyboard-response","171","214956","0.0-1.0-238.0","0","0","72036","","null","","","null","26","","NaN","","","","","","","","","","","","","",""
"","response","","html-keyboard-response","172","215554","0.0-1.0-239.0","0","0","72036","","596","","","68","26","","","1","26","training","adjacent","AB","1","2","R.jpg","L.jpg","1","1","1","",""
"","feedback","","html-keyboard-response","173","216556","0.0-1.0-240.0-0.0","0","0","72036","","null","","","null","26","","","","","","","","","","","","","","","",""
"","ITI","","html-keyboard-response","174","217558","0.0-1.0-243.0","0","0","72036","","null","","","null","26","","","","","","","","","","","","","","","NaN",""
"","S1","","html-keyboard-response","175","217810","0.0-1.0-245.0","0","0","72036","","null","","","null","27","","","","","","","","","","","","","","","",""
"","ISI","","html-keyboard-response","176","219812","0.0-1.0-246.0","0","0","72036","","null","","","null","27","NaN","","","","","","","","","","","","","","",""
"","S2","","html-keyboard-response","177","220065","0.0-1.0-247.0","0","0","72036","","null","","","null","27","","NaN","","","","","","","","","","","","","",""
"","response","","html-keyboard-response","178","220537","0.0-1.0-248.0","0","0","72036","","471","","","68","27","","","1","27","training","adjacent","FG","6","7","N.jpg","P.jpg","1","1","1","",""
"","feedback","","html-keyboard-response","179","221540","0.0-1.0-249.0-0.0","0","0","72036","","null","","","null","27","","","","","","","","","","","","","","","",""
"","ITI","","html-keyboard-response","180","222543","0.0-1.0-252.0","0","0","72036","","null","","","null","27","","","","","","","","","","","","","","","NaN",""
"","S1","","html-keyboard-response","181","222795","0.0-1.0-254.0","0","0","72036","","null","","","null","28","","","","","","","","","","","","","","","",""
"","ISI","","html-keyboard-response","182","224797","0.0-1.0-255.0","0","0","72036","","null","","","null","28","NaN","","","","","","","","","","","","","","",""
"","S2","","html-keyboard-response","183","225049","0.0-1.0-256.0","0","0","72036","","null","","","null","28","","NaN","","","","","","","","","","","","","",""
"","response","","html-keyboard-response","184","225378","0.0-1.0-257.0","0","0","72036","","327","","","75","28","","","1","28","training","adjacent","ED","5","4","Q.jpg","M.jpg","0","0","1","",""
"","feedback","","html-keyboard-response","185","226380","0.0-1.0-258.0-0.0","0","0","72036","","null","","","null","28","","","","","","","","","","","","","","","",""
"","ITI","","html-keyboard-response","186","227382","0.0-1.0-261.0","0","0","72036","","null","","","null","28","","","","","","","","","","","","","","","NaN",""
"","S1","","html-keyboard-response","187","227634","0.0-1.0-263.0","0","0","72036","","null","","","null","29","","","","","","","","","","","","","","","",""
"","ISI","","html-keyboard-response","188","229637","0.0-1.0-264.0","0","0","72036","","null","","","null","29","NaN","","","","","","","","","","","","","","",""
"","S2","","html-keyboard-response","189","229889","0.0-1.0-265.0","0","0","72036","","null","","","null","29","","NaN","","","","","","","","","","","","","",""
"","response","","html-keyboard-response","190","230297","0.0-1.0-266.0","0","0","72036","","407","","","68","29","","","1","29","training","adjacent","FE","6","5","N.jpg","Q.jpg","1","0","0","",""
"","feedback","","html-keyboard-response","191","231300","0.0-1.0-267.0-0.0","0","0","72036","","null","","","null","29","","","","","","","","","","","","","","","",""
"","time_out","","html-keyboard-response","192","233302","0.0-1.0-269.0-0.0","0","0","72036","","null","","","null","29","","","","","","","","","","","","","","","",""
"","ITI","","html-keyboard-response","193","234305","0.0-1.0-270.0","0","0","72036","","null","","","null","29","","","","","","","","","","","","","","","NaN",""
"","S1","","html-keyboard-response","194","234557","0.0-1.0-272.0","0","0","72036","","null","","","null","30","","","","","","","","","","","","","","","",""
"","ISI","","html-keyboard-response","195","236560","0.0-1.0-273.0","0","0","72036","","null","","","null","30","NaN","","","","","","","","","","","","","","",""
"","S2","","html-keyboard-response","196","236812","0.0-1.0-274.0","0","0","72036","","null","","","null","30","","NaN","","","","","","","","","","","","","",""
"","response","","html-keyboard-response","197","237129","0.0-1.0-275.0","0","0","72036","","315","","","68","30","","","1","30","training","adjacent","EF","5","6","Q.jpg","N.jpg","1","1","1","",""
"","feedback","","html-keyboard-response","198","238132","0.0-1.0-276.0-0.0","0","0","72036","","null","","","null","30","","","","","","","","","","","","","","","",""
"","ITI","","html-keyboard-response","199","239133","0.0-1.0-279.0","0","0","72036","","null","","","null","30","","","","","","","","","","","","","","","NaN",""
"","S1","","html-keyboard-response","200","239385","0.0-1.0-281.0","0","0","72036","","null","","","null","31","","","","","","","","","","","","","","","",""
"","ISI","","html-keyboard-response","201","241388","0.0-1.0-282.0","0","0","72036","","null","","","null","31","NaN","","","","","","","","","","","","","","",""
"","S2","","html-keyboard-response","202","241640","0.0-1.0-283.0","0","0","72036","","null","","","null","31","","NaN","","","","","","","","","","","","","",""
"","response","","html-keyboard-response","203","242170","0.0-1.0-284.0","0","0","72036","","528","","","75","31","","","1","31","training","adjacent","CD","3","4","O.jpg","M.jpg","0","1","0","",""
"","feedback","","html-keyboard-response","204","243172","0.0-1.0-285.0-0.0","0","0","72036","","null","","","null","31","","","","","","","","","","","","","","","",""
"","time_out","","html-keyboard-response","205","245176","0.0-1.0-287.0-0.0","0","0","72036","","null","","","null","31","","","","","","","","","","","","","","","",""
"","ITI","","html-keyboard-response","206","246177","0.0-1.0-288.0","0","0","72036","","null","","","null","31","","","","","","","","","","","","","","","NaN",""
"","S1","","html-keyboard-response","207","246430","0.0-1.0-290.0","0","0","72036","","null","","","null","32","","","","","","","","","","","","","","","",""
"","ISI","","html-keyboard-response","208","248432","0.0-1.0-291.0","0","0","72036","","null","","","null","32","NaN","","","","","","","","","","","","","","",""
"","S2","","html-keyboard-response","209","248684","0.0-1.0-292.0","0","0","72036","","null","","","null","32","","NaN","","","","","","","","","","","","","",""
"","response","","html-keyboard-response","210","249593","0.0-1.0-293.0","0","0","72036","","907","","","75","32","","","1","32","training","adjacent","CB","3","2","O.jpg","L.jpg","0","0","1","",""
"","feedback","","html-keyboard-response","211","250594","0.0-1.0-294.0-0.0","0","0","72036","","null","","","null","32","","","","","","","","","","","","","","","",""
"","ITI","","html-keyboard-response","212","251597","0.0-1.0-297.0","0","0","72036","","null","","","null","32","","","","","","","","","","","","","","","NaN",""
"","S1","","html-keyboard-response","213","251849","0.0-1.0-299.0","0","0","72036","","null","","","null","33","","","","","","","","","","","","","","","",""
"","ISI","","html-keyboard-response","214","253851","0.0-1.0-300.0","0","0","72036","","null","","","null","33","NaN","","","","","","","","","","","","","","",""
"","S2","","html-keyboard-response","215","254104","0.0-1.0-301.0","0","0","72036","","null","","","null","33","","NaN","","","","","","","","","","","","","",""
"","response","","html-keyboard-response","216","254434","0.0-1.0-302.0","0","0","72036","","327","","","68","33","","","1","33","training","adjacent","ED","5","4","Q.jpg","M.jpg","1","0","0","",""
"","feedback","","html-keyboard-response","217","255436","0.0-1.0-303.0-0.0","0","0","72036","","null","","","null","33","","","","","","","","","","","","","","","",""
"","time_out","","html-keyboard-response","218","257438","0.0-1.0-305.0-0.0","0","0","72036","","null","","","null","33","","","","","","","","","","","","","","","",""
"","ITI","","html-keyboard-response","219","258440","0.0-1.0-306.0","0","0","72036","","null","","","null","33","","","","","","","","","","","","","","","NaN",""
"","S1","","html-keyboard-response","220","258692","0.0-1.0-308.0","0","0","72036","","null","","","null","34","","","","","","","","","","","","","","","",""
"","ISI","","html-keyboard-response","221","260695","0.0-1.0-309.0","0","0","72036","","null","","","null","34","NaN","","","","","","","","","","","","","","",""
"","S2","","html-keyboard-response","222","260946","0.0-1.0-310.0","0","0","72036","","null","","","null","34","","NaN","","","","","","","","","","","","","",""
"","response","","html-keyboard-response","223","261272","0.0-1.0-311.0","0","0","72036","","325","","","75","34","","","1","34","training","adjacent","GF","7","6","P.jpg","N.jpg","0","0","1","",""
"","feedback","","html-keyboard-response","224","262275","0.0-1.0-312.0-0.0","0","0","72036","","null","","","null","34","","","","","","","","","","","","","","","",""
"","ITI","","html-keyboard-response","225","263277","0.0-1.0-315.0","0","0","72036","","null","","","null","34","","","","","","","","","","","","","","","NaN",""
"","S1","","html-keyboard-response","226","263530","0.0-1.0-317.0","0","0","72036","","null","","","null","35","","","","","","","","","","","","","","","",""
"","ISI","","html-keyboard-response","227","265533","0.0-1.0-318.0","0","0","72036","","null","","","null","35","NaN","","","","","","","","","","","","","","",""
"","S2","","html-keyboard-response","228","265786","0.0-1.0-319.0","0","0","72036","","null","","","null","35","","NaN","","","","","","","","","","","","","",""
"","response","","html-keyboard-response","229","266256","0.0-1.0-320.0","0","0","72036","","468","","","68","35","","","1","35","training","adjacent","CD","3","4","O.jpg","M.jpg","1","1","1","",""
"","feedback","","html-keyboard-response","230","267258","0.0-1.0-321.0-0.0","0","0","72036","","null","","","null","35","","","","","","","","","","","","","","","",""
"","ITI","","html-keyboard-response","231","268260","0.0-1.0-324.0","0","0","72036","","null","","","null","35","","","","","","","","","","","","","","","NaN",""
"","S1","","html-keyboard-response","232","268514","0.0-1.0-326.0","0","0","72036","","null","","","null","36","","","","","","","","","","","","","","","",""
"","ISI","","html-keyboard-response","233","270516","0.0-1.0-327.0","0","0","72036","","null","","","null","36","NaN","","","","","","","","","","","","","","",""
"","S2","","html-keyboard-response","234","270768","0.0-1.0-328.0","0","0","72036","","null","","","null","36","","NaN","","","","","","","","","","","","","",""
"","response","","html-keyboard-response","235","271384","0.0-1.0-329.0","0","0","72036","","614","","","68","36","","","1","36","training","adjacent","CB","3","2","O.jpg","L.jpg","1","0","0","",""
"","feedback","","html-keyboard-response","236","272387","0.0-1.0-330.0-0.0","0","0","72036","","null","","","null","36","","","","","","","","","","","","","","","",""
"","time_out","","html-keyboard-response","237","274389","0.0-1.0-332.0-0.0","0","0","72036","","null","","","null","36","","","","","","","","","","","","","","","",""
"","ITI","","html-keyboard-response","238","275391","0.0-1.0-333.0","0","0","72036","","null","","","null","36","","","","","","","","","","","","","","","NaN",""
"","S1","","html-keyboard-response","239","275642","0.0-1.0-335.0","0","0","72036","","null","","","null","37","","","","","","","","","","","","","","","",""
"","ISI","","html-keyboard-response","240","277645","0.0-1.0-336.0","0","0","72036","","null","","","null","37","NaN","","","","","","","","","","","","","","",""
"","S2","","html-keyboard-response","241","277897","0.0-1.0-337.0","0","0","72036","","null","","","null","37","","NaN","","","","","","","","","","","","","",""
"","response","","html-keyboard-response","242","278512","0.0-1.0-338.0","0","0","72036","","612","","","68","37","","","1","37","training","adjacent","CD","3","4","O.jpg","M.jpg","1","1","1","",""
"","feedback","","html-keyboard-response","243","279513","0.0-1.0-339.0-0.0","0","0","72036","","null","","","null","37","","","","","","","","","","","","","","","",""
"","ITI","","html-keyboard-response","244","280516","0.0-1.0-342.0","0","0","72036","","null","","","null","37","","","","","","","","","","","","","","","NaN",""
"","S1","","html-keyboard-response","245","280769","0.0-1.0-344.0","0","0","72036","","null","","","null","38","","","","","","","","","","","","","","","",""
"","ISI","","html-keyboard-response","246","282771","0.0-1.0-345.0","0","0","72036","","null","","","null","38","NaN","","","","","","","","","","","","","","",""
"","S2","","html-keyboard-response","247","283024","0.0-1.0-346.0","0","0","72036","","null","","","null","38","","NaN","","","","","","","","","","","","","",""
"","response","","html-keyboard-response","248","283487","0.0-1.0-347.0","0","0","72036","","462","","","68","38","","","1","38","training","adjacent","CD","3","4","O.jpg","M.jpg","1","1","1","",""
"","feedback","","html-keyboard-response","249","284490","0.0-1.0-348.0-0.0","0","0","72036","","null","","","null","38","","","","","","","","","","","","","","","",""
"","ITI","","html-keyboard-response","250","285493","0.0-1.0-351.0","0","0","72036","","null","","","null","38","","","","","","","","","","","","","","","NaN",""
"","S1","","html-keyboard-response","251","285745","0.0-1.0-353.0","0","0","72036","","null","","","null","39","","","","","","","","","","","","","","","",""
"","ISI","","html-keyboard-response","252","287746","0.0-1.0-354.0","0","0","72036","","null","","","null","39","NaN","","","","","","","","","","","","","","",""
"","S2","","html-keyboard-response","253","287999","0.0-1.0-355.0","0","0","72036","","null","","","null","39","","NaN","","","","","","","","","","","","","",""
"","response","","html-keyboard-response","254","288273","0.0-1.0-356.0","0","0","72036","","271","","","75","39","","","1","39","training","adjacent","EF","5","6","Q.jpg","N.jpg","0","1","0","",""
"","feedback","","html-keyboard-response","255","289275","0.0-1.0-357.0-0.0","0","0","72036","","null","","","null","39","","","","","","","","","","","","","","","",""
"","time_out","","html-keyboard-response","256","291278","0.0-1.0-359.0-0.0","0","0","72036","","null","","","null","39","","","","","","","","","","","","","","","",""
"","ITI","","html-keyboard-response","257","292280","0.0-1.0-360.0","0","0","72036","","null","","","null","39","","","","","","","","","","","","","","","NaN",""
"","S1","","html-keyboard-response","258","292532","0.0-1.0-362.0","0","0","72036","","null","","","null","40","","","","","","","","","","","","","","","",""
"","ISI","","html-keyboard-response","259","294534","0.0-1.0-363.0","0","0","72036","","null","","","null","40","NaN","","","","","","","","","","","","","","",""
"","S2","","html-keyboard-response","260","294787","0.0-1.0-364.0","0","0","72036","","null","","","null","40","","NaN","","","","","","","","","","","","","",""
"","response","","html-keyboard-response","261","295687","0.0-1.0-365.0","0","0","72036","","899","","","75","40","","","1","40","training","adjacent","BC","2","3","L.jpg","O.jpg","0","1","0","",""
"","feedback","","html-keyboard-response","262","296689","0.0-1.0-366.0-0.0","0","0","72036","","null","","","null","40","","","","","","","","","","","","","","","",""
"","time_out","","html-keyboard-response","263","298691","0.0-1.0-368.0-0.0","0","0","72036","","null","","","null","40","","","","","","","","","","","","","","","",""
"","ITI","","html-keyboard-response","264","299693","0.0-1.0-369.0","0","0","72036","","null","","","null","40","","","","","","","","","","","","","","","NaN",""
"","S1","","html-keyboard-response","265","299945","0.0-1.0-371.0","0","0","72036","","null","","","null","41","","","","","","","","","","","","","","","",""
"","ISI","","html-keyboard-response","266","301948","0.0-1.0-372.0","0","0","72036","","null","","","null","41","NaN","","","","","","","","","","","","","","",""
"","S2","","html-keyboard-response","267","302200","0.0-1.0-373.0","0","0","72036","","null","","","null","41","","NaN","","","","","","","","","","","","","",""
"","response","","html-keyboard-response","268","302854","0.0-1.0-374.0","0","0","72036","","653","","","68","41","","","1","41","training","adjacent","FG","6","7","N.jpg","P.jpg","1","1","1","",""
"","feedback","","html-keyboard-response","269","303858","0.0-1.0-375.0-0.0","0","0","72036","","null","","","null","41","","","","","","","","","","","","","","","",""
"","ITI","","html-keyboard-response","270","304860","0.0-1.0-378.0","0","0","72036","","null","","","null","41","","","","","","","","","","","","","","","NaN",""
"","S1","","html-keyboard-response","271","305111","0.0-1.0-380.0","0","0","72036","","null","","","null","42","","","","","","","","","","","","","","","",""
"","ISI","","html-keyboard-response","272","307114","0.0-1.0-381.0","0","0","72036","","null","","","null","42","NaN","","","","","","","","","","","","","","",""
"","S2","","html-keyboard-response","273","307366","0.0-1.0-382.0","0","0","72036","","null","","","null","42","","NaN","","","","","","","","","","","","","",""
"","response","","html-keyboard-response","274","307871","0.0-1.0-383.0","0","0","72036","","503","","","75","42","","","1","42","training","adjacent","DE","4","5","M.jpg","Q.jpg","0","1","0","",""
"","feedback","","html-keyboard-response","275","308873","0.0-1.0-384.0-0.0","0","0","72036","","null","","","null","42","","","","","","","","","","","","","","","",""
"","time_out","","html-keyboard-response","276","310874","0.0-1.0-386.0-0.0","0","0","72036","","null","","","null","42","","","","","","","","","","","","","","","",""
"","ITI","","html-keyboard-response","277","311877","0.0-1.0-387.0","0","0","72036","","null","","","null","42","","","","","","","","","","","","","","","NaN",""
"","S1","","html-keyboard-response","278","312129","0.0-1.0-389.0","0","0","72036","","null","","","null","43","","","","","","","","","","","","","","","",""
"","ISI","","html-keyboard-response","279","314130","0.0-1.0-390.0","0","0","72036","","null","","","null","43","NaN","","","","","","","","","","","","","","",""
"","S2","","html-keyboard-response","280","314383","0.0-1.0-391.0","0","0","72036","","null","","","null","43","","NaN","","","","","","","","","","","","","",""
"","response","","html-keyboard-response","281","314903","0.0-1.0-392.0","0","0","72036","","518","","","68","43","","","1","43","training","adjacent","FG","6","7","N.jpg","P.jpg","1","1","1","",""
"","feedback","","html-keyboard-response","282","315905","0.0-1.0-393.0-0.0","0","0","72036","","null","","","null","43","","","","","","","","","","","","","","","",""
"","ITI","","html-keyboard-response","283","316907","0.0-1.0-396.0","0","0","72036","","null","","","null","43","","","","","","","","","","","","","","","NaN",""
"","S1","","html-keyboard-response","284","317159","0.0-1.0-398.0","0","0","72036","","null","","","null","44","","","","","","","","","","","","","","","",""
"","ISI","","html-keyboard-response","285","319161","0.0-1.0-399.0","0","0","72036","","null","","","null","44","NaN","","","","","","","","","","","","","","",""
"","S2","","html-keyboard-response","286","319413","0.0-1.0-400.0","0","0","72036","","null","","","null","44","","NaN","","","","","","","","","","","","","",""
"","response","","html-keyboard-response","287","319870","0.0-1.0-401.0","0","0","72036","","455","","","75","44","","","1","44","training","adjacent","AB","1","2","R.jpg","L.jpg","0","1","0","",""
"","feedback","","html-keyboard-response","288","320873","0.0-1.0-402.0-0.0","0","0","72036","","null","","","null","44","","","","","","","","","","","","","","","",""
"","time_out","","html-keyboard-response","289","322875","0.0-1.0-404.0-0.0","0","0","72036","","null","","","null","44","","","","","","","","","","","","","","","",""
"","ITI","","html-keyboard-response","290","323877","0.0-1.0-405.0","0","0","72036","","null","","","null","44","","","","","","","","","","","","","","","NaN",""
"","S1","","html-keyboard-response","291","324130","0.0-1.0-407.0","0","0","72036","","null","","","null","45","","","","","","","","","","","","","","","",""
"","ISI","","html-keyboard-response","292","326133","0.0-1.0-408.0","0","0","72036","","null","","","null","45","NaN","","","","","","","","","","","","","","",""
"","S2","","html-keyboard-response","293","326385","0.0-1.0-409.0","0","0","72036","","null","","","null","45","","NaN","","","","","","","","","","","","","",""
"","response","","html-keyboard-response","294","326886","0.0-1.0-410.0","0","0","72036","","499","","","75","45","","","1","45","training","adjacent","DE","4","5","M.jpg","Q.jpg","0","1","0","",""
"","feedback","","html-keyboard-response","295","327889","0.0-1.0-411.0-0.0","0","0","72036","","null","","","null","45","","","","","","","","","","","","","","","",""
"","time_out","","html-keyboard-response","296","329890","0.0-1.0-413.0-0.0","0","0","72036","","null","","","null","45","","","","","","","","","","","","","","","",""
"","ITI","","html-keyboard-response","297","330892","0.0-1.0-414.0","0","0","72036","","null","","","null","45","","","","","","","","","","","","","","","NaN",""
"","S1","","html-keyboard-response","298","331145","0.0-1.0-416.0","0","0","72036","","null","","","null","46","","","","","","","","","","","","","","","",""
"","ISI","","html-keyboard-response","299","333147","0.0-1.0-417.0","0","0","72036","","null","","","null","46","NaN","","","","","","","","","","","","","","",""
"","S2","","html-keyboard-response","300","333398","0.0-1.0-418.0","0","0","72036","","null","","","null","46","","NaN","","","","","","","","","","","","","",""
"","response","","html-keyboard-response","301","333982","0.0-1.0-419.0","0","0","72036","","582","","","68","46","","","1","46","training","adjacent","BC","2","3","L.jpg","O.jpg","1","1","1","",""
"","feedback","","html-keyboard-response","302","334985","0.0-1.0-420.0-0.0","0","0","72036","","null","","","null","46","","","","","","","","","","","","","","","",""
"","ITI","","html-keyboard-response","303","335986","0.0-1.0-423.0","0","0","72036","","null","","","null","46","","","","","","","","","","","","","","","NaN",""
"","S1","","html-keyboard-response","304","336239","0.0-1.0-425.0","0","0","72036","","null","","","null","47","","","","","","","","","","","","","","","",""
"","ISI","","html-keyboard-response","305","338240","0.0-1.0-426.0","0","0","72036","","null","","","null","47","NaN","","","","","","","","","","","","","","",""
"","S2","","html-keyboard-response","306","338493","0.0-1.0-427.0","0","0","72036","","null","","","null","47","","NaN","","","","","","","","","","","","","",""
"","response","","html-keyboard-response","307","338942","0.0-1.0-428.0","0","0","72036","","448","","","75","47","","","1","47","training","adjacent","ED","5","4","Q.jpg","M.jpg","0","0","1","",""
"","feedback","","html-keyboard-response","308","339944","0.0-1.0-429.0-0.0","0","0","72036","","null","","","null","47","","","","","","","","","","","","","","","",""
"","ITI","","html-keyboard-response","309","340946","0.0-1.0-432.0","0","0","72036","","null","","","null","47","","","","","","","","","","","","","","","NaN",""
"","block_over","","html-keyboard-response","310","356278","0.0-1.0-433.0-0.0","0","0","72036","","15330","","","32","47","","","","","","","","","","","","","","","",""
"","S1","","html-keyboard-response","311","356531","0.0-1.0-434.0","0","0","72036","","null","","","null","48","","","","","","","","","","","","","","","",""
"","ISI","","html-keyboard-response","312","358533","0.0-1.0-435.0","0","0","72036","","null","","","null","48","NaN","","","","","","","","","","","","","","",""
"","S2","","html-keyboard-response","313","358785","0.0-1.0-436.0","0","0","72036","","null","","","null","48","","NaN","","","","","","","","","","","","","",""
"","response","","html-keyboard-response","314","359269","0.0-1.0-437.0","0","0","72036","","482","","","75","48","","","2","48","training","adjacent","AB","1","2","R.jpg","L.jpg","0","1","0","",""
"","feedback","","html-keyboard-response","315","360272","0.0-1.0-438.0-0.0","0","0","72036","","null","","","null","48","","","","","","","","","","","","","","","",""
"","time_out","","html-keyboard-response","316","362274","0.0-1.0-440.0-0.0","0","0","72036","","null","","","null","48","","","","","","","","","","","","","","","",""
"","ITI","","html-keyboard-response","317","363277","0.0-1.0-441.0","0","0","72036","","null","","","null","48","","","","","","","","","","","","","","","NaN",""
"","S1","","html-keyboard-response","318","363544","0.0-1.0-443.0","0","0","72036","","null","","","null","49","","","","","","","","","","","","","","","",""
"","ISI","","html-keyboard-response","319","365545","0.0-1.0-444.0","0","0","72036","","null","","","null","49","NaN","","","","","","","","","","","","","","",""
"","S2","","html-keyboard-response","320","365798","0.0-1.0-445.0","0","0","72036","","null","","","null","49","","NaN","","","","","","","","","","","","","",""
"","response","","html-keyboard-response","321","366308","0.0-1.0-446.0","0","0","72036","","509","","","75","49","","","2","49","training","adjacent","CD","3","4","O.jpg","M.jpg","0","1","0","",""
"","feedback","","html-keyboard-response","322","367311","0.0-1.0-447.0-0.0","0","0","72036","","null","","","null","49","","","","","","","","","","","","","","","",""
"","time_out","","html-keyboard-response","323","369314","0.0-1.0-449.0-0.0","0","0","72036","","null","","","null","49","","","","","","","","","","","","","","","",""
"","ITI","","html-keyboard-response","324","370316","0.0-1.0-450.0","0","0","72036","","null","","","null","49","","","","","","","","","","","","","","","NaN",""
"","S1","","html-keyboard-response","325","370568","0.0-1.0-452.0","0","0","72036","","null","","","null","50","","","","","","","","","","","","","","","",""
"","ISI","","html-keyboard-response","326","372570","0.0-1.0-453.0","0","0","72036","","null","","","null","50","NaN","","","","","","","","","","","","","","",""
"","S2","","html-keyboard-response","327","372822","0.0-1.0-454.0","0","0","72036","","null","","","null","50","","NaN","","","","","","","","","","","","","",""
"","response","","html-keyboard-response","328","373757","0.0-1.0-455.0","0","0","72036","","932","","","75","50","","","2","50","training","adjacent","DE","4","5","M.jpg","Q.jpg","0","1","0","",""
"","feedback","","html-keyboard-response","329","374758","0.0-1.0-456.0-0.0","0","0","72036","","null","","","null","50","","","","","","","","","","","","","","","",""
"","time_out","","html-keyboard-response","330","376761","0.0-1.0-458.0-0.0","0","0","72036","","null","","","null","50","","","","","","","","","","","","","","","",""
"","ITI","","html-keyboard-response","331","377762","0.0-1.0-459.0","0","0","72036","","null","","","null","50","","","","","","","","","","","","","","","NaN",""
"","S1","","html-keyboard-response","332","378015","0.0-1.0-461.0","0","0","72036","","null","","","null","51","","","","","","","","","","","","","","","",""
"","ISI","","html-keyboard-response","333","380017","0.0-1.0-462.0","0","0","72036","","null","","","null","51","NaN","","","","","","","","","","","","","","",""
"","S2","","html-keyboard-response","334","380270","0.0-1.0-463.0","0","0","72036","","null","","","null","51","","NaN","","","","","","","","","","","","","",""
"","response","","html-keyboard-response","335","380748","0.0-1.0-464.0","0","0","72036","","476","","","75","51","","","2","51","training","adjacent","GF","7","6","P.jpg","N.jpg","0","0","1","",""
"","feedback","","html-keyboard-response","336","381751","0.0-1.0-465.0-0.0","0","0","72036","","null","","","null","51","","","","","","","","","","","","","","","",""
"","ITI","","html-keyboard-response","337","382753","0.0-1.0-468.0","0","0","72036","","274","","","75","51","","","","","","","","","","","","","","","k",""
"","S1","","html-keyboard-response","338","383005","0.0-1.0-470.0","0","0","72036","","null","","","null","52","","","","","","","","","","","","","","","",""
"","ISI","","html-keyboard-response","339","385007","0.0-1.0-471.0","0","0","72036","","null","","","null","52","NaN","","","","","","","","","","","","","","",""
"","S2","","html-keyboard-response","340","385258","0.0-1.0-472.0","0","0","72036","","null","","","null","52","","NaN","","","","","","","","","","","","","",""
"","response","","html-keyboard-response","341","385765","0.0-1.0-473.0","0","0","72036","","504","","","68","52","","","2","52","training","adjacent","FG","6","7","N.jpg","P.jpg","1","1","1","",""
"","feedback","","html-keyboard-response","342","386767","0.0-1.0-474.0-0.0","0","0","72036","","null","","","null","52","","","","","","","","","","","","","","","",""
"","ITI","","html-keyboard-response","343","387769","0.0-1.0-477.0","0","0","72036","","null","","","null","52","","","","","","","","","","","","","","","NaN",""
"","S1","","html-keyboard-response","344","388021","0.0-1.0-479.0","0","0","72036","","null","","","null","53","","","","","","","","","","","","","","","",""
"","ISI","","html-keyboard-response","345","390023","0.0-1.0-480.0","0","0","72036","","null","","","null","53","NaN","","","","","","","","","","","","","","",""
"","S2","","html-keyboard-response","346","390275","0.0-1.0-481.0","0","0","72036","","null","","","null","53","","NaN","","","","","","","","","","","","","",""
"","response","","html-keyboard-response","347","390606","0.0-1.0-482.0","0","0","72036","","327","","","75","53","","","2","53","training","adjacent","GF","7","6","P.jpg","N.jpg","0","0","1","",""
"","feedback","","html-keyboard-response","348","391608","0.0-1.0-483.0-0.0","0","0","72036","","null","","","null","53","","","","","","","","","","","","","","","",""
"","ITI","","html-keyboard-response","349","392611","0.0-1.0-486.0","0","0","72036","","null","","","null","53","","","","","","","","","","","","","","","NaN",""
"","S1","","html-keyboard-response","350","392862","0.0-1.0-488.0","0","0","72036","","null","","","null","54","","","","","","","","","","","","","","","",""
"","ISI","","html-keyboard-response","351","394865","0.0-1.0-489.0","0","0","72036","","null","","","null","54","NaN","","","","","","","","","","","","","","",""
"","S2","","html-keyboard-response","352","395116","0.0-1.0-490.0","0","0","72036","","null","","","null","54","","NaN","","","","","","","","","","","","","",""
"","response","","html-keyboard-response","353","395516","0.0-1.0-491.0","0","0","72036","","398","","","75","54","","","2","54","training","adjacent","ED","5","4","Q.jpg","M.jpg","0","0","1","",""
"","feedback","","html-keyboard-response","354","396519","0.0-1.0-492.0-0.0","0","0","72036","","null","","","null","54","","","","","","","","","","","","","","","",""
"","ITI","","html-keyboard-response","355","397520","0.0-1.0-495.0","0","0","72036","","null","","","null","54","","","","","","","","","","","","","","","NaN",""
"","S1","","html-keyboard-response","356","397773","0.0-1.0-497.0","0","0","72036","","null","","","null","55","","","","","","","","","","","","","","","",""
"","ISI","","html-keyboard-response","357","399776","0.0-1.0-498.0","0","0","72036","","null","","","null","55","NaN","","","","","","","","","","","","","","",""
"","S2","","html-keyboard-response","358","400029","0.0-1.0-499.0","0","0","72036","","null","","","null","55","","NaN","","","","","","","","","","","","","",""
"","response","","html-keyboard-response","359","400692","0.0-1.0-500.0","0","0","72036","","661","","","68","55","","","2","55","training","adjacent","CD","3","4","O.jpg","M.jpg","1","1","1","",""
"","feedback","","html-keyboard-response","360","401693","0.0-1.0-501.0-0.0","0","0","72036","","null","","","null","55","","","","","","","","","","","","","","","",""
"","ITI","","html-keyboard-response","361","402697","0.0-1.0-504.0","0","0","72036","","null","","","null","55","","","","","","","","","","","","","","","NaN",""
"","S1","","html-keyboard-response","362","402950","0.0-1.0-506.0","0","0","72036","","null","","","null","56","","","","","","","","","","","","","","","",""
"","ISI","","html-keyboard-response","363","404953","0.0-1.0-507.0","0","0","72036","","null","","","null","56","NaN","","","","","","","","","","","","","","",""
"","S2","","html-keyboard-response","364","405206","0.0-1.0-508.0","0","0","72036","","null","","","null","56","","NaN","","","","","","","","","","","","","",""
"","response","","html-keyboard-response","365","405652","0.0-1.0-509.0","0","0","72036","","443","","","75","56","","","2","56","training","adjacent","CB","3","2","O.jpg","L.jpg","0","0","1","",""
"","feedback","","html-keyboard-response","366","406654","0.0-1.0-510.0-0.0","0","0","72036","","null","","","null","56","","","","","","","","","","","","","","","",""
"","ITI","","html-keyboard-response","367","407657","0.0-1.0-513.0","0","0","72036","","null","","","null","56","","","","","","","","","","","","","","","NaN",""
"","S1","","html-keyboard-response","368","407908","0.0-1.0-515.0","0","0","72036","","null","","","null","57","","","","","","","","","","","","","","","",""
"","ISI","","html-keyboard-response","369","409911","0.0-1.0-516.0","0","0","72036","","null","","","null","57","NaN","","","","","","","","","","","","","","",""
"","S2","","html-keyboard-response","370","410163","0.0-1.0-517.0","0","0","72036","","null","","","null","57","","NaN","","","","","","","","","","","","","",""
"","response","","html-keyboard-response","371","410451","0.0-1.0-518.0","0","0","72036","","287","","","68","57","","","2","57","training","adjacent","DE","4","5","M.jpg","Q.jpg","1","1","1","",""
"","feedback","","html-keyboard-response","372","411454","0.0-1.0-519.0-0.0","0","0","72036","","null","","","null","57","","","","","","","","","","","","","","","",""
"","ITI","","html-keyboard-response","373","412456","0.0-1.0-522.0","0","0","72036","","null","","","null","57","","","","","","","","","","","","","","","NaN",""
"","S1","","html-keyboard-response","374","412709","0.0-1.0-524.0","0","0","72036","","null","","","null","58","","","","","","","","","","","","","","","",""
"","ISI","","html-keyboard-response","375","414710","0.0-1.0-525.0","0","0","72036","","null","","","null","58","NaN","","","","","","","","","","","","","","",""
"","S2","","html-keyboard-response","376","414964","0.0-1.0-526.0","0","0","72036","","null","","","null","58","","NaN","","","","","","","","","","","","","",""
"","response","","html-keyboard-response","377","415219","0.0-1.0-527.0","0","0","72036","","253","","","75","58","","","2","58","training","adjacent","BA","2","1","L.jpg","R.jpg","0","0","1","",""
"","feedback","","html-keyboard-response","378","416221","0.0-1.0-528.0-0.0","0","0","72036","","null","","","null","58","","","","","","","","","","","","","","","",""
"","ITI","","html-keyboard-response","379","417223","0.0-1.0-531.0","0","0","72036","","null","","","null","58","","","","","","","","","","","","","","","NaN",""
"","S1","","html-keyboard-response","380","417476","0.0-1.0-533.0","0","0","72036","","null","","","null","59","","","","","","","","","","","","","","","",""
"","ISI","","html-keyboard-response","381","419478","0.0-1.0-534.0","0","0","72036","","null","","","null","59","NaN","","","","","","","","","","","","","","",""
"","S2","","html-keyboard-response","382","419730","0.0-1.0-535.0","0","0","72036","","null","","","null","59","","NaN","","","","","","","","","","","","","",""
"","response","","html-keyboard-response","383","419979","0.0-1.0-536.0","0","0","72036","","247","","","68","59","","","2","59","training","adjacent","AB","1","2","R.jpg","L.jpg","1","1","1","",""
"","feedback","","html-keyboard-response","384","420981","0.0-1.0-537.0-0.0","0","0","72036","","null","","","null","59","","","","","","","","","","","","","","","",""
"","ITI","","html-keyboard-response","385","421983","0.0-1.0-540.0","0","0","72036","","null","","","null","59","","","","","","","","","","","","","","","NaN",""
"","S1","","html-keyboard-response","386","422236","0.0-1.0-542.0","0","0","72036","","null","","","null","60","","","","","","","","","","","","","","","",""
"","ISI","","html-keyboard-response","387","424238","0.0-1.0-543.0","0","0","72036","","null","","","null","60","NaN","","","","","","","","","","","","","","",""
"","S2","","html-keyboard-response","388","424490","0.0-1.0-544.0","0","0","72036","","null","","","null","60","","NaN","","","","","","","","","","","","","",""
"","response","","html-keyboard-response","389","424803","0.0-1.0-545.0","0","0","72036","","311","","","68","60","","","2","60","training","adjacent","FG","6","7","N.jpg","P.jpg","1","1","1","",""
"","feedback","","html-keyboard-response","390","425805","0.0-1.0-546.0-0.0","0","0","72036","","null","","","null","60","","","","","","","","","","","","","","","",""
"","ITI","","html-keyboard-response","391","426807","0.0-1.0-549.0","0","0","72036","","null","","","null","60","","","","","","","","","","","","","","","NaN",""
"","S1","","html-keyboard-response","392","427060","0.0-1.0-551.0","0","0","72036","","null","","","null","61","","","","","","","","","","","","","","","",""
"","ISI","","html-keyboard-response","393","429063","0.0-1.0-552.0","0","0","72036","","null","","","null","61","NaN","","","","","","","","","","","","","","",""
"","S2","","html-keyboard-response","394","429314","0.0-1.0-553.0","0","0","72036","","null","","","null","61","","NaN","","","","","","","","","","","","","",""
"","response","","html-keyboard-response","395","429827","0.0-1.0-554.0","0","0","72036","","511","","","68","61","","","2","61","training","adjacent","FE","6","5","N.jpg","Q.jpg","1","0","0","",""
"","feedback","","html-keyboard-response","396","430829","0.0-1.0-555.0-0.0","0","0","72036","","null","","","null","61","","","","","","","","","","","","","","","",""
"","time_out","","html-keyboard-response","397","432832","0.0-1.0-557.0-0.0","0","0","72036","","null","","","null","61","","","","","","","","","","","","","","","",""
"","ITI","","html-keyboard-response","398","433834","0.0-1.0-558.0","0","0","72036","","null","","","null","61","","","","","","","","","","","","","","","NaN",""
"","S1","","html-keyboard-response","399","434085","0.0-1.0-560.0","0","0","72036","","null","","","null","62","","","","","","","","","","","","","","","",""
"","ISI","","html-keyboard-response","400","436088","0.0-1.0-561.0","0","0","72036","","null","","","null","62","NaN","","","","","","","","","","","","","","",""
"","S2","","html-keyboard-response","401","436341","0.0-1.0-562.0","0","0","72036","","null","","","null","62","","NaN","","","","","","","","","","","","","",""
"","response","","html-keyboard-response","402","436946","0.0-1.0-563.0","0","0","72036","","602","","","75","62","","","2","62","training","adjacent","GF","7","6","P.jpg","N.jpg","0","0","1","",""
"","feedback","","html-keyboard-response","403","437948","0.0-1.0-564.0-0.0","0","0","72036","","null","","","null","62","","","","","","","","","","","","","","","",""
"","ITI","","html-keyboard-response","404","438951","0.0-1.0-567.0","0","0","72036","","null","","","null","62","","","","","","","","","","","","","","","NaN",""
"","S1","","html-keyboard-response","405","439202","0.0-1.0-569.0","0","0","72036","","null","","","null","63","","","","","","","","","","","","","","","",""
"","ISI","","html-keyboard-response","406","441205","0.0-1.0-570.0","0","0","72036","","885","","","75","63","k","","","","","","","","","","","","","","",""
"","S2","","html-keyboard-response","407","441457","0.0-1.0-571.0","0","0","72036","","null","","","null","63","","NaN","","","","","","","","","","","","","",""
"","response","","html-keyboard-response","408","442243","0.0-1.0-572.0","0","0","72036","","784","","","68","63","","","2","63","training","adjacent","CD","3","4","O.jpg","M.jpg","1","1","1","",""
"","feedback","","html-keyboard-response","409","443246","0.0-1.0-573.0-0.0","0","0","72036","","null","","","null","63","","","","","","","","","","","","","","","",""
"","ITI","","html-keyboard-response","410","444248","0.0-1.0-576.0","0","0","72036","","null","","","null","63","","","","","","","","","","","","","","","NaN",""
"","S1","","html-keyboard-response","411","444499","0.0-1.0-578.0","0","0","72036","","null","","","null","64","","","","","","","","","","","","","","","",""
"","ISI","","html-keyboard-response","412","446502","0.0-1.0-579.0","0","0","72036","","null","","","null","64","NaN","","","","","","","","","","","","","","",""
"","S2","","html-keyboard-response","413","446755","0.0-1.0-580.0","0","0","72036","","null","","","null","64","","NaN","","","","","","","","","","","","","",""
"","response","","html-keyboard-response","414","447067","0.0-1.0-581.0","0","0","72036","","309","","","68","64","","","2","64","training","adjacent","BC","2","3","L.jpg","O.jpg","1","1","1","",""
"","feedback","","html-keyboard-response","415","448069","0.0-1.0-582.0-0.0","0","0","72036","","null","","","null","64","","","","","","","","","","","","","","","",""
"","ITI","","html-keyboard-response","416","449070","0.0-1.0-585.0","0","0","72036","","null","","","null","64","","","","","","","","","","","","","","","NaN",""
"","S1","","html-keyboard-response","417","449323","0.0-1.0-587.0","0","0","72036","","null","","","null","65","","","","","","","","","","","","","","","",""
"","ISI","","html-keyboard-response","418","451325","0.0-1.0-588.0","0","0","72036","","null","","","null","65","NaN","","","","","","","","","","","","","","",""
"","S2","","html-keyboard-response","419","451577","0.0-1.0-589.0","0","0","72036","","null","","","null","65","","NaN","","","","","","","","","","","","","",""
"","response","","html-keyboard-response","420","452170","0.0-1.0-590.0","0","0","72036","","591","","","75","65","","","2","65","training","adjacent","CB","3","2","O.jpg","L.jpg","0","0","1","",""
"","feedback","","html-keyboard-response","421","453172","0.0-1.0-591.0-0.0","0","0","72036","","null","","","null","65","","","","","","","","","","","","","","","",""
"","ITI","","html-keyboard-response","422","454174","0.0-1.0-594.0","0","0","72036","","null","","","null","65","","","","","","","","","","","","","","","NaN",""
"","S1","","html-keyboard-response","423","454427","0.0-1.0-596.0","0","0","72036","","null","","","null","66","","","","","","","","","","","","","","","",""
"","ISI","","html-keyboard-response","424","456429","0.0-1.0-597.0","0","0","72036","","null","","","null","66","NaN","","","","","","","","","","","","","","",""
"","S2","","html-keyboard-response","425","456681","0.0-1.0-598.0","0","0","72036","","null","","","null","66","","NaN","","","","","","","","","","","","","",""
"","response","","html-keyboard-response","426","457098","0.0-1.0-599.0","0","0","72036","","415","","","68","66","","","2","66","training","adjacent","FG","6","7","N.jpg","P.jpg","1","1","1","",""
"","feedback","","html-keyboard-response","427","458101","0.0-1.0-600.0-0.0","0","0","72036","","null","","","null","66","","","","","","","","","","","","","","","",""
"","ITI","","html-keyboard-response","428","459104","0.0-1.0-603.0","0","0","72036","","null","","","null","66","","","","","","","","","","","","","","","NaN",""
"","S1","","html-keyboard-response","429","459356","0.0-1.0-605.0","0","0","72036","","null","","","null","67","","","","","","","","","","","","","","","",""
"","ISI","","html-keyboard-response","430","461358","0.0-1.0-606.0","0","0","72036","","null","","","null","67","NaN","","","","","","","","","","","","","","",""
"","S2","","html-keyboard-response","431","461610","0.0-1.0-607.0","0","0","72036","","null","","","null","67","","NaN","","","","","","","","","","","","","",""
"","response","","html-keyboard-response","432","462081","0.0-1.0-608.0","0","0","72036","","469","","","75","67","","","2","67","training","adjacent","BA","2","1","L.jpg","R.jpg","0","0","1","",""
"","feedback","","html-keyboard-response","433","463083","0.0-1.0-609.0-0.0","0","0","72036","","null","","","null","67","","","","","","","","","","","","","","","",""
"","ITI","","html-keyboard-response","434","464086","0.0-1.0-612.0","0","0","72036","","null","","","null","67","","","","","","","","","","","","","","","NaN",""
"","S1","","html-keyboard-response","435","464340","0.0-1.0-614.0","0","0","72036","","null","","","null","68","","","","","","","","","","","","","","","",""
"","ISI","","html-keyboard-response","436","466342","0.0-1.0-615.0","0","0","72036","","null","","","null","68","NaN","","","","","","","","","","","","","","",""
"","S2","","html-keyboard-response","437","466595","0.0-1.0-616.0","0","0","72036","","null","","","null","68","","NaN","","","","","","","","","","","","","",""
"","response","","html-keyboard-response","438","466889","0.0-1.0-617.0","0","0","72036","","292","","","75","68","","","2","68","training","adjacent","ED","5","4","Q.jpg","M.jpg","0","0","1","",""
"","feedback","","html-keyboard-response","439","467891","0.0-1.0-618.0-0.0","0","0","72036","","null","","","null","68","","","","","","","","","","","","","","","",""
"","ITI","","html-keyboard-response","440","468893","0.0-1.0-621.0","0","0","72036","","null","","","null","68","","","","","","","","","","","","","","","NaN",""
"","S1","","html-keyboard-response","441","469146","0.0-1.0-623.0","0","0","72036","","null","","","null","69","","","","","","","","","","","","","","","",""
"","ISI","","html-keyboard-response","442","471148","0.0-1.0-624.0","0","0","72036","","null","","","null","69","NaN","","","","","","","","","","","","","","",""
"","S2","","html-keyboard-response","443","471399","0.0-1.0-625.0","0","0","72036","","null","","","null","69","","NaN","","","","","","","","","","","","","",""
"","response","","html-keyboard-response","444","472337","0.0-1.0-626.0","0","0","72036","","937","","","75","69","","","2","69","training","adjacent","DC","4","3","M.jpg","O.jpg","0","0","1","",""
"","feedback","","html-keyboard-response","445","473340","0.0-1.0-627.0-0.0","0","0","72036","","null","","","null","69","","","","","","","","","","","","","","","",""
"","ITI","","html-keyboard-response","446","474342","0.0-1.0-630.0","0","0","72036","","null","","","null","69","","","","","","","","","","","","","","","NaN",""
"","S1","","html-keyboard-response","447","474594","0.0-1.0-632.0","0","0","72036","","null","","","null","70","","","","","","","","","","","","","","","",""
"","ISI","","html-keyboard-response","448","476596","0.0-1.0-633.0","0","0","72036","","null","","","null","70","NaN","","","","","","","","","","","","","","",""
"","S2","","html-keyboard-response","449","476848","0.0-1.0-634.0","0","0","72036","","null","","","null","70","","NaN","","","","","","","","","","","","","",""
"","response","","html-keyboard-response","450","477161","0.0-1.0-635.0","0","0","72036","","311","","","75","70","","","2","70","training","adjacent","ED","5","4","Q.jpg","M.jpg","0","0","1","",""
"","feedback","","html-keyboard-response","451","478162","0.0-1.0-636.0-0.0","0","0","72036","","null","","","null","70","","","","","","","","","","","","","","","",""
"","ITI","","html-keyboard-response","452","479165","0.0-1.0-639.0","0","0","72036","","null","","","null","70","","","","","","","","","","","","","","","NaN",""
"","S1","","html-keyboard-response","453","479417","0.0-1.0-641.0","0","0","72036","","null","","","null","71","","","","","","","","","","","","","","","",""
"","ISI","","html-keyboard-response","454","481419","0.0-1.0-642.0","0","0","72036","","null","","","null","71","NaN","","","","","","","","","","","","","","",""
"","S2","","html-keyboard-response","455","481672","0.0-1.0-643.0","0","0","72036","","null","","","null","71","","NaN","","","","","","","","","","","","","",""
"","response","","html-keyboard-response","456","481937","0.0-1.0-644.0","0","0","72036","","263","","","68","71","","","2","71","training","adjacent","BC","2","3","L.jpg","O.jpg","1","1","1","",""
"","feedback","","html-keyboard-response","457","482941","0.0-1.0-645.0-0.0","0","0","72036","","null","","","null","71","","","","","","","","","","","","","","","",""
"","ITI","","html-keyboard-response","458","483943","0.0-1.0-648.0","0","0","72036","","null","","","null","71","","","","","","","","","","","","","","","NaN",""
"","S1","","html-keyboard-response","459","484196","0.0-1.0-650.0","0","0","72036","","null","","","null","72","","","","","","","","","","","","","","","",""
"","ISI","","html-keyboard-response","460","486198","0.0-1.0-651.0","0","0","72036","","null","","","null","72","NaN","","","","","","","","","","","","","","",""
"","S2","","html-keyboard-response","461","486450","0.0-1.0-652.0","0","0","72036","","null","","","null","72","","NaN","","","","","","","","","","","","","",""
"","response","","html-keyboard-response","462","487433","0.0-1.0-653.0","0","0","72036","","980","","","68","72","","","2","72","training","adjacent","DE","4","5","M.jpg","Q.jpg","1","1","1","",""
"","feedback","","html-keyboard-response","463","488436","0.0-1.0-654.0-0.0","0","0","72036","","null","","","null","72","","","","","","","","","","","","","","","",""
"","ITI","","html-keyboard-response","464","489438","0.0-1.0-657.0","0","0","72036","","null","","","null","72","","","","","","","","","","","","","","","NaN",""
"","S1","","html-keyboard-response","465","489690","0.0-1.0-659.0","0","0","72036","","null","","","null","73","","","","","","","","","","","","","","","",""
"","ISI","","html-keyboard-response","466","491692","0.0-1.0-660.0","0","0","72036","","null","","","null","73","NaN","","","","","","","","","","","","","","",""
"","S2","","html-keyboard-response","467","491945","0.0-1.0-661.0","0","0","72036","","null","","","null","73","","NaN","","","","","","","","","","","","","",""
"","response","","html-keyboard-response","468","492353","0.0-1.0-662.0","0","0","72036","","406","","","68","73","","","2","73","training","adjacent","EF","5","6","Q.jpg","N.jpg","1","1","1","",""
"","feedback","","html-keyboard-response","469","493355","0.0-1.0-663.0-0.0","0","0","72036","","null","","","null","73","","","","","","","","","","","","","","","",""
"","ITI","","html-keyboard-response","470","494358","0.0-1.0-666.0","0","0","72036","","null","","","null","73","","","","","","","","","","","","","","","NaN",""
"","S1","","html-keyboard-response","471","494610","0.0-1.0-668.0","0","0","72036","","null","","","null","74","","","","","","","","","","","","","","","",""
"","ISI","","html-keyboard-response","472","496612","0.0-1.0-669.0","0","0","72036","","null","","","null","74","NaN","","","","","","","","","","","","","","",""
"","S2","","html-keyboard-response","473","496865","0.0-1.0-670.0","0","0","72036","","null","","","null","74","","NaN","","","","","","","","","","","","","",""
"","response","","html-keyboard-response","474","497281","0.0-1.0-671.0","0","0","72036","","414","","","75","74","","","2","74","training","adjacent","FE","6","5","N.jpg","Q.jpg","0","0","1","",""
"","feedback","","html-keyboard-response","475","498283","0.0-1.0-672.0-0.0","0","0","72036","","null","","","null","74","","","","","","","","","","","","","","","",""
"","ITI","","html-keyboard-response","476","499285","0.0-1.0-675.0","0","0","72036","","null","","","null","74","","","","","","","","","","","","","","","NaN",""
"","S1","","html-keyboard-response","477","499537","0.0-1.0-677.0","0","0","72036","","null","","","null","75","","","","","","","","","","","","","","","",""
"","ISI","","html-keyboard-response","478","501540","0.0-1.0-678.0","0","0","72036","","null","","","null","75","NaN","","","","","","","","","","","","","","",""
"","S2","","html-keyboard-response","479","501791","0.0-1.0-679.0","0","0","72036","","null","","","null","75","","NaN","","","","","","","","","","","","","",""
"","response","","html-keyboard-response","480","501944","0.0-1.0-680.0","0","0","72036","","150","","","68","75","","","2","75","training","adjacent","CD","3","4","O.jpg","M.jpg","1","1","1","",""
"","feedback","","html-keyboard-response","481","502947","0.0-1.0-681.0-0.0","0","0","72036","","null","","","null","75","","","","","","","","","","","","","","","",""
"","ITI","","html-keyboard-response","482","503948","0.0-1.0-684.0","0","0","72036","","null","","","null","75","","","","","","","","","","","","","","","NaN",""
"","S1","","html-keyboard-response","483","504201","0.0-1.0-686.0","0","0","72036","","null","","","null","76","","","","","","","","","","","","","","","",""
"","ISI","","html-keyboard-response","484","506203","0.0-1.0-687.0","0","0","72036","","null","","","null","76","NaN","","","","","","","","","","","","","","",""
"","S2","","html-keyboard-response","485","506455","0.0-1.0-688.0","0","0","72036","","null","","","null","76","","NaN","","","","","","","","","","","","","",""
"","response","","html-keyboard-response","486","506760","0.0-1.0-689.0","0","0","72036","","303","","","68","76","","","2","76","training","adjacent","BC","2","3","L.jpg","O.jpg","1","1","1","",""
"","feedback","","html-keyboard-response","487","507763","0.0-1.0-690.0-0.0","0","0","72036","","null","","","null","76","","","","","","","","","","","","","","","",""
"","ITI","","html-keyboard-response","488","508765","0.0-1.0-693.0","0","0","72036","","null","","","null","76","","","","","","","","","","","","","","","NaN",""
"","S1","","html-keyboard-response","489","509018","0.0-1.0-695.0","0","0","72036","","null","","","null","77","","","","","","","","","","","","","","","",""
"","ISI","","html-keyboard-response","490","511022","0.0-1.0-696.0","0","0","72036","","null","","","null","77","NaN","","","","","","","","","","","","","","",""
"","S2","","html-keyboard-response","491","511273","0.0-1.0-697.0","0","0","72036","","null","","","null","77","","NaN","","","","","","","","","","","","","",""
"","response","","html-keyboard-response","492","511656","0.0-1.0-698.0","0","0","72036","","380","","","68","77","","","2","77","training","adjacent","EF","5","6","Q.jpg","N.jpg","1","1","1","",""
"","feedback","","html-keyboard-response","493","512658","0.0-1.0-699.0-0.0","0","0","72036","","null","","","null","77","","","","","","","","","","","","","","","",""
"","ITI","","html-keyboard-response","494","513660","0.0-1.0-702.0","0","0","72036","","null","","","null","77","","","","","","","","","","","","","","","NaN",""
"","S1","","html-keyboard-response","495","513912","0.0-1.0-704.0","0","0","72036","","null","","","null","78","","","","","","","","","","","","","","","",""
"","ISI","","html-keyboard-response","496","515914","0.0-1.0-705.0","0","0","72036","","null","","","null","78","NaN","","","","","","","","","","","","","","",""
"","S2","","html-keyboard-response","497","516166","0.0-1.0-706.0","0","0","72036","","null","","","null","78","","NaN","","","","","","","","","","","","","",""
"","response","","html-keyboard-response","498","516568","0.0-1.0-707.0","0","0","72036","","399","","","75","78","","","2","78","training","adjacent","ED","5","4","Q.jpg","M.jpg","0","0","1","",""
"","feedback","","html-keyboard-response","499","517571","0.0-1.0-708.0-0.0","0","0","72036","","null","","","null","78","","","","","","","","","","","","","","","",""
"","ITI","","html-keyboard-response","500","518573","0.0-1.0-711.0","0","0","72036","","null","","","null","78","","","","","","","","","","","","","","","NaN",""
"","S1","","html-keyboard-response","501","518825","0.0-1.0-713.0","0","0","72036","","null","","","null","79","","","","","","","","","","","","","","","",""
"","ISI","","html-keyboard-response","502","520827","0.0-1.0-714.0","0","0","72036","","null","","","null","79","NaN","","","","","","","","","","","","","","",""
"","S2","","html-keyboard-response","503","521079","0.0-1.0-715.0","0","0","72036","","null","","","null","79","","NaN","","","","","","","","","","","","","",""
"","response","","html-keyboard-response","504","521991","0.0-1.0-716.0","0","0","72036","","911","","","75","79","","","2","79","training","adjacent","DC","4","3","M.jpg","O.jpg","0","0","1","",""
"","feedback","","html-keyboard-response","505","522994","0.0-1.0-717.0-0.0","0","0","72036","","null","","","null","79","","","","","","","","","","","","","","","",""
"","ITI","","html-keyboard-response","506","523996","0.0-1.0-720.0","0","0","72036","","null","","","null","79","","","","","","","","","","","","","","","NaN",""
"","S1","","html-keyboard-response","507","524248","0.0-1.0-722.0","0","0","72036","","null","","","null","80","","","","","","","","","","","","","","","",""
"","ISI","","html-keyboard-response","508","526251","0.0-1.0-723.0","0","0","72036","","null","","","null","80","NaN","","","","","","","","","","","","","","",""
"","S2","","html-keyboard-response","509","526502","0.0-1.0-724.0","0","0","72036","","null","","","null","80","","NaN","","","","","","","","","","","","","",""
"","response","","html-keyboard-response","510","527071","0.0-1.0-725.0","0","0","72036","","568","","","68","80","","","2","80","training","adjacent","FG","6","7","N.jpg","P.jpg","1","1","1","",""
"","feedback","","html-keyboard-response","511","528073","0.0-1.0-726.0-0.0","0","0","72036","","null","","","null","80","","","","","","","","","","","","","","","",""
"","ITI","","html-keyboard-response","512","529075","0.0-1.0-729.0","0","0","72036","","null","","","null","80","","","","","","","","","","","","","","","NaN",""
"","S1","","html-keyboard-response","513","529328","0.0-1.0-731.0","0","0","72036","","null","","","null","81","","","","","","","","","","","","","","","",""
"","ISI","","html-keyboard-response","514","531329","0.0-1.0-732.0","0","0","72036","","null","","","null","81","NaN","","","","","","","","","","","","","","",""
"","S2","","html-keyboard-response","515","531582","0.0-1.0-733.0","0","0","72036","","null","","","null","81","","NaN","","","","","","","","","","","","","",""
"","response","","html-keyboard-response","516","532151","0.0-1.0-734.0","0","0","72036","","568","","","75","81","","","2","81","training","adjacent","DE","4","5","M.jpg","Q.jpg","0","1","0","",""
"","feedback","","html-keyboard-response","517","533153","0.0-1.0-735.0-0.0","0","0","72036","","null","","","null","81","","","","","","","","","","","","","","","",""
"","time_out","","html-keyboard-response","518","535156","0.0-1.0-737.0-0.0","0","0","72036","","null","","","null","81","","","","","","","","","","","","","","","",""
"","ITI","","html-keyboard-response","519","536157","0.0-1.0-738.0","0","0","72036","","null","","","null","81","","","","","","","","","","","","","","","NaN",""
"","S1","","html-keyboard-response","520","536410","0.0-1.0-740.0","0","0","72036","","null","","","null","82","","","","","","","","","","","","","","","",""
"","ISI","","html-keyboard-response","521","538411","0.0-1.0-741.0","0","0","72036","","null","","","null","82","NaN","","","","","","","","","","","","","","",""
"","S2","","html-keyboard-response","522","538664","0.0-1.0-742.0","0","0","72036","","null","","","null","82","","NaN","","","","","","","","","","","","","",""
"","response","","html-keyboard-response","523","539599","0.0-1.0-743.0","0","0","72036","","933","","","75","82","","","2","82","training","adjacent","FE","6","5","N.jpg","Q.jpg","0","0","1","",""
"","feedback","","html-keyboard-response","524","540601","0.0-1.0-744.0-0.0","0","0","72036","","null","","","null","82","","","","","","","","","","","","","","","",""
"","ITI","","html-keyboard-response","525","541604","0.0-1.0-747.0","0","0","72036","","null","","","null","82","","","","","","","","","","","","","","","NaN",""
"","S1","","html-keyboard-response","526","541856","0.0-1.0-749.0","0","0","72036","","null","","","null","83","","","","","","","","","","","","","","","",""
"","ISI","","html-keyboard-response","527","543859","0.0-1.0-750.0","0","0","72036","","null","","","null","83","NaN","","","","","","","","","","","","","","",""
"","S2","","html-keyboard-response","528","544111","0.0-1.0-751.0","0","0","72036","","null","","","null","83","","NaN","","","","","","","","","","","","","",""
"","response","","html-keyboard-response","529","544486","0.0-1.0-752.0","0","0","72036","","374","","","75","83","","","2","83","training","adjacent","DC","4","3","M.jpg","O.jpg","0","0","1","",""
"","feedback","","html-keyboard-response","530","545489","0.0-1.0-753.0-0.0","0","0","72036","","null","","","null","83","","","","","","","","","","","","","","","",""
"","ITI","","html-keyboard-response","531","546491","0.0-1.0-756.0","0","0","72036","","null","","","null","83","","","","","","","","","","","","","","","NaN",""
"","S1","","html-keyboard-response","532","546744","0.0-1.0-758.0","0","0","72036","","null","","","null","84","","","","","","","","","","","","","","","",""
"","ISI","","html-keyboard-response","533","548746","0.0-1.0-759.0","0","0","72036","","null","","","null","84","NaN","","","","","","","","","","","","","","",""
"","S2","","html-keyboard-response","534","548999","0.0-1.0-760.0","0","0","72036","","null","","","null","84","","NaN","","","","","","","","","","","","","",""
"","response","","html-keyboard-response","535","549246","0.0-1.0-761.0","0","0","72036","","246","","","68","84","","","2","84","training","adjacent","EF","5","6","Q.jpg","N.jpg","1","1","1","",""
"","feedback","","html-keyboard-response","536","550249","0.0-1.0-762.0-0.0","0","0","72036","","null","","","null","84","","","","","","","","","","","","","","","",""
"","ITI","","html-keyboard-response","537","551251","0.0-1.0-765.0","0","0","72036","","null","","","null","84","","","","","","","","","","","","","","","NaN",""
"","S1","","html-keyboard-response","538","551503","0.0-1.0-767.0","0","0","72036","","null","","","null","85","","","","","","","","","","","","","","","",""
"","ISI","","html-keyboard-response","539","553505","0.0-1.0-768.0","0","0","72036","","null","","","null","85","NaN","","","","","","","","","","","","","","",""
"","S2","","html-keyboard-response","540","553757","0.0-1.0-769.0","0","0","72036","","null","","","null","85","","NaN","","","","","","","","","","","","","",""
"","response","","html-keyboard-response","541","554239","0.0-1.0-770.0","0","0","72036","","480","","","75","85","","","2","85","training","adjacent","BA","2","1","L.jpg","R.jpg","0","0","1","",""
"","feedback","","html-keyboard-response","542","555241","0.0-1.0-771.0-0.0","0","0","72036","","null","","","null","85","","","","","","","","","","","","","","","",""
"","ITI","","html-keyboard-response","543","556243","0.0-1.0-774.0","0","0","72036","","null","","","null","85","","","","","","","","","","","","","","","NaN",""
"","S1","","html-keyboard-response","544","556496","0.0-1.0-776.0","0","0","72036","","null","","","null","86","","","","","","","","","","","","","","","",""
"","ISI","","html-keyboard-response","545","558497","0.0-1.0-777.0","0","0","72036","","null","","","null","86","NaN","","","","","","","","","","","","","","",""
"","S2","","html-keyboard-response","546","558749","0.0-1.0-778.0","0","0","72036","","null","","","null","86","","NaN","","","","","","","","","","","","","",""
"","response","","html-keyboard-response","547","559094","0.0-1.0-779.0","0","0","72036","","344","","","75","86","","","2","86","training","adjacent","BA","2","1","L.jpg","R.jpg","0","0","1","",""
"","feedback","","html-keyboard-response","548","560096","0.0-1.0-780.0-0.0","0","0","72036","","null","","","null","86","","","","","","","","","","","","","","","",""
"","ITI","","html-keyboard-response","549","561098","0.0-1.0-783.0","0","0","72036","","null","","","null","86","","","","","","","","","","","","","","","NaN",""
"","S1","","html-keyboard-response","550","561351","0.0-1.0-785.0","0","0","72036","","null","","","null","87","","","","","","","","","","","","","","","",""
"","ISI","","html-keyboard-response","551","563353","0.0-1.0-786.0","0","0","72036","","null","","","null","87","NaN","","","","","","","","","","","","","","",""
"","S2","","html-keyboard-response","552","563605","0.0-1.0-787.0","0","0","72036","","null","","","null","87","","NaN","","","","","","","","","","","","","",""
"","response","","html-keyboard-response","553","563942","0.0-1.0-788.0","0","0","72036","","334","","","75","87","","","2","87","training","adjacent","FE","6","5","N.jpg","Q.jpg","0","0","1","",""
"","feedback","","html-keyboard-response","554","564944","0.0-1.0-789.0-0.0","0","0","72036","","null","","","null","87","","","","","","","","","","","","","","","",""
"","ITI","","html-keyboard-response","555","565947","0.0-1.0-792.0","0","0","72036","","null","","","null","87","","","","","","","","","","","","","","","NaN",""
"","S1","","html-keyboard-response","556","566200","0.0-1.0-794.0","0","0","72036","","null","","","null","88","","","","","","","","","","","","","","","",""
"","ISI","","html-keyboard-response","557","568202","0.0-1.0-795.0","0","0","72036","","null","","","null","88","NaN","","","","","","","","","","","","","","",""
"","S2","","html-keyboard-response","558","568454","0.0-1.0-796.0","0","0","72036","","null","","","null","88","","NaN","","","","","","","","","","","","","",""
"","response","","html-keyboard-response","559","568789","0.0-1.0-797.0","0","0","72036","","335","","","75","88","","","2","88","training","adjacent","GF","7","6","P.jpg","N.jpg","0","0","1","",""
"","feedback","","html-keyboard-response","560","569792","0.0-1.0-798.0-0.0","0","0","72036","","null","","","null","88","","","","","","","","","","","","","","","",""
"","ITI","","html-keyboard-response","561","570794","0.0-1.0-801.0","0","0","72036","","null","","","null","88","","","","","","","","","","","","","","","NaN",""
"","S1","","html-keyboard-response","562","571047","0.0-1.0-803.0","0","0","72036","","null","","","null","89","","","","","","","","","","","","","","","",""
"","ISI","","html-keyboard-response","563","573049","0.0-1.0-804.0","0","0","72036","","null","","","null","89","NaN","","","","","","","","","","","","","","",""
"","S2","","html-keyboard-response","564","573301","0.0-1.0-805.0","0","0","72036","","null","","","null","89","","NaN","","","","","","","","","","","","","",""
"","response","","html-keyboard-response","565","574277","0.0-1.0-806.0","0","0","72036","","975","","","75","89","","","2","89","training","adjacent","AB","1","2","R.jpg","L.jpg","0","1","0","",""
"","feedback","","html-keyboard-response","566","575279","0.0-1.0-807.0-0.0","0","0","72036","","null","","","null","89","","","","","","","","","","","","","","","",""
"","time_out","","html-keyboard-response","567","577282","0.0-1.0-809.0-0.0","0","0","72036","","null","","","null","89","","","","","","","","","","","","","","","",""
"","ITI","","html-keyboard-response","568","578284","0.0-1.0-810.0","0","0","72036","","null","","","null","89","","","","","","","","","","","","","","","NaN",""
"","S1","","html-keyboard-response","569","578536","0.0-1.0-812.0","0","0","72036","","null","","","null","90","","","","","","","","","","","","","","","",""
"","ISI","","html-keyboard-response","570","580537","0.0-1.0-813.0","0","0","72036","","null","","","null","90","NaN","","","","","","","","","","","","","","",""
"","S2","","html-keyboard-response","571","580790","0.0-1.0-814.0","0","0","72036","","null","","","null","90","","NaN","","","","","","","","","","","","","",""
"","response","","html-keyboard-response","572","581173","0.0-1.0-815.0","0","0","72036","","381","","","68","90","","","2","90","training","adjacent","BC","2","3","L.jpg","O.jpg","1","1","1","",""
"","feedback","","html-keyboard-response","573","582176","0.0-1.0-816.0-0.0","0","0","72036","","null","","","null","90","","","","","","","","","","","","","","","",""
"","ITI","","html-keyboard-response","574","583178","0.0-1.0-819.0","0","0","72036","","null","","","null","90","","","","","","","","","","","","","","","NaN",""
"","S1","","html-keyboard-response","575","583431","0.0-1.0-821.0","0","0","72036","","null","","","null","91","","","","","","","","","","","","","","","",""
"","ISI","","html-keyboard-response","576","585433","0.0-1.0-822.0","0","0","72036","","null","","","null","91","NaN","","","","","","","","","","","","","","",""
"","S2","","html-keyboard-response","577","585686","0.0-1.0-823.0","0","0","72036","","null","","","null","91","","NaN","","","","","","","","","","","","","",""
"","response","","html-keyboard-response","578","586301","0.0-1.0-824.0","0","0","72036","","613","","","75","91","","","2","91","training","adjacent","CB","3","2","O.jpg","L.jpg","0","0","1","",""
"","feedback","","html-keyboard-response","579","587304","0.0-1.0-825.0-0.0","0","0","72036","","null","","","null","91","","","","","","","","","","","","","","","",""
"","ITI","","html-keyboard-response","580","588307","0.0-1.0-828.0","0","0","72036","","null","","","null","91","","","","","","","","","","","","","","","NaN",""
"","S1","","html-keyboard-response","581","588559","0.0-1.0-830.0","0","0","72036","","null","","","null","92","","","","","","","","","","","","","","","",""
"","ISI","","html-keyboard-response","582","590562","0.0-1.0-831.0","0","0","72036","","null","","","null","92","NaN","","","","","","","","","","","","","","",""
"","S2","","html-keyboard-response","583","590813","0.0-1.0-832.0","0","0","72036","","null","","","null","92","","NaN","","","","","","","","","","","","","",""
"","response","","html-keyboard-response","584","591189","0.0-1.0-833.0","0","0","72036","","374","","","75","92","","","2","92","training","adjacent","CB","3","2","O.jpg","L.jpg","0","0","1","",""
