"success","ttype","start_time","trial_type","trial_index","time_elapsed","internal_node_id","warning","missed_checkup","PID","view_history","rt","responses","repeat_instructions","key_press","index","keypress_isi","keypress_S2","block","trial_num","phase","group_type","pair_type","S1_stim","S2_stim","S1_img","S2_img","S1_chosen","S1_higher","accuracy","keypress_iti","total_bonus_tally"
"true","full_screen","d03042023hr1428","fullscreen","0","117027","0.0-0.0","0","0","23498","","","","","","","","","","","","","","","","","","","","","",""
"","instructions","","instructions","1","139835","0.0-1.0-0.0-0.0","0","0","23498","[{""page_index"":0,""viewing_time"":3886},{""page_index"":1,""viewing_time"":11000},{""page_index"":2,""viewing_time"":6184},{""page_index"":3,""viewing_time"":1735}]","22806","","","","","","","","","","","","","","","","","","","",""
"","comprehension_check","","survey-multi-choice","2","159468","0.0-1.0-0.0-1.0","0","0","23498","","19630","{""Q0"":""True"",""Q1"":""D"",""Q2"":""Only when the screen 'MAKE A CHOICE' is shown"",""Q3"":""Green mark"",""Q4"":""either D or K""}","1","","","","","","","","","","","","","","","","","",""
"","missed_instruction_checkup","","html-keyboard-response","3","162119","0.0-1.0-0.0-2.0-0.0","0","1","23498","","2649","","","32","","","","","","","","","","","","","","","","",""
"","instructions","","instructions","4","191606","0.0-1.0-0.1-0.1","0","0","23498","[{""page_index"":0,""viewing_time"":1290},{""page_index"":1,""viewing_time"":22897},{""page_index"":2,""viewing_time"":4449},{""page_index"":3,""viewing_time"":848}]","29485","","","","","","","","","","","","","","","","","","","",""
"","comprehension_check","","survey-multi-choice","5","202517","0.0-1.0-0.1-1.1","0","0","23498","","10905","{""Q0"":""True"",""Q1"":""D"",""Q2"":""Once the second image appears and while the screen 'MAKE A CHOICE' is shown"",""Q3"":""Green mark"",""Q4"":""either D or K""}","0","","","","","","","","","","","","","","","","","",""
"","start_exp","","html-keyboard-response","6","204249","0.0-1.0-1.0","0","0","23498","","1730","","","32","","","","","","","","","","","","","","","","",""
"","S1","","html-keyboard-response","7","204508","0.0-1.0-2.0","0","0","23498","","null","","","null","0","","","","","","","","","","","","","","","",""
"","ISI","","html-keyboard-response","8","205012","0.0-1.0-3.0","0","0","23498","","null","","","null","0","NaN","","","","","","","","","","","","","","",""
"","S2","","html-keyboard-response","9","205268","0.0-1.0-4.0","0","0","23498","","null","","","null","0","","NaN","","","","","","","","","","","","","",""
"","response","","html-keyboard-response","10","206248","0.0-1.0-5.0-0.0","0","0","23498","","978","","","68","0","","","1","0","training","adjacent","FE","6","5","P.jpg","M.jpg","1","0","0","",""
"","feedback","","html-keyboard-response","11","207252","0.0-1.0-6.0-0.0","0","0","23498","","null","","","null","0","","","","","","","","","","","","","","","",""
"","time_out","","html-keyboard-response","12","209260","0.0-1.0-8.0-0.0","0","0","23498","","null","","","null","0","","","","","","","","","","","","","","","",""
"","ITI","","html-keyboard-response","13","210268","0.0-1.0-9.0","0","0","23498","","null","","","null","0","","","","","","","","","","","","","","","NaN",""
"","S1","","html-keyboard-response","14","210524","0.0-1.0-11.0","0","0","23498","","null","","","null","1","","","","","","","","","","","","","","","",""
"","ISI","","html-keyboard-response","15","211028","0.0-1.0-12.0","0","0","23498","","null","","","null","1","NaN","","","","","","","","","","","","","","",""
"","S2","","html-keyboard-response","16","211284","0.0-1.0-13.0","0","0","23498","","null","","","null","1","","NaN","","","","","","","","","","","","","",""
"","response","","html-keyboard-response","17","213044","0.0-1.0-14.0-0.0","0","0","23498","","null","","","null","1","","","1","1","training","adjacent","DC","4","3","Q.jpg","O.jpg","NaN","0","0","",""
"","too_slow_prompt","","html-keyboard-response","18","214052","0.0-1.0-16.0-0.0","1","0","23498","","null","","","null","","","","","","","","","","","","","","","","",""
"","time_out","","html-keyboard-response","19","216060","0.0-1.0-17.0-0.0","0","0","23498","","null","","","null","1","","","","","","","","","","","","","","","",""
"","ITI","","html-keyboard-response","20","217069","0.0-1.0-18.0","0","0","23498","","null","","","null","1","","","","","","","","","","","","","","","NaN",""
"","S1","","html-keyboard-response","21","217324","0.0-1.0-20.0","0","0","23498","","null","","","null","2","","","","","","","","","","","","","","","",""
"","ISI","","html-keyboard-response","22","217827","0.0-1.0-21.0","0","0","23498","","null","","","null","2","NaN","","","","","","","","","","","","","","",""
"","S2","","html-keyboard-response","23","218084","0.0-1.0-22.0","0","0","23498","","null","","","null","2","","NaN","","","","","","","","","","","","","",""
"","response","","html-keyboard-response","24","218314","0.0-1.0-23.0-0.0","0","0","23498","","229","","","68","2","","","1","2","training","adjacent","AB","1","2","N.jpg","L.jpg","1","1","1","",""
"","feedback","","html-keyboard-response","25","219324","0.0-1.0-24.0-0.0","0","0","23498","","null","","","null","2","","","","","","","","","","","","","","","",""
"","ITI","","html-keyboard-response","26","220331","0.0-1.0-27.0","0","0","23498","","null","","","null","2","","","","","","","","","","","","","","","NaN",""
"","S1","","html-keyboard-response","27","220588","0.0-1.0-29.0","0","0","23498","","null","","","null","3","","","","","","","","","","","","","","","",""
"","ISI","","html-keyboard-response","28","221092","0.0-1.0-30.0","0","0","23498","","null","","","null","3","NaN","","","","","","","","","","","","","","",""
"","S2","","html-keyboard-response","29","221348","0.0-1.0-31.0","0","0","23498","","null","","","null","3","","NaN","","","","","","","","","","","","","",""
"","response","","html-keyboard-response","30","221936","0.0-1.0-32.0-0.0","0","0","23498","","587","","","68","3","","","1","3","training","adjacent","FE","6","5","P.jpg","M.jpg","1","0","0","",""
"","feedback","","html-keyboard-response","31","222940","0.0-1.0-33.0-0.0","0","0","23498","","null","","","null","3","","","","","","","","","","","","","","","",""
"","time_out","","html-keyboard-response","32","224948","0.0-1.0-35.0-0.0","0","0","23498","","null","","","null","3","","","","","","","","","","","","","","","",""
"","ITI","","html-keyboard-response","33","225956","0.0-1.0-36.0","0","0","23498","","null","","","null","3","","","","","","","","","","","","","","","NaN",""
"","S1","","html-keyboard-response","34","226212","0.0-1.0-38.0","0","0","23498","","null","","","null","4","","","","","","","","","","","","","","","",""
"","ISI","","html-keyboard-response","35","226716","0.0-1.0-39.0","0","0","23498","","null","","","null","4","NaN","","","","","","","","","","","","","","",""
"","S2","","html-keyboard-response","36","226972","0.0-1.0-40.0","0","0","23498","","null","","","null","4","","NaN","","","","","","","","","","","","","",""
"","response","","html-keyboard-response","37","227418","0.0-1.0-41.0-0.0","0","0","23498","","445","","","75","4","","","1","4","training","adjacent","DC","4","3","Q.jpg","O.jpg","0","0","1","",""
"","feedback","","html-keyboard-response","38","228428","0.0-1.0-42.0-0.0","0","0","23498","","null","","","null","4","","","","","","","","","","","","","","","",""
"","ITI","","html-keyboard-response","39","229436","0.0-1.0-45.0","0","0","23498","","null","","","null","4","","","","","","","","","","","","","","","NaN",""
"","S1","","html-keyboard-response","40","229692","0.0-1.0-47.0","0","0","23498","","null","","","null","5","","","","","","","","","","","","","","","",""
"","ISI","","html-keyboard-response","41","230210","0.0-1.0-48.0","0","0","23498","","null","","","null","5","NaN","","","","","","","","","","","","","","",""
"","S2","","html-keyboard-response","42","230475","0.0-1.0-49.0","0","0","23498","","null","","","null","5","","NaN","","","","","","","","","","","","","",""
"","response","","html-keyboard-response","43","230973","0.0-1.0-50.0-0.0","0","0","23498","","497","","","75","5","","","1","5","training","adjacent","BC","2","3","L.jpg","O.jpg","0","1","0","",""
"","feedback","","html-keyboard-response","44","231999","0.0-1.0-51.0-0.0","0","0","23498","","null","","","null","5","","","","","","","","","","","","","","","",""
"","time_out","","html-keyboard-response","45","234004","0.0-1.0-53.0-0.0","0","0","23498","","null","","","null","5","","","","","","","","","","","","","","","",""
"","ITI","","html-keyboard-response","46","235012","0.0-1.0-54.0","0","0","23498","","null","","","null","5","","","","","","","","","","","","","","","NaN",""
"","S1","","html-keyboard-response","47","235269","0.0-1.0-56.0","0","0","23498","","null","","","null","6","","","","","","","","","","","","","","","",""
"","ISI","","html-keyboard-response","48","235772","0.0-1.0-57.0","0","0","23498","","null","","","null","6","NaN","","","","","","","","","","","","","","",""
"","S2","","html-keyboard-response","49","236028","0.0-1.0-58.0","0","0","23498","","null","","","null","6","","NaN","","","","","","","","","","","","","",""
"","response","","html-keyboard-response","50","236407","0.0-1.0-59.0-0.0","0","0","23498","","376","","","75","6","","","1","6","training","adjacent","CB","3","2","O.jpg","L.jpg","0","0","1","",""
"","feedback","","html-keyboard-response","51","237413","0.0-1.0-60.0-0.0","0","0","23498","","null","","","null","6","","","","","","","","","","","","","","","",""
"","ITI","","html-keyboard-response","52","238420","0.0-1.0-63.0","0","0","23498","","null","","","null","6","","","","","","","","","","","","","","","NaN",""
"","S1","","html-keyboard-response","53","238676","0.0-1.0-65.0","0","0","23498","","null","","","null","7","","","","","","","","","","","","","","","",""
"","ISI","","html-keyboard-response","54","239179","0.0-1.0-66.0","0","0","23498","","null","","","null","7","NaN","","","","","","","","","","","","","","",""
"","S2","","html-keyboard-response","55","239435","0.0-1.0-67.0","0","0","23498","","null","","","null","7","","NaN","","","","","","","","","","","","","",""
"","response","","html-keyboard-response","56","239897","0.0-1.0-68.0-0.0","0","0","23498","","460","","","68","7","","","1","7","training","adjacent","ED","5","4","M.jpg","Q.jpg","1","0","0","",""
"","feedback","","html-keyboard-response","57","240899","0.0-1.0-69.0-0.0","0","0","23498","","null","","","null","7","","","","","","","","","","","","","","","",""
"","time_out","","html-keyboard-response","58","242908","0.0-1.0-71.0-0.0","0","0","23498","","null","","","null","7","","","","","","","","","","","","","","","",""
"","ITI","","html-keyboard-response","59","243916","0.0-1.0-72.0","0","0","23498","","null","","","null","7","","","","","","","","","","","","","","","NaN",""
"","S1","","html-keyboard-response","60","244172","0.0-1.0-74.0","0","0","23498","","null","","","null","8","","","","","","","","","","","","","","","",""
"","ISI","","html-keyboard-response","61","244676","0.0-1.0-75.0","0","0","23498","","null","","","null","8","NaN","","","","","","","","","","","","","","",""
"","S2","","html-keyboard-response","62","244932","0.0-1.0-76.0","0","0","23498","","null","","","null","8","","NaN","","","","","","","","","","","","","",""
"","response","","html-keyboard-response","63","245196","0.0-1.0-77.0-0.0","0","0","23498","","263","","","68","8","","","1","8","training","adjacent","EF","5","6","M.jpg","P.jpg","1","1","1","",""
"","feedback","","html-keyboard-response","64","246204","0.0-1.0-78.0-0.0","0","0","23498","","null","","","null","8","","","","","","","","","","","","","","","",""
"","ITI","","html-keyboard-response","65","247213","0.0-1.0-81.0","0","0","23498","","null","","","null","8","","","","","","","","","","","","","","","NaN",""
"","S1","","html-keyboard-response","66","247469","0.0-1.0-83.0","0","0","23498","","null","","","null","9","","","","","","","","","","","","","","","",""
"","ISI","","html-keyboard-response","67","247973","0.0-1.0-84.0","0","0","23498","","null","","","null","9","NaN","","","","","","","","","","","","","","",""
"","S2","","html-keyboard-response","68","248229","0.0-1.0-85.0","0","0","23498","","null","","","null","9","","NaN","","","","","","","","","","","","","",""
"","response","","html-keyboard-response","69","248756","0.0-1.0-86.0-0.0","0","0","23498","","526","","","68","9","","","1","9","training","adjacent","FE","6","5","P.jpg","M.jpg","1","0","0","",""
"","feedback","","html-keyboard-response","70","249765","0.0-1.0-87.0-0.0","0","0","23498","","null","","","null","9","","","","","","","","","","","","","","","",""
"","time_out","","html-keyboard-response","71","251773","0.0-1.0-89.0-0.0","0","0","23498","","null","","","null","9","","","","","","","","","","","","","","","",""
"","ITI","","html-keyboard-response","72","252781","0.0-1.0-90.0","0","0","23498","","null","","","null","9","","","","","","","","","","","","","","","NaN",""
"","S1","","html-keyboard-response","73","253037","0.0-1.0-92.0","0","0","23498","","null","","","null","10","","","","","","","","","","","","","","","",""
"","ISI","","html-keyboard-response","74","253541","0.0-1.0-93.0","0","0","23498","","null","","","null","10","NaN","","","","","","","","","","","","","","",""
"","S2","","html-keyboard-response","75","253797","0.0-1.0-94.0","0","0","23498","","null","","","null","10","","NaN","","","","","","","","","","","","","",""
"","response","","html-keyboard-response","76","254058","0.0-1.0-95.0-0.0","0","0","23498","","260","","","68","10","","","1","10","training","adjacent","GF","7","6","R.jpg","P.jpg","1","0","0","",""
"","feedback","","html-keyboard-response","77","255061","0.0-1.0-96.0-0.0","0","0","23498","","null","","","null","10","","","","","","","","","","","","","","","",""
"","time_out","","html-keyboard-response","78","257069","0.0-1.0-98.0-0.0","0","0","23498","","null","","","null","10","","","","","","","","","","","","","","","",""
"","ITI","","html-keyboard-response","79","258078","0.0-1.0-99.0","0","0","23498","","null","","","null","10","","","","","","","","","","","","","","","NaN",""
"","S1","","html-keyboard-response","80","258333","0.0-1.0-101.0","0","0","23498","","null","","","null","11","","","","","","","","","","","","","","","",""
"","ISI","","html-keyboard-response","81","258837","0.0-1.0-102.0","0","0","23498","","null","","","null","11","NaN","","","","","","","","","","","","","","",""
"","S2","","html-keyboard-response","82","259093","0.0-1.0-103.0","0","0","23498","","null","","","null","11","","NaN","","","","","","","","","","","","","",""
"","response","","html-keyboard-response","83","259453","0.0-1.0-104.0-0.0","0","0","23498","","359","","","68","11","","","1","11","training","adjacent","GF","7","6","R.jpg","P.jpg","1","0","0","",""
"","feedback","","html-keyboard-response","84","260461","0.0-1.0-105.0-0.0","0","0","23498","","null","","","null","11","","","","","","","","","","","","","","","",""
"","time_out","","html-keyboard-response","85","262468","0.0-1.0-107.0-0.0","0","0","23498","","null","","","null","11","","","","","","","","","","","","","","","",""
"","ITI","","html-keyboard-response","86","263477","0.0-1.0-108.0","0","0","23498","","null","","","null","11","","","","","","","","","","","","","","","NaN",""
"","S1","","html-keyboard-response","87","263732","0.0-1.0-110.0","0","0","23498","","null","","","null","12","","","","","","","","","","","","","","","",""
"","ISI","","html-keyboard-response","88","264237","0.0-1.0-111.0","0","0","23498","","null","","","null","12","NaN","","","","","","","","","","","","","","",""
"","S2","","html-keyboard-response","89","264493","0.0-1.0-112.0","0","0","23498","","null","","","null","12","","NaN","","","","","","","","","","","","","",""
"","response","","html-keyboard-response","90","264916","0.0-1.0-113.0-0.0","0","0","23498","","422","","","68","12","","","1","12","training","adjacent","CD","3","4","O.jpg","Q.jpg","1","1","1","",""
"","feedback","","html-keyboard-response","91","265924","0.0-1.0-114.0-0.0","0","0","23498","","null","","","null","12","","","","","","","","","","","","","","","",""
"","ITI","","html-keyboard-response","92","266933","0.0-1.0-117.0","0","0","23498","","null","","","null","12","","","","","","","","","","","","","","","NaN",""
"","S1","","html-keyboard-response","93","267189","0.0-1.0-119.0","0","0","23498","","null","","","null","13","","","","","","","","","","","","","","","",""
"","ISI","","html-keyboard-response","94","267693","0.0-1.0-120.0","0","0","23498","","null","","","null","13","NaN","","","","","","","","","","","","","","",""
"","S2","","html-keyboard-response","95","267949","0.0-1.0-121.0","0","0","23498","","null","","","null","13","","NaN","","","","","","","","","","","","","",""
"","response","","html-keyboard-response","96","268299","0.0-1.0-122.0-0.0","0","0","23498","","350","","","75","13","","","1","13","training","adjacent","AB","1","2","N.jpg","L.jpg","0","1","0","",""
"","feedback","","html-keyboard-response","97","269309","0.0-1.0-123.0-0.0","0","0","23498","","null","","","null","13","","","","","","","","","","","","","","","",""
"","time_out","","html-keyboard-response","98","271317","0.0-1.0-125.0-0.0","0","0","23498","","null","","","null","13","","","","","","","","","","","","","","","",""
"","ITI","","html-keyboard-response","99","272325","0.0-1.0-126.0","0","0","23498","","null","","","null","13","","","","","","","","","","","","","","","NaN",""
"","S1","","html-keyboard-response","100","272581","0.0-1.0-128.0","0","0","23498","","null","","","null","14","","","","","","","","","","","","","","","",""
"","ISI","","html-keyboard-response","101","273085","0.0-1.0-129.0","0","0","23498","","null","","","null","14","NaN","","","","","","","","","","","","","","",""
"","S2","","html-keyboard-response","102","273341","0.0-1.0-130.0","0","0","23498","","null","","","null","14","","NaN","","","","","","","","","","","","","",""
"","response","","html-keyboard-response","103","273712","0.0-1.0-131.0-0.0","0","0","23498","","370","","","75","14","","","1","14","training","adjacent","CD","3","4","O.jpg","Q.jpg","0","1","0","",""
"","feedback","","html-keyboard-response","104","274717","0.0-1.0-132.0-0.0","0","0","23498","","null","","","null","14","","","","","","","","","","","","","","","",""
"","time_out","","html-keyboard-response","105","276725","0.0-1.0-134.0-0.0","0","0","23498","","null","","","null","14","","","","","","","","","","","","","","","",""
"","ITI","","html-keyboard-response","106","277745","0.0-1.0-135.0","0","0","23498","","null","","","null","14","","","","","","","","","","","","","","","NaN",""
"","S1","","html-keyboard-response","107","278022","0.0-1.0-137.0","0","0","23498","","null","","","null","15","","","","","","","","","","","","","","","",""
"","ISI","","html-keyboard-response","108","278525","0.0-1.0-138.0","0","0","23498","","null","","","null","15","NaN","","","","","","","","","","","","","","",""
"","S2","","html-keyboard-response","109","278783","0.0-1.0-139.0","0","0","23498","","null","","","null","15","","NaN","","","","","","","","","","","","","",""
"","response","","html-keyboard-response","110","278911","0.0-1.0-140.0-0.0","0","0","23498","","126","","","75","15","","","1","15","training","adjacent","DE","4","5","Q.jpg","M.jpg","0","1","0","",""
"","feedback","","html-keyboard-response","111","279917","0.0-1.0-141.0-0.0","0","0","23498","","null","","","null","15","","","","","","","","","","","","","","","",""
"","time_out","","html-keyboard-response","112","281925","0.0-1.0-143.0-0.0","0","0","23498","","null","","","null","15","","","","","","","","","","","","","","","",""
"","ITI","","html-keyboard-response","113","282933","0.0-1.0-144.0","0","0","23498","","null","","","null","15","","","","","","","","","","","","","","","NaN",""
"","S1","","html-keyboard-response","114","283189","0.0-1.0-146.0","0","0","23498","","null","","","null","16","","","","","","","","","","","","","","","",""
"","ISI","","html-keyboard-response","115","283692","0.0-1.0-147.0","0","0","23498","","null","","","null","16","NaN","","","","","","","","","","","","","","",""
"","S2","","html-keyboard-response","116","283949","0.0-1.0-148.0","0","0","23498","","null","","","null","16","","NaN","","","","","","","","","","","","","",""
"","response","","html-keyboard-response","117","283959","0.0-1.0-149.0-0.0","0","0","23498","","9","","","68","16","","","1","16","training","adjacent","BC","2","3","L.jpg","O.jpg","1","1","1","",""
"","feedback","","html-keyboard-response","118","284964","0.0-1.0-150.0-0.0","0","0","23498","","null","","","null","16","","","","","","","","","","","","","","","",""
"","ITI","","html-keyboard-response","119","285972","0.0-1.0-153.0","0","0","23498","","null","","","null","16","","","","","","","","","","","","","","","NaN",""
"","S1","","html-keyboard-response","120","286228","0.0-1.0-155.0","0","0","23498","","null","","","null","17","","","","","","","","","","","","","","","",""
"","ISI","","html-keyboard-response","121","286733","0.0-1.0-156.0","0","0","23498","","null","","","null","17","NaN","","","","","","","","","","","","","","",""
"","S2","","html-keyboard-response","122","286989","0.0-1.0-157.0","0","0","23498","","null","","","null","17","","NaN","","","","","","","","","","","","","",""
"","response","","html-keyboard-response","123","287409","0.0-1.0-158.0-0.0","0","0","23498","","419","","","68","17","","","1","17","training","adjacent","BA","2","1","L.jpg","N.jpg","1","0","0","",""
"","feedback","","html-keyboard-response","124","288413","0.0-1.0-159.0-0.0","0","0","23498","","null","","","null","17","","","","","","","","","","","","","","","",""
"","time_out","","html-keyboard-response","125","290421","0.0-1.0-161.0-0.0","0","0","23498","","null","","","null","17","","","","","","","","","","","","","","","",""
"","ITI","","html-keyboard-response","126","291429","0.0-1.0-162.0","0","0","23498","","null","","","null","17","","","","","","","","","","","","","","","NaN",""
"","S1","","html-keyboard-response","127","291685","0.0-1.0-164.0","0","0","23498","","null","","","null","18","","","","","","","","","","","","","","","",""
"","ISI","","html-keyboard-response","128","292189","0.0-1.0-165.0","0","0","23498","","null","","","null","18","NaN","","","","","","","","","","","","","","",""
"","S2","","html-keyboard-response","129","292445","0.0-1.0-166.0","0","0","23498","","null","","","null","18","","NaN","","","","","","","","","","","","","",""
"","response","","html-keyboard-response","130","292890","0.0-1.0-167.0-0.0","0","0","23498","","444","","","68","18","","","1","18","training","adjacent","CB","3","2","O.jpg","L.jpg","1","0","0","",""
"","feedback","","html-keyboard-response","131","293893","0.0-1.0-168.0-0.0","0","0","23498","","null","","","null","18","","","","","","","","","","","","","","","",""
"","time_out","","html-keyboard-response","132","295901","0.0-1.0-170.0-0.0","0","0","23498","","null","","","null","18","","","","","","","","","","","","","","","",""
"","ITI","","html-keyboard-response","133","296909","0.0-1.0-171.0","0","0","23498","","null","","","null","18","","","","","","","","","","","","","","","NaN",""
"","S1","","html-keyboard-response","134","297165","0.0-1.0-173.0","0","0","23498","","null","","","null","19","","","","","","","","","","","","","","","",""
"","ISI","","html-keyboard-response","135","297669","0.0-1.0-174.0","0","0","23498","","null","","","null","19","NaN","","","","","","","","","","","","","","",""
"","S2","","html-keyboard-response","136","297925","0.0-1.0-175.0","0","0","23498","","null","","","null","19","","NaN","","","","","","","","","","","","","",""
"","response","","html-keyboard-response","137","298034","0.0-1.0-176.0-0.0","0","0","23498","","109","","","75","19","","","1","19","training","adjacent","DC","4","3","Q.jpg","O.jpg","0","0","1","",""
"","feedback","","html-keyboard-response","138","299037","0.0-1.0-177.0-0.0","0","0","23498","","null","","","null","19","","","","","","","","","","","","","","","",""
"","ITI","","html-keyboard-response","139","300045","0.0-1.0-180.0","0","0","23498","","null","","","null","19","","","","","","","","","","","","","","","NaN",""
"","S1","","html-keyboard-response","140","300301","0.0-1.0-182.0","0","0","23498","","null","","","null","20","","","","","","","","","","","","","","","",""
"","ISI","","html-keyboard-response","141","300805","0.0-1.0-183.0","0","0","23498","","null","","","null","20","NaN","","","","","","","","","","","","","","",""
"","S2","","html-keyboard-response","142","301061","0.0-1.0-184.0","0","0","23498","","null","","","null","20","","NaN","","","","","","","","","","","","","",""
"","response","","html-keyboard-response","143","301380","0.0-1.0-185.0-0.0","0","0","23498","","317","","","75","20","","","1","20","training","adjacent","DE","4","5","Q.jpg","M.jpg","0","1","0","",""
"","feedback","","html-keyboard-response","144","302389","0.0-1.0-186.0-0.0","0","0","23498","","null","","","null","20","","","","","","","","","","","","","","","",""
"","time_out","","html-keyboard-response","145","304397","0.0-1.0-188.0-0.0","0","0","23498","","null","","","null","20","","","","","","","","","","","","","","","",""
"","ITI","","html-keyboard-response","146","305405","0.0-1.0-189.0","0","0","23498","","null","","","null","20","","","","","","","","","","","","","","","NaN",""
"","S1","","html-keyboard-response","147","305660","0.0-1.0-191.0","0","0","23498","","null","","","null","21","","","","","","","","","","","","","","","",""
"","ISI","","html-keyboard-response","148","306164","0.0-1.0-192.0","0","0","23498","","null","","","null","21","NaN","","","","","","","","","","","","","","",""
"","S2","","html-keyboard-response","149","306420","0.0-1.0-193.0","0","0","23498","","null","","","null","21","","NaN","","","","","","","","","","","","","",""
"","response","","html-keyboard-response","150","306431","0.0-1.0-194.0-0.0","0","0","23498","","9","","","75","21","","","1","21","training","adjacent","GF","7","6","R.jpg","P.jpg","0","0","1","",""
"","feedback","","html-keyboard-response","151","307437","0.0-1.0-195.0-0.0","0","0","23498","","null","","","null","21","","","","","","","","","","","","","","","",""
"","ITI","","html-keyboard-response","152","308445","0.0-1.0-198.0","0","0","23498","","null","","","null","21","","","","","","","","","","","","","","","NaN",""
"","S1","","html-keyboard-response","153","308701","0.0-1.0-200.0","0","0","23498","","null","","","null","22","","","","","","","","","","","","","","","",""
"","ISI","","html-keyboard-response","154","309205","0.0-1.0-201.0","0","0","23498","","null","","","null","22","NaN","","","","","","","","","","","","","","",""
"","S2","","html-keyboard-response","155","309461","0.0-1.0-202.0","0","0","23498","","null","","","null","22","","NaN","","","","","","","","","","","","","",""
"","response","","html-keyboard-response","156","309838","0.0-1.0-203.0-0.0","0","0","23498","","375","","","68","22","","","1","22","training","adjacent","DE","4","5","Q.jpg","M.jpg","1","1","1","",""
"","feedback","","html-keyboard-response","157","310845","0.0-1.0-204.0-0.0","0","0","23498","","null","","","null","22","","","","","","","","","","","","","","","",""
"","ITI","","html-keyboard-response","158","311854","0.0-1.0-207.0","0","0","23498","","null","","","null","22","","","","","","","","","","","","","","","NaN",""
"","S1","","html-keyboard-response","159","312109","0.0-1.0-209.0","0","0","23498","","null","","","null","23","","","","","","","","","","","","","","","",""
"","ISI","","html-keyboard-response","160","312613","0.0-1.0-210.0","0","0","23498","","null","","","null","23","NaN","","","","","","","","","","","","","","",""
"","S2","","html-keyboard-response","161","312869","0.0-1.0-211.0","0","0","23498","","null","","","null","23","","NaN","","","","","","","","","","","","","",""
"","response","","html-keyboard-response","162","313234","0.0-1.0-212.0-0.0","0","0","23498","","363","","","75","23","","","1","23","training","adjacent","FG","6","7","P.jpg","R.jpg","0","1","0","",""
"","feedback","","html-keyboard-response","163","314238","0.0-1.0-213.0-0.0","0","0","23498","","null","","","null","23","","","","","","","","","","","","","","","",""
"","time_out","","html-keyboard-response","164","316246","0.0-1.0-215.0-0.0","0","0","23498","","null","","","null","23","","","","","","","","","","","","","","","",""
"","ITI","","html-keyboard-response","165","317254","0.0-1.0-216.0","0","0","23498","","null","","","null","23","","","","","","","","","","","","","","","NaN",""
"","S1","","html-keyboard-response","166","317510","0.0-1.0-218.0","0","0","23498","","null","","","null","24","","","","","","","","","","","","","","","",""
"","ISI","","html-keyboard-response","167","318014","0.0-1.0-219.0","0","0","23498","","null","","","null","24","NaN","","","","","","","","","","","","","","",""
"","S2","","html-keyboard-response","168","318270","0.0-1.0-220.0","0","0","23498","","null","","","null","24","","NaN","","","","","","","","","","","","","",""
"","response","","html-keyboard-response","169","318533","0.0-1.0-221.0-0.0","0","0","23498","","262","","","75","24","","","1","24","training","adjacent","FG","6","7","P.jpg","R.jpg","0","1","0","",""
"","feedback","","html-keyboard-response","170","319542","0.0-1.0-222.0-0.0","0","0","23498","","null","","","null","24","","","","","","","","","","","","","","","",""
"","time_out","","html-keyboard-response","171","321550","0.0-1.0-224.0-0.0","0","0","23498","","null","","","null","24","","","","","","","","","","","","","","","",""
"","ITI","","html-keyboard-response","172","322558","0.0-1.0-225.0","0","0","23498","","null","","","null","24","","","","","","","","","","","","","","","NaN",""
"","S1","","html-keyboard-response","173","322814","0.0-1.0-227.0","0","0","23498","","null","","","null","25","","","","","","","","","","","","","","","",""
"","ISI","","html-keyboard-response","174","323318","0.0-1.0-228.0","0","0","23498","","null","","","null","25","NaN","","","","","","","","","","","","","","",""
"","S2","","html-keyboard-response","175","323574","0.0-1.0-229.0","0","0","23498","","null","","","null","25","","NaN","","","","","","","","","","","","","",""
"","response","","html-keyboard-response","176","323856","0.0-1.0-230.0-0.0","0","0","23498","","281","","","68","25","","","1","25","training","adjacent","CB","3","2","O.jpg","L.jpg","1","0","0","",""
"","feedback","","html-keyboard-response","177","324890","0.0-1.0-231.0-0.0","0","0","23498","","null","","","null","25","","","","","","","","","","","","","","","",""
"","time_out","","html-keyboard-response","178","326894","0.0-1.0-233.0-0.0","0","0","23498","","null","","","null","25","","","","","","","","","","","","","","","",""
"","ITI","","html-keyboard-response","179","327902","0.0-1.0-234.0","0","0","23498","","null","","","null","25","","","","","","","","","","","","","","","NaN",""
"","S1","","html-keyboard-response","180","328157","0.0-1.0-236.0","0","0","23498","","null","","","null","26","","","","","","","","","","","","","","","",""
"","ISI","","html-keyboard-response","181","328661","0.0-1.0-237.0","0","0","23498","","null","","","null","26","NaN","","","","","","","","","","","","","","",""
"","S2","","html-keyboard-response","182","328917","0.0-1.0-238.0","0","0","23498","","null","","","null","26","","NaN","","","","","","","","","","","","","",""
"","response","","html-keyboard-response","183","329157","0.0-1.0-239.0-0.0","0","0","23498","","239","","","68","26","","","1","26","training","adjacent","ED","5","4","M.jpg","Q.jpg","1","0","0","",""
"","feedback","","html-keyboard-response","184","330165","0.0-1.0-240.0-0.0","0","0","23498","","null","","","null","26","","","","","","","","","","","","","","","",""
"","time_out","","html-keyboard-response","185","332173","0.0-1.0-242.0-0.0","0","0","23498","","null","","","null","26","","","","","","","","","","","","","","","",""
"","ITI","","html-keyboard-response","186","333182","0.0-1.0-243.0","0","0","23498","","null","","","null","26","","","","","","","","","","","","","","","NaN",""
"","S1","","html-keyboard-response","187","333437","0.0-1.0-245.0","0","0","23498","","null","","","null","27","","","","","","","","","","","","","","","",""
"","ISI","","html-keyboard-response","188","333941","0.0-1.0-246.0","0","0","23498","","null","","","null","27","NaN","","","","","","","","","","","","","","",""
"","S2","","html-keyboard-response","189","334198","0.0-1.0-247.0","0","0","23498","","null","","","null","27","","NaN","","","","","","","","","","","","","",""
"","response","","html-keyboard-response","190","334417","0.0-1.0-248.0-0.0","0","0","23498","","218","","","68","27","","","1","27","training","adjacent","DC","4","3","Q.jpg","O.jpg","1","0","0","",""
"","feedback","","html-keyboard-response","191","335422","0.0-1.0-249.0-0.0","0","0","23498","","null","","","null","27","","","","","","","","","","","","","","","",""
"","time_out","","html-keyboard-response","192","337430","0.0-1.0-251.0-0.0","0","0","23498","","null","","","null","27","","","","","","","","","","","","","","","",""
"","ITI","","html-keyboard-response","193","338438","0.0-1.0-252.0","0","0","23498","","null","","","null","27","","","","","","","","","","","","","","","NaN",""
"","S1","","html-keyboard-response","194","338694","0.0-1.0-254.0","0","0","23498","","null","","","null","28","","","","","","","","","","","","","","","",""
"","ISI","","html-keyboard-response","195","339198","0.0-1.0-255.0","0","0","23498","","null","","","null","28","NaN","","","","","","","","","","","","","","",""
"","S2","","html-keyboard-response","196","339454","0.0-1.0-256.0","0","0","23498","","null","","","null","28","","NaN","","","","","","","","","","","","","",""
"","response","","html-keyboard-response","197","339711","0.0-1.0-257.0-0.0","0","0","23498","","256","","","75","28","","","1","28","training","adjacent","FE","6","5","P.jpg","M.jpg","0","0","1","",""
"","feedback","","html-keyboard-response","198","340718","0.0-1.0-258.0-0.0","0","0","23498","","null","","","null","28","","","","","","","","","","","","","","","",""
"","ITI","","html-keyboard-response","199","341726","0.0-1.0-261.0","0","0","23498","","null","","","null","28","","","","","","","","","","","","","","","NaN",""
"","S1","","html-keyboard-response","200","341982","0.0-1.0-263.0","0","0","23498","","null","","","null","29","","","","","","","","","","","","","","","",""
"","ISI","","html-keyboard-response","201","342486","0.0-1.0-264.0","0","0","23498","","null","","","null","29","NaN","","","","","","","","","","","","","","",""
"","S2","","html-keyboard-response","202","342742","0.0-1.0-265.0","0","0","23498","","null","","","null","29","","NaN","","","","","","","","","","","","","",""
"","response","","html-keyboard-response","203","343111","0.0-1.0-266.0-0.0","0","0","23498","","369","","","75","29","","","1","29","training","adjacent","FG","6","7","P.jpg","R.jpg","0","1","0","",""
"","feedback","","html-keyboard-response","204","344118","0.0-1.0-267.0-0.0","0","0","23498","","null","","","null","29","","","","","","","","","","","","","","","",""
"","time_out","","html-keyboard-response","205","346126","0.0-1.0-269.0-0.0","0","0","23498","","null","","","null","29","","","","","","","","","","","","","","","",""
"","ITI","","html-keyboard-response","206","347135","0.0-1.0-270.0","0","0","23498","","null","","","null","29","","","","","","","","","","","","","","","NaN",""
"","S1","","html-keyboard-response","207","347390","0.0-1.0-272.0","0","0","23498","","null","","","null","30","","","","","","","","","","","","","","","",""
"","ISI","","html-keyboard-response","208","347894","0.0-1.0-273.0","0","0","23498","","null","","","null","30","NaN","","","","","","","","","","","","","","",""
"","S2","","html-keyboard-response","209","348150","0.0-1.0-274.0","0","0","23498","","null","","","null","30","","NaN","","","","","","","","","","","","","",""
"","response","","html-keyboard-response","210","348363","0.0-1.0-275.0-0.0","0","0","23498","","211","","","75","30","","","1","30","training","adjacent","BA","2","1","L.jpg","N.jpg","0","0","1","",""
"","feedback","","html-keyboard-response","211","349366","0.0-1.0-276.0-0.0","0","0","23498","","null","","","null","30","","","","","","","","","","","","","","","",""
"","ITI","","html-keyboard-response","212","350373","0.0-1.0-279.0","0","0","23498","","null","","","null","30","","","","","","","","","","","","","","","NaN",""
"","S1","","html-keyboard-response","213","350629","0.0-1.0-281.0","0","0","23498","","null","","","null","31","","","","","","","","","","","","","","","",""
"","ISI","","html-keyboard-response","214","351133","0.0-1.0-282.0","0","0","23498","","null","","","null","31","NaN","","","","","","","","","","","","","","",""
"","S2","","html-keyboard-response","215","351389","0.0-1.0-283.0","0","0","23498","","null","","","null","31","","NaN","","","","","","","","","","","","","",""
"","response","","html-keyboard-response","216","351645","0.0-1.0-284.0-0.0","0","0","23498","","254","","","68","31","","","1","31","training","adjacent","BA","2","1","L.jpg","N.jpg","1","0","0","",""
"","feedback","","html-keyboard-response","217","352653","0.0-1.0-285.0-0.0","0","0","23498","","null","","","null","31","","","","","","","","","","","","","","","",""
"","time_out","","html-keyboard-response","218","354661","0.0-1.0-287.0-0.0","0","0","23498","","null","","","null","31","","","","","","","","","","","","","","","",""
"","ITI","","html-keyboard-response","219","355670","0.0-1.0-288.0","0","0","23498","","null","","","null","31","","","","","","","","","","","","","","","NaN",""
"","S1","","html-keyboard-response","220","355926","0.0-1.0-290.0","0","0","23498","","null","","","null","32","","","","","","","","","","","","","","","",""
"","ISI","","html-keyboard-response","221","356430","0.0-1.0-291.0","0","0","23498","","null","","","null","32","NaN","","","","","","","","","","","","","","",""
"","S2","","html-keyboard-response","222","356686","0.0-1.0-292.0","0","0","23498","","null","","","null","32","","NaN","","","","","","","","","","","","","",""
"","response","","html-keyboard-response","223","356854","0.0-1.0-293.0-0.0","0","0","23498","","167","","","68","32","","","1","32","training","adjacent","BC","2","3","L.jpg","O.jpg","1","1","1","",""
"","feedback","","html-keyboard-response","224","357861","0.0-1.0-294.0-0.0","0","0","23498","","null","","","null","32","","","","","","","","","","","","","","","",""
"","ITI","","html-keyboard-response","225","358869","0.0-1.0-297.0","0","0","23498","","null","","","null","32","","","","","","","","","","","","","","","NaN",""
"","S1","","html-keyboard-response","226","359126","0.0-1.0-299.0","0","0","23498","","null","","","null","33","","","","","","","","","","","","","","","",""
"","ISI","","html-keyboard-response","227","359630","0.0-1.0-300.0","0","0","23498","","null","","","null","33","NaN","","","","","","","","","","","","","","",""
"","S2","","html-keyboard-response","228","359886","0.0-1.0-301.0","0","0","23498","","null","","","null","33","","NaN","","","","","","","","","","","","","",""
"","response","","html-keyboard-response","229","359960","0.0-1.0-302.0-0.0","0","0","23498","","73","","","68","33","","","1","33","training","adjacent","BC","2","3","L.jpg","O.jpg","1","1","1","",""
"","feedback","","html-keyboard-response","230","360966","0.0-1.0-303.0-0.0","0","0","23498","","null","","","null","33","","","","","","","","","","","","","","","",""
"","ITI","","html-keyboard-response","231","361974","0.0-1.0-306.0","0","0","23498","","null","","","null","33","","","","","","","","","","","","","","","NaN",""
"","S1","","html-keyboard-response","232","362230","0.0-1.0-308.0","0","0","23498","","null","","","null","34","","","","","","","","","","","","","","","",""
"","ISI","","html-keyboard-response","233","362734","0.0-1.0-309.0","0","0","23498","","null","","","null","34","NaN","","","","","","","","","","","","","","",""
"","S2","","html-keyboard-response","234","362990","0.0-1.0-310.0","0","0","23498","","null","","","null","34","","NaN","","","","","","","","","","","","","",""
"","response","","html-keyboard-response","235","363189","0.0-1.0-311.0-0.0","0","0","23498","","197","","","68","34","","","1","34","training","adjacent","GF","7","6","R.jpg","P.jpg","1","0","0","",""
"","feedback","","html-keyboard-response","236","364198","0.0-1.0-312.0-0.0","0","0","23498","","null","","","null","34","","","","","","","","","","","","","","","",""
"","time_out","","html-keyboard-response","237","366206","0.0-1.0-314.0-0.0","0","0","23498","","null","","","null","34","","","","","","","","","","","","","","","",""
"","ITI","","html-keyboard-response","238","367214","0.0-1.0-315.0","0","0","23498","","null","","","null","34","","","","","","","","","","","","","","","NaN",""
"","S1","","html-keyboard-response","239","367470","0.0-1.0-317.0","0","0","23498","","null","","","null","35","","","","","","","","","","","","","","","",""
"","ISI","","html-keyboard-response","240","367974","0.0-1.0-318.0","0","0","23498","","null","","","null","35","NaN","","","","","","","","","","","","","","",""
"","S2","","html-keyboard-response","241","368171","0.0-1.0-319.0","0","0","23498","","195","","","75","35","","k","1","35","training","adjacent","AB","1","2","N.jpg","L.jpg","0","1","0","",""
"","feedback","","html-keyboard-response","242","369182","0.0-1.0-321.0-0.0","0","0","23498","","null","","","null","35","","","","","","","","","","","","","","","",""
"","time_out","","html-keyboard-response","243","371190","0.0-1.0-323.0-0.0","0","0","23498","","null","","","null","35","","","","","","","","","","","","","","","",""
"","ITI","","html-keyboard-response","244","372197","0.0-1.0-324.0","0","0","23498","","null","","","null","35","","","","","","","","","","","","","","","NaN",""
"","S1","","html-keyboard-response","245","372453","0.0-1.0-326.0","0","0","23498","","null","","","null","36","","","","","","","","","","","","","","","",""
"","ISI","","html-keyboard-response","246","372957","0.0-1.0-327.0","0","0","23498","","null","","","null","36","NaN","","","","","","","","","","","","","","",""
"","S2","","html-keyboard-response","247","373213","0.0-1.0-328.0","0","0","23498","","null","","","null","36","","NaN","","","","","","","","","","","","","",""
"","response","","html-keyboard-response","248","373283","0.0-1.0-329.0-0.0","0","0","23498","","69","","","75","36","","","1","36","training","adjacent","AB","1","2","N.jpg","L.jpg","0","1","0","",""
"","feedback","","html-keyboard-response","249","374293","0.0-1.0-330.0-0.0","0","0","23498","","null","","","null","36","","","","","","","","","","","","","","","",""
"","time_out","","html-keyboard-response","250","376301","0.0-1.0-332.0-0.0","0","0","23498","","null","","","null","36","","","","","","","","","","","","","","","",""
"","ITI","","html-keyboard-response","251","377309","0.0-1.0-333.0","0","0","23498","","null","","","null","36","","","","","","","","","","","","","","","NaN",""
"","S1","","html-keyboard-response","252","377565","0.0-1.0-335.0","0","0","23498","","null","","","null","37","","","","","","","","","","","","","","","",""
"","ISI","","html-keyboard-response","253","378069","0.0-1.0-336.0","0","0","23498","","null","","","null","37","NaN","","","","","","","","","","","","","","",""
"","S2","","html-keyboard-response","254","378325","0.0-1.0-337.0","0","0","23498","","null","","","null","37","","NaN","","","","","","","","","","","","","",""
"","response","","html-keyboard-response","255","378661","0.0-1.0-338.0-0.0","0","0","23498","","334","","","75","37","","","1","37","training","adjacent","ED","5","4","M.jpg","Q.jpg","0","0","1","",""
"","feedback","","html-keyboard-response","256","379669","0.0-1.0-339.0-0.0","0","0","23498","","null","","","null","37","","","","","","","","","","","","","","","",""
"","ITI","","html-keyboard-response","257","380677","0.0-1.0-342.0","0","0","23498","","null","","","null","37","","","","","","","","","","","","","","","NaN",""
"","S1","","html-keyboard-response","258","380933","0.0-1.0-344.0","0","0","23498","","null","","","null","38","","","","","","","","","","","","","","","",""
"","ISI","","html-keyboard-response","259","381437","0.0-1.0-345.0","0","0","23498","","null","","","null","38","NaN","","","","","","","","","","","","","","",""
"","S2","","html-keyboard-response","260","381693","0.0-1.0-346.0","0","0","23498","","null","","","null","38","","NaN","","","","","","","","","","","","","",""
"","response","","html-keyboard-response","261","382151","0.0-1.0-347.0-0.0","0","0","23498","","456","","","75","38","","","1","38","training","adjacent","CD","3","4","O.jpg","Q.jpg","0","1","0","",""
"","feedback","","html-keyboard-response","262","383157","0.0-1.0-348.0-0.0","0","0","23498","","null","","","null","38","","","","","","","","","","","","","","","",""
"","time_out","","html-keyboard-response","263","385165","0.0-1.0-350.0-0.0","0","0","23498","","null","","","null","38","","","","","","","","","","","","","","","",""
"","ITI","","html-keyboard-response","264","386173","0.0-1.0-351.0","0","0","23498","","null","","","null","38","","","","","","","","","","","","","","","NaN",""
"","S1","","html-keyboard-response","265","386429","0.0-1.0-353.0","0","0","23498","","null","","","null","39","","","","","","","","","","","","","","","",""
"","ISI","","html-keyboard-response","266","386934","0.0-1.0-354.0","0","0","23498","","null","","","null","39","NaN","","","","","","","","","","","","","","",""
"","S2","","html-keyboard-response","267","387147","0.0-1.0-355.0","0","0","23498","","212","","","68","39","","d","1","39","training","adjacent","DE","4","5","Q.jpg","M.jpg","1","1","1","",""
"","feedback","","html-keyboard-response","268","388150","0.0-1.0-357.0-0.0","0","0","23498","","null","","","null","39","","","","","","","","","","","","","","","",""
"","ITI","","html-keyboard-response","269","389158","0.0-1.0-360.0","0","0","23498","","null","","","null","39","","","","","","","","","","","","","","","NaN",""
"","S1","","html-keyboard-response","270","389414","0.0-1.0-362.0","0","0","23498","","null","","","null","40","","","","","","","","","","","","","","","",""
"","ISI","","html-keyboard-response","271","389918","0.0-1.0-363.0","0","0","23498","","null","","","null","40","NaN","","","","","","","","","","","","","","",""
"","S2","","html-keyboard-response","272","390174","0.0-1.0-364.0","0","0","23498","","null","","","null","40","","NaN","","","","","","","","","","","","","",""
"","response","","html-keyboard-response","273","390384","0.0-1.0-365.0-0.0","0","0","23498","","209","","","68","40","","","1","40","training","adjacent","EF","5","6","M.jpg","P.jpg","1","1","1","",""
"","feedback","","html-keyboard-response","274","391390","0.0-1.0-366.0-0.0","0","0","23498","","null","","","null","40","","","","","","","","","","","","","","","",""
"","ITI","","html-keyboard-response","275","392398","0.0-1.0-369.0","0","0","23498","","null","","","null","40","","","","","","","","","","","","","","","NaN",""
"","S1","","html-keyboard-response","276","392654","0.0-1.0-371.0","0","0","23498","","null","","","null","41","","","","","","","","","","","","","","","",""
"","ISI","","html-keyboard-response","277","393158","0.0-1.0-372.0","0","0","23498","","null","","","null","41","NaN","","","","","","","","","","","","","","",""
"","S2","","html-keyboard-response","278","393414","0.0-1.0-373.0","0","0","23498","","null","","","null","41","","NaN","","","","","","","","","","","","","",""
"","response","","html-keyboard-response","279","393499","0.0-1.0-374.0-0.0","0","0","23498","","84","","","68","41","","","1","41","training","adjacent","EF","5","6","M.jpg","P.jpg","1","1","1","",""
"","feedback","","html-keyboard-response","280","394501","0.0-1.0-375.0-0.0","0","0","23498","","null","","","null","41","","","","","","","","","","","","","","","",""
"","ITI","","html-keyboard-response","281","395509","0.0-1.0-378.0","0","0","23498","","null","","","null","41","","","","","","","","","","","","","","","NaN",""
"","S1","","html-keyboard-response","282","395765","0.0-1.0-380.0","0","0","23498","","null","","","null","42","","","","","","","","","","","","","","","",""
"","ISI","","html-keyboard-response","283","396269","0.0-1.0-381.0","0","0","23498","","null","","","null","42","NaN","","","","","","","","","","","","","","",""
"","S2","","html-keyboard-response","284","396525","0.0-1.0-382.0","0","0","23498","","null","","","null","42","","NaN","","","","","","","","","","","","","",""
"","response","","html-keyboard-response","285","396833","0.0-1.0-383.0-0.0","0","0","23498","","307","","","75","42","","","1","42","training","adjacent","CD","3","4","O.jpg","Q.jpg","0","1","0","",""
"","feedback","","html-keyboard-response","286","397837","0.0-1.0-384.0-0.0","0","0","23498","","null","","","null","42","","","","","","","","","","","","","","","",""
"","time_out","","html-keyboard-response","287","399845","0.0-1.0-386.0-0.0","0","0","23498","","null","","","null","42","","","","","","","","","","","","","","","",""
"","ITI","","html-keyboard-response","288","400853","0.0-1.0-387.0","0","0","23498","","null","","","null","42","","","","","","","","","","","","","","","NaN",""
"","S1","","html-keyboard-response","289","401109","0.0-1.0-389.0","0","0","23498","","null","","","null","43","","","","","","","","","","","","","","","",""
"","ISI","","html-keyboard-response","290","401613","0.0-1.0-390.0","0","0","23498","","264","","","75","43","k","","","","","","","","","","","","","","",""
"","S2","","html-keyboard-response","291","401836","0.0-1.0-391.0","0","0","23498","","221","","","75","43","","k","1","43","training","adjacent","EF","5","6","M.jpg","P.jpg","0","1","0","",""
"","feedback","","html-keyboard-response","292","402845","0.0-1.0-393.0-0.0","0","0","23498","","null","","","null","43","","","","","","","","","","","","","","","",""
"","time_out","","html-keyboard-response","293","404853","0.0-1.0-395.0-0.0","0","0","23498","","null","","","null","43","","","","","","","","","","","","","","","",""
"","ITI","","html-keyboard-response","294","405861","0.0-1.0-396.0","0","0","23498","","null","","","null","43","","","","","","","","","","","","","","","NaN",""
"","S1","","html-keyboard-response","295","406118","0.0-1.0-398.0","0","0","23498","","null","","","null","44","","","","","","","","","","","","","","","",""
"","ISI","","html-keyboard-response","296","406622","0.0-1.0-399.0","0","0","23498","","null","","","null","44","NaN","","","","","","","","","","","","","","",""
"","S2","","html-keyboard-response","297","406878","0.0-1.0-400.0","0","0","23498","","null","","","null","44","","NaN","","","","","","","","","","","","","",""
"","response","","html-keyboard-response","298","407213","0.0-1.0-401.0-0.0","0","0","23498","","334","","","75","44","","","1","44","training","adjacent","BA","2","1","L.jpg","N.jpg","0","0","1","",""
"","feedback","","html-keyboard-response","299","408222","0.0-1.0-402.0-0.0","0","0","23498","","null","","","null","44","","","","","","","","","","","","","","","",""
"","ITI","","html-keyboard-response","300","409230","0.0-1.0-405.0","0","0","23498","","null","","","null","44","","","","","","","","","","","","","","","NaN",""
"","S1","","html-keyboard-response","301","409486","0.0-1.0-407.0","0","0","23498","","null","","","null","45","","","","","","","","","","","","","","","",""
"","ISI","","html-keyboard-response","302","409990","0.0-1.0-408.0","0","0","23498","","null","","","null","45","NaN","","","","","","","","","","","","","","",""
"","S2","","html-keyboard-response","303","410242","0.0-1.0-409.0","0","0","23498","","null","","","null","45","","NaN","","","","","","","","","","","","","",""
"","response","","html-keyboard-response","304","410803","0.0-1.0-410.0-0.0","0","0","23498","","560","","","75","45","","","1","45","training","adjacent","ED","5","4","M.jpg","Q.jpg","0","0","1","",""
"","feedback","","html-keyboard-response","305","411814","0.0-1.0-411.0-0.0","0","0","23498","","null","","","null","45","","","","","","","","","","","","","","","",""
"","ITI","","html-keyboard-response","306","412822","0.0-1.0-414.0","0","0","23498","","null","","","null","45","","","","","","","","","","","","","","","NaN",""
"","S1","","html-keyboard-response","307","413078","0.0-1.0-416.0","0","0","23498","","null","","","null","46","","","","","","","","","","","","","","","",""
"","ISI","","html-keyboard-response","308","413582","0.0-1.0-417.0","0","0","23498","","null","","","null","46","NaN","","","","","","","","","","","","","","",""
"","S2","","html-keyboard-response","309","413838","0.0-1.0-418.0","0","0","23498","","null","","","null","46","","NaN","","","","","","","","","","","","","",""
"","response","","html-keyboard-response","310","414454","0.0-1.0-419.0-0.0","0","0","23498","","615","","","75","46","","","1","46","training","adjacent","FG","6","7","P.jpg","R.jpg","0","1","0","",""
"","feedback","","html-keyboard-response","311","415473","0.0-1.0-420.0-0.0","0","0","23498","","null","","","null","46","","","","","","","","","","","","","","","",""
"","time_out","","html-keyboard-response","312","417477","0.0-1.0-422.0-0.0","0","0","23498","","null","","","null","46","","","","","","","","","","","","","","","",""
"","ITI","","html-keyboard-response","313","418485","0.0-1.0-423.0","0","0","23498","","null","","","null","46","","","","","","","","","","","","","","","NaN",""
"","S1","","html-keyboard-response","314","418741","0.0-1.0-425.0","0","0","23498","","null","","","null","47","","","","","","","","","","","","","","","",""
"","ISI","","html-keyboard-response","315","419244","0.0-1.0-426.0","0","0","23498","","null","","","null","47","NaN","","","","","","","","","","","","","","",""
"","S2","","html-keyboard-response","316","419501","0.0-1.0-427.0","0","0","23498","","null","","","null","47","","NaN","","","","","","","","","","","","","",""
"","response","","html-keyboard-response","317","419759","0.0-1.0-428.0-0.0","0","0","23498","","257","","","75","47","","","1","47","training","adjacent","CB","3","2","O.jpg","L.jpg","0","0","1","",""
"","feedback","","html-keyboard-response","318","420765","0.0-1.0-429.0-0.0","0","0","23498","","null","","","null","47","","","","","","","","","","","","","","","",""
"","ITI","","html-keyboard-response","319","421773","0.0-1.0-432.0","0","0","23498","","null","","","null","47","","","","","","","","","","","","","","","NaN",""
"","block_over","","html-keyboard-response","320","431876","0.0-1.0-433.0-0.0","0","0","23498","","10101","","","32","47","","","","","","","","","","","","","","","",""
"","S1","","html-keyboard-response","321","432136","0.0-1.0-434.0","0","0","23498","","null","","","null","48","","","","","","","","","","","","","","","",""
"","ISI","","html-keyboard-response","322","432640","0.0-1.0-435.0","0","0","23498","","null","","","null","48","NaN","","","","","","","","","","","","","","",""
"","S2","","html-keyboard-response","323","432896","0.0-1.0-436.0","0","0","23498","","null","","","null","48","","NaN","","","","","","","","","","","","","",""
"","response","","html-keyboard-response","324","433612","0.0-1.0-437.0-0.0","0","0","23498","","715","","","75","48","","","2","48","training","adjacent","BC","2","3","L.jpg","O.jpg","0","1","0","",""
"","feedback","","html-keyboard-response","325","434616","0.0-1.0-438.0-0.0","0","0","23498","","null","","","null","48","","","","","","","","","","","","","","","",""
"","time_out","","html-keyboard-response","326","436624","0.0-1.0-440.0-0.0","0","0","23498","","null","","","null","48","","","","","","","","","","","","","","","",""
"","ITI","","html-keyboard-response","327","437632","0.0-1.0-441.0","0","0","23498","","null","","","null","48","","","","","","","","","","","","","","","NaN",""
"","S1","","html-keyboard-response","328","437887","0.0-1.0-443.0","0","0","23498","","null","","","null","49","","","","","","","","","","","","","","","",""
"","ISI","","html-keyboard-response","329","438391","0.0-1.0-444.0","0","0","23498","","null","","","null","49","NaN","","","","","","","","","","","","","","",""
"","S2","","html-keyboard-response","330","438647","0.0-1.0-445.0","0","0","23498","","null","","","null","49","","NaN","","","","","","","","","","","","","",""
"","response","","html-keyboard-response","331","439090","0.0-1.0-446.0-0.0","0","0","23498","","442","","","75","49","","","2","49","training","adjacent","CB","3","2","O.jpg","L.jpg","0","0","1","",""
"","feedback","","html-keyboard-response","332","440095","0.0-1.0-447.0-0.0","0","0","23498","","null","","","null","49","","","","","","","","","","","","","","","",""
"","ITI","","html-keyboard-response","333","441103","0.0-1.0-450.0","0","0","23498","","null","","","null","49","","","","","","","","","","","","","","","NaN",""
"","S1","","html-keyboard-response","334","441359","0.0-1.0-452.0","0","0","23498","","null","","","null","50","","","","","","","","","","","","","","","",""
"","ISI","","html-keyboard-response","335","441863","0.0-1.0-453.0","0","0","23498","","null","","","null","50","NaN","","","","","","","","","","","","","","",""
"","S2","","html-keyboard-response","336","442119","0.0-1.0-454.0","0","0","23498","","null","","","null","50","","NaN","","","","","","","","","","","","","",""
"","response","","html-keyboard-response","337","442246","0.0-1.0-455.0-0.0","0","0","23498","","125","","","75","50","","","2","50","training","adjacent","EF","5","6","M.jpg","P.jpg","0","1","0","",""
"","feedback","","html-keyboard-response","338","443255","0.0-1.0-456.0-0.0","0","0","23498","","null","","","null","50","","","","","","","","","","","","","","","",""
"","time_out","","html-keyboard-response","339","445263","0.0-1.0-458.0-0.0","0","0","23498","","null","","","null","50","","","","","","","","","","","","","","","",""
"","ITI","","html-keyboard-response","340","446271","0.0-1.0-459.0","0","0","23498","","null","","","null","50","","","","","","","","","","","","","","","NaN",""
"","S1","","html-keyboard-response","341","446527","0.0-1.0-461.0","0","0","23498","","null","","","null","51","","","","","","","","","","","","","","","",""
"","ISI","","html-keyboard-response","342","447031","0.0-1.0-462.0","0","0","23498","","null","","","null","51","NaN","","","","","","","","","","","","","","",""
"","S2","","html-keyboard-response","343","447287","0.0-1.0-463.0","0","0","23498","","null","","","null","51","","NaN","","","","","","","","","","","","","",""
"","response","","html-keyboard-response","344","447704","0.0-1.0-464.0-0.0","0","0","23498","","416","","","75","51","","","2","51","training","adjacent","ED","5","4","M.jpg","Q.jpg","0","0","1","",""
"","feedback","","html-keyboard-response","345","448711","0.0-1.0-465.0-0.0","0","0","23498","","null","","","null","51","","","","","","","","","","","","","","","",""
"","ITI","","html-keyboard-response","346","449719","0.0-1.0-468.0","0","0","23498","","null","","","null","51","","","","","","","","","","","","","","","NaN",""
"","S1","","html-keyboard-response","347","449975","0.0-1.0-470.0","0","0","23498","","null","","","null","52","","","","","","","","","","","","","","","",""
"","ISI","","html-keyboard-response","348","450480","0.0-1.0-471.0","0","0","23498","","null","","","null","52","NaN","","","","","","","","","","","","","","",""
"","S2","","html-keyboard-response","349","450735","0.0-1.0-472.0","0","0","23498","","null","","","null","52","","NaN","","","","","","","","","","","","","",""
"","response","","html-keyboard-response","350","451187","0.0-1.0-473.0-0.0","0","0","23498","","451","","","75","52","","","2","52","training","adjacent","BA","2","1","L.jpg","N.jpg","0","0","1","",""
"","feedback","","html-keyboard-response","351","452191","0.0-1.0-474.0-0.0","0","0","23498","","null","","","null","52","","","","","","","","","","","","","","","",""
"","ITI","","html-keyboard-response","352","453199","0.0-1.0-477.0","0","0","23498","","null","","","null","52","","","","","","","","","","","","","","","NaN",""
"","S1","","html-keyboard-response","353","453455","0.0-1.0-479.0","0","0","23498","","null","","","null","53","","","","","","","","","","","","","","","",""
"","ISI","","html-keyboard-response","354","453959","0.0-1.0-480.0","0","0","23498","","null","","","null","53","NaN","","","","","","","","","","","","","","",""
"","S2","","html-keyboard-response","355","454215","0.0-1.0-481.0","0","0","23498","","null","","","null","53","","NaN","","","","","","","","","","","","","",""
"","response","","html-keyboard-response","356","454696","0.0-1.0-482.0-0.0","0","0","23498","","479","","","75","53","","","2","53","training","adjacent","EF","5","6","M.jpg","P.jpg","0","1","0","",""
"","feedback","","html-keyboard-response","357","455705","0.0-1.0-483.0-0.0","0","0","23498","","null","","","null","53","","","","","","","","","","","","","","","",""
"","time_out","","html-keyboard-response","358","457711","0.0-1.0-485.0-0.0","0","0","23498","","null","","","null","53","","","","","","","","","","","","","","","",""
"","ITI","","html-keyboard-response","359","458720","0.0-1.0-486.0","0","0","23498","","null","","","null","53","","","","","","","","","","","","","","","NaN",""
"","S1","","html-keyboard-response","360","458976","0.0-1.0-488.0","0","0","23498","","null","","","null","54","","","","","","","","","","","","","","","",""
"","ISI","","html-keyboard-response","361","459488","0.0-1.0-489.0","0","0","23498","","null","","","null","54","NaN","","","","","","","","","","","","","","",""
"","S2","","html-keyboard-response","362","459743","0.0-1.0-490.0","0","0","23498","","null","","","null","54","","NaN","","","","","","","","","","","","","",""
"","response","","html-keyboard-response","363","460001","0.0-1.0-491.0-0.0","0","0","23498","","256","","","68","54","","","2","54","training","adjacent","CD","3","4","O.jpg","Q.jpg","1","1","1","",""
"","feedback","","html-keyboard-response","364","461010","0.0-1.0-492.0-0.0","0","0","23498","","null","","","null","54","","","","","","","","","","","","","","","",""
"","ITI","","html-keyboard-response","365","462015","0.0-1.0-495.0","0","0","23498","","null","","","null","54","","","","","","","","","","","","","","","NaN",""
"","S1","","html-keyboard-response","366","462271","0.0-1.0-497.0","0","0","23498","","null","","","null","55","","","","","","","","","","","","","","","",""
"","ISI","","html-keyboard-response","367","462775","0.0-1.0-498.0","0","0","23498","","null","","","null","55","NaN","","","","","","","","","","","","","","",""
"","S2","","html-keyboard-response","368","463031","0.0-1.0-499.0","0","0","23498","","null","","","null","55","","NaN","","","","","","","","","","","","","",""
"","response","","html-keyboard-response","369","463396","0.0-1.0-500.0-0.0","0","0","23498","","364","","","75","55","","","2","55","training","adjacent","FG","6","7","P.jpg","R.jpg","0","1","0","",""
"","feedback","","html-keyboard-response","370","464399","0.0-1.0-501.0-0.0","0","0","23498","","null","","","null","55","","","","","","","","","","","","","","","",""
"","time_out","","html-keyboard-response","371","466407","0.0-1.0-503.0-0.0","0","0","23498","","null","","","null","55","","","","","","","","","","","","","","","",""
"","ITI","","html-keyboard-response","372","467415","0.0-1.0-504.0","0","0","23498","","null","","","null","55","","","","","","","","","","","","","","","NaN",""
"","S1","","html-keyboard-response","373","467671","0.0-1.0-506.0","0","0","23498","","null","","","null","56","","","","","","","","","","","","","","","",""
"","ISI","","html-keyboard-response","374","468175","0.0-1.0-507.0","0","0","23498","","null","","","null","56","NaN","","","","","","","","","","","","","","",""
"","S2","","html-keyboard-response","375","468431","0.0-1.0-508.0","0","0","23498","","null","","","null","56","","NaN","","","","","","","","","","","","","",""
"","response","","html-keyboard-response","376","468646","0.0-1.0-509.0-0.0","0","0","23498","","214","","","68","56","","","2","56","training","adjacent","AB","1","2","N.jpg","L.jpg","1","1","1","",""
"","feedback","","html-keyboard-response","377","469655","0.0-1.0-510.0-0.0","0","0","23498","","null","","","null","56","","","","","","","","","","","","","","","",""
"","ITI","","html-keyboard-response","378","470664","0.0-1.0-513.0","0","0","23498","","null","","","null","56","","","","","","","","","","","","","","","NaN",""
"","S1","","html-keyboard-response","379","470919","0.0-1.0-515.0","0","0","23498","","null","","","null","57","","","","","","","","","","","","","","","",""
"","ISI","","html-keyboard-response","380","471423","0.0-1.0-516.0","0","0","23498","","null","","","null","57","NaN","","","","","","","","","","","","","","",""
"","S2","","html-keyboard-response","381","471679","0.0-1.0-517.0","0","0","23498","","null","","","null","57","","NaN","","","","","","","","","","","","","",""
"","response","","html-keyboard-response","382","471934","0.0-1.0-518.0-0.0","0","0","23498","","254","","","68","57","","","2","57","training","adjacent","BC","2","3","L.jpg","O.jpg","1","1","1","",""
"","feedback","","html-keyboard-response","383","472943","0.0-1.0-519.0-0.0","0","0","23498","","null","","","null","57","","","","","","","","","","","","","","","",""
"","ITI","","html-keyboard-response","384","473951","0.0-1.0-522.0","0","0","23498","","null","","","null","57","","","","","","","","","","","","","","","NaN",""
"","S1","","html-keyboard-response","385","474207","0.0-1.0-524.0","0","0","23498","","null","","","null","58","","","","","","","","","","","","","","","",""
"","ISI","","html-keyboard-response","386","474711","0.0-1.0-525.0","0","0","23498","","null","","","null","58","NaN","","","","","","","","","","","","","","",""
"","S2","","html-keyboard-response","387","474967","0.0-1.0-526.0","0","0","23498","","null","","","null","58","","NaN","","","","","","","","","","","","","",""
"","response","","html-keyboard-response","388","475139","0.0-1.0-527.0-0.0","0","0","23498","","171","","","68","58","","","2","58","training","adjacent","EF","5","6","M.jpg","P.jpg","1","1","1","",""
"","feedback","","html-keyboard-response","389","476143","0.0-1.0-528.0-0.0","0","0","23498","","null","","","null","58","","","","","","","","","","","","","","","",""
"","ITI","","html-keyboard-response","390","477151","0.0-1.0-531.0","0","0","23498","","null","","","null","58","","","","","","","","","","","","","","","NaN",""
"","S1","","html-keyboard-response","391","477407","0.0-1.0-533.0","0","0","23498","","null","","","null","59","","","","","","","","","","","","","","","",""
"","ISI","","html-keyboard-response","392","477911","0.0-1.0-534.0","0","0","23498","","null","","","null","59","NaN","","","","","","","","","","","","","","",""
"","S2","","html-keyboard-response","393","478167","0.0-1.0-535.0","0","0","23498","","null","","","null","59","","NaN","","","","","","","","","","","","","",""
"","response","","html-keyboard-response","394","478246","0.0-1.0-536.0-0.0","0","0","23498","","77","","","75","59","","","2","59","training","adjacent","AB","1","2","N.jpg","L.jpg","0","1","0","",""
"","feedback","","html-keyboard-response","395","479255","0.0-1.0-537.0-0.0","0","0","23498","","null","","","null","59","","","","","","","","","","","","","","","",""
"","time_out","","html-keyboard-response","396","481264","0.0-1.0-539.0-0.0","0","0","23498","","null","","","null","59","","","","","","","","","","","","","","","",""
"","ITI","","html-keyboard-response","397","482272","0.0-1.0-540.0","0","0","23498","","null","","","null","59","","","","","","","","","","","","","","","NaN",""
"","S1","","html-keyboard-response","398","482528","0.0-1.0-542.0","0","0","23498","","null","","","null","60","","","","","","","","","","","","","","","",""
"","ISI","","html-keyboard-response","399","483031","0.0-1.0-543.0","0","0","23498","","459","","","68","60","d","","","","","","","","","","","","","","",""
"","S2","","html-keyboard-response","400","483287","0.0-1.0-544.0","0","0","23498","","null","","","null","60","","NaN","","","","","","","","","","","","","",""
"","response","","html-keyboard-response","401","483398","0.0-1.0-545.0-0.0","0","0","23498","","111","","","68","60","","","2","60","training","adjacent","CD","3","4","O.jpg","Q.jpg","1","1","1","",""
"","feedback","","html-keyboard-response","402","484407","0.0-1.0-546.0-0.0","0","0","23498","","null","","","null","60","","","","","","","","","","","","","","","",""
"","ITI","","html-keyboard-response","403","485415","0.0-1.0-549.0","0","0","23498","","null","","","null","60","","","","","","","","","","","","","","","NaN",""
"","S1","","html-keyboard-response","404","485671","0.0-1.0-551.0","0","0","23498","","null","","","null","61","","","","","","","","","","","","","","","",""
"","ISI","","html-keyboard-response","405","486175","0.0-1.0-552.0","0","0","23498","","null","","","null","61","NaN","","","","","","","","","","","","","","",""
"","S2","","html-keyboard-response","406","486431","0.0-1.0-553.0","0","0","23498","","null","","","null","61","","NaN","","","","","","","","","","","","","",""
"","response","","html-keyboard-response","407","487002","0.0-1.0-554.0-0.0","0","0","23498","","569","","","68","61","","","2","61","training","adjacent","GF","7","6","R.jpg","P.jpg","1","0","0","",""
"","feedback","","html-keyboard-response","408","488007","0.0-1.0-555.0-0.0","0","0","23498","","null","","","null","61","","","","","","","","","","","","","","","",""
"","time_out","","html-keyboard-response","409","490015","0.0-1.0-557.0-0.0","0","0","23498","","null","","","null","61","","","","","","","","","","","","","","","",""
"","ITI","","html-keyboard-response","410","491023","0.0-1.0-558.0","0","0","23498","","null","","","null","61","","","","","","","","","","","","","","","NaN",""
"","S1","","html-keyboard-response","411","491279","0.0-1.0-560.0","0","0","23498","","null","","","null","62","","","","","","","","","","","","","","","",""
"","ISI","","html-keyboard-response","412","491783","0.0-1.0-561.0","0","0","23498","","null","","","null","62","NaN","","","","","","","","","","","","","","",""
"","S2","","html-keyboard-response","413","492040","0.0-1.0-562.0","0","0","23498","","null","","","null","62","","NaN","","","","","","","","","","","","","",""
"","response","","html-keyboard-response","414","492321","0.0-1.0-563.0-0.0","0","0","23498","","280","","","75","62","","","2","62","training","adjacent","ED","5","4","M.jpg","Q.jpg","0","0","1","",""
"","feedback","","html-keyboard-response","415","493328","0.0-1.0-564.0-0.0","0","0","23498","","null","","","null","62","","","","","","","","","","","","","","","",""
"","ITI","","html-keyboard-response","416","494336","0.0-1.0-567.0","0","0","23498","","null","","","null","62","","","","","","","","","","","","","","","NaN",""
"","S1","","html-keyboard-response","417","494592","0.0-1.0-569.0","0","0","23498","","null","","","null","63","","","","","","","","","","","","","","","",""
"","ISI","","html-keyboard-response","418","495096","0.0-1.0-570.0","0","0","23498","","null","","","null","63","NaN","","","","","","","","","","","","","","",""
"","S2","","html-keyboard-response","419","495352","0.0-1.0-571.0","0","0","23498","","null","","","null","63","","NaN","","","","","","","","","","","","","",""
"","response","","html-keyboard-response","420","495878","0.0-1.0-572.0-0.0","0","0","23498","","525","","","68","63","","","2","63","training","adjacent","BA","2","1","L.jpg","N.jpg","1","0","0","",""
"","feedback","","html-keyboard-response","421","496888","0.0-1.0-573.0-0.0","0","0","23498","","null","","","null","63","","","","","","","","","","","","","","","",""
"","time_out","","html-keyboard-response","422","498896","0.0-1.0-575.0-0.0","0","0","23498","","null","","","null","63","","","","","","","","","","","","","","","",""
"","ITI","","html-keyboard-response","423","499911","0.0-1.0-576.0","0","0","23498","","null","","","null","63","","","","","","","","","","","","","","","NaN",""
"","S1","","html-keyboard-response","424","500172","0.0-1.0-578.0","0","0","23498","","null","","","null","64","","","","","","","","","","","","","","","",""
"","ISI","","html-keyboard-response","425","500689","0.0-1.0-579.0","0","0","23498","","null","","","null","64","NaN","","","","","","","","","","","","","","",""
"","S2","","html-keyboard-response","426","500951","0.0-1.0-580.0","0","0","23498","","null","","","null","64","","NaN","","","","","","","","","","","","","",""
"","response","","html-keyboard-response","427","501163","0.0-1.0-581.0-0.0","0","0","23498","","211","","","75","64","","","2","64","training","adjacent","GF","7","6","R.jpg","P.jpg","0","0","1","",""
"","feedback","","html-keyboard-response","428","502168","0.0-1.0-582.0-0.0","0","0","23498","","null","","","null","64","","","","","","","","","","","","","","","",""
"","ITI","","html-keyboard-response","429","503176","0.0-1.0-585.0","0","0","23498","","null","","","null","64","","","","","","","","","","","","","","","NaN",""
"","S1","","html-keyboard-response","430","503432","0.0-1.0-587.0","0","0","23498","","null","","","null","65","","","","","","","","","","","","","","","",""
"","ISI","","html-keyboard-response","431","503936","0.0-1.0-588.0","0","0","23498","","null","","","null","65","NaN","","","","","","","","","","","","","","",""
"","S2","","html-keyboard-response","432","504192","0.0-1.0-589.0","0","0","23498","","null","","","null","65","","NaN","","","","","","","","","","","","","",""
"","response","","html-keyboard-response","433","504774","0.0-1.0-590.0-0.0","0","0","23498","","580","","","75","65","","","2","65","training","adjacent","AB","1","2","N.jpg","L.jpg","0","1","0","",""
"","feedback","","html-keyboard-response","434","505783","0.0-1.0-591.0-0.0","0","0","23498","","null","","","null","65","","","","","","","","","","","","","","","",""
"","time_out","","html-keyboard-response","435","507791","0.0-1.0-593.0-0.0","0","0","23498","","null","","","null","65","","","","","","","","","","","","","","","",""
"","ITI","","html-keyboard-response","436","508799","0.0-1.0-594.0","0","0","23498","","null","","","null","65","","","","","","","","","","","","","","","NaN",""
"","S1","","html-keyboard-response","437","509055","0.0-1.0-596.0","0","0","23498","","null","","","null","66","","","","","","","","","","","","","","","",""
"","ISI","","html-keyboard-response","438","509560","0.0-1.0-597.0","0","0","23498","","null","","","null","66","NaN","","","","","","","","","","","","","","",""
"","S2","","html-keyboard-response","439","509816","0.0-1.0-598.0","0","0","23498","","null","","","null","66","","NaN","","","","","","","","","","","","","",""
"","response","","html-keyboard-response","440","509925","0.0-1.0-599.0-0.0","0","0","23498","","108","","","68","66","","","2","66","training","adjacent","AB","1","2","N.jpg","L.jpg","1","1","1","",""
"","feedback","","html-keyboard-response","441","510927","0.0-1.0-600.0-0.0","0","0","23498","","null","","","null","66","","","","","","","","","","","","","","","",""
"","ITI","","html-keyboard-response","442","511936","0.0-1.0-603.0","0","0","23498","","null","","","null","66","","","","","","","","","","","","","","","NaN",""
"","S1","","html-keyboard-response","443","512192","0.0-1.0-605.0","0","0","23498","","null","","","null","67","","","","","","","","","","","","","","","",""
"","ISI","","html-keyboard-response","444","512696","0.0-1.0-606.0","0","0","23498","","null","","","null","67","NaN","","","","","","","","","","","","","","",""
"","S2","","html-keyboard-response","445","512952","0.0-1.0-607.0","0","0","23498","","null","","","null","67","","NaN","","","","","","","","","","","","","",""
"","response","","html-keyboard-response","446","513203","0.0-1.0-608.0-0.0","0","0","23498","","250","","","68","67","","","2","67","training","adjacent","BA","2","1","L.jpg","N.jpg","1","0","0","",""
"","feedback","","html-keyboard-response","447","514208","0.0-1.0-609.0-0.0","0","0","23498","","null","","","null","67","","","","","","","","","","","","","","","",""
"","time_out","","html-keyboard-response","448","516216","0.0-1.0-611.0-0.0","0","0","23498","","null","","","null","67","","","","","","","","","","","","","","","",""
"","ITI","","html-keyboard-response","449","517224","0.0-1.0-612.0","0","0","23498","","null","","","null","67","","","","","","","","","","","","","","","NaN",""
"","S1","","html-keyboard-response","450","517480","0.0-1.0-614.0","0","0","23498","","null","","","null","68","","","","","","","","","","","","","","","",""
"","ISI","","html-keyboard-response","451","517984","0.0-1.0-615.0","0","0","23498","","null","","","null","68","NaN","","","","","","","","","","","","","","",""
"","S2","","html-keyboard-response","452","518240","0.0-1.0-616.0","0","0","23498","","null","","","null","68","","NaN","","","","","","","","","","","","","",""
"","response","","html-keyboard-response","453","518684","0.0-1.0-617.0-0.0","0","0","23498","","443","","","68","68","","","2","68","training","adjacent","CB","3","2","O.jpg","L.jpg","1","0","0","",""
"","feedback","","html-keyboard-response","454","519688","0.0-1.0-618.0-0.0","0","0","23498","","null","","","null","68","","","","","","","","","","","","","","","",""
"","time_out","","html-keyboard-response","455","521696","0.0-1.0-620.0-0.0","0","0","23498","","null","","","null","68","","","","","","","","","","","","","","","",""
"","ITI","","html-keyboard-response","456","522704","0.0-1.0-621.0","0","0","23498","","null","","","null","68","","","","","","","","","","","","","","","NaN",""
"","S1","","html-keyboard-response","457","522960","0.0-1.0-623.0","0","0","23498","","null","","","null","69","","","","","","","","","","","","","","","",""
"","ISI","","html-keyboard-response","458","523464","0.0-1.0-624.0","0","0","23498","","null","","","null","69","NaN","","","","","","","","","","","","","","",""
"","S2","","html-keyboard-response","459","523720","0.0-1.0-625.0","0","0","23498","","null","","","null","69","","NaN","","","","","","","","","","","","","",""
"","response","","html-keyboard-response","460","523993","0.0-1.0-626.0-0.0","0","0","23498","","272","","","68","69","","","2","69","training","adjacent","CB","3","2","O.jpg","L.jpg","1","0","0","",""
"","feedback","","html-keyboard-response","461","525000","0.0-1.0-627.0-0.0","0","0","23498","","null","","","null","69","","","","","","","","","","","","","","","",""
"","time_out","","html-keyboard-response","462","527007","0.0-1.0-629.0-0.0","0","0","23498","","null","","","null","69","","","","","","","","","","","","","","","",""
"","ITI","","html-keyboard-response","463","528015","0.0-1.0-630.0","0","0","23498","","null","","","null","69","","","","","","","","","","","","","","","NaN",""
"","S1","","html-keyboard-response","464","528271","0.0-1.0-632.0","0","0","23498","","null","","","null","70","","","","","","","","","","","","","","","",""
"","ISI","","html-keyboard-response","465","528776","0.0-1.0-633.0","0","0","23498","","null","","","null","70","NaN","","","","","","","","","","","","","","",""
"","S2","","html-keyboard-response","466","529031","0.0-1.0-634.0","0","0","23498","","null","","","null","70","","NaN","","","","","","","","","","","","","",""
"","response","","html-keyboard-response","467","529480","0.0-1.0-635.0-0.0","0","0","23498","","448","","","75","70","","","2","70","training","adjacent","BC","2","3","L.jpg","O.jpg","0","1","0","",""
"","feedback","","html-keyboard-response","468","530487","0.0-1.0-636.0-0.0","0","0","23498","","null","","","null","70","","","","","","","","","","","","","","","",""
"","time_out","","html-keyboard-response","469","532496","0.0-1.0-638.0-0.0","0","0","23498","","null","","","null","70","","","","","","","","","","","","","","","",""
"","ITI","","html-keyboard-response","470","533503","0.0-1.0-639.0","0","0","23498","","null","","","null","70","","","","","","","","","","","","","","","NaN",""
"","S1","","html-keyboard-response","471","533760","0.0-1.0-641.0","0","0","23498","","null","","","null","71","","","","","","","","","","","","","","","",""
"","ISI","","html-keyboard-response","472","534263","0.0-1.0-642.0","0","0","23498","","null","","","null","71","NaN","","","","","","","","","","","","","","",""
"","S2","","html-keyboard-response","473","534520","0.0-1.0-643.0","0","0","23498","","null","","","null","71","","NaN","","","","","","","","","","","","","",""
"","response","","html-keyboard-response","474","534950","0.0-1.0-644.0-0.0","0","0","23498","","429","","","68","71","","","2","71","training","adjacent","DC","4","3","Q.jpg","O.jpg","1","0","0","",""
"","feedback","","html-keyboard-response","475","535952","0.0-1.0-645.0-0.0","0","0","23498","","null","","","null","71","","","","","","","","","","","","","","","",""
"","time_out","","html-keyboard-response","476","537960","0.0-1.0-647.0-0.0","0","0","23498","","null","","","null","71","","","","","","","","","","","","","","","",""
"","ITI","","html-keyboard-response","477","538968","0.0-1.0-648.0","0","0","23498","","null","","","null","71","","","","","","","","","","","","","","","NaN",""
"","S1","","html-keyboard-response","478","539224","0.0-1.0-650.0","0","0","23498","","null","","","null","72","","","","","","","","","","","","","","","",""
"","ISI","","html-keyboard-response","479","539728","0.0-1.0-651.0","0","0","23498","","null","","","null","72","NaN","","","","","","","","","","","","","","",""
"","S2","","html-keyboard-response","480","539984","0.0-1.0-652.0","0","0","23498","","null","","","null","72","","NaN","","","","","","","","","","","","","",""
"","response","","html-keyboard-response","481","540155","0.0-1.0-653.0-0.0","0","0","23498","","170","","","75","72","","","2","72","training","adjacent","FE","6","5","P.jpg","M.jpg","0","0","1","",""
"","feedback","","html-keyboard-response","482","541160","0.0-1.0-654.0-0.0","0","0","23498","","null","","","null","72","","","","","","","","","","","","","","","",""
"","ITI","","html-keyboard-response","483","542168","0.0-1.0-657.0","0","0","23498","","null","","","null","72","","","","","","","","","","","","","","","NaN",""
"","S1","","html-keyboard-response","484","542424","0.0-1.0-659.0","0","0","23498","","null","","","null","73","","","","","","","","","","","","","","","",""
"","ISI","","html-keyboard-response","485","542928","0.0-1.0-660.0","0","0","23498","","null","","","null","73","NaN","","","","","","","","","","","","","","",""
"","S2","","html-keyboard-response","486","543184","0.0-1.0-661.0","0","0","23498","","null","","","null","73","","NaN","","","","","","","","","","","","","",""
"","response","","html-keyboard-response","487","543684","0.0-1.0-662.0-0.0","0","0","23498","","498","","","75","73","","","2","73","training","adjacent","FE","6","5","P.jpg","M.jpg","0","0","1","",""
"","feedback","","html-keyboard-response","488","544688","0.0-1.0-663.0-0.0","0","0","23498","","null","","","null","73","","","","","","","","","","","","","","","",""
"","ITI","","html-keyboard-response","489","545696","0.0-1.0-666.0","0","0","23498","","null","","","null","73","","","","","","","","","","","","","","","NaN",""
"","S1","","html-keyboard-response","490","545952","0.0-1.0-668.0","0","0","23498","","null","","","null","74","","","","","","","","","","","","","","","",""
"","ISI","","html-keyboard-response","491","546464","0.0-1.0-669.0","0","0","23498","","null","","","null","74","NaN","","","","","","","","","","","","","","",""
"","S2","","html-keyboard-response","492","546731","0.0-1.0-670.0","0","0","23498","","null","","","null","74","","NaN","","","","","","","","","","","","","",""
"","response","","html-keyboard-response","493","546739","0.0-1.0-671.0-0.0","0","0","23498","","6","","","75","74","","","2","74","training","adjacent","FE","6","5","P.jpg","M.jpg","0","0","1","",""
"","feedback","","html-keyboard-response","494","547774","0.0-1.0-672.0-0.0","0","0","23498","","null","","","null","74","","","","","","","","","","","","","","","",""
"","ITI","","html-keyboard-response","495","548784","0.0-1.0-675.0","0","0","23498","","null","","","null","74","","","","","","","","","","","","","","","NaN",""
"","S1","","html-keyboard-response","496","549039","0.0-1.0-677.0","0","0","23498","","null","","","null","75","","","","","","","","","","","","","","","",""
"","ISI","","html-keyboard-response","497","549543","0.0-1.0-678.0","0","0","23498","","null","","","null","75","NaN","","","","","","","","","","","","","","",""
"","S2","","html-keyboard-response","498","549799","0.0-1.0-679.0","0","0","23498","","null","","","null","75","","NaN","","","","","","","","","","","","","",""
"","response","","html-keyboard-response","499","549847","0.0-1.0-680.0-0.0","0","0","23498","","46","","","68","75","","","2","75","training","adjacent","CB","3","2","O.jpg","L.jpg","1","0","0","",""
"","feedback","","html-keyboard-response","500","550856","0.0-1.0-681.0-0.0","0","0","23498","","null","","","null","75","","","","","","","","","","","","","","","",""
"","time_out","","html-keyboard-response","501","552863","0.0-1.0-683.0-0.0","0","0","23498","","null","","","null","75","","","","","","","","","","","","","","","",""
"","ITI","","html-keyboard-response","502","553871","0.0-1.0-684.0","0","0","23498","","null","","","null","75","","","","","","","","","","","","","","","NaN",""
"","S1","","html-keyboard-response","503","554127","0.0-1.0-686.0","0","0","23498","","null","","","null","76","","","","","","","","","","","","","","","",""
"","ISI","","html-keyboard-response","504","554632","0.0-1.0-687.0","0","0","23498","","448","","","75","76","k","","","","","","","","","","","","","","",""
"","S2","","html-keyboard-response","505","554887","0.0-1.0-688.0","0","0","23498","","null","","","null","76","","NaN","","","","","","","","","","","","","",""
"","response","","html-keyboard-response","506","554992","0.0-1.0-689.0-0.0","0","0","23498","","103","","","75","76","","","2","76","training","adjacent","DE","4","5","Q.jpg","M.jpg","0","1","0","",""
"","feedback","","html-keyboard-response","507","556000","0.0-1.0-690.0-0.0","0","0","23498","","null","","","null","76","","","","","","","","","","","","","","","",""
"","time_out","","html-keyboard-response","508","558008","0.0-1.0-692.0-0.0","0","0","23498","","null","","","null","76","","","","","","","","","","","","","","","",""
"","ITI","","html-keyboard-response","509","559016","0.0-1.0-693.0","0","0","23498","","null","","","null","76","","","","","","","","","","","","","","","NaN",""
"","S1","","html-keyboard-response","510","559272","0.0-1.0-695.0","0","0","23498","","null","","","null","77","","","","","","","","","","","","","","","",""
"","ISI","","html-keyboard-response","511","559776","0.0-1.0-696.0","0","0","23498","","null","","","null","77","NaN","","","","","","","","","","","","","","",""
"","S2","","html-keyboard-response","512","560032","0.0-1.0-697.0","0","0","23498","","null","","","null","77","","NaN","","","","","","","","","","","","","",""
"","response","","html-keyboard-response","513","560612","0.0-1.0-698.0-0.0","0","0","23498","","579","","","68","77","","","2","77","training","adjacent","DC","4","3","Q.jpg","O.jpg","1","0","0","",""
"","feedback","","html-keyboard-response","514","561616","0.0-1.0-699.0-0.0","0","0","23498","","null","","","null","77","","","","","","","","","","","","","","","",""
"","time_out","","html-keyboard-response","515","563624","0.0-1.0-701.0-0.0","0","0","23498","","null","","","null","77","","","","","","","","","","","","","","","",""
"","ITI","","html-keyboard-response","516","564632","0.0-1.0-702.0","0","0","23498","","null","","","null","77","","","","","","","","","","","","","","","NaN",""
"","S1","","html-keyboard-response","517","564888","0.0-1.0-704.0","0","0","23498","","null","","","null","78","","","","","","","","","","","","","","","",""
"","ISI","","html-keyboard-response","518","565392","0.0-1.0-705.0","0","0","23498","","null","","","null","78","NaN","","","","","","","","","","","","","","",""
"","S2","","html-keyboard-response","519","565648","0.0-1.0-706.0","0","0","23498","","null","","","null","78","","NaN","","","","","","","","","","","","","",""
"","response","","html-keyboard-response","520","566003","0.0-1.0-707.0-0.0","0","0","23498","","354","","","75","78","","","2","78","training","adjacent","DE","4","5","Q.jpg","M.jpg","0","1","0","",""
"","feedback","","html-keyboard-response","521","567008","0.0-1.0-708.0-0.0","0","0","23498","","null","","","null","78","","","","","","","","","","","","","","","",""
"","time_out","","html-keyboard-response","522","569016","0.0-1.0-710.0-0.0","0","0","23498","","null","","","null","78","","","","","","","","","","","","","","","",""
"","ITI","","html-keyboard-response","523","570024","0.0-1.0-711.0","0","0","23498","","null","","","null","78","","","","","","","","","","","","","","","NaN",""
"","S1","","html-keyboard-response","524","570280","0.0-1.0-713.0","0","0","23498","","null","","","null","79","","","","","","","","","","","","","","","",""
"","ISI","","html-keyboard-response","525","570783","0.0-1.0-714.0","0","0","23498","","null","","","null","79","NaN","","","","","","","","","","","","","","",""
"","S2","","html-keyboard-response","526","570954","0.0-1.0-715.0","0","0","23498","","169","","","75","79","","k","2","79","training","adjacent","EF","5","6","M.jpg","P.jpg","0","1","0","",""
"","feedback","","html-keyboard-response","527","571959","0.0-1.0-717.0-0.0","0","0","23498","","null","","","null","79","","","","","","","","","","","","","","","",""
"","time_out","","html-keyboard-response","528","573967","0.0-1.0-719.0-0.0","0","0","23498","","null","","","null","79","","","","","","","","","","","","","","","",""
"","ITI","","html-keyboard-response","529","574975","0.0-1.0-720.0","0","0","23498","","null","","","null","79","","","","","","","","","","","","","","","NaN",""
"","S1","","html-keyboard-response","530","575232","0.0-1.0-722.0","0","0","23498","","null","","","null","80","","","","","","","","","","","","","","","",""
"","ISI","","html-keyboard-response","531","575735","0.0-1.0-723.0","0","0","23498","","474","","","75","80","k","","","","","","","","","","","","","","",""
"","S2","","html-keyboard-response","532","575991","0.0-1.0-724.0","0","0","23498","","null","","","null","80","","NaN","","","","","","","","","","","","","",""
"","response","","html-keyboard-response","533","576120","0.0-1.0-725.0-0.0","0","0","23498","","127","","","75","80","","","2","80","training","adjacent","GF","7","6","R.jpg","P.jpg","0","0","1","",""
"","feedback","","html-keyboard-response","534","577128","0.0-1.0-726.0-0.0","0","0","23498","","null","","","null","80","","","","","","","","","","","","","","","",""
"","ITI","","html-keyboard-response","535","578136","0.0-1.0-729.0","0","0","23498","","null","","","null","80","","","","","","","","","","","","","","","NaN",""
"","S1","","html-keyboard-response","536","578391","0.0-1.0-731.0","0","0","23498","","null","","","null","81","","","","","","","","","","","","","","","",""
"","ISI","","html-keyboard-response","537","578896","0.0-1.0-732.0","0","0","23498","","null","","","null","81","NaN","","","","","","","","","","","","","","",""
"","S2","","html-keyboard-response","538","579152","0.0-1.0-733.0","0","0","23498","","null","","","null","81","","NaN","","","","","","","","","","","","","",""
"","response","","html-keyboard-response","539","579574","0.0-1.0-734.0-0.0","0","0","23498","","421","","","75","81","","","2","81","training","adjacent","FG","6","7","P.jpg","R.jpg","0","1","0","",""
"","feedback","","html-keyboard-response","540","580584","0.0-1.0-735.0-0.0","0","0","23498","","null","","","null","81","","","","","","","","","","","","","","","",""
"","time_out","","html-keyboard-response","541","582592","0.0-1.0-737.0-0.0","0","0","23498","","null","","","null","81","","","","","","","","","","","","","","","",""
"","ITI","","html-keyboard-response","542","583600","0.0-1.0-738.0","0","0","23498","","null","","","null","81","","","","","","","","","","","","","","","NaN",""
"","S1","","html-keyboard-response","543","583856","0.0-1.0-740.0","0","0","23498","","null","","","null","82","","","","","","","","","","","","","","","",""
"","ISI","","html-keyboard-response","544","584360","0.0-1.0-741.0","0","0","23498","","null","","","null","82","NaN","","","","","","","","","","","","","","",""
"","S2","","html-keyboard-response","545","584605","0.0-1.0-742.0","0","0","23498","","244","","","75","82","","k","2","82","training","adjacent","DE","4","5","Q.jpg","M.jpg","0","1","0","",""
"","feedback","","html-keyboard-response","546","585608","0.0-1.0-744.0-0.0","0","0","23498","","null","","","null","82","","","","","","","","","","","","","","","",""
"","time_out","","html-keyboard-response","547","587616","0.0-1.0-746.0-0.0","0","0","23498","","null","","","null","82","","","","","","","","","","","","","","","",""
"","ITI","","html-keyboard-response","548","588624","0.0-1.0-747.0","0","0","23498","","null","","","null","82","","","","","","","","","","","","","","","NaN",""
"","S1","","html-keyboard-response","549","588880","0.0-1.0-749.0","0","0","23498","","null","","","null","83","","","","","","","","","","","","","","","",""
"","ISI","","html-keyboard-response","550","589384","0.0-1.0-750.0","0","0","23498","","null","","","null","83","NaN","","","","","","","","","","","","","","",""
"","S2","","html-keyboard-response","551","589640","0.0-1.0-751.0","0","0","23498","","null","","","null","83","","NaN","","","","","","","","","","","","","",""
"","response","","html-keyboard-response","552","589948","0.0-1.0-752.0-0.0","0","0","23498","","307","","","68","83","","","2","83","training","adjacent","BC","2","3","L.jpg","O.jpg","1","1","1","",""
"","feedback","","html-keyboard-response","553","590952","0.0-1.0-753.0-0.0","0","0","23498","","null","","","null","83","","","","","","","","","","","","","","","",""
"","ITI","","html-keyboard-response","554","591960","0.0-1.0-756.0","0","0","23498","","null","","","null","83","","","","","","","","","","","","","","","NaN",""
"","S1","","html-keyboard-response","555","592216","0.0-1.0-758.0","0","0","23498","","null","","","null","84","","","","","","","","","","","","","","","",""
"","ISI","","html-keyboard-response","556","592720","0.0-1.0-759.0","0","0","23498","","null","","","null","84","NaN","","","","","","","","","","","","","","",""
"","S2","","html-keyboard-response","557","592975","0.0-1.0-760.0","0","0","23498","","null","","","null","84","","NaN","","","","","","","","","","","","","",""
"","response","","html-keyboard-response","558","593170","0.0-1.0-761.0-0.0","0","0","23498","","193","","","68","84","","","2","84","training","adjacent","DC","4","3","Q.jpg","O.jpg","1","0","0","",""
"","feedback","","html-keyboard-response","559","594216","0.0-1.0-762.0-0.0","0","0","23498","","null","","","null","84","","","","","","","","","","","","","","","",""
"","time_out","","html-keyboard-response","560","596223","0.0-1.0-764.0-0.0","0","0","23498","","null","","","null","84","","","","","","","","","","","","","","","",""
"","ITI","","html-keyboard-response","561","597231","0.0-1.0-765.0","0","0","23498","","null","","","null","84","","","","","","","","","","","","","","","NaN",""
"","S1","","html-keyboard-response","562","597487","0.0-1.0-767.0","0","0","23498","","null","","","null","85","","","","","","","","","","","","","","","",""
"","ISI","","html-keyboard-response","563","597991","0.0-1.0-768.0","0","0","23498","","null","","","null","85","NaN","","","","","","","","","","","","","","",""
"","S2","","html-keyboard-response","564","598248","0.0-1.0-769.0","0","0","23498","","null","","","null","85","","NaN","","","","","","","","","","","","","",""
"","response","","html-keyboard-response","565","598421","0.0-1.0-770.0-0.0","0","0","23498","","172","","","75","85","","","2","85","training","adjacent","CD","3","4","O.jpg","Q.jpg","0","1","0","",""
"","feedback","","html-keyboard-response","566","599423","0.0-1.0-771.0-0.0","0","0","23498","","null","","","null","85","","","","","","","","","","","","","","","",""
"","time_out","","html-keyboard-response","567","601432","0.0-1.0-773.0-0.0","0","0","23498","","null","","","null","85","","","","","","","","","","","","","","","",""
"","ITI","","html-keyboard-response","568","602440","0.0-1.0-774.0","0","0","23498","","null","","","null","85","","","","","","","","","","","","","","","NaN",""
"","S1","","html-keyboard-response","569","602696","0.0-1.0-776.0","0","0","23498","","null","","","null","86","","","","","","","","","","","","","","","",""
"","ISI","","html-keyboard-response","570","603200","0.0-1.0-777.0","0","0","23498","","null","","","null","86","NaN","","","","","","","","","","","","","","",""
"","S2","","html-keyboard-response","571","603456","0.0-1.0-778.0","0","0","23498","","null","","","null","86","","NaN","","","","","","","","","","","","","",""
"","response","","html-keyboard-response","572","603724","0.0-1.0-779.0-0.0","0","0","23498","","267","","","75","86","","","2","86","training","adjacent","BA","2","1","L.jpg","N.jpg","0","0","1","",""
"","feedback","","html-keyboard-response","573","604728","0.0-1.0-780.0-0.0","0","0","23498","","null","","","null","86","","","","","","","","","","","","","","","",""
"","ITI","","html-keyboard-response","574","605736","0.0-1.0-783.0","0","0","23498","","null","","","null","86","","","","","","","","","","","","","","","NaN",""
"","S1","","html-keyboard-response","575","605992","0.0-1.0-785.0","0","0","23498","","null","","","null","87","","","","","","","","","","","","","","","",""
"","ISI","","html-keyboard-response","576","606496","0.0-1.0-786.0","0","0","23498","","null","","","null","87","NaN","","","","","","","","","","","","","","",""
"","S2","","html-keyboard-response","577","606752","0.0-1.0-787.0","0","0","23498","","null","","","null","87","","NaN","","","","","","","","","","","","","",""
"","response","","html-keyboard-response","578","607047","0.0-1.0-788.0-0.0","0","0","23498","","294","","","75","87","","","2","87","training","adjacent","ED","5","4","M.jpg","Q.jpg","0","0","1","",""
"","feedback","","html-keyboard-response","579","608056","0.0-1.0-789.0-0.0","0","0","23498","","null","","","null","87","","","","","","","","","","","","","","","",""
"","ITI","","html-keyboard-response","580","609064","0.0-1.0-792.0","0","0","23498","","null","","","null","87","","","","","","","","","","","","","","","NaN",""
"","S1","","html-keyboard-response","581","609320","0.0-1.0-794.0","0","0","23498","","null","","","null","88","","","","","","","","","","","","","","","",""
