"success","ttype","start_time","trial_type","trial_index","time_elapsed","internal_node_id","warning","missed_checkup","PID","view_history","rt","responses","repeat_instructions","key_press","index","keypress_isi","keypress_S2","block","trial_num","phase","group_type","pair_type","S1_stim","S2_stim","S1_img","S2_img","S1_chosen","S1_higher","accuracy","keypress_iti","total_bonus_tally"
"true","full_screen","d03082023hr2104","fullscreen","0","2306","0.0-0.0","0","0","30678","","","","","","","","","","","","","","","","","","","","","",""
"","instructions","","instructions","1","26946","0.0-1.0-0.0-0.0","0","0","30678","[{""page_index"":0,""viewing_time"":2038},{""page_index"":1,""viewing_time"":15647},{""page_index"":2,""viewing_time"":4977},{""page_index"":3,""viewing_time"":1975}]","24638","","","","","","","","","","","","","","","","","","","",""
"","comprehension_check","","survey-multi-choice","2","51484","0.0-1.0-0.0-1.0","0","0","30678","","24532","{""Q0"":""True"",""Q1"":""D"",""Q2"":""Once the second image appears and while the screen 'MAKE A CHOICE' is shown"",""Q3"":""Green mark"",""Q4"":""either D or K""}","0","","","","","","","","","","","","","","","","","",""
"","start_exp","","html-keyboard-response","3","53722","0.0-1.0-1.0","0","0","30678","","2235","","","32","","","","","","","","","","","","","","","","",""
"","S1","","html-keyboard-response","4","53975","0.0-1.0-2.0","0","0","30678","","null","","","null","0","","","","","","","","","","","","","","","",""
"","ISI","","html-keyboard-response","5","54127","0.0-1.0-3.0","0","0","30678","","null","","","null","0","NaN","","","","","","","","","","","","","","",""
"","S2","","html-keyboard-response","6","54380","0.0-1.0-4.0","0","0","30678","","null","","","null","0","","NaN","","","","","","","","","","","","","",""
"","response","","html-keyboard-response","7","56134","0.0-1.0-5.0-0.0","0","0","30678","","null","","","null","0","","","1","0","training","adjacent","FE","6","5","O.jpg","M.jpg","NaN","0","0","",""
"","too_slow_prompt","","html-keyboard-response","8","57137","0.0-1.0-7.0-0.0","1","0","30678","","null","","","null","","","","","","","","","","","","","","","","",""
"","time_out","","html-keyboard-response","9","59140","0.0-1.0-8.0-0.0","0","0","30678","","null","","","null","0","","","","","","","","","","","","","","","",""
"","ITI","","html-keyboard-response","10","60143","0.0-1.0-9.0","0","0","30678","","null","","","null","0","","","","","","","","","","","","","","","NaN",""
"","S1","","html-keyboard-response","11","60396","0.0-1.0-11.0","0","0","30678","","null","","","null","1","","","","","","","","","","","","","","","",""
"","ISI","","html-keyboard-response","12","60549","0.0-1.0-12.0","0","0","30678","","null","","","null","1","NaN","","","","","","","","","","","","","","",""
"","S2","","html-keyboard-response","13","60652","0.0-1.0-13.0","0","0","30678","","101","","","68","1","","d","1","1","training","adjacent","BA","2","1","P.jpg","N.jpg","1","0","0","",""
"","feedback","","html-keyboard-response","14","61656","0.0-1.0-15.0-0.0","0","0","30678","","null","","","null","1","","","","","","","","","","","","","","","",""
"","time_out","","html-keyboard-response","15","63659","0.0-1.0-17.0-0.0","0","0","30678","","null","","","null","1","","","","","","","","","","","","","","","",""
"","ITI","","html-keyboard-response","16","64662","0.0-1.0-18.0","0","0","30678","","428","","","32","1","","","","","","","","","","","","","","","space",""
"","S1","","html-keyboard-response","17","64916","0.0-1.0-20.0","0","0","30678","","null","","","null","2","","","","","","","","","","","","","","","",""
"","ISI","","html-keyboard-response","18","65069","0.0-1.0-21.0","0","0","30678","","null","","","null","2","NaN","","","","","","","","","","","","","","",""
"","S2","","html-keyboard-response","19","65161","0.0-1.0-22.0","0","0","30678","","91","","","75","2","","k","1","2","training","adjacent","GF","7","6","L.jpg","O.jpg","0","0","1","",""
"","feedback","","html-keyboard-response","20","66163","0.0-1.0-24.0-0.0","0","0","30678","","null","","","null","2","","","","","","","","","","","","","","","",""
"","ITI","","html-keyboard-response","21","67166","0.0-1.0-27.0","0","0","30678","","null","","","null","2","","","","","","","","","","","","","","","NaN",""
"","S1","","html-keyboard-response","22","67418","0.0-1.0-29.0","0","0","30678","","null","","","null","3","","","","","","","","","","","","","","","",""
"","ISI","","html-keyboard-response","23","67571","0.0-1.0-30.0","0","0","30678","","null","","","null","3","NaN","","","","","","","","","","","","","","",""
"","S2","","html-keyboard-response","24","67824","0.0-1.0-31.0","0","0","30678","","null","","","null","3","","NaN","","","","","","","","","","","","","",""
"","response","","html-keyboard-response","25","67977","0.0-1.0-32.0-0.0","0","0","30678","","151","","","75","3","","","1","3","training","adjacent","DC","4","3","R.jpg","Q.jpg","0","0","1","",""
"","feedback","","html-keyboard-response","26","68979","0.0-1.0-33.0-0.0","0","0","30678","","null","","","null","3","","","","","","","","","","","","","","","",""
"","ITI","","html-keyboard-response","27","69983","0.0-1.0-36.0","0","0","30678","","null","","","null","3","","","","","","","","","","","","","","","NaN",""
"","S1","","html-keyboard-response","28","70236","0.0-1.0-38.0","0","0","30678","","null","","","null","4","","","","","","","","","","","","","","","",""
"","ISI","","html-keyboard-response","29","70389","0.0-1.0-39.0","0","0","30678","","null","","","null","4","NaN","","","","","","","","","","","","","","",""
"","S2","","html-keyboard-response","30","70425","0.0-1.0-40.0","0","0","30678","","35","","","75","4","","k","1","4","training","adjacent","BA","2","1","P.jpg","N.jpg","0","0","1","",""
"","feedback","","html-keyboard-response","31","71428","0.0-1.0-42.0-0.0","0","0","30678","","null","","","null","4","","","","","","","","","","","","","","","",""
"","ITI","","html-keyboard-response","32","72431","0.0-1.0-45.0","0","0","30678","","null","","","null","4","","","","","","","","","","","","","","","NaN",""
"","S1","","html-keyboard-response","33","72684","0.0-1.0-47.0","0","0","30678","","null","","","null","5","","","","","","","","","","","","","","","",""
"","ISI","","html-keyboard-response","34","72837","0.0-1.0-48.0","0","0","30678","","null","","","null","5","NaN","","","","","","","","","","","","","","",""
"","S2","","html-keyboard-response","35","73023","0.0-1.0-49.0","0","0","30678","","184","","","75","5","","k","1","5","training","adjacent","DC","4","3","R.jpg","Q.jpg","0","0","1","",""
"","feedback","","html-keyboard-response","36","74025","0.0-1.0-51.0-0.0","0","0","30678","","null","","","null","5","","","","","","","","","","","","","","","",""
"","ITI","","html-keyboard-response","37","75029","0.0-1.0-54.0","0","0","30678","","null","","","null","5","","","","","","","","","","","","","","","NaN",""
"","S1","","html-keyboard-response","38","75281","0.0-1.0-56.0","0","0","30678","","null","","","null","6","","","","","","","","","","","","","","","",""
"","ISI","","html-keyboard-response","39","75434","0.0-1.0-57.0","0","0","30678","","null","","","null","6","NaN","","","","","","","","","","","","","","",""
"","S2","","html-keyboard-response","40","75473","0.0-1.0-58.0","0","0","30678","","38","","","75","6","","k","1","6","training","adjacent","ED","5","4","M.jpg","R.jpg","0","0","1","",""
"","feedback","","html-keyboard-response","41","76476","0.0-1.0-60.0-0.0","0","0","30678","","null","","","null","6","","","","","","","","","","","","","","","",""
"","ITI","","html-keyboard-response","42","77479","0.0-1.0-63.0","0","0","30678","","null","","","null","6","","","","","","","","","","","","","","","NaN",""
"","S1","","html-keyboard-response","43","77733","0.0-1.0-65.0","0","0","30678","","null","","","null","7","","","","","","","","","","","","","","","",""
"","ISI","","html-keyboard-response","44","77887","0.0-1.0-66.0","0","0","30678","","null","","","null","7","NaN","","","","","","","","","","","","","","",""
"","S2","","html-keyboard-response","45","78050","0.0-1.0-67.0","0","0","30678","","161","","","68","7","","d","1","7","training","adjacent","AB","1","2","N.jpg","P.jpg","1","1","1","",""
"","feedback","","html-keyboard-response","46","79054","0.0-1.0-69.0-0.0","0","0","30678","","null","","","null","7","","","","","","","","","","","","","","","",""
"","ITI","","html-keyboard-response","47","80056","0.0-1.0-72.0","0","0","30678","","null","","","null","7","","","","","","","","","","","","","","","NaN",""
"","S1","","html-keyboard-response","48","80309","0.0-1.0-74.0","0","0","30678","","null","","","null","8","","","","","","","","","","","","","","","",""
"","ISI","","html-keyboard-response","49","80463","0.0-1.0-75.0","0","0","30678","","null","","","null","8","NaN","","","","","","","","","","","","","","",""
"","S2","","html-keyboard-response","50","80641","0.0-1.0-76.0","0","0","30678","","176","","","75","8","","k","1","8","training","adjacent","EF","5","6","M.jpg","O.jpg","0","1","0","",""
"","feedback","","html-keyboard-response","51","81645","0.0-1.0-78.0-0.0","0","0","30678","","null","","","null","8","","","","","","","","","","","","","","","",""
"","time_out","","html-keyboard-response","52","83648","0.0-1.0-80.0-0.0","0","0","30678","","null","","","null","8","","","","","","","","","","","","","","","",""
"","ITI","","html-keyboard-response","53","84651","0.0-1.0-81.0","0","0","30678","","539","","","32","8","","","","","","","","","","","","","","","space",""
"","S1","","html-keyboard-response","54","84904","0.0-1.0-83.0","0","0","30678","","null","","","null","9","","","","","","","","","","","","","","","",""
"","ISI","","html-keyboard-response","55","85056","0.0-1.0-84.0","0","0","30678","","104","","","68","9","d","","","","","","","","","","","","","","",""
"","S2","","html-keyboard-response","56","85309","0.0-1.0-85.0","0","0","30678","","null","","","null","9","","NaN","","","","","","","","","","","","","",""
"","response","","html-keyboard-response","57","85937","0.0-1.0-86.0-0.0","0","0","30678","","627","","","68","9","","","1","9","training","adjacent","EF","5","6","M.jpg","O.jpg","1","1","1","",""
"","feedback","","html-keyboard-response","58","86940","0.0-1.0-87.0-0.0","0","0","30678","","null","","","null","9","","","","","","","","","","","","","","","",""
"","ITI","","html-keyboard-response","59","87943","0.0-1.0-90.0","0","0","30678","","null","","","null","9","","","","","","","","","","","","","","","NaN",""
"","S1","","html-keyboard-response","60","88197","0.0-1.0-92.0","0","0","30678","","null","","","null","10","","","","","","","","","","","","","","","",""
"","ISI","","html-keyboard-response","61","88350","0.0-1.0-93.0","0","0","30678","","null","","","null","10","NaN","","","","","","","","","","","","","","",""
"","S2","","html-keyboard-response","62","88450","0.0-1.0-94.0","0","0","30678","","97","","","68","10","","d","1","10","training","adjacent","AB","1","2","N.jpg","P.jpg","1","1","1","",""
"","feedback","","html-keyboard-response","63","89453","0.0-1.0-96.0-0.0","0","0","30678","","null","","","null","10","","","","","","","","","","","","","","","",""
"","ITI","","html-keyboard-response","64","90455","0.0-1.0-99.0","0","0","30678","","null","","","null","10","","","","","","","","","","","","","","","NaN",""
"","S1","","html-keyboard-response","65","90708","0.0-1.0-101.0","0","0","30678","","null","","","null","11","","","","","","","","","","","","","","","",""
"","ISI","","html-keyboard-response","66","90861","0.0-1.0-102.0","0","0","30678","","null","","","null","11","NaN","","","","","","","","","","","","","","",""
"","S2","","html-keyboard-response","67","90899","0.0-1.0-103.0","0","0","30678","","36","","","68","11","","d","1","11","training","adjacent","GF","7","6","L.jpg","O.jpg","1","0","0","",""
"","feedback","","html-keyboard-response","68","91901","0.0-1.0-105.0-0.0","0","0","30678","","null","","","null","11","","","","","","","","","","","","","","","",""
"","time_out","","html-keyboard-response","69","93904","0.0-1.0-107.0-0.0","0","0","30678","","null","","","null","11","","","","","","","","","","","","","","","",""
"","ITI","","html-keyboard-response","70","94906","0.0-1.0-108.0","0","0","30678","","null","","","null","11","","","","","","","","","","","","","","","NaN",""
"","S1","","html-keyboard-response","71","95160","0.0-1.0-110.0","0","0","30678","","null","","","null","12","","","","","","","","","","","","","","","",""
"","ISI","","html-keyboard-response","72","95313","0.0-1.0-111.0","0","0","30678","","null","","","null","12","NaN","","","","","","","","","","","","","","",""
"","S2","","html-keyboard-response","73","95333","0.0-1.0-112.0","0","0","30678","","18","","","75","12","","k","1","12","training","adjacent","ED","5","4","M.jpg","R.jpg","0","0","1","",""
"","feedback","","html-keyboard-response","74","96335","0.0-1.0-114.0-0.0","0","0","30678","","null","","","null","12","","","","","","","","","","","","","","","",""
"","ITI","","html-keyboard-response","75","97338","0.0-1.0-117.0","0","0","30678","","null","","","null","12","","","","","","","","","","","","","","","NaN",""
"","S1","","html-keyboard-response","76","97591","0.0-1.0-119.0","0","0","30678","","null","","","null","13","","","","","","","","","","","","","","","",""
"","ISI","","html-keyboard-response","77","97744","0.0-1.0-120.0","0","0","30678","","null","","","null","13","NaN","","","","","","","","","","","","","","",""
"","S2","","html-keyboard-response","78","97850","0.0-1.0-121.0","0","0","30678","","104","","","75","13","","k","1","13","training","adjacent","FG","6","7","O.jpg","L.jpg","0","1","0","",""
"","feedback","","html-keyboard-response","79","98854","0.0-1.0-123.0-0.0","0","0","30678","","null","","","null","13","","","","","","","","","","","","","","","",""
"","time_out","","html-keyboard-response","80","100856","0.0-1.0-125.0-0.0","0","0","30678","","null","","","null","13","","","","","","","","","","","","","","","",""
"","ITI","","html-keyboard-response","81","101858","0.0-1.0-126.0","0","0","30678","","784","","","68","13","","","","","","","","","","","","","","","d",""
"","S1","","html-keyboard-response","82","102110","0.0-1.0-128.0","0","0","30678","","null","","","null","14","","","","","","","","","","","","","","","",""
"","ISI","","html-keyboard-response","83","102263","0.0-1.0-129.0","0","0","30678","","null","","","null","14","NaN","","","","","","","","","","","","","","",""
"","S2","","html-keyboard-response","84","102281","0.0-1.0-130.0","0","0","30678","","16","","","68","14","","d","1","14","training","adjacent","EF","5","6","M.jpg","O.jpg","1","1","1","",""
"","feedback","","html-keyboard-response","85","103284","0.0-1.0-132.0-0.0","0","0","30678","","null","","","null","14","","","","","","","","","","","","","","","",""
"","ITI","","html-keyboard-response","86","104286","0.0-1.0-135.0","0","0","30678","","null","","","null","14","","","","","","","","","","","","","","","NaN",""
"","S1","","html-keyboard-response","87","104538","0.0-1.0-137.0","0","0","30678","","null","","","null","15","","","","","","","","","","","","","","","",""
"","ISI","","html-keyboard-response","88","104691","0.0-1.0-138.0","0","0","30678","","null","","","null","15","NaN","","","","","","","","","","","","","","",""
"","S2","","html-keyboard-response","89","104945","0.0-1.0-139.0","0","0","30678","","null","","","null","15","","NaN","","","","","","","","","","","","","",""
"","response","","html-keyboard-response","90","105274","0.0-1.0-140.0-0.0","0","0","30678","","328","","","68","15","","","1","15","training","adjacent","AB","1","2","N.jpg","P.jpg","1","1","1","",""
"","feedback","","html-keyboard-response","91","106285","0.0-1.0-141.0-0.0","0","0","30678","","null","","","null","15","","","","","","","","","","","","","","","",""
"","ITI","","html-keyboard-response","92","107288","0.0-1.0-144.0","0","0","30678","","null","","","null","15","","","","","","","","","","","","","","","NaN",""
"","S1","","html-keyboard-response","93","107541","0.0-1.0-146.0","0","0","30678","","null","","","null","16","","","","","","","","","","","","","","","",""
"","ISI","","html-keyboard-response","94","107693","0.0-1.0-147.0","0","0","30678","","null","","","null","16","NaN","","","","","","","","","","","","","","",""
"","S2","","html-keyboard-response","95","107946","0.0-1.0-148.0","0","0","30678","","null","","","null","16","","NaN","","","","","","","","","","","","","",""
"","response","","html-keyboard-response","96","108493","0.0-1.0-149.0-0.0","0","0","30678","","545","","","68","16","","","1","16","training","adjacent","FG","6","7","O.jpg","L.jpg","1","1","1","",""
"","feedback","","html-keyboard-response","97","109495","0.0-1.0-150.0-0.0","0","0","30678","","null","","","null","16","","","","","","","","","","","","","","","",""
"","ITI","","html-keyboard-response","98","110499","0.0-1.0-153.0","0","0","30678","","null","","","null","16","","","","","","","","","","","","","","","NaN",""
"","S1","","html-keyboard-response","99","110752","0.0-1.0-155.0","0","0","30678","","null","","","null","17","","","","","","","","","","","","","","","",""
"","ISI","","html-keyboard-response","100","110904","0.0-1.0-156.0","0","0","30678","","null","","","null","17","NaN","","","","","","","","","","","","","","",""
"","S2","","html-keyboard-response","101","111157","0.0-1.0-157.0","0","0","30678","","null","","","null","17","","NaN","","","","","","","","","","","","","",""
"","response","","html-keyboard-response","102","111641","0.0-1.0-158.0-0.0","0","0","30678","","482","","","68","17","","","1","17","training","adjacent","DC","4","3","R.jpg","Q.jpg","1","0","0","",""
"","feedback","","html-keyboard-response","103","112645","0.0-1.0-159.0-0.0","0","0","30678","","null","","","null","17","","","","","","","","","","","","","","","",""
"","time_out","","html-keyboard-response","104","114647","0.0-1.0-161.0-0.0","0","0","30678","","null","","","null","17","","","","","","","","","","","","","","","",""
"","ITI","","html-keyboard-response","105","115650","0.0-1.0-162.0","0","0","30678","","null","","","null","17","","","","","","","","","","","","","","","NaN",""
"","S1","","html-keyboard-response","106","115903","0.0-1.0-164.0","0","0","30678","","null","","","null","18","","","","","","","","","","","","","","","",""
"","ISI","","html-keyboard-response","107","116055","0.0-1.0-165.0","0","0","30678","","null","","","null","18","NaN","","","","","","","","","","","","","","",""
"","S2","","html-keyboard-response","108","116308","0.0-1.0-166.0","0","0","30678","","null","","","null","18","","NaN","","","","","","","","","","","","","",""
"","response","","html-keyboard-response","109","117425","0.0-1.0-167.0-0.0","0","0","30678","","1115","","","75","18","","","1","18","training","adjacent","CD","3","4","Q.jpg","R.jpg","0","1","0","",""
"","feedback","","html-keyboard-response","110","118429","0.0-1.0-168.0-0.0","0","0","30678","","null","","","null","18","","","","","","","","","","","","","","","",""
"","time_out","","html-keyboard-response","111","120444","0.0-1.0-170.0-0.0","0","0","30678","","null","","","null","18","","","","","","","","","","","","","","","",""
"","ITI","","html-keyboard-response","112","121446","0.0-1.0-171.0","0","0","30678","","null","","","null","18","","","","","","","","","","","","","","","NaN",""
"","S1","","html-keyboard-response","113","121700","0.0-1.0-173.0","0","0","30678","","null","","","null","19","","","","","","","","","","","","","","","",""
"","ISI","","html-keyboard-response","114","121852","0.0-1.0-174.0","0","0","30678","","null","","","null","19","NaN","","","","","","","","","","","","","","",""
"","S2","","html-keyboard-response","115","122106","0.0-1.0-175.0","0","0","30678","","null","","","null","19","","NaN","","","","","","","","","","","","","",""
"","response","","html-keyboard-response","116","122197","0.0-1.0-176.0-0.0","0","0","30678","","89","","","68","19","","","1","19","training","adjacent","EF","5","6","M.jpg","O.jpg","1","1","1","",""
"","feedback","","html-keyboard-response","117","123201","0.0-1.0-177.0-0.0","0","0","30678","","null","","","null","19","","","","","","","","","","","","","","","",""
"","ITI","","html-keyboard-response","118","124203","0.0-1.0-180.0","0","0","30678","","null","","","null","19","","","","","","","","","","","","","","","NaN",""
"","S1","","html-keyboard-response","119","124456","0.0-1.0-182.0","0","0","30678","","null","","","null","20","","","","","","","","","","","","","","","",""
"","ISI","","html-keyboard-response","120","124609","0.0-1.0-183.0","0","0","30678","","null","","","null","20","NaN","","","","","","","","","","","","","","",""
"","S2","","html-keyboard-response","121","124862","0.0-1.0-184.0","0","0","30678","","null","","","null","20","","NaN","","","","","","","","","","","","","",""
"","response","","html-keyboard-response","122","125682","0.0-1.0-185.0-0.0","0","0","30678","","818","","","68","20","","","1","20","training","adjacent","DE","4","5","R.jpg","M.jpg","1","1","1","",""
"","feedback","","html-keyboard-response","123","126684","0.0-1.0-186.0-0.0","0","0","30678","","null","","","null","20","","","","","","","","","","","","","","","",""
"","ITI","","html-keyboard-response","124","127688","0.0-1.0-189.0","0","0","30678","","null","","","null","20","","","","","","","","","","","","","","","NaN",""
"","S1","","html-keyboard-response","125","127940","0.0-1.0-191.0","0","0","30678","","null","","","null","21","","","","","","","","","","","","","","","",""
"","ISI","","html-keyboard-response","126","128093","0.0-1.0-192.0","0","0","30678","","null","","","null","21","NaN","","","","","","","","","","","","","","",""
"","S2","","html-keyboard-response","127","128347","0.0-1.0-193.0","0","0","30678","","null","","","null","21","","NaN","","","","","","","","","","","","","",""
"","response","","html-keyboard-response","128","129098","0.0-1.0-194.0-0.0","0","0","30678","","748","","","68","21","","","1","21","training","adjacent","CD","3","4","Q.jpg","R.jpg","1","1","1","",""
"","feedback","","html-keyboard-response","129","130102","0.0-1.0-195.0-0.0","0","0","30678","","null","","","null","21","","","","","","","","","","","","","","","",""
"","ITI","","html-keyboard-response","130","131106","0.0-1.0-198.0","0","0","30678","","null","","","null","21","","","","","","","","","","","","","","","NaN",""
"","S1","","html-keyboard-response","131","131358","0.0-1.0-200.0","0","0","30678","","null","","","null","22","","","","","","","","","","","","","","","",""
"","ISI","","html-keyboard-response","132","131511","0.0-1.0-201.0","0","0","30678","","null","","","null","22","NaN","","","","","","","","","","","","","","",""
"","S2","","html-keyboard-response","133","131545","0.0-1.0-202.0","0","0","30678","","32","","","68","22","","d","1","22","training","adjacent","DC","4","3","R.jpg","Q.jpg","1","0","0","",""
"","feedback","","html-keyboard-response","134","132548","0.0-1.0-204.0-0.0","0","0","30678","","null","","","null","22","","","","","","","","","","","","","","","",""
"","time_out","","html-keyboard-response","135","134551","0.0-1.0-206.0-0.0","0","0","30678","","null","","","null","22","","","","","","","","","","","","","","","",""
"","ITI","","html-keyboard-response","136","135553","0.0-1.0-207.0","0","0","30678","","null","","","null","22","","","","","","","","","","","","","","","NaN",""
"","S1","","html-keyboard-response","137","135806","0.0-1.0-209.0","0","0","30678","","null","","","null","23","","","","","","","","","","","","","","","",""
"","ISI","","html-keyboard-response","138","135959","0.0-1.0-210.0","0","0","30678","","null","","","null","23","NaN","","","","","","","","","","","","","","",""
"","S2","","html-keyboard-response","139","136068","0.0-1.0-211.0","0","0","30678","","108","","","75","23","","k","1","23","training","adjacent","CB","3","2","Q.jpg","P.jpg","0","0","1","",""
"","feedback","","html-keyboard-response","140","137071","0.0-1.0-213.0-0.0","0","0","30678","","null","","","null","23","","","","","","","","","","","","","","","",""
"","ITI","","html-keyboard-response","141","138074","0.0-1.0-216.0","0","0","30678","","null","","","null","23","","","","","","","","","","","","","","","NaN",""
"","S1","","html-keyboard-response","142","138328","0.0-1.0-218.0","0","0","30678","","null","","","null","24","","","","","","","","","","","","","","","",""
"","ISI","","html-keyboard-response","143","138481","0.0-1.0-219.0","0","0","30678","","null","","","null","24","NaN","","","","","","","","","","","","","","",""
"","S2","","html-keyboard-response","144","138734","0.0-1.0-220.0","0","0","30678","","null","","","null","24","","NaN","","","","","","","","","","","","","",""
"","response","","html-keyboard-response","145","139025","0.0-1.0-221.0-0.0","0","0","30678","","289","","","68","24","","","1","24","training","adjacent","FG","6","7","O.jpg","L.jpg","1","1","1","",""
"","feedback","","html-keyboard-response","146","140028","0.0-1.0-222.0-0.0","0","0","30678","","null","","","null","24","","","","","","","","","","","","","","","",""
"","ITI","","html-keyboard-response","147","141033","0.0-1.0-225.0","0","0","30678","","null","","","null","24","","","","","","","","","","","","","","","NaN",""
"","S1","","html-keyboard-response","148","141286","0.0-1.0-227.0","0","0","30678","","null","","","null","25","","","","","","","","","","","","","","","",""
"","ISI","","html-keyboard-response","149","141439","0.0-1.0-228.0","0","0","30678","","null","","","null","25","NaN","","","","","","","","","","","","","","",""
"","S2","","html-keyboard-response","150","141667","0.0-1.0-229.0","0","0","30678","","225","","","75","25","","k","1","25","training","adjacent","CD","3","4","Q.jpg","R.jpg","0","1","0","",""
"","feedback","","html-keyboard-response","151","142670","0.0-1.0-231.0-0.0","0","0","30678","","null","","","null","25","","","","","","","","","","","","","","","",""
"","time_out","","html-keyboard-response","152","144673","0.0-1.0-233.0-0.0","0","0","30678","","null","","","null","25","","","","","","","","","","","","","","","",""
"","ITI","","html-keyboard-response","153","145676","0.0-1.0-234.0","0","0","30678","","null","","","null","25","","","","","","","","","","","","","","","NaN",""
"","S1","","html-keyboard-response","154","145929","0.0-1.0-236.0","0","0","30678","","null","","","null","26","","","","","","","","","","","","","","","",""
"","ISI","","html-keyboard-response","155","146082","0.0-1.0-237.0","0","0","30678","","112","","","68","26","d","","","","","","","","","","","","","","",""
"","S2","","html-keyboard-response","156","146335","0.0-1.0-238.0","0","0","30678","","null","","","null","26","","NaN","","","","","","","","","","","","","",""
"","response","","html-keyboard-response","157","146502","0.0-1.0-239.0-0.0","0","0","30678","","164","","","68","26","","","1","26","training","adjacent","ED","5","4","M.jpg","R.jpg","1","0","0","",""
"","feedback","","html-keyboard-response","158","147505","0.0-1.0-240.0-0.0","0","0","30678","","null","","","null","26","","","","","","","","","","","","","","","",""
"","time_out","","html-keyboard-response","159","149508","0.0-1.0-242.0-0.0","0","0","30678","","null","","","null","26","","","","","","","","","","","","","","","",""
"","ITI","","html-keyboard-response","160","150510","0.0-1.0-243.0","0","0","30678","","null","","","null","26","","","","","","","","","","","","","","","NaN",""
"","S1","","html-keyboard-response","161","150763","0.0-1.0-245.0","0","0","30678","","null","","","null","27","","","","","","","","","","","","","","","",""
"","ISI","","html-keyboard-response","162","150915","0.0-1.0-246.0","0","0","30678","","125","","","75","27","k","","","","","","","","","","","","","","",""
"","S2","","html-keyboard-response","163","151168","0.0-1.0-247.0","0","0","30678","","null","","","null","27","","NaN","","","","","","","","","","","","","",""
"","response","","html-keyboard-response","164","151362","0.0-1.0-248.0-0.0","0","0","30678","","191","","","75","27","","","1","27","training","adjacent","CD","3","4","Q.jpg","R.jpg","0","1","0","",""
"","feedback","","html-keyboard-response","165","152367","0.0-1.0-249.0-0.0","0","0","30678","","null","","","null","27","","","","","","","","","","","","","","","",""
"","time_out","","html-keyboard-response","166","154369","0.0-1.0-251.0-0.0","0","0","30678","","null","","","null","27","","","","","","","","","","","","","","","",""
"","ITI","","html-keyboard-response","167","155373","0.0-1.0-252.0","0","0","30678","","null","","","null","27","","","","","","","","","","","","","","","NaN",""
"","S1","","html-keyboard-response","168","155626","0.0-1.0-254.0","0","0","30678","","null","","","null","28","","","","","","","","","","","","","","","",""
"","ISI","","html-keyboard-response","169","155779","0.0-1.0-255.0","0","0","30678","","110","","","68","28","d","","","","","","","","","","","","","","",""
"","S2","","html-keyboard-response","170","156032","0.0-1.0-256.0","0","0","30678","","null","","","null","28","","NaN","","","","","","","","","","","","","",""
"","response","","html-keyboard-response","171","156233","0.0-1.0-257.0-0.0","0","0","30678","","200","","","68","28","","","1","28","training","adjacent","DE","4","5","R.jpg","M.jpg","1","1","1","",""
"","feedback","","html-keyboard-response","172","157244","0.0-1.0-258.0-0.0","0","0","30678","","null","","","null","28","","","","","","","","","","","","","","","",""
"","ITI","","html-keyboard-response","173","158246","0.0-1.0-261.0","0","0","30678","","null","","","null","28","","","","","","","","","","","","","","","NaN",""
"","S1","","html-keyboard-response","174","158499","0.0-1.0-263.0","0","0","30678","","null","","","null","29","","","","","","","","","","","","","","","",""
"","ISI","","html-keyboard-response","175","158651","0.0-1.0-264.0","0","0","30678","","null","","","null","29","NaN","","","","","","","","","","","","","","",""
"","S2","","html-keyboard-response","176","158905","0.0-1.0-265.0","0","0","30678","","null","","","null","29","","NaN","","","","","","","","","","","","","",""
"","response","","html-keyboard-response","177","160659","0.0-1.0-266.0-0.0","0","0","30678","","null","","","null","29","","","1","29","training","adjacent","GF","7","6","L.jpg","O.jpg","NaN","0","0","",""
"","too_slow_prompt","","html-keyboard-response","178","161662","0.0-1.0-268.0-0.0","1","0","30678","","null","","","null","","","","","","","","","","","","","","","","",""
"","time_out","","html-keyboard-response","179","163665","0.0-1.0-269.0-0.0","0","0","30678","","null","","","null","29","","","","","","","","","","","","","","","",""
"","ITI","","html-keyboard-response","180","164667","0.0-1.0-270.0","0","0","30678","","null","","","null","29","","","","","","","","","","","","","","","NaN",""
"","S1","","html-keyboard-response","181","164920","0.0-1.0-272.0","0","0","30678","","null","","","null","30","","","","","","","","","","","","","","","",""
"","ISI","","html-keyboard-response","182","165082","0.0-1.0-273.0","0","0","30678","","null","","","null","30","NaN","","","","","","","","","","","","","","",""
"","S2","","html-keyboard-response","183","165335","0.0-1.0-274.0","0","0","30678","","null","","","null","30","","NaN","","","","","","","","","","","","","",""
"","response","","html-keyboard-response","184","165698","0.0-1.0-275.0-0.0","0","0","30678","","361","","","68","30","","","1","30","training","adjacent","BC","2","3","P.jpg","Q.jpg","1","1","1","",""
"","feedback","","html-keyboard-response","185","166702","0.0-1.0-276.0-0.0","0","0","30678","","null","","","null","30","","","","","","","","","","","","","","","",""
"","ITI","","html-keyboard-response","186","167706","0.0-1.0-279.0","0","0","30678","","null","","","null","30","","","","","","","","","","","","","","","NaN",""
"","S1","","html-keyboard-response","187","167959","0.0-1.0-281.0","0","0","30678","","null","","","null","31","","","","","","","","","","","","","","","",""
"","ISI","","html-keyboard-response","188","168110","0.0-1.0-282.0","0","0","30678","","null","","","null","31","NaN","","","","","","","","","","","","","","",""
"","S2","","html-keyboard-response","189","168364","0.0-1.0-283.0","0","0","30678","","null","","","null","31","","NaN","","","","","","","","","","","","","",""
"","response","","html-keyboard-response","190","169098","0.0-1.0-284.0-0.0","0","0","30678","","731","","","68","31","","","1","31","training","adjacent","BC","2","3","P.jpg","Q.jpg","1","1","1","",""
"","feedback","","html-keyboard-response","191","170101","0.0-1.0-285.0-0.0","0","0","30678","","null","","","null","31","","","","","","","","","","","","","","","",""
"","ITI","","html-keyboard-response","192","171104","0.0-1.0-288.0","0","0","30678","","null","","","null","31","","","","","","","","","","","","","","","NaN",""
"","S1","","html-keyboard-response","193","171357","0.0-1.0-290.0","0","0","30678","","null","","","null","32","","","","","","","","","","","","","","","",""
"","ISI","","html-keyboard-response","194","171510","0.0-1.0-291.0","0","0","30678","","null","","","null","32","NaN","","","","","","","","","","","","","","",""
"","S2","","html-keyboard-response","195","171763","0.0-1.0-292.0","0","0","30678","","null","","","null","32","","NaN","","","","","","","","","","","","","",""
"","response","","html-keyboard-response","196","173268","0.0-1.0-293.0-0.0","0","0","30678","","1504","","","68","32","","","1","32","training","adjacent","BC","2","3","P.jpg","Q.jpg","1","1","1","",""
"","feedback","","html-keyboard-response","197","174272","0.0-1.0-294.0-0.0","0","0","30678","","null","","","null","32","","","","","","","","","","","","","","","",""
"","ITI","","html-keyboard-response","198","175275","0.0-1.0-297.0","0","0","30678","","null","","","null","32","","","","","","","","","","","","","","","NaN",""
"","S1","","html-keyboard-response","199","175528","0.0-1.0-299.0","0","0","30678","","null","","","null","33","","","","","","","","","","","","","","","",""
"","ISI","","html-keyboard-response","200","175681","0.0-1.0-300.0","0","0","30678","","null","","","null","33","NaN","","","","","","","","","","","","","","",""
"","S2","","html-keyboard-response","201","175943","0.0-1.0-301.0","0","0","30678","","null","","","null","33","","NaN","","","","","","","","","","","","","",""
"","response","","html-keyboard-response","202","176569","0.0-1.0-302.0-0.0","0","0","30678","","625","","","68","33","","","1","33","training","adjacent","FE","6","5","O.jpg","M.jpg","1","0","0","",""
"","feedback","","html-keyboard-response","203","177573","0.0-1.0-303.0-0.0","0","0","30678","","null","","","null","33","","","","","","","","","","","","","","","",""
"","time_out","","html-keyboard-response","204","179575","0.0-1.0-305.0-0.0","0","0","30678","","null","","","null","33","","","","","","","","","","","","","","","",""
"","ITI","","html-keyboard-response","205","180579","0.0-1.0-306.0","0","0","30678","","null","","","null","33","","","","","","","","","","","","","","","NaN",""
"","S1","","html-keyboard-response","206","180833","0.0-1.0-308.0","0","0","30678","","null","","","null","34","","","","","","","","","","","","","","","",""
"","ISI","","html-keyboard-response","207","180998","0.0-1.0-309.0","0","0","30678","","null","","","null","34","NaN","","","","","","","","","","","","","","",""
"","S2","","html-keyboard-response","208","181065","0.0-1.0-310.0","0","0","30678","","65","","","75","34","","k","1","34","training","adjacent","GF","7","6","L.jpg","O.jpg","0","0","1","",""
"","feedback","","html-keyboard-response","209","182068","0.0-1.0-312.0-0.0","0","0","30678","","null","","","null","34","","","","","","","","","","","","","","","",""
"","ITI","","html-keyboard-response","210","183070","0.0-1.0-315.0","0","0","30678","","null","","","null","34","","","","","","","","","","","","","","","NaN",""
"","S1","","html-keyboard-response","211","183323","0.0-1.0-317.0","0","0","30678","","null","","","null","35","","","","","","","","","","","","","","","",""
"","ISI","","html-keyboard-response","212","183478","0.0-1.0-318.0","0","0","30678","","null","","","null","35","NaN","","","","","","","","","","","","","","",""
"","S2","","html-keyboard-response","213","183730","0.0-1.0-319.0","0","0","30678","","null","","","null","35","","NaN","","","","","","","","","","","","","",""
"","response","","html-keyboard-response","214","184350","0.0-1.0-320.0-0.0","0","0","30678","","617","","","75","35","","","1","35","training","adjacent","DE","4","5","R.jpg","M.jpg","0","1","0","",""
"","feedback","","html-keyboard-response","215","185353","0.0-1.0-321.0-0.0","0","0","30678","","null","","","null","35","","","","","","","","","","","","","","","",""
"","time_out","","html-keyboard-response","216","187357","0.0-1.0-323.0-0.0","0","0","30678","","null","","","null","35","","","","","","","","","","","","","","","",""
"","ITI","","html-keyboard-response","217","188360","0.0-1.0-324.0","0","0","30678","","null","","","null","35","","","","","","","","","","","","","","","NaN",""
"","S1","","html-keyboard-response","218","188612","0.0-1.0-326.0","0","0","30678","","null","","","null","36","","","","","","","","","","","","","","","",""
"","ISI","","html-keyboard-response","219","188765","0.0-1.0-327.0","0","0","30678","","null","","","null","36","NaN","","","","","","","","","","","","","","",""
"","S2","","html-keyboard-response","220","189018","0.0-1.0-328.0","0","0","30678","","null","","","null","36","","NaN","","","","","","","","","","","","","",""
"","response","","html-keyboard-response","221","189098","0.0-1.0-329.0-0.0","0","0","30678","","78","","","68","36","","","1","36","training","adjacent","AB","1","2","N.jpg","P.jpg","1","1","1","",""
"","feedback","","html-keyboard-response","222","190100","0.0-1.0-330.0-0.0","0","0","30678","","null","","","null","36","","","","","","","","","","","","","","","",""
"","ITI","","html-keyboard-response","223","191103","0.0-1.0-333.0","0","0","30678","","null","","","null","36","","","","","","","","","","","","","","","NaN",""
"","S1","","html-keyboard-response","224","191357","0.0-1.0-335.0","0","0","30678","","null","","","null","37","","","","","","","","","","","","","","","",""
"","ISI","","html-keyboard-response","225","191509","0.0-1.0-336.0","0","0","30678","","null","","","null","37","NaN","","","","","","","","","","","","","","",""
"","S2","","html-keyboard-response","226","191762","0.0-1.0-337.0","0","0","30678","","null","","","null","37","","NaN","","","","","","","","","","","","","",""
"","response","","html-keyboard-response","227","192258","0.0-1.0-338.0-0.0","0","0","30678","","494","","","68","37","","","1","37","training","adjacent","BC","2","3","P.jpg","Q.jpg","1","1","1","",""
"","feedback","","html-keyboard-response","228","193261","0.0-1.0-339.0-0.0","0","0","30678","","null","","","null","37","","","","","","","","","","","","","","","",""
"","ITI","","html-keyboard-response","229","194263","0.0-1.0-342.0","0","0","30678","","null","","","null","37","","","","","","","","","","","","","","","NaN",""
"","S1","","html-keyboard-response","230","194517","0.0-1.0-344.0","0","0","30678","","null","","","null","38","","","","","","","","","","","","","","","",""
"","ISI","","html-keyboard-response","231","194670","0.0-1.0-345.0","0","0","30678","","null","","","null","38","NaN","","","","","","","","","","","","","","",""
"","S2","","html-keyboard-response","232","194887","0.0-1.0-346.0","0","0","30678","","213","","","68","38","","d","1","38","training","adjacent","CB","3","2","Q.jpg","P.jpg","1","0","0","",""
"","feedback","","html-keyboard-response","233","195890","0.0-1.0-348.0-0.0","0","0","30678","","null","","","null","38","","","","","","","","","","","","","","","",""
"","time_out","","html-keyboard-response","234","197900","0.0-1.0-350.0-0.0","0","0","30678","","null","","","null","38","","","","","","","","","","","","","","","",""
"","ITI","","html-keyboard-response","235","198903","0.0-1.0-351.0","0","0","30678","","null","","","null","38","","","","","","","","","","","","","","","NaN",""
"","S1","","html-keyboard-response","236","199155","0.0-1.0-353.0","0","0","30678","","null","","","null","39","","","","","","","","","","","","","","","",""
"","ISI","","html-keyboard-response","237","199308","0.0-1.0-354.0","0","0","30678","","null","","","null","39","NaN","","","","","","","","","","","","","","",""
"","S2","","html-keyboard-response","238","199563","0.0-1.0-355.0","0","0","30678","","null","","","null","39","","NaN","","","","","","","","","","","","","",""
"","response","","html-keyboard-response","239","199603","0.0-1.0-356.0-0.0","0","0","30678","","37","","","68","39","","","1","39","training","adjacent","FG","6","7","O.jpg","L.jpg","1","1","1","",""
"","feedback","","html-keyboard-response","240","200620","0.0-1.0-357.0-0.0","0","0","30678","","null","","","null","39","","","","","","","","","","","","","","","",""
"","ITI","","html-keyboard-response","241","201622","0.0-1.0-360.0","0","0","30678","","null","","","null","39","","","","","","","","","","","","","","","NaN",""
"","S1","","html-keyboard-response","242","201875","0.0-1.0-362.0","0","0","30678","","null","","","null","40","","","","","","","","","","","","","","","",""
"","ISI","","html-keyboard-response","243","202028","0.0-1.0-363.0","0","0","30678","","null","","","null","40","NaN","","","","","","","","","","","","","","",""
"","S2","","html-keyboard-response","244","202282","0.0-1.0-364.0","0","0","30678","","null","","","null","40","","NaN","","","","","","","","","","","","","",""
"","response","","html-keyboard-response","245","202641","0.0-1.0-365.0-0.0","0","0","30678","","358","","","68","40","","","1","40","training","adjacent","BA","2","1","P.jpg","N.jpg","1","0","0","",""
"","feedback","","html-keyboard-response","246","203644","0.0-1.0-366.0-0.0","0","0","30678","","null","","","null","40","","","","","","","","","","","","","","","",""
"","time_out","","html-keyboard-response","247","205646","0.0-1.0-368.0-0.0","0","0","30678","","null","","","null","40","","","","","","","","","","","","","","","",""
"","ITI","","html-keyboard-response","248","206648","0.0-1.0-369.0","0","0","30678","","773","","","75","40","","","","","","","","","","","","","","","k",""
"","S1","","html-keyboard-response","249","206900","0.0-1.0-371.0","0","0","30678","","null","","","null","41","","","","","","","","","","","","","","","",""
"","ISI","","html-keyboard-response","250","207053","0.0-1.0-372.0","0","0","30678","","null","","","null","41","NaN","","","","","","","","","","","","","","",""
"","S2","","html-keyboard-response","251","207282","0.0-1.0-373.0","0","0","30678","","226","","","75","41","","k","1","41","training","adjacent","DE","4","5","R.jpg","M.jpg","0","1","0","",""
"","feedback","","html-keyboard-response","252","208286","0.0-1.0-375.0-0.0","0","0","30678","","null","","","null","41","","","","","","","","","","","","","","","",""
"","time_out","","html-keyboard-response","253","210289","0.0-1.0-377.0-0.0","0","0","30678","","null","","","null","41","","","","","","","","","","","","","","","",""
"","ITI","","html-keyboard-response","254","211292","0.0-1.0-378.0","0","0","30678","","null","","","null","41","","","","","","","","","","","","","","","NaN",""
"","S1","","html-keyboard-response","255","211545","0.0-1.0-380.0","0","0","30678","","null","","","null","42","","","","","","","","","","","","","","","",""
"","ISI","","html-keyboard-response","256","211698","0.0-1.0-381.0","0","0","30678","","null","","","null","42","NaN","","","","","","","","","","","","","","",""
"","S2","","html-keyboard-response","257","211747","0.0-1.0-382.0","0","0","30678","","46","","","68","42","","d","1","42","training","adjacent","FE","6","5","O.jpg","M.jpg","1","0","0","",""
"","feedback","","html-keyboard-response","258","212749","0.0-1.0-384.0-0.0","0","0","30678","","null","","","null","42","","","","","","","","","","","","","","","",""
"","time_out","","html-keyboard-response","259","214753","0.0-1.0-386.0-0.0","0","0","30678","","null","","","null","42","","","","","","","","","","","","","","","",""
"","ITI","","html-keyboard-response","260","215756","0.0-1.0-387.0","0","0","30678","","null","","","null","42","","","","","","","","","","","","","","","NaN",""
"","S1","","html-keyboard-response","261","216009","0.0-1.0-389.0","0","0","30678","","null","","","null","43","","","","","","","","","","","","","","","",""
"","ISI","","html-keyboard-response","262","216161","0.0-1.0-390.0","0","0","30678","","79","","","75","43","k","","","","","","","","","","","","","","",""
"","S2","","html-keyboard-response","263","216241","0.0-1.0-391.0","0","0","30678","","78","","","75","43","","k","1","43","training","adjacent","FE","6","5","O.jpg","M.jpg","0","0","1","",""
"","feedback","","html-keyboard-response","264","217244","0.0-1.0-393.0-0.0","0","0","30678","","null","","","null","43","","","","","","","","","","","","","","","",""
"","ITI","","html-keyboard-response","265","218248","0.0-1.0-396.0","0","0","30678","","null","","","null","43","","","","","","","","","","","","","","","NaN",""
"","S1","","html-keyboard-response","266","218501","0.0-1.0-398.0","0","0","30678","","null","","","null","44","","","","","","","","","","","","","","","",""
"","ISI","","html-keyboard-response","267","218654","0.0-1.0-399.0","0","0","30678","","null","","","null","44","NaN","","","","","","","","","","","","","","",""
"","S2","","html-keyboard-response","268","218909","0.0-1.0-400.0","0","0","30678","","null","","","null","44","","NaN","","","","","","","","","","","","","",""
"","response","","html-keyboard-response","269","219157","0.0-1.0-401.0-0.0","0","0","30678","","246","","","75","44","","","1","44","training","adjacent","CB","3","2","Q.jpg","P.jpg","0","0","1","",""
"","feedback","","html-keyboard-response","270","220160","0.0-1.0-402.0-0.0","0","0","30678","","null","","","null","44","","","","","","","","","","","","","","","",""
"","ITI","","html-keyboard-response","271","221164","0.0-1.0-405.0","0","0","30678","","null","","","null","44","","","","","","","","","","","","","","","NaN",""
"","S1","","html-keyboard-response","272","221417","0.0-1.0-407.0","0","0","30678","","null","","","null","45","","","","","","","","","","","","","","","",""
"","ISI","","html-keyboard-response","273","221570","0.0-1.0-408.0","0","0","30678","","null","","","null","45","NaN","","","","","","","","","","","","","","",""
"","S2","","html-keyboard-response","274","221823","0.0-1.0-409.0","0","0","30678","","null","","","null","45","","NaN","","","","","","","","","","","","","",""
"","response","","html-keyboard-response","275","222452","0.0-1.0-410.0-0.0","0","0","30678","","626","","","75","45","","","1","45","training","adjacent","ED","5","4","M.jpg","R.jpg","0","0","1","",""
"","feedback","","html-keyboard-response","276","223455","0.0-1.0-411.0-0.0","0","0","30678","","null","","","null","45","","","","","","","","","","","","","","","",""
"","ITI","","html-keyboard-response","277","224459","0.0-1.0-414.0","0","0","30678","","null","","","null","45","","","","","","","","","","","","","","","NaN",""
"","S1","","html-keyboard-response","278","224713","0.0-1.0-416.0","0","0","30678","","null","","","null","46","","","","","","","","","","","","","","","",""
"","ISI","","html-keyboard-response","279","224865","0.0-1.0-417.0","0","0","30678","","null","","","null","46","NaN","","","","","","","","","","","","","","",""
"","S2","","html-keyboard-response","280","225118","0.0-1.0-418.0","0","0","30678","","null","","","null","46","","NaN","","","","","","","","","","","","","",""
"","response","","html-keyboard-response","281","225435","0.0-1.0-419.0-0.0","0","0","30678","","314","","","75","46","","","1","46","training","adjacent","BA","2","1","P.jpg","N.jpg","0","0","1","",""
"","feedback","","html-keyboard-response","282","226438","0.0-1.0-420.0-0.0","0","0","30678","","null","","","null","46","","","","","","","","","","","","","","","",""
"","ITI","","html-keyboard-response","283","227441","0.0-1.0-423.0","0","0","30678","","null","","","null","46","","","","","","","","","","","","","","","NaN",""
"","S1","","html-keyboard-response","284","227693","0.0-1.0-425.0","0","0","30678","","null","","","null","47","","","","","","","","","","","","","","","",""
"","ISI","","html-keyboard-response","285","227850","0.0-1.0-426.0","0","0","30678","","null","","","null","47","NaN","","","","","","","","","","","","","","",""
"","S2","","html-keyboard-response","286","228103","0.0-1.0-427.0","0","0","30678","","null","","","null","47","","NaN","","","","","","","","","","","","","",""
"","response","","html-keyboard-response","287","228545","0.0-1.0-428.0-0.0","0","0","30678","","441","","","75","47","","","1","47","training","adjacent","CB","3","2","Q.jpg","P.jpg","0","0","1","",""
"","feedback","","html-keyboard-response","288","229548","0.0-1.0-429.0-0.0","0","0","30678","","null","","","null","47","","","","","","","","","","","","","","","",""
"","ITI","","html-keyboard-response","289","230552","0.0-1.0-432.0","0","0","30678","","null","","","null","47","","","","","","","","","","","","","","","NaN",""
"","block_over","","html-keyboard-response","290","233749","0.0-1.0-433.0-0.0","0","0","30678","","3194","","","32","47","","","","","","","","","","","","","","","",""
"","S1","","html-keyboard-response","291","234003","0.0-1.0-434.0","0","0","30678","","null","","","null","48","","","","","","","","","","","","","","","",""
"","ISI","","html-keyboard-response","292","234155","0.0-1.0-435.0","0","0","30678","","null","","","null","48","NaN","","","","","","","","","","","","","","",""
"","S2","","html-keyboard-response","293","234409","0.0-1.0-436.0","0","0","30678","","null","","","null","48","","NaN","","","","","","","","","","","","","",""
"","response","","html-keyboard-response","294","235393","0.0-1.0-437.0-0.0","0","0","30678","","983","","","68","48","","","2","48","training","adjacent","EF","5","6","M.jpg","O.jpg","1","1","1","",""
"","feedback","","html-keyboard-response","295","236408","0.0-1.0-438.0-0.0","0","0","30678","","null","","","null","48","","","","","","","","","","","","","","","",""
"","ITI","","html-keyboard-response","296","237411","0.0-1.0-441.0","0","0","30678","","null","","","null","48","","","","","","","","","","","","","","","NaN",""
"","S1","","html-keyboard-response","297","237665","0.0-1.0-443.0","0","0","30678","","null","","","null","49","","","","","","","","","","","","","","","",""
"","ISI","","html-keyboard-response","298","237818","0.0-1.0-444.0","0","0","30678","","null","","","null","49","NaN","","","","","","","","","","","","","","",""
"","S2","","html-keyboard-response","299","238072","0.0-1.0-445.0","0","0","30678","","null","","","null","49","","NaN","","","","","","","","","","","","","",""
"","response","","html-keyboard-response","300","238506","0.0-1.0-446.0-0.0","0","0","30678","","431","","","68","49","","","2","49","training","adjacent","BA","2","1","P.jpg","N.jpg","1","0","0","",""
"","feedback","","html-keyboard-response","301","239509","0.0-1.0-447.0-0.0","0","0","30678","","null","","","null","49","","","","","","","","","","","","","","","",""
"","time_out","","html-keyboard-response","302","241512","0.0-1.0-449.0-0.0","0","0","30678","","null","","","null","49","","","","","","","","","","","","","","","",""
"","ITI","","html-keyboard-response","303","242516","0.0-1.0-450.0","0","0","30678","","null","","","null","49","","","","","","","","","","","","","","","NaN",""
"","S1","","html-keyboard-response","304","242769","0.0-1.0-452.0","0","0","30678","","null","","","null","50","","","","","","","","","","","","","","","",""
"","ISI","","html-keyboard-response","305","242922","0.0-1.0-453.0","0","0","30678","","null","","","null","50","NaN","","","","","","","","","","","","","","",""
"","S2","","html-keyboard-response","306","242964","0.0-1.0-454.0","0","0","30678","","38","","","75","50","","k","2","50","training","adjacent","BA","2","1","P.jpg","N.jpg","0","0","1","",""
"","feedback","","html-keyboard-response","307","243967","0.0-1.0-456.0-0.0","0","0","30678","","null","","","null","50","","","","","","","","","","","","","","","",""
"","ITI","","html-keyboard-response","308","244969","0.0-1.0-459.0","0","0","30678","","null","","","null","50","","","","","","","","","","","","","","","NaN",""
"","S1","","html-keyboard-response","309","245223","0.0-1.0-461.0","0","0","30678","","null","","","null","51","","","","","","","","","","","","","","","",""
"","ISI","","html-keyboard-response","310","245376","0.0-1.0-462.0","0","0","30678","","null","","","null","51","NaN","","","","","","","","","","","","","","",""
"","S2","","html-keyboard-response","311","245629","0.0-1.0-463.0","0","0","30678","","null","","","null","51","","NaN","","","","","","","","","","","","","",""
"","response","","html-keyboard-response","312","245853","0.0-1.0-464.0-0.0","0","0","30678","","223","","","75","51","","","2","51","training","adjacent","FG","6","7","O.jpg","L.jpg","0","1","0","",""
"","feedback","","html-keyboard-response","313","246857","0.0-1.0-465.0-0.0","0","0","30678","","null","","","null","51","","","","","","","","","","","","","","","",""
"","time_out","","html-keyboard-response","314","248859","0.0-1.0-467.0-0.0","0","0","30678","","null","","","null","51","","","","","","","","","","","","","","","",""
"","ITI","","html-keyboard-response","315","249861","0.0-1.0-468.0","0","0","30678","","null","","","null","51","","","","","","","","","","","","","","","NaN",""
"","S1","","html-keyboard-response","316","250114","0.0-1.0-470.0","0","0","30678","","null","","","null","52","","","","","","","","","","","","","","","",""
"","ISI","","html-keyboard-response","317","250266","0.0-1.0-471.0","0","0","30678","","null","","","null","52","NaN","","","","","","","","","","","","","","",""
"","S2","","html-keyboard-response","318","250305","0.0-1.0-472.0","0","0","30678","","37","","","68","52","","d","2","52","training","adjacent","FG","6","7","O.jpg","L.jpg","1","1","1","",""
"","feedback","","html-keyboard-response","319","251309","0.0-1.0-474.0-0.0","0","0","30678","","null","","","null","52","","","","","","","","","","","","","","","",""
"","ITI","","html-keyboard-response","320","252312","0.0-1.0-477.0","0","0","30678","","null","","","null","52","","","","","","","","","","","","","","","NaN",""
"","S1","","html-keyboard-response","321","252566","0.0-1.0-479.0","0","0","30678","","null","","","null","53","","","","","","","","","","","","","","","",""
"","ISI","","html-keyboard-response","322","252719","0.0-1.0-480.0","0","0","30678","","null","","","null","53","NaN","","","","","","","","","","","","","","",""
"","S2","","html-keyboard-response","323","252972","0.0-1.0-481.0","0","0","30678","","null","","","null","53","","NaN","","","","","","","","","","","","","",""
"","response","","html-keyboard-response","324","253009","0.0-1.0-482.0-0.0","0","0","30678","","35","","","75","53","","","2","53","training","adjacent","FE","6","5","O.jpg","M.jpg","0","0","1","",""
"","feedback","","html-keyboard-response","325","254014","0.0-1.0-483.0-0.0","0","0","30678","","null","","","null","53","","","","","","","","","","","","","","","",""
"","ITI","","html-keyboard-response","326","255018","0.0-1.0-486.0","0","0","30678","","null","","","null","53","","","","","","","","","","","","","","","NaN",""
"","S1","","html-keyboard-response","327","255270","0.0-1.0-488.0","0","0","30678","","null","","","null","54","","","","","","","","","","","","","","","",""
"","ISI","","html-keyboard-response","328","255424","0.0-1.0-489.0","0","0","30678","","null","","","null","54","NaN","","","","","","","","","","","","","","",""
"","S2","","html-keyboard-response","329","255677","0.0-1.0-490.0","0","0","30678","","null","","","null","54","","NaN","","","","","","","","","","","","","",""
"","response","","html-keyboard-response","330","256524","0.0-1.0-491.0-0.0","0","0","30678","","845","","","75","54","","","2","54","training","adjacent","BC","2","3","P.jpg","Q.jpg","0","1","0","",""
"","feedback","","html-keyboard-response","331","257529","0.0-1.0-492.0-0.0","0","0","30678","","null","","","null","54","","","","","","","","","","","","","","","",""
"","time_out","","html-keyboard-response","332","259533","0.0-1.0-494.0-0.0","0","0","30678","","null","","","null","54","","","","","","","","","","","","","","","",""
"","ITI","","html-keyboard-response","333","260536","0.0-1.0-495.0","0","0","30678","","null","","","null","54","","","","","","","","","","","","","","","NaN",""
"","S1","","html-keyboard-response","334","260790","0.0-1.0-497.0","0","0","30678","","null","","","null","55","","","","","","","","","","","","","","","",""
"","ISI","","html-keyboard-response","335","260943","0.0-1.0-498.0","0","0","30678","","null","","","null","55","NaN","","","","","","","","","","","","","","",""
"","S2","","html-keyboard-response","336","260962","0.0-1.0-499.0","0","0","30678","","16","","","68","55","","d","2","55","training","adjacent","DE","4","5","R.jpg","M.jpg","1","1","1","",""
"","feedback","","html-keyboard-response","337","261977","0.0-1.0-501.0-0.0","0","0","30678","","null","","","null","55","","","","","","","","","","","","","","","",""
"","ITI","","html-keyboard-response","338","262980","0.0-1.0-504.0","0","0","30678","","null","","","null","55","","","","","","","","","","","","","","","NaN",""
"","S1","","html-keyboard-response","339","263233","0.0-1.0-506.0","0","0","30678","","null","","","null","56","","","","","","","","","","","","","","","",""
"","ISI","","html-keyboard-response","340","263386","0.0-1.0-507.0","0","0","30678","","null","","","null","56","NaN","","","","","","","","","","","","","","",""
"","S2","","html-keyboard-response","341","263638","0.0-1.0-508.0","0","0","30678","","null","","","null","56","","NaN","","","","","","","","","","","","","",""
"","response","","html-keyboard-response","342","264105","0.0-1.0-509.0-0.0","0","0","30678","","465","","","75","56","","","2","56","training","adjacent","BA","2","1","P.jpg","N.jpg","0","0","1","",""
"","feedback","","html-keyboard-response","343","265109","0.0-1.0-510.0-0.0","0","0","30678","","null","","","null","56","","","","","","","","","","","","","","","",""
"","ITI","","html-keyboard-response","344","266112","0.0-1.0-513.0","0","0","30678","","null","","","null","56","","","","","","","","","","","","","","","NaN",""
"","S1","","html-keyboard-response","345","266366","0.0-1.0-515.0","0","0","30678","","null","","","null","57","","","","","","","","","","","","","","","",""
"","ISI","","html-keyboard-response","346","266520","0.0-1.0-516.0","0","0","30678","","null","","","null","57","NaN","","","","","","","","","","","","","","",""
"","S2","","html-keyboard-response","347","266773","0.0-1.0-517.0","0","0","30678","","null","","","null","57","","NaN","","","","","","","","","","","","","",""
"","response","","html-keyboard-response","348","267158","0.0-1.0-518.0-0.0","0","0","30678","","383","","","75","57","","","2","57","training","adjacent","GF","7","6","L.jpg","O.jpg","0","0","1","",""
"","feedback","","html-keyboard-response","349","268161","0.0-1.0-519.0-0.0","0","0","30678","","null","","","null","57","","","","","","","","","","","","","","","",""
"","ITI","","html-keyboard-response","350","269164","0.0-1.0-522.0","0","0","30678","","null","","","null","57","","","","","","","","","","","","","","","NaN",""
"","S1","","html-keyboard-response","351","269417","0.0-1.0-524.0","0","0","30678","","null","","","null","58","","","","","","","","","","","","","","","",""
"","ISI","","html-keyboard-response","352","269570","0.0-1.0-525.0","0","0","30678","","null","","","null","58","NaN","","","","","","","","","","","","","","",""
"","S2","","html-keyboard-response","353","269824","0.0-1.0-526.0","0","0","30678","","null","","","null","58","","NaN","","","","","","","","","","","","","",""
"","response","","html-keyboard-response","354","270131","0.0-1.0-527.0-0.0","0","0","30678","","305","","","75","58","","","2","58","training","adjacent","FE","6","5","O.jpg","M.jpg","0","0","1","",""
"","feedback","","html-keyboard-response","355","271135","0.0-1.0-528.0-0.0","0","0","30678","","null","","","null","58","","","","","","","","","","","","","","","",""
"","ITI","","html-keyboard-response","356","272138","0.0-1.0-531.0","0","0","30678","","null","","","null","58","","","","","","","","","","","","","","","NaN",""
"","S1","","html-keyboard-response","357","272392","0.0-1.0-533.0","0","0","30678","","null","","","null","59","","","","","","","","","","","","","","","",""
"","ISI","","html-keyboard-response","358","272544","0.0-1.0-534.0","0","0","30678","","null","","","null","59","NaN","","","","","","","","","","","","","","",""
"","S2","","html-keyboard-response","359","272798","0.0-1.0-535.0","0","0","30678","","null","","","null","59","","NaN","","","","","","","","","","","","","",""
"","response","","html-keyboard-response","360","273321","0.0-1.0-536.0-0.0","0","0","30678","","522","","","75","59","","","2","59","training","adjacent","DE","4","5","R.jpg","M.jpg","0","1","0","",""
"","feedback","","html-keyboard-response","361","274324","0.0-1.0-537.0-0.0","0","0","30678","","null","","","null","59","","","","","","","","","","","","","","","",""
"","time_out","","html-keyboard-response","362","276327","0.0-1.0-539.0-0.0","0","0","30678","","null","","","null","59","","","","","","","","","","","","","","","",""
"","ITI","","html-keyboard-response","363","277330","0.0-1.0-540.0","0","0","30678","","null","","","null","59","","","","","","","","","","","","","","","NaN",""
"","S1","","html-keyboard-response","364","277583","0.0-1.0-542.0","0","0","30678","","null","","","null","60","","","","","","","","","","","","","","","",""
"","ISI","","html-keyboard-response","365","277736","0.0-1.0-543.0","0","0","30678","","null","","","null","60","NaN","","","","","","","","","","","","","","",""
"","S2","","html-keyboard-response","366","277989","0.0-1.0-544.0","0","0","30678","","null","","","null","60","","NaN","","","","","","","","","","","","","",""
"","response","","html-keyboard-response","367","278580","0.0-1.0-545.0-0.0","0","0","30678","","588","","","75","60","","","2","60","training","adjacent","CB","3","2","Q.jpg","P.jpg","0","0","1","",""
"","feedback","","html-keyboard-response","368","279589","0.0-1.0-546.0-0.0","0","0","30678","","null","","","null","60","","","","","","","","","","","","","","","",""
"","ITI","","html-keyboard-response","369","280592","0.0-1.0-549.0","0","0","30678","","null","","","null","60","","","","","","","","","","","","","","","NaN",""
"","S1","","html-keyboard-response","370","280845","0.0-1.0-551.0","0","0","30678","","null","","","null","61","","","","","","","","","","","","","","","",""
"","ISI","","html-keyboard-response","371","280998","0.0-1.0-552.0","0","0","30678","","null","","","null","61","NaN","","","","","","","","","","","","","","",""
"","S2","","html-keyboard-response","372","281252","0.0-1.0-553.0","0","0","30678","","null","","","null","61","","NaN","","","","","","","","","","","","","",""
"","response","","html-keyboard-response","373","281930","0.0-1.0-554.0-0.0","0","0","30678","","676","","","75","61","","","2","61","training","adjacent","AB","1","2","N.jpg","P.jpg","0","1","0","",""
"","feedback","","html-keyboard-response","374","282932","0.0-1.0-555.0-0.0","0","0","30678","","null","","","null","61","","","","","","","","","","","","","","","",""
"","time_out","","html-keyboard-response","375","284935","0.0-1.0-557.0-0.0","0","0","30678","","null","","","null","61","","","","","","","","","","","","","","","",""
"","ITI","","html-keyboard-response","376","285938","0.0-1.0-558.0","0","0","30678","","null","","","null","61","","","","","","","","","","","","","","","NaN",""
"","S1","","html-keyboard-response","377","286190","0.0-1.0-560.0","0","0","30678","","null","","","null","62","","","","","","","","","","","","","","","",""
"","ISI","","html-keyboard-response","378","286344","0.0-1.0-561.0","0","0","30678","","null","","","null","62","NaN","","","","","","","","","","","","","","",""
"","S2","","html-keyboard-response","379","286597","0.0-1.0-562.0","0","0","30678","","null","","","null","62","","NaN","","","","","","","","","","","","","",""
"","response","","html-keyboard-response","380","287050","0.0-1.0-563.0-0.0","0","0","30678","","451","","","68","62","","","2","62","training","adjacent","FG","6","7","O.jpg","L.jpg","1","1","1","",""
"","feedback","","html-keyboard-response","381","288053","0.0-1.0-564.0-0.0","0","0","30678","","null","","","null","62","","","","","","","","","","","","","","","",""
"","ITI","","html-keyboard-response","382","289058","0.0-1.0-567.0","0","0","30678","","null","","","null","62","","","","","","","","","","","","","","","NaN",""
"","S1","","html-keyboard-response","383","289312","0.0-1.0-569.0","0","0","30678","","null","","","null","63","","","","","","","","","","","","","","","",""
"","ISI","","html-keyboard-response","384","289465","0.0-1.0-570.0","0","0","30678","","null","","","null","63","NaN","","","","","","","","","","","","","","",""
"","S2","","html-keyboard-response","385","289718","0.0-1.0-571.0","0","0","30678","","null","","","null","63","","NaN","","","","","","","","","","","","","",""
"","response","","html-keyboard-response","386","290259","0.0-1.0-572.0-0.0","0","0","30678","","539","","","68","63","","","2","63","training","adjacent","AB","1","2","N.jpg","P.jpg","1","1","1","",""
"","feedback","","html-keyboard-response","387","291263","0.0-1.0-573.0-0.0","0","0","30678","","null","","","null","63","","","","","","","","","","","","","","","",""
"","ITI","","html-keyboard-response","388","292266","0.0-1.0-576.0","0","0","30678","","null","","","null","63","","","","","","","","","","","","","","","NaN",""
"","S1","","html-keyboard-response","389","292518","0.0-1.0-578.0","0","0","30678","","null","","","null","64","","","","","","","","","","","","","","","",""
"","ISI","","html-keyboard-response","390","292671","0.0-1.0-579.0","0","0","30678","","null","","","null","64","NaN","","","","","","","","","","","","","","",""
"","S2","","html-keyboard-response","391","292924","0.0-1.0-580.0","0","0","30678","","null","","","null","64","","NaN","","","","","","","","","","","","","",""
"","response","","html-keyboard-response","392","293530","0.0-1.0-581.0-0.0","0","0","30678","","605","","","68","64","","","2","64","training","adjacent","DE","4","5","R.jpg","M.jpg","1","1","1","",""
"","feedback","","html-keyboard-response","393","294533","0.0-1.0-582.0-0.0","0","0","30678","","null","","","null","64","","","","","","","","","","","","","","","",""
"","ITI","","html-keyboard-response","394","295536","0.0-1.0-585.0","0","0","30678","","null","","","null","64","","","","","","","","","","","","","","","NaN",""
"","S1","","html-keyboard-response","395","295789","0.0-1.0-587.0","0","0","30678","","null","","","null","65","","","","","","","","","","","","","","","",""
"","ISI","","html-keyboard-response","396","295942","0.0-1.0-588.0","0","0","30678","","null","","","null","65","NaN","","","","","","","","","","","","","","",""
"","S2","","html-keyboard-response","397","296197","0.0-1.0-589.0","0","0","30678","","null","","","null","65","","NaN","","","","","","","","","","","","","",""
"","response","","html-keyboard-response","398","296803","0.0-1.0-590.0-0.0","0","0","30678","","603","","","68","65","","","2","65","training","adjacent","CB","3","2","Q.jpg","P.jpg","1","0","0","",""
"","feedback","","html-keyboard-response","399","297807","0.0-1.0-591.0-0.0","0","0","30678","","null","","","null","65","","","","","","","","","","","","","","","",""
"","time_out","","html-keyboard-response","400","299809","0.0-1.0-593.0-0.0","0","0","30678","","null","","","null","65","","","","","","","","","","","","","","","",""
"","ITI","","html-keyboard-response","401","300814","0.0-1.0-594.0","0","0","30678","","null","","","null","65","","","","","","","","","","","","","","","NaN",""
"","S1","","html-keyboard-response","402","301067","0.0-1.0-596.0","0","0","30678","","null","","","null","66","","","","","","","","","","","","","","","",""
"","ISI","","html-keyboard-response","403","301220","0.0-1.0-597.0","0","0","30678","","null","","","null","66","NaN","","","","","","","","","","","","","","",""
"","S2","","html-keyboard-response","404","301421","0.0-1.0-598.0","0","0","30678","","199","","","75","66","","k","2","66","training","adjacent","BA","2","1","P.jpg","N.jpg","0","0","1","",""
"","feedback","","html-keyboard-response","405","302425","0.0-1.0-600.0-0.0","0","0","30678","","null","","","null","66","","","","","","","","","","","","","","","",""
"","ITI","","html-keyboard-response","406","303428","0.0-1.0-603.0","0","0","30678","","null","","","null","66","","","","","","","","","","","","","","","NaN",""
"","S1","","html-keyboard-response","407","303682","0.0-1.0-605.0","0","0","30678","","null","","","null","67","","","","","","","","","","","","","","","",""
"","ISI","","html-keyboard-response","408","303836","0.0-1.0-606.0","0","0","30678","","null","","","null","67","NaN","","","","","","","","","","","","","","",""
"","S2","","html-keyboard-response","409","304088","0.0-1.0-607.0","0","0","30678","","null","","","null","67","","NaN","","","","","","","","","","","","","",""
"","response","","html-keyboard-response","410","305017","0.0-1.0-608.0-0.0","0","0","30678","","927","","","75","67","","","2","67","training","adjacent","DC","4","3","R.jpg","Q.jpg","0","0","1","",""
"","feedback","","html-keyboard-response","411","306021","0.0-1.0-609.0-0.0","0","0","30678","","null","","","null","67","","","","","","","","","","","","","","","",""
"","ITI","","html-keyboard-response","412","307024","0.0-1.0-612.0","0","0","30678","","null","","","null","67","","","","","","","","","","","","","","","NaN",""
"","S1","","html-keyboard-response","413","307277","0.0-1.0-614.0","0","0","30678","","null","","","null","68","","","","","","","","","","","","","","","",""
"","ISI","","html-keyboard-response","414","307430","0.0-1.0-615.0","0","0","30678","","null","","","null","68","NaN","","","","","","","","","","","","","","",""
"","S2","","html-keyboard-response","415","307683","0.0-1.0-616.0","0","0","30678","","null","","","null","68","","NaN","","","","","","","","","","","","","",""
"","response","","html-keyboard-response","416","308753","0.0-1.0-617.0-0.0","0","0","30678","","1068","","","75","68","","","2","68","training","adjacent","DC","4","3","R.jpg","Q.jpg","0","0","1","",""
"","feedback","","html-keyboard-response","417","309755","0.0-1.0-618.0-0.0","0","0","30678","","null","","","null","68","","","","","","","","","","","","","","","",""
"","ITI","","html-keyboard-response","418","310758","0.0-1.0-621.0","0","0","30678","","null","","","null","68","","","","","","","","","","","","","","","NaN",""
"","S1","","html-keyboard-response","419","311011","0.0-1.0-623.0","0","0","30678","","null","","","null","69","","","","","","","","","","","","","","","",""
"","ISI","","html-keyboard-response","420","311165","0.0-1.0-624.0","0","0","30678","","null","","","null","69","NaN","","","","","","","","","","","","","","",""
"","S2","","html-keyboard-response","421","311418","0.0-1.0-625.0","0","0","30678","","null","","","null","69","","NaN","","","","","","","","","","","","","",""
"","response","","html-keyboard-response","422","312214","0.0-1.0-626.0-0.0","0","0","30678","","792","","","75","69","","","2","69","training","adjacent","CD","3","4","Q.jpg","R.jpg","0","1","0","",""
"","feedback","","html-keyboard-response","423","313217","0.0-1.0-627.0-0.0","0","0","30678","","null","","","null","69","","","","","","","","","","","","","","","",""
"","time_out","","html-keyboard-response","424","315220","0.0-1.0-629.0-0.0","0","0","30678","","null","","","null","69","","","","","","","","","","","","","","","",""
"","ITI","","html-keyboard-response","425","316223","0.0-1.0-630.0","0","0","30678","","null","","","null","69","","","","","","","","","","","","","","","NaN",""
"","S1","","html-keyboard-response","426","316476","0.0-1.0-632.0","0","0","30678","","null","","","null","70","","","","","","","","","","","","","","","",""
"","ISI","","html-keyboard-response","427","316628","0.0-1.0-633.0","0","0","30678","","null","","","null","70","NaN","","","","","","","","","","","","","","",""
"","S2","","html-keyboard-response","428","316880","0.0-1.0-634.0","0","0","30678","","null","","","null","70","","NaN","","","","","","","","","","","","","",""
"","response","","html-keyboard-response","429","317490","0.0-1.0-635.0-0.0","0","0","30678","","607","","","68","70","","","2","70","training","adjacent","EF","5","6","M.jpg","O.jpg","1","1","1","",""
"","feedback","","html-keyboard-response","430","318493","0.0-1.0-636.0-0.0","0","0","30678","","null","","","null","70","","","","","","","","","","","","","","","",""
"","ITI","","html-keyboard-response","431","319495","0.0-1.0-639.0","0","0","30678","","null","","","null","70","","","","","","","","","","","","","","","NaN",""
"","S1","","html-keyboard-response","432","319749","0.0-1.0-641.0","0","0","30678","","null","","","null","71","","","","","","","","","","","","","","","",""
"","ISI","","html-keyboard-response","433","319901","0.0-1.0-642.0","0","0","30678","","null","","","null","71","NaN","","","","","","","","","","","","","","",""
"","S2","","html-keyboard-response","434","320154","0.0-1.0-643.0","0","0","30678","","null","","","null","71","","NaN","","","","","","","","","","","","","",""
"","response","","html-keyboard-response","435","321305","0.0-1.0-644.0-0.0","0","0","30678","","1148","","","68","71","","","2","71","training","adjacent","ED","5","4","M.jpg","R.jpg","1","0","0","",""
"","feedback","","html-keyboard-response","436","322308","0.0-1.0-645.0-0.0","0","0","30678","","null","","","null","71","","","","","","","","","","","","","","","",""
"","time_out","","html-keyboard-response","437","324316","0.0-1.0-647.0-0.0","0","0","30678","","null","","","null","71","","","","","","","","","","","","","","","",""
"","ITI","","html-keyboard-response","438","325318","0.0-1.0-648.0","0","0","30678","","null","","","null","71","","","","","","","","","","","","","","","NaN",""
"","S1","","html-keyboard-response","439","325571","0.0-1.0-650.0","0","0","30678","","null","","","null","72","","","","","","","","","","","","","","","",""
"","ISI","","html-keyboard-response","440","325723","0.0-1.0-651.0","0","0","30678","","null","","","null","72","NaN","","","","","","","","","","","","","","",""
"","S2","","html-keyboard-response","441","325976","0.0-1.0-652.0","0","0","30678","","null","","","null","72","","NaN","","","","","","","","","","","","","",""
"","response","","html-keyboard-response","442","326501","0.0-1.0-653.0-0.0","0","0","30678","","522","","","75","72","","","2","72","training","adjacent","BC","2","3","P.jpg","Q.jpg","0","1","0","",""
"","feedback","","html-keyboard-response","443","327504","0.0-1.0-654.0-0.0","0","0","30678","","null","","","null","72","","","","","","","","","","","","","","","",""
"","time_out","","html-keyboard-response","444","329508","0.0-1.0-656.0-0.0","0","0","30678","","null","","","null","72","","","","","","","","","","","","","","","",""
"","ITI","","html-keyboard-response","445","330509","0.0-1.0-657.0","0","0","30678","","null","","","null","72","","","","","","","","","","","","","","","NaN",""
"","S1","","html-keyboard-response","446","330762","0.0-1.0-659.0","0","0","30678","","null","","","null","73","","","","","","","","","","","","","","","",""
"","ISI","","html-keyboard-response","447","330916","0.0-1.0-660.0","0","0","30678","","null","","","null","73","NaN","","","","","","","","","","","","","","",""
"","S2","","html-keyboard-response","448","331169","0.0-1.0-661.0","0","0","30678","","null","","","null","73","","NaN","","","","","","","","","","","","","",""
"","response","","html-keyboard-response","449","331722","0.0-1.0-662.0-0.0","0","0","30678","","551","","","68","73","","","2","73","training","adjacent","CD","3","4","Q.jpg","R.jpg","1","1","1","",""
"","feedback","","html-keyboard-response","450","332730","0.0-1.0-663.0-0.0","0","0","30678","","null","","","null","73","","","","","","","","","","","","","","","",""
"","ITI","","html-keyboard-response","451","333733","0.0-1.0-666.0","0","0","30678","","null","","","null","73","","","","","","","","","","","","","","","NaN",""
"","S1","","html-keyboard-response","452","333985","0.0-1.0-668.0","0","0","30678","","null","","","null","74","","","","","","","","","","","","","","","",""
"","ISI","","html-keyboard-response","453","334138","0.0-1.0-669.0","0","0","30678","","null","","","null","74","NaN","","","","","","","","","","","","","","",""
"","S2","","html-keyboard-response","454","334390","0.0-1.0-670.0","0","0","30678","","null","","","null","74","","NaN","","","","","","","","","","","","","",""
"","response","","html-keyboard-response","455","335225","0.0-1.0-671.0-0.0","0","0","30678","","833","","","68","74","","","2","74","training","adjacent","CB","3","2","Q.jpg","P.jpg","1","0","0","",""
"","feedback","","html-keyboard-response","456","336229","0.0-1.0-672.0-0.0","0","0","30678","","null","","","null","74","","","","","","","","","","","","","","","",""
"","time_out","","html-keyboard-response","457","338233","0.0-1.0-674.0-0.0","0","0","30678","","null","","","null","74","","","","","","","","","","","","","","","",""
"","ITI","","html-keyboard-response","458","339237","0.0-1.0-675.0","0","0","30678","","null","","","null","74","","","","","","","","","","","","","","","NaN",""
"","S1","","html-keyboard-response","459","339490","0.0-1.0-677.0","0","0","30678","","null","","","null","75","","","","","","","","","","","","","","","",""
"","ISI","","html-keyboard-response","460","339643","0.0-1.0-678.0","0","0","30678","","null","","","null","75","NaN","","","","","","","","","","","","","","",""
"","S2","","html-keyboard-response","461","339897","0.0-1.0-679.0","0","0","30678","","null","","","null","75","","NaN","","","","","","","","","","","","","",""
"","response","","html-keyboard-response","462","340382","0.0-1.0-680.0-0.0","0","0","30678","","483","","","75","75","","","2","75","training","adjacent","ED","5","4","M.jpg","R.jpg","0","0","1","",""
"","feedback","","html-keyboard-response","463","341387","0.0-1.0-681.0-0.0","0","0","30678","","null","","","null","75","","","","","","","","","","","","","","","",""
"","ITI","","html-keyboard-response","464","342390","0.0-1.0-684.0","0","0","30678","","null","","","null","75","","","","","","","","","","","","","","","NaN",""
"","S1","","html-keyboard-response","465","342642","0.0-1.0-686.0","0","0","30678","","null","","","null","76","","","","","","","","","","","","","","","",""
"","ISI","","html-keyboard-response","466","342795","0.0-1.0-687.0","0","0","30678","","null","","","null","76","NaN","","","","","","","","","","","","","","",""
"","S2","","html-keyboard-response","467","343048","0.0-1.0-688.0","0","0","30678","","null","","","null","76","","NaN","","","","","","","","","","","","","",""
"","response","","html-keyboard-response","468","344441","0.0-1.0-689.0-0.0","0","0","30678","","1392","","","75","76","","","2","76","training","adjacent","FE","6","5","O.jpg","M.jpg","0","0","1","",""
"","feedback","","html-keyboard-response","469","345444","0.0-1.0-690.0-0.0","0","0","30678","","null","","","null","76","","","","","","","","","","","","","","","",""
"","ITI","","html-keyboard-response","470","346447","0.0-1.0-693.0","0","0","30678","","null","","","null","76","","","","","","","","","","","","","","","NaN",""
"","S1","","html-keyboard-response","471","346700","0.0-1.0-695.0","0","0","30678","","null","","","null","77","","","","","","","","","","","","","","","",""
"","ISI","","html-keyboard-response","472","346853","0.0-1.0-696.0","0","0","30678","","null","","","null","77","NaN","","","","","","","","","","","","","","",""
"","S2","","html-keyboard-response","473","347106","0.0-1.0-697.0","0","0","30678","","null","","","null","77","","NaN","","","","","","","","","","","","","",""
"","response","","html-keyboard-response","474","348233","0.0-1.0-698.0-0.0","0","0","30678","","1126","","","75","77","","","2","77","training","adjacent","GF","7","6","L.jpg","O.jpg","0","0","1","",""
"","feedback","","html-keyboard-response","475","349237","0.0-1.0-699.0-0.0","0","0","30678","","null","","","null","77","","","","","","","","","","","","","","","",""
"","ITI","","html-keyboard-response","476","350240","0.0-1.0-702.0","0","0","30678","","null","","","null","77","","","","","","","","","","","","","","","NaN",""
"","S1","","html-keyboard-response","477","350493","0.0-1.0-704.0","0","0","30678","","null","","","null","78","","","","","","","","","","","","","","","",""
"","ISI","","html-keyboard-response","478","350646","0.0-1.0-705.0","0","0","30678","","null","","","null","78","NaN","","","","","","","","","","","","","","",""
"","S2","","html-keyboard-response","479","350898","0.0-1.0-706.0","0","0","30678","","null","","","null","78","","NaN","","","","","","","","","","","","","",""
"","response","","html-keyboard-response","480","351877","0.0-1.0-707.0-0.0","0","0","30678","","976","","","75","78","","","2","78","training","adjacent","FE","6","5","O.jpg","M.jpg","0","0","1","",""
"","feedback","","html-keyboard-response","481","352880","0.0-1.0-708.0-0.0","0","0","30678","","null","","","null","78","","","","","","","","","","","","","","","",""
"","ITI","","html-keyboard-response","482","353883","0.0-1.0-711.0","0","0","30678","","null","","","null","78","","","","","","","","","","","","","","","NaN",""
"","S1","","html-keyboard-response","483","354135","0.0-1.0-713.0","0","0","30678","","null","","","null","79","","","","","","","","","","","","","","","",""
"","ISI","","html-keyboard-response","484","354288","0.0-1.0-714.0","0","0","30678","","null","","","null","79","NaN","","","","","","","","","","","","","","",""
"","S2","","html-keyboard-response","485","354545","0.0-1.0-715.0","0","0","30678","","null","","","null","79","","NaN","","","","","","","","","","","","","",""
"","response","","html-keyboard-response","486","355234","0.0-1.0-716.0-0.0","0","0","30678","","687","","","75","79","","","2","79","training","adjacent","BC","2","3","P.jpg","Q.jpg","0","1","0","",""
"","feedback","","html-keyboard-response","487","356239","0.0-1.0-717.0-0.0","0","0","30678","","null","","","null","79","","","","","","","","","","","","","","","",""
"","time_out","","html-keyboard-response","488","358243","0.0-1.0-719.0-0.0","0","0","30678","","null","","","null","79","","","","","","","","","","","","","","","",""
"","ITI","","html-keyboard-response","489","359246","0.0-1.0-720.0","0","0","30678","","190","","","68","79","","","","","","","","","","","","","","","d",""
"","S1","","html-keyboard-response","490","359499","0.0-1.0-722.0","0","0","30678","","null","","","null","80","","","","","","","","","","","","","","","",""
"","ISI","","html-keyboard-response","491","359651","0.0-1.0-723.0","0","0","30678","","null","","","null","80","NaN","","","","","","","","","","","","","","",""
"","S2","","html-keyboard-response","492","359904","0.0-1.0-724.0","0","0","30678","","null","","","null","80","","NaN","","","","","","","","","","","","","",""
"","response","","html-keyboard-response","493","360569","0.0-1.0-725.0-0.0","0","0","30678","","662","","","75","80","","","2","80","training","adjacent","AB","1","2","N.jpg","P.jpg","0","1","0","",""
"","feedback","","html-keyboard-response","494","361571","0.0-1.0-726.0-0.0","0","0","30678","","null","","","null","80","","","","","","","","","","","","","","","",""
"","time_out","","html-keyboard-response","495","363573","0.0-1.0-728.0-0.0","0","0","30678","","null","","","null","80","","","","","","","","","","","","","","","",""
"","ITI","","html-keyboard-response","496","364575","0.0-1.0-729.0","0","0","30678","","null","","","null","80","","","","","","","","","","","","","","","NaN",""
"","S1","","html-keyboard-response","497","364828","0.0-1.0-731.0","0","0","30678","","null","","","null","81","","","","","","","","","","","","","","","",""
"","ISI","","html-keyboard-response","498","364982","0.0-1.0-732.0","0","0","30678","","null","","","null","81","NaN","","","","","","","","","","","","","","",""
"","S2","","html-keyboard-response","499","365235","0.0-1.0-733.0","0","0","30678","","null","","","null","81","","NaN","","","","","","","","","","","","","",""
"","response","","html-keyboard-response","500","365798","0.0-1.0-734.0-0.0","0","0","30678","","560","","","68","81","","","2","81","training","adjacent","CD","3","4","Q.jpg","R.jpg","1","1","1","",""
"","feedback","","html-keyboard-response","501","366801","0.0-1.0-735.0-0.0","0","0","30678","","null","","","null","81","","","","","","","","","","","","","","","",""
"","ITI","","html-keyboard-response","502","367804","0.0-1.0-738.0","0","0","30678","","null","","","null","81","","","","","","","","","","","","","","","NaN",""
"","S1","","html-keyboard-response","503","368057","0.0-1.0-740.0","0","0","30678","","null","","","null","82","","","","","","","","","","","","","","","",""
"","ISI","","html-keyboard-response","504","368209","0.0-1.0-741.0","0","0","30678","","null","","","null","82","NaN","","","","","","","","","","","","","","",""
"","S2","","html-keyboard-response","505","368462","0.0-1.0-742.0","0","0","30678","","null","","","null","82","","NaN","","","","","","","","","","","","","",""
"","response","","html-keyboard-response","506","369761","0.0-1.0-743.0-0.0","0","0","30678","","1297","","","68","82","","","2","82","training","adjacent","ED","5","4","M.jpg","R.jpg","1","0","0","",""
"","feedback","","html-keyboard-response","507","370764","0.0-1.0-744.0-0.0","0","0","30678","","null","","","null","82","","","","","","","","","","","","","","","",""
"","time_out","","html-keyboard-response","508","372767","0.0-1.0-746.0-0.0","0","0","30678","","null","","","null","82","","","","","","","","","","","","","","","",""
"","ITI","","html-keyboard-response","509","373769","0.0-1.0-747.0","0","0","30678","","null","","","null","82","","","","","","","","","","","","","","","NaN",""
"","S1","","html-keyboard-response","510","374023","0.0-1.0-749.0","0","0","30678","","null","","","null","83","","","","","","","","","","","","","","","",""
"","ISI","","html-keyboard-response","511","374175","0.0-1.0-750.0","0","0","30678","","null","","","null","83","NaN","","","","","","","","","","","","","","",""
"","S2","","html-keyboard-response","512","374428","0.0-1.0-751.0","0","0","30678","","null","","","null","83","","NaN","","","","","","","","","","","","","",""
"","response","","html-keyboard-response","513","375025","0.0-1.0-752.0-0.0","0","0","30678","","596","","","75","83","","","2","83","training","adjacent","GF","7","6","L.jpg","O.jpg","0","0","1","",""
"","feedback","","html-keyboard-response","514","376029","0.0-1.0-753.0-0.0","0","0","30678","","null","","","null","83","","","","","","","","","","","","","","","",""
"","ITI","","html-keyboard-response","515","377032","0.0-1.0-756.0","0","0","30678","","null","","","null","83","","","","","","","","","","","","","","","NaN",""
"","S1","","html-keyboard-response","516","377286","0.0-1.0-758.0","0","0","30678","","null","","","null","84","","","","","","","","","","","","","","","",""
"","ISI","","html-keyboard-response","517","377439","0.0-1.0-759.0","0","0","30678","","null","","","null","84","NaN","","","","","","","","","","","","","","",""
"","S2","","html-keyboard-response","518","377692","0.0-1.0-760.0","0","0","30678","","null","","","null","84","","NaN","","","","","","","","","","","","","",""
"","response","","html-keyboard-response","519","378492","0.0-1.0-761.0-0.0","0","0","30678","","797","","","75","84","","","2","84","training","adjacent","DC","4","3","R.jpg","Q.jpg","0","0","1","",""
"","feedback","","html-keyboard-response","520","379497","0.0-1.0-762.0-0.0","0","0","30678","","null","","","null","84","","","","","","","","","","","","","","","",""
"","ITI","","html-keyboard-response","521","380500","0.0-1.0-765.0","0","0","30678","","null","","","null","84","","","","","","","","","","","","","","","NaN",""
"","S1","","html-keyboard-response","522","380753","0.0-1.0-767.0","0","0","30678","","null","","","null","85","","","","","","","","","","","","","","","",""
"","ISI","","html-keyboard-response","523","380905","0.0-1.0-768.0","0","0","30678","","null","","","null","85","NaN","","","","","","","","","","","","","","",""
"","S2","","html-keyboard-response","524","381159","0.0-1.0-769.0","0","0","30678","","null","","","null","85","","NaN","","","","","","","","","","","","","",""
"","response","","html-keyboard-response","525","381905","0.0-1.0-770.0-0.0","0","0","30678","","744","","","75","85","","","2","85","training","adjacent","AB","1","2","N.jpg","P.jpg","0","1","0","",""
"","feedback","","html-keyboard-response","526","382908","0.0-1.0-771.0-0.0","0","0","30678","","null","","","null","85","","","","","","","","","","","","","","","",""
"","time_out","","html-keyboard-response","527","384913","0.0-1.0-773.0-0.0","0","0","30678","","null","","","null","85","","","","","","","","","","","","","","","",""
"","ITI","","html-keyboard-response","528","385915","0.0-1.0-774.0","0","0","30678","","null","","","null","85","","","","","","","","","","","","","","","NaN",""
"","S1","","html-keyboard-response","529","386168","0.0-1.0-776.0","0","0","30678","","null","","","null","86","","","","","","","","","","","","","","","",""
"","ISI","","html-keyboard-response","530","386321","0.0-1.0-777.0","0","0","30678","","null","","","null","86","NaN","","","","","","","","","","","","","","",""
"","S2","","html-keyboard-response","531","386574","0.0-1.0-778.0","0","0","30678","","null","","","null","86","","NaN","","","","","","","","","","","","","",""
"","response","","html-keyboard-response","532","386905","0.0-1.0-779.0-0.0","0","0","30678","","328","","","68","86","","","2","86","training","adjacent","BC","2","3","P.jpg","Q.jpg","1","1","1","",""
"","feedback","","html-keyboard-response","533","387908","0.0-1.0-780.0-0.0","0","0","30678","","null","","","null","86","","","","","","","","","","","","","","","",""
"","ITI","","html-keyboard-response","534","388911","0.0-1.0-783.0","0","0","30678","","null","","","null","86","","","","","","","","","","","","","","","NaN",""
"","S1","","html-keyboard-response","535","389165","0.0-1.0-785.0","0","0","30678","","null","","","null","87","","","","","","","","","","","","","","","",""
"","ISI","","html-keyboard-response","536","389318","0.0-1.0-786.0","0","0","30678","","null","","","null","87","NaN","","","","","","","","","","","","","","",""
"","S2","","html-keyboard-response","537","389572","0.0-1.0-787.0","0","0","30678","","null","","","null","87","","NaN","","","","","","","","","","","","","",""
"","response","","html-keyboard-response","538","391326","0.0-1.0-788.0-0.0","0","0","30678","","null","","","null","87","","","2","87","training","adjacent","ED","5","4","M.jpg","R.jpg","NaN","0","0","",""
"","too_slow_prompt","","html-keyboard-response","539","392329","0.0-1.0-790.0-0.0","1","0","30678","","null","","","null","","","","","","","","","","","","","","","","",""
"","time_out","","html-keyboard-response","540","394332","0.0-1.0-791.0-0.0","0","0","30678","","null","","","null","87","","","","","","","","","","","","","","","",""
"","ITI","","html-keyboard-response","541","395334","0.0-1.0-792.0","0","0","30678","","null","","","null","87","","","","","","","","","","","","","","","NaN",""
"","S1","","html-keyboard-response","542","395587","0.0-1.0-794.0","0","0","30678","","null","","","null","88","","","","","","","","","","","","","","","",""
"","ISI","","html-keyboard-response","543","395739","0.0-1.0-795.0","0","0","30678","","null","","","null","88","NaN","","","","","","","","","","","","","","",""
"","S2","","html-keyboard-response","544","395993","0.0-1.0-796.0","0","0","30678","","null","","","null","88","","NaN","","","","","","","","","","","","","",""
"","response","","html-keyboard-response","545","397066","0.0-1.0-797.0-0.0","0","0","30678","","1071","","","75","88","","","2","88","training","adjacent","CB","3","2","Q.jpg","P.jpg","0","0","1","",""
"","feedback","","html-keyboard-response","546","398068","0.0-1.0-798.0-0.0","0","0","30678","","null","","","null","88","","","","","","","","","","","","","","","",""
"","ITI","","html-keyboard-response","547","399070","0.0-1.0-801.0","0","0","30678","","null","","","null","88","","","","","","","","","","","","","","","NaN",""
"","S1","","html-keyboard-response","548","399323","0.0-1.0-803.0","0","0","30678","","null","","","null","89","","","","","","","","","","","","","","","",""
"","ISI","","html-keyboard-response","549","399476","0.0-1.0-804.0","0","0","30678","","null","","","null","89","NaN","","","","","","","","","","","","","","",""
"","S2","","html-keyboard-response","550","399730","0.0-1.0-805.0","0","0","30678","","null","","","null","89","","NaN","","","","","","","","","","","","","",""
"","response","","html-keyboard-response","551","400673","0.0-1.0-806.0-0.0","0","0","30678","","942","","","75","89","","","2","89","training","adjacent","EF","5","6","M.jpg","O.jpg","0","1","0","",""
"","feedback","","html-keyboard-response","552","401677","0.0-1.0-807.0-0.0","0","0","30678","","null","","","null","89","","","","","","","","","","","","","","","",""
"","time_out","","html-keyboard-response","553","403680","0.0-1.0-809.0-0.0","0","0","30678","","null","","","null","89","","","","","","","","","","","","","","","",""
"","ITI","","html-keyboard-response","554","404682","0.0-1.0-810.0","0","0","30678","","null","","","null","89","","","","","","","","","","","","","","","NaN",""
"","S1","","html-keyboard-response","555","404936","0.0-1.0-812.0","0","0","30678","","null","","","null","90","","","","","","","","","","","","","","","",""
"","ISI","","html-keyboard-response","556","405089","0.0-1.0-813.0","0","0","30678","","null","","","null","90","NaN","","","","","","","","","","","","","","",""
"","S2","","html-keyboard-response","557","405344","0.0-1.0-814.0","0","0","30678","","null","","","null","90","","NaN","","","","","","","","","","","","","",""
"","response","","html-keyboard-response","558","405988","0.0-1.0-815.0-0.0","0","0","30678","","641","","","68","90","","","2","90","training","adjacent","FG","6","7","O.jpg","L.jpg","1","1","1","",""
"","feedback","","html-keyboard-response","559","406990","0.0-1.0-816.0-0.0","0","0","30678","","null","","","null","90","","","","","","","","","","","","","","","",""
"","ITI","","html-keyboard-response","560","407993","0.0-1.0-819.0","0","0","30678","","null","","","null","90","","","","","","","","","","","","","","","NaN",""
"","S1","","html-keyboard-response","561","408248","0.0-1.0-821.0","0","0","30678","","null","","","null","91","","","","","","","","","","","","","","","",""
"","ISI","","html-keyboard-response","562","408401","0.0-1.0-822.0","0","0","30678","","null","","","null","91","NaN","","","","","","","","","","","","","","",""
"","S2","","html-keyboard-response","563","408654","0.0-1.0-823.0","0","0","30678","","null","","","null","91","","NaN","","","","","","","","","","","","","",""
"","response","","html-keyboard-response","564","409449","0.0-1.0-824.0-0.0","0","0","30678","","793","","","68","91","","","2","91","training","adjacent","EF","5","6","M.jpg","O.jpg","1","1","1","",""
"","feedback","","html-keyboard-response","565","410452","0.0-1.0-825.0-0.0","0","0","30678","","null","","","null","91","","","","","","","","","","","","","","","",""
"","ITI","","html-keyboard-response","566","411455","0.0-1.0-828.0","0","0","30678","","null","","","null","91","","","","","","","","","","","","","","","NaN",""
"","S1","","html-keyboard-response","567","411709","0.0-1.0-830.0","0","0","30678","","null","","","null","92","","","","","","","","","","","","","","","",""
"","ISI","","html-keyboard-response","568","411863","0.0-1.0-831.0","0","0","30678","","null","","","null","92","NaN","","","","","","","","","","","","","","",""
"","S2","","html-keyboard-response","569","412117","0.0-1.0-832.0","0","0","30678","","null","","","null","92","","NaN","","","","","","","","","","","","","",""
"","response","","html-keyboard-response","570","412937","0.0-1.0-833.0-0.0","0","0","30678","","819","","","68","92","","","2","92","training","adjacent","GF","7","6","L.jpg","O.jpg","1","0","0","",""
"","feedback","","html-keyboard-response","571","413947","0.0-1.0-834.0-0.0","0","0","30678","","null","","","null","92","","","","","","","","","","","","","","","",""
"","time_out","","html-keyboard-response","572","415949","0.0-1.0-836.0-0.0","0","0","30678","","null","","","null","92","","","","","","","","","","","","","","","",""
"","ITI","","html-keyboard-response","573","416953","0.0-1.0-837.0","0","0","30678","","null","","","null","92","","","","","","","","","","","","","","","NaN",""
"","S1","","html-keyboard-response","574","417205","0.0-1.0-839.0","0","0","30678","","null","","","null","93","","","","","","","","","","","","","","","",""
"","ISI","","html-keyboard-response","575","417358","0.0-1.0-840.0","0","0","30678","","null","","","null","93","NaN","","","","","","","","","","","","","","",""
"","S2","","html-keyboard-response","576","417611","0.0-1.0-841.0","0","0","30678","","null","","","null","93","","NaN","","","","","","","","","","","","","",""
"","response","","html-keyboard-response","577","418115","0.0-1.0-842.0-0.0","0","0","30678","","502","","","75","93","","","2","93","training","adjacent","DC","4","3","R.jpg","Q.jpg","0","0","1","",""
"","feedback","","html-keyboard-response","578","419118","0.0-1.0-843.0-0.0","0","0","30678","","null","","","null","93","","","","","","","","","","","","","","","",""
"","ITI","","html-keyboard-response","579","420123","0.0-1.0-846.0","0","0","30678","","null","","","null","93","","","","","","","","","","","","","","","NaN",""
"","S1","","html-keyboard-response","580","420375","0.0-1.0-848.0","0","0","30678","","null","","","null","94","","","","","","","","","","","","","","","",""
"","ISI","","html-keyboard-response","581","420529","0.0-1.0-849.0","0","0","30678","","null","","","null","94","NaN","","","","","","","","","","","","","","",""
"","S2","","html-keyboard-response","582","420783","0.0-1.0-850.0","0","0","30678","","null","","","null","94","","NaN","","","","","","","","","","","","","",""
"","response","","html-keyboard-response","583","422043","0.0-1.0-851.0-0.0","0","0","30678","","1258","","","75","94","","","2","94","training","adjacent","CD","3","4","Q.jpg","R.jpg","0","1","0","",""
