"success","ttype","start_time","trial_type","trial_index","time_elapsed","internal_node_id","warning","missed_checkup","PID","view_history","rt","responses","repeat_instructions","key_press","index","keypress_isi","keypress_S2","block","trial_num","phase","group_type","pair_type","S1_stim","S2_stim","S1_img","S2_img","S1_chosen","S1_higher","accuracy","keypress_iti","total_bonus_tally"
"true","full_screen","d03072023hr2140","fullscreen","0","4674","0.0-0.0","0","0","77769","","","","","","","","","","","","","","","","","","","","","",""
"","instructions","","instructions","1","30684","0.0-1.0-0.0-0.0","0","0","77769","[{""page_index"":0,""viewing_time"":3055},{""page_index"":1,""viewing_time"":15567},{""page_index"":2,""viewing_time"":6347},{""page_index"":3,""viewing_time"":1038}]","26007","","","","","","","","","","","","","","","","","","","",""
"","comprehension_check","","survey-multi-choice","2","51831","0.0-1.0-0.0-1.0","0","0","77769","","21141","{""Q0"":""True"",""Q1"":""K"",""Q2"":""Only when the screen 'MAKE A CHOICE' is shown"",""Q3"":""Green mark"",""Q4"":""either D or K""}","1","","","","","","","","","","","","","","","","","",""
"","missed_instruction_checkup","","html-keyboard-response","3","53489","0.0-1.0-0.0-2.0-0.0","0","1","77769","","1654","","","32","","","","","","","","","","","","","","","","",""
"","instructions","","instructions","4","64749","0.0-1.0-0.1-0.1","0","0","77769","[{""page_index"":0,""viewing_time"":1857},{""page_index"":1,""viewing_time"":7196},{""page_index"":2,""viewing_time"":1054},{""page_index"":3,""viewing_time"":1150}]","11258","","","","","","","","","","","","","","","","","","","",""
"","comprehension_check","","survey-multi-choice","5","74287","0.0-1.0-0.1-1.1","0","0","77769","","9534","{""Q0"":""True"",""Q1"":""K"",""Q2"":""Once the second image appears and while the screen 'MAKE A CHOICE' is shown"",""Q3"":""Green mark"",""Q4"":""either D or K""}","0","","","","","","","","","","","","","","","","","",""
"","start_exp","","html-keyboard-response","6","75975","0.0-1.0-1.0","0","0","77769","","1684","","","32","","","","","","","","","","","","","","","","",""
"","S1","","html-keyboard-response","7","76231","0.0-1.0-2.0","0","0","77769","","null","","","null","0","","","","","","","","","","","","","","","",""
"","ISI","","html-keyboard-response","8","77245","0.0-1.0-3.0","0","0","77769","","null","","","null","0","NaN","","","","","","","","","","","","","","",""
"","S2","","html-keyboard-response","9","77502","0.0-1.0-4.0","0","0","77769","","null","","","null","0","","NaN","","","","","","","","","","","","","",""
"","response","","html-keyboard-response","10","79262","0.0-1.0-5.0-0.0","0","0","77769","","null","","","null","0","","","1","0","training","adjacent","CD","3","4","L.jpg","N.jpg","NaN","1","0","",""
"","too_slow_prompt","","html-keyboard-response","11","80275","0.0-1.0-7.0-0.0","1","0","77769","","null","","","null","","","","","","","","","","","","","","","","",""
"","time_out","","html-keyboard-response","12","82297","0.0-1.0-8.0-0.0","0","0","77769","","null","","","null","0","","","","","","","","","","","","","","","",""
"","ITI","","html-keyboard-response","13","83301","0.0-1.0-9.0","0","0","77769","","null","","","null","0","","","","","","","","","","","","","","","NaN",""
"","S1","","html-keyboard-response","14","83563","0.0-1.0-11.0","0","0","77769","","null","","","null","1","","","","","","","","","","","","","","","",""
"","ISI","","html-keyboard-response","15","84567","0.0-1.0-12.0","0","0","77769","","753","","","68","1","d","","","","","","","","","","","","","","",""
"","S2","","html-keyboard-response","16","84828","0.0-1.0-13.0","0","0","77769","","null","","","null","1","","NaN","","","","","","","","","","","","","",""
"","response","","html-keyboard-response","17","85207","0.0-1.0-14.0-0.0","0","0","77769","","376","","","68","1","","","1","1","training","adjacent","CB","3","2","L.jpg","Q.jpg","0","0","1","",""
"","feedback","","html-keyboard-response","18","86219","0.0-1.0-15.0-0.0","0","0","77769","","null","","","null","1","","","","","","","","","","","","","","","",""
"","ITI","","html-keyboard-response","19","87228","0.0-1.0-18.0","0","0","77769","","null","","","null","1","","","","","","","","","","","","","","","NaN",""
"","S1","","html-keyboard-response","20","87489","0.0-1.0-20.0","0","0","77769","","null","","","null","2","","","","","","","","","","","","","","","",""
"","ISI","","html-keyboard-response","21","88501","0.0-1.0-21.0","0","0","77769","","null","","","null","2","NaN","","","","","","","","","","","","","","",""
"","S2","","html-keyboard-response","22","88759","0.0-1.0-22.0","0","0","77769","","null","","","null","2","","NaN","","","","","","","","","","","","","",""
"","response","","html-keyboard-response","23","88806","0.0-1.0-23.0-0.0","0","0","77769","","44","","","68","2","","","1","2","training","adjacent","FE","6","5","P.jpg","M.jpg","0","0","1","",""
"","feedback","","html-keyboard-response","24","89822","0.0-1.0-24.0-0.0","0","0","77769","","null","","","null","2","","","","","","","","","","","","","","","",""
"","ITI","","html-keyboard-response","25","90843","0.0-1.0-27.0","0","0","77769","","null","","","null","2","","","","","","","","","","","","","","","NaN",""
"","S1","","html-keyboard-response","26","91098","0.0-1.0-29.0","0","0","77769","","null","","","null","3","","","","","","","","","","","","","","","",""
"","ISI","","html-keyboard-response","27","92111","0.0-1.0-30.0","0","0","77769","","null","","","null","3","NaN","","","","","","","","","","","","","","",""
"","S2","","html-keyboard-response","28","92366","0.0-1.0-31.0","0","0","77769","","null","","","null","3","","NaN","","","","","","","","","","","","","",""
"","response","","html-keyboard-response","29","92378","0.0-1.0-32.0-0.0","0","0","77769","","10","","","75","3","","","1","3","training","adjacent","CD","3","4","L.jpg","N.jpg","1","1","1","",""
"","feedback","","html-keyboard-response","30","93387","0.0-1.0-33.0-0.0","0","0","77769","","null","","","null","3","","","","","","","","","","","","","","","",""
"","ITI","","html-keyboard-response","31","94398","0.0-1.0-36.0","0","0","77769","","null","","","null","3","","","","","","","","","","","","","","","NaN",""
"","S1","","html-keyboard-response","32","94655","0.0-1.0-38.0","0","0","77769","","null","","","null","4","","","","","","","","","","","","","","","",""
"","ISI","","html-keyboard-response","33","95662","0.0-1.0-39.0","0","0","77769","","null","","","null","4","NaN","","","","","","","","","","","","","","",""
"","S2","","html-keyboard-response","34","95923","0.0-1.0-40.0","0","0","77769","","null","","","null","4","","NaN","","","","","","","","","","","","","",""
"","response","","html-keyboard-response","35","95966","0.0-1.0-41.0-0.0","0","0","77769","","39","","","75","4","","","1","4","training","adjacent","BC","2","3","Q.jpg","L.jpg","1","1","1","",""
"","feedback","","html-keyboard-response","36","96982","0.0-1.0-42.0-0.0","0","0","77769","","null","","","null","4","","","","","","","","","","","","","","","",""
"","ITI","","html-keyboard-response","37","97988","0.0-1.0-45.0","0","0","77769","","null","","","null","4","","","","","","","","","","","","","","","NaN",""
"","S1","","html-keyboard-response","38","98250","0.0-1.0-47.0","0","0","77769","","null","","","null","5","","","","","","","","","","","","","","","",""
"","ISI","","html-keyboard-response","39","99257","0.0-1.0-48.0","0","0","77769","","null","","","null","5","NaN","","","","","","","","","","","","","","",""
"","S2","","html-keyboard-response","40","99513","0.0-1.0-49.0","0","0","77769","","null","","","null","5","","NaN","","","","","","","","","","","","","",""
"","response","","html-keyboard-response","41","99645","0.0-1.0-50.0-0.0","0","0","77769","","128","","","75","5","","","1","5","training","adjacent","EF","5","6","M.jpg","P.jpg","1","1","1","",""
"","feedback","","html-keyboard-response","42","100649","0.0-1.0-51.0-0.0","0","0","77769","","null","","","null","5","","","","","","","","","","","","","","","",""
"","ITI","","html-keyboard-response","43","101664","0.0-1.0-54.0","0","0","77769","","null","","","null","5","","","","","","","","","","","","","","","NaN",""
"","S1","","html-keyboard-response","44","101929","0.0-1.0-56.0","0","0","77769","","null","","","null","6","","","","","","","","","","","","","","","",""
"","ISI","","html-keyboard-response","45","102935","0.0-1.0-57.0","0","0","77769","","null","","","null","6","NaN","","","","","","","","","","","","","","",""
"","S2","","html-keyboard-response","46","103200","0.0-1.0-58.0","0","0","77769","","null","","","null","6","","NaN","","","","","","","","","","","","","",""
"","response","","html-keyboard-response","47","103342","0.0-1.0-59.0-0.0","0","0","77769","","139","","","68","6","","","1","6","training","adjacent","CB","3","2","L.jpg","Q.jpg","0","0","1","",""
"","feedback","","html-keyboard-response","48","104359","0.0-1.0-60.0-0.0","0","0","77769","","null","","","null","6","","","","","","","","","","","","","","","",""
"","ITI","","html-keyboard-response","49","105365","0.0-1.0-63.0","0","0","77769","","null","","","null","6","","","","","","","","","","","","","","","NaN",""
"","S1","","html-keyboard-response","50","105627","0.0-1.0-65.0","0","0","77769","","null","","","null","7","","","","","","","","","","","","","","","",""
"","ISI","","html-keyboard-response","51","106637","0.0-1.0-66.0","0","0","77769","","null","","","null","7","NaN","","","","","","","","","","","","","","",""
"","S2","","html-keyboard-response","52","106895","0.0-1.0-67.0","0","0","77769","","null","","","null","7","","NaN","","","","","","","","","","","","","",""
"","response","","html-keyboard-response","53","106973","0.0-1.0-68.0-0.0","0","0","77769","","74","","","75","7","","","1","7","training","adjacent","CD","3","4","L.jpg","N.jpg","1","1","1","",""
"","feedback","","html-keyboard-response","54","107981","0.0-1.0-69.0-0.0","0","0","77769","","null","","","null","7","","","","","","","","","","","","","","","",""
"","ITI","","html-keyboard-response","55","108991","0.0-1.0-72.0","0","0","77769","","null","","","null","7","","","","","","","","","","","","","","","NaN",""
"","S1","","html-keyboard-response","56","109255","0.0-1.0-74.0","0","0","77769","","null","","","null","8","","","","","","","","","","","","","","","",""
"","ISI","","html-keyboard-response","57","110267","0.0-1.0-75.0","0","0","77769","","null","","","null","8","NaN","","","","","","","","","","","","","","",""
"","S2","","html-keyboard-response","58","110522","0.0-1.0-76.0","0","0","77769","","null","","","null","8","","NaN","","","","","","","","","","","","","",""
"","response","","html-keyboard-response","59","110773","0.0-1.0-77.0-0.0","0","0","77769","","249","","","75","8","","","1","8","training","adjacent","BC","2","3","Q.jpg","L.jpg","1","1","1","",""
"","feedback","","html-keyboard-response","60","111782","0.0-1.0-78.0-0.0","0","0","77769","","null","","","null","8","","","","","","","","","","","","","","","",""
"","ITI","","html-keyboard-response","61","112792","0.0-1.0-81.0","0","0","77769","","null","","","null","8","","","","","","","","","","","","","","","NaN",""
"","S1","","html-keyboard-response","62","113058","0.0-1.0-83.0","0","0","77769","","null","","","null","9","","","","","","","","","","","","","","","",""
"","ISI","","html-keyboard-response","63","114067","0.0-1.0-84.0","0","0","77769","","null","","","null","9","NaN","","","","","","","","","","","","","","",""
"","S2","","html-keyboard-response","64","114325","0.0-1.0-85.0","0","0","77769","","254","","","68","9","","d","1","9","training","adjacent","CD","3","4","L.jpg","N.jpg","0","1","0","",""
"","feedback","","html-keyboard-response","65","115337","0.0-1.0-87.0-0.0","0","0","77769","","null","","","null","9","","","","","","","","","","","","","","","",""
"","time_out","","html-keyboard-response","66","117346","0.0-1.0-89.0-0.0","0","0","77769","","null","","","null","9","","","","","","","","","","","","","","","",""
"","ITI","","html-keyboard-response","67","118355","0.0-1.0-90.0","0","0","77769","","null","","","null","9","","","","","","","","","","","","","","","NaN",""
"","S1","","html-keyboard-response","68","118617","0.0-1.0-92.0","0","0","77769","","null","","","null","10","","","","","","","","","","","","","","","",""
"","ISI","","html-keyboard-response","69","119629","0.0-1.0-93.0","0","0","77769","","null","","","null","10","NaN","","","","","","","","","","","","","","",""
"","S2","","html-keyboard-response","70","119887","0.0-1.0-94.0","0","0","77769","","null","","","null","10","","NaN","","","","","","","","","","","","","",""
"","response","","html-keyboard-response","71","119957","0.0-1.0-95.0-0.0","0","0","77769","","67","","","75","10","","","1","10","training","adjacent","GF","7","6","R.jpg","P.jpg","1","0","0","",""
"","feedback","","html-keyboard-response","72","120966","0.0-1.0-96.0-0.0","0","0","77769","","null","","","null","10","","","","","","","","","","","","","","","",""
"","time_out","","html-keyboard-response","73","122978","0.0-1.0-98.0-0.0","0","0","77769","","null","","","null","10","","","","","","","","","","","","","","","",""
"","ITI","","html-keyboard-response","74","123985","0.0-1.0-99.0","0","0","77769","","null","","","null","10","","","","","","","","","","","","","","","NaN",""
"","S1","","html-keyboard-response","75","124246","0.0-1.0-101.0","0","0","77769","","null","","","null","11","","","","","","","","","","","","","","","",""
"","ISI","","html-keyboard-response","76","125263","0.0-1.0-102.0","0","0","77769","","null","","","null","11","NaN","","","","","","","","","","","","","","",""
"","S2","","html-keyboard-response","77","125522","0.0-1.0-103.0","0","0","77769","","null","","","null","11","","NaN","","","","","","","","","","","","","",""
"","response","","html-keyboard-response","78","125773","0.0-1.0-104.0-0.0","0","0","77769","","247","","","75","11","","","1","11","training","adjacent","CB","3","2","L.jpg","Q.jpg","1","0","0","",""
"","feedback","","html-keyboard-response","79","126788","0.0-1.0-105.0-0.0","0","0","77769","","null","","","null","11","","","","","","","","","","","","","","","",""
"","time_out","","html-keyboard-response","80","128797","0.0-1.0-107.0-0.0","0","0","77769","","null","","","null","11","","","","","","","","","","","","","","","",""
"","ITI","","html-keyboard-response","81","129801","0.0-1.0-108.0","0","0","77769","","null","","","null","11","","","","","","","","","","","","","","","NaN",""
"","S1","","html-keyboard-response","82","130061","0.0-1.0-110.0","0","0","77769","","null","","","null","12","","","","","","","","","","","","","","","",""
"","ISI","","html-keyboard-response","83","131073","0.0-1.0-111.0","0","0","77769","","null","","","null","12","NaN","","","","","","","","","","","","","","",""
"","S2","","html-keyboard-response","84","131345","0.0-1.0-112.0","0","0","77769","","null","","","null","12","","NaN","","","","","","","","","","","","","",""
"","response","","html-keyboard-response","85","131517","0.0-1.0-113.0-0.0","0","0","77769","","169","","","68","12","","","1","12","training","adjacent","DC","4","3","N.jpg","L.jpg","0","0","1","",""
"","feedback","","html-keyboard-response","86","132532","0.0-1.0-114.0-0.0","0","0","77769","","null","","","null","12","","","","","","","","","","","","","","","",""
"","ITI","","html-keyboard-response","87","133543","0.0-1.0-117.0","0","0","77769","","null","","","null","12","","","","","","","","","","","","","","","NaN",""
"","S1","","html-keyboard-response","88","133805","0.0-1.0-119.0","0","0","77769","","null","","","null","13","","","","","","","","","","","","","","","",""
"","ISI","","html-keyboard-response","89","134819","0.0-1.0-120.0","0","0","77769","","null","","","null","13","NaN","","","","","","","","","","","","","","",""
"","S2","","html-keyboard-response","90","135083","0.0-1.0-121.0","0","0","77769","","null","","","null","13","","NaN","","","","","","","","","","","","","",""
"","response","","html-keyboard-response","91","135373","0.0-1.0-122.0-0.0","0","0","77769","","287","","","68","13","","","1","13","training","adjacent","GF","7","6","R.jpg","P.jpg","0","0","1","",""
"","feedback","","html-keyboard-response","92","136389","0.0-1.0-123.0-0.0","0","0","77769","","null","","","null","13","","","","","","","","","","","","","","","",""
"","ITI","","html-keyboard-response","93","137393","0.0-1.0-126.0","0","0","77769","","null","","","null","13","","","","","","","","","","","","","","","NaN",""
"","S1","","html-keyboard-response","94","137656","0.0-1.0-128.0","0","0","77769","","null","","","null","14","","","","","","","","","","","","","","","",""
"","ISI","","html-keyboard-response","95","138667","0.0-1.0-129.0","0","0","77769","","null","","","null","14","NaN","","","","","","","","","","","","","","",""
"","S2","","html-keyboard-response","96","138925","0.0-1.0-130.0","0","0","77769","","null","","","null","14","","NaN","","","","","","","","","","","","","",""
"","response","","html-keyboard-response","97","139261","0.0-1.0-131.0-0.0","0","0","77769","","333","","","75","14","","","1","14","training","adjacent","DE","4","5","N.jpg","M.jpg","1","1","1","",""
"","feedback","","html-keyboard-response","98","140275","0.0-1.0-132.0-0.0","0","0","77769","","null","","","null","14","","","","","","","","","","","","","","","",""
"","ITI","","html-keyboard-response","99","141283","0.0-1.0-135.0","0","0","77769","","null","","","null","14","","","","","","","","","","","","","","","NaN",""
"","S1","","html-keyboard-response","100","141544","0.0-1.0-137.0","0","0","77769","","null","","","null","15","","","","","","","","","","","","","","","",""
"","ISI","","html-keyboard-response","101","142551","0.0-1.0-138.0","0","0","77769","","null","","","null","15","NaN","","","","","","","","","","","","","","",""
"","S2","","html-keyboard-response","102","142811","0.0-1.0-139.0","0","0","77769","","null","","","null","15","","NaN","","","","","","","","","","","","","",""
"","response","","html-keyboard-response","103","143022","0.0-1.0-140.0-0.0","0","0","77769","","207","","","68","15","","","1","15","training","adjacent","GF","7","6","R.jpg","P.jpg","0","0","1","",""
"","feedback","","html-keyboard-response","104","144035","0.0-1.0-141.0-0.0","0","0","77769","","null","","","null","15","","","","","","","","","","","","","","","",""
"","ITI","","html-keyboard-response","105","145053","0.0-1.0-144.0","0","0","77769","","null","","","null","15","","","","","","","","","","","","","","","NaN",""
"","S1","","html-keyboard-response","106","145317","0.0-1.0-146.0","0","0","77769","","null","","","null","16","","","","","","","","","","","","","","","",""
"","ISI","","html-keyboard-response","107","146331","0.0-1.0-147.0","0","0","77769","","null","","","null","16","NaN","","","","","","","","","","","","","","",""
"","S2","","html-keyboard-response","108","146601","0.0-1.0-148.0","0","0","77769","","null","","","null","16","","NaN","","","","","","","","","","","","","",""
"","response","","html-keyboard-response","109","146981","0.0-1.0-149.0-0.0","0","0","77769","","378","","","68","16","","","1","16","training","adjacent","ED","5","4","M.jpg","N.jpg","0","0","1","",""
"","feedback","","html-keyboard-response","110","147988","0.0-1.0-150.0-0.0","0","0","77769","","null","","","null","16","","","","","","","","","","","","","","","",""
"","ITI","","html-keyboard-response","111","148999","0.0-1.0-153.0","0","0","77769","","null","","","null","16","","","","","","","","","","","","","","","NaN",""
"","S1","","html-keyboard-response","112","149257","0.0-1.0-155.0","0","0","77769","","null","","","null","17","","","","","","","","","","","","","","","",""
"","ISI","","html-keyboard-response","113","150263","0.0-1.0-156.0","0","0","77769","","null","","","null","17","NaN","","","","","","","","","","","","","","",""
"","S2","","html-keyboard-response","114","150523","0.0-1.0-157.0","0","0","77769","","null","","","null","17","","NaN","","","","","","","","","","","","","",""
"","response","","html-keyboard-response","115","150621","0.0-1.0-158.0-0.0","0","0","77769","","94","","","68","17","","","1","17","training","adjacent","ED","5","4","M.jpg","N.jpg","0","0","1","",""
"","feedback","","html-keyboard-response","116","151628","0.0-1.0-159.0-0.0","0","0","77769","","null","","","null","17","","","","","","","","","","","","","","","",""
"","ITI","","html-keyboard-response","117","152640","0.0-1.0-162.0","0","0","77769","","null","","","null","17","","","","","","","","","","","","","","","NaN",""
"","S1","","html-keyboard-response","118","152907","0.0-1.0-164.0","0","0","77769","","null","","","null","18","","","","","","","","","","","","","","","",""
"","ISI","","html-keyboard-response","119","153916","0.0-1.0-165.0","0","0","77769","","null","","","null","18","NaN","","","","","","","","","","","","","","",""
"","S2","","html-keyboard-response","120","154184","0.0-1.0-166.0","0","0","77769","","null","","","null","18","","NaN","","","","","","","","","","","","","",""
"","response","","html-keyboard-response","121","154311","0.0-1.0-167.0-0.0","0","0","77769","","123","","","75","18","","","1","18","training","adjacent","BC","2","3","Q.jpg","L.jpg","1","1","1","",""
"","feedback","","html-keyboard-response","122","155331","0.0-1.0-168.0-0.0","0","0","77769","","null","","","null","18","","","","","","","","","","","","","","","",""
"","ITI","","html-keyboard-response","123","156342","0.0-1.0-171.0","0","0","77769","","null","","","null","18","","","","","","","","","","","","","","","NaN",""
"","S1","","html-keyboard-response","124","156602","0.0-1.0-173.0","0","0","77769","","null","","","null","19","","","","","","","","","","","","","","","",""
"","ISI","","html-keyboard-response","125","157616","0.0-1.0-174.0","0","0","77769","","null","","","null","19","NaN","","","","","","","","","","","","","","",""
"","S2","","html-keyboard-response","126","157878","0.0-1.0-175.0","0","0","77769","","null","","","null","19","","NaN","","","","","","","","","","","","","",""
"","response","","html-keyboard-response","127","157881","0.0-1.0-176.0-0.0","0","0","77769","","1","","","75","19","","","1","19","training","adjacent","FE","6","5","P.jpg","M.jpg","1","0","0","",""
"","feedback","","html-keyboard-response","128","158893","0.0-1.0-177.0-0.0","0","0","77769","","null","","","null","19","","","","","","","","","","","","","","","",""
"","time_out","","html-keyboard-response","129","160908","0.0-1.0-179.0-0.0","0","0","77769","","null","","","null","19","","","","","","","","","","","","","","","",""
"","ITI","","html-keyboard-response","130","161921","0.0-1.0-180.0","0","0","77769","","null","","","null","19","","","","","","","","","","","","","","","NaN",""
"","S1","","html-keyboard-response","131","162176","0.0-1.0-182.0","0","0","77769","","null","","","null","20","","","","","","","","","","","","","","","",""
"","ISI","","html-keyboard-response","132","163187","0.0-1.0-183.0","0","0","77769","","null","","","null","20","NaN","","","","","","","","","","","","","","",""
"","S2","","html-keyboard-response","133","163447","0.0-1.0-184.0","0","0","77769","","null","","","null","20","","NaN","","","","","","","","","","","","","",""
"","response","","html-keyboard-response","134","163510","0.0-1.0-185.0-0.0","0","0","77769","","59","","","68","20","","","1","20","training","adjacent","AB","1","2","O.jpg","Q.jpg","0","1","0","",""
"","feedback","","html-keyboard-response","135","164516","0.0-1.0-186.0-0.0","0","0","77769","","null","","","null","20","","","","","","","","","","","","","","","",""
"","time_out","","html-keyboard-response","136","166528","0.0-1.0-188.0-0.0","0","0","77769","","null","","","null","20","","","","","","","","","","","","","","","",""
"","ITI","","html-keyboard-response","137","167542","0.0-1.0-189.0","0","0","77769","","null","","","null","20","","","","","","","","","","","","","","","NaN",""
"","S1","","html-keyboard-response","138","167813","0.0-1.0-191.0","0","0","77769","","null","","","null","21","","","","","","","","","","","","","","","",""
"","ISI","","html-keyboard-response","139","168820","0.0-1.0-192.0","0","0","77769","","null","","","null","21","NaN","","","","","","","","","","","","","","",""
"","S2","","html-keyboard-response","140","169078","0.0-1.0-193.0","0","0","77769","","null","","","null","21","","NaN","","","","","","","","","","","","","",""
"","response","","html-keyboard-response","141","169304","0.0-1.0-194.0-0.0","0","0","77769","","221","","","68","21","","","1","21","training","adjacent","EF","5","6","M.jpg","P.jpg","0","1","0","",""
"","feedback","","html-keyboard-response","142","170318","0.0-1.0-195.0-0.0","0","0","77769","","null","","","null","21","","","","","","","","","","","","","","","",""
"","time_out","","html-keyboard-response","143","172325","0.0-1.0-197.0-0.0","0","0","77769","","null","","","null","21","","","","","","","","","","","","","","","",""
"","ITI","","html-keyboard-response","144","173336","0.0-1.0-198.0","0","0","77769","","null","","","null","21","","","","","","","","","","","","","","","NaN",""
"","S1","","html-keyboard-response","145","173597","0.0-1.0-200.0","0","0","77769","","null","","","null","22","","","","","","","","","","","","","","","",""
"","ISI","","html-keyboard-response","146","174613","0.0-1.0-201.0","0","0","77769","","null","","","null","22","NaN","","","","","","","","","","","","","","",""
"","S2","","html-keyboard-response","147","174870","0.0-1.0-202.0","0","0","77769","","254","","","75","22","","k","1","22","training","adjacent","FG","6","7","P.jpg","R.jpg","1","1","1","",""
"","feedback","","html-keyboard-response","148","175876","0.0-1.0-204.0-0.0","0","0","77769","","null","","","null","22","","","","","","","","","","","","","","","",""
"","ITI","","html-keyboard-response","149","176881","0.0-1.0-207.0","0","0","77769","","null","","","null","22","","","","","","","","","","","","","","","NaN",""
"","S1","","html-keyboard-response","150","177151","0.0-1.0-209.0","0","0","77769","","null","","","null","23","","","","","","","","","","","","","","","",""
"","ISI","","html-keyboard-response","151","178161","0.0-1.0-210.0","0","0","77769","","null","","","null","23","NaN","","","","","","","","","","","","","","",""
"","S2","","html-keyboard-response","152","178414","0.0-1.0-211.0","0","0","77769","","250","","","75","23","","k","1","23","training","adjacent","FG","6","7","P.jpg","R.jpg","1","1","1","",""
"","feedback","","html-keyboard-response","153","179432","0.0-1.0-213.0-0.0","0","0","77769","","null","","","null","23","","","","","","","","","","","","","","","",""
"","ITI","","html-keyboard-response","154","180441","0.0-1.0-216.0","0","0","77769","","null","","","null","23","","","","","","","","","","","","","","","NaN",""
"","S1","","html-keyboard-response","155","180711","0.0-1.0-218.0","0","0","77769","","null","","","null","24","","","","","","","","","","","","","","","",""
"","ISI","","html-keyboard-response","156","181721","0.0-1.0-219.0","0","0","77769","","null","","","null","24","NaN","","","","","","","","","","","","","","",""
"","S2","","html-keyboard-response","157","181982","0.0-1.0-220.0","0","0","77769","","null","","","null","24","","NaN","","","","","","","","","","","","","",""
"","response","","html-keyboard-response","158","182014","0.0-1.0-221.0-0.0","0","0","77769","","29","","","75","24","","","1","24","training","adjacent","BC","2","3","Q.jpg","L.jpg","1","1","1","",""
"","feedback","","html-keyboard-response","159","183020","0.0-1.0-222.0-0.0","0","0","77769","","null","","","null","24","","","","","","","","","","","","","","","",""
"","ITI","","html-keyboard-response","160","184034","0.0-1.0-225.0","0","0","77769","","null","","","null","24","","","","","","","","","","","","","","","NaN",""
"","S1","","html-keyboard-response","161","184289","0.0-1.0-227.0","0","0","77769","","null","","","null","25","","","","","","","","","","","","","","","",""
"","ISI","","html-keyboard-response","162","185296","0.0-1.0-228.0","0","0","77769","","null","","","null","25","NaN","","","","","","","","","","","","","","",""
"","S2","","html-keyboard-response","163","185559","0.0-1.0-229.0","0","0","77769","","null","","","null","25","","NaN","","","","","","","","","","","","","",""
"","response","","html-keyboard-response","164","185575","0.0-1.0-230.0-0.0","0","0","77769","","12","","","75","25","","","1","25","training","adjacent","AB","1","2","O.jpg","Q.jpg","1","1","1","",""
"","feedback","","html-keyboard-response","165","186587","0.0-1.0-231.0-0.0","0","0","77769","","null","","","null","25","","","","","","","","","","","","","","","",""
"","ITI","","html-keyboard-response","166","187599","0.0-1.0-234.0","0","0","77769","","null","","","null","25","","","","","","","","","","","","","","","NaN",""
"","S1","","html-keyboard-response","167","187860","0.0-1.0-236.0","0","0","77769","","null","","","null","26","","","","","","","","","","","","","","","",""
"","ISI","","html-keyboard-response","168","188871","0.0-1.0-237.0","0","0","77769","","null","","","null","26","NaN","","","","","","","","","","","","","","",""
"","S2","","html-keyboard-response","169","189110","0.0-1.0-238.0","0","0","77769","","236","","","75","26","","k","1","26","training","adjacent","AB","1","2","O.jpg","Q.jpg","1","1","1","",""
"","feedback","","html-keyboard-response","170","190117","0.0-1.0-240.0-0.0","0","0","77769","","null","","","null","26","","","","","","","","","","","","","","","",""
"","ITI","","html-keyboard-response","171","191131","0.0-1.0-243.0","0","0","77769","","null","","","null","26","","","","","","","","","","","","","","","NaN",""
"","S1","","html-keyboard-response","172","191391","0.0-1.0-245.0","0","0","77769","","null","","","null","27","","","","","","","","","","","","","","","",""
"","ISI","","html-keyboard-response","173","192403","0.0-1.0-246.0","0","0","77769","","null","","","null","27","NaN","","","","","","","","","","","","","","",""
"","S2","","html-keyboard-response","174","192666","0.0-1.0-247.0","0","0","77769","","null","","","null","27","","NaN","","","","","","","","","","","","","",""
"","response","","html-keyboard-response","175","192678","0.0-1.0-248.0-0.0","0","0","77769","","9","","","75","27","","","1","27","training","adjacent","DC","4","3","N.jpg","L.jpg","1","0","0","",""
"","feedback","","html-keyboard-response","176","193691","0.0-1.0-249.0-0.0","0","0","77769","","null","","","null","27","","","","","","","","","","","","","","","",""
"","time_out","","html-keyboard-response","177","195701","0.0-1.0-251.0-0.0","0","0","77769","","null","","","null","27","","","","","","","","","","","","","","","",""
"","ITI","","html-keyboard-response","178","196705","0.0-1.0-252.0","0","0","77769","","null","","","null","27","","","","","","","","","","","","","","","NaN",""
"","S1","","html-keyboard-response","179","196970","0.0-1.0-254.0","0","0","77769","","null","","","null","28","","","","","","","","","","","","","","","",""
"","ISI","","html-keyboard-response","180","197979","0.0-1.0-255.0","0","0","77769","","null","","","null","28","NaN","","","","","","","","","","","","","","",""
"","S2","","html-keyboard-response","181","198241","0.0-1.0-256.0","0","0","77769","","null","","","null","28","","NaN","","","","","","","","","","","","","",""
"","response","","html-keyboard-response","182","198502","0.0-1.0-257.0-0.0","0","0","77769","","257","","","68","28","","","1","28","training","adjacent","FG","6","7","P.jpg","R.jpg","0","1","0","",""
"","feedback","","html-keyboard-response","183","199507","0.0-1.0-258.0-0.0","0","0","77769","","null","","","null","28","","","","","","","","","","","","","","","",""
"","time_out","","html-keyboard-response","184","201524","0.0-1.0-260.0-0.0","0","0","77769","","null","","","null","28","","","","","","","","","","","","","","","",""
"","ITI","","html-keyboard-response","185","202532","0.0-1.0-261.0","0","0","77769","","null","","","null","28","","","","","","","","","","","","","","","NaN",""
"","S1","","html-keyboard-response","186","202802","0.0-1.0-263.0","0","0","77769","","null","","","null","29","","","","","","","","","","","","","","","",""
"","ISI","","html-keyboard-response","187","203819","0.0-1.0-264.0","0","0","77769","","null","","","null","29","NaN","","","","","","","","","","","","","","",""
"","S2","","html-keyboard-response","188","204077","0.0-1.0-265.0","0","0","77769","","null","","","null","29","","NaN","","","","","","","","","","","","","",""
"","response","","html-keyboard-response","189","204103","0.0-1.0-266.0-0.0","0","0","77769","","22","","","75","29","","","1","29","training","adjacent","ED","5","4","M.jpg","N.jpg","1","0","0","",""
"","feedback","","html-keyboard-response","190","205109","0.0-1.0-267.0-0.0","0","0","77769","","null","","","null","29","","","","","","","","","","","","","","","",""
"","time_out","","html-keyboard-response","191","207115","0.0-1.0-269.0-0.0","0","0","77769","","null","","","null","29","","","","","","","","","","","","","","","",""
"","ITI","","html-keyboard-response","192","208127","0.0-1.0-270.0","0","0","77769","","null","","","null","29","","","","","","","","","","","","","","","NaN",""
"","S1","","html-keyboard-response","193","208385","0.0-1.0-272.0","0","0","77769","","null","","","null","30","","","","","","","","","","","","","","","",""
"","ISI","","html-keyboard-response","194","209400","0.0-1.0-273.0","0","0","77769","","null","","","null","30","NaN","","","","","","","","","","","","","","",""
"","S2","","html-keyboard-response","195","209664","0.0-1.0-274.0","0","0","77769","","null","","","null","30","","NaN","","","","","","","","","","","","","",""
"","response","","html-keyboard-response","196","210030","0.0-1.0-275.0-0.0","0","0","77769","","362","","","75","30","","","1","30","training","adjacent","FE","6","5","P.jpg","M.jpg","1","0","0","",""
"","feedback","","html-keyboard-response","197","211035","0.0-1.0-276.0-0.0","0","0","77769","","null","","","null","30","","","","","","","","","","","","","","","",""
"","time_out","","html-keyboard-response","198","213041","0.0-1.0-278.0-0.0","0","0","77769","","null","","","null","30","","","","","","","","","","","","","","","",""
"","ITI","","html-keyboard-response","199","214048","0.0-1.0-279.0","0","0","77769","","null","","","null","30","","","","","","","","","","","","","","","NaN",""
"","S1","","html-keyboard-response","200","214309","0.0-1.0-281.0","0","0","77769","","null","","","null","31","","","","","","","","","","","","","","","",""
"","ISI","","html-keyboard-response","201","215315","0.0-1.0-282.0","0","0","77769","","null","","","null","31","NaN","","","","","","","","","","","","","","",""
"","S2","","html-keyboard-response","202","215570","0.0-1.0-283.0","0","0","77769","","null","","","null","31","","NaN","","","","","","","","","","","","","",""
"","response","","html-keyboard-response","203","215724","0.0-1.0-284.0-0.0","0","0","77769","","152","","","68","31","","","1","31","training","adjacent","DE","4","5","N.jpg","M.jpg","0","1","0","",""
"","feedback","","html-keyboard-response","204","216731","0.0-1.0-285.0-0.0","0","0","77769","","null","","","null","31","","","","","","","","","","","","","","","",""
"","time_out","","html-keyboard-response","205","218736","0.0-1.0-287.0-0.0","0","0","77769","","null","","","null","31","","","","","","","","","","","","","","","",""
"","ITI","","html-keyboard-response","206","219749","0.0-1.0-288.0","0","0","77769","","null","","","null","31","","","","","","","","","","","","","","","NaN",""
"","S1","","html-keyboard-response","207","220016","0.0-1.0-290.0","0","0","77769","","null","","","null","32","","","","","","","","","","","","","","","",""
"","ISI","","html-keyboard-response","208","221020","0.0-1.0-291.0","0","0","77769","","null","","","null","32","NaN","","","","","","","","","","","","","","",""
"","S2","","html-keyboard-response","209","221248","0.0-1.0-292.0","0","0","77769","","222","","","75","32","","k","1","32","training","adjacent","DE","4","5","N.jpg","M.jpg","1","1","1","",""
"","feedback","","html-keyboard-response","210","222258","0.0-1.0-294.0-0.0","0","0","77769","","null","","","null","32","","","","","","","","","","","","","","","",""
"","ITI","","html-keyboard-response","211","223263","0.0-1.0-297.0","0","0","77769","","null","","","null","32","","","","","","","","","","","","","","","NaN",""
"","S1","","html-keyboard-response","212","223523","0.0-1.0-299.0","0","0","77769","","null","","","null","33","","","","","","","","","","","","","","","",""
"","ISI","","html-keyboard-response","213","224541","0.0-1.0-300.0","0","0","77769","","null","","","null","33","NaN","","","","","","","","","","","","","","",""
"","S2","","html-keyboard-response","214","224805","0.0-1.0-301.0","0","0","77769","","null","","","null","33","","NaN","","","","","","","","","","","","","",""
"","response","","html-keyboard-response","215","224809","0.0-1.0-302.0-0.0","0","0","77769","","1","","","75","33","","","1","33","training","adjacent","DC","4","3","N.jpg","L.jpg","1","0","0","",""
"","feedback","","html-keyboard-response","216","225822","0.0-1.0-303.0-0.0","0","0","77769","","null","","","null","33","","","","","","","","","","","","","","","",""
"","time_out","","html-keyboard-response","217","227825","0.0-1.0-305.0-0.0","0","0","77769","","null","","","null","33","","","","","","","","","","","","","","","",""
"","ITI","","html-keyboard-response","218","228841","0.0-1.0-306.0","0","0","77769","","null","","","null","33","","","","","","","","","","","","","","","NaN",""
"","S1","","html-keyboard-response","219","229096","0.0-1.0-308.0","0","0","77769","","null","","","null","34","","","","","","","","","","","","","","","",""
"","ISI","","html-keyboard-response","220","230106","0.0-1.0-309.0","0","0","77769","","null","","","null","34","NaN","","","","","","","","","","","","","","",""
"","S2","","html-keyboard-response","221","230361","0.0-1.0-310.0","0","0","77769","","null","","","null","34","","NaN","","","","","","","","","","","","","",""
"","response","","html-keyboard-response","222","230395","0.0-1.0-311.0-0.0","0","0","77769","","32","","","75","34","","","1","34","training","adjacent","CB","3","2","L.jpg","Q.jpg","1","0","0","",""
"","feedback","","html-keyboard-response","223","231398","0.0-1.0-312.0-0.0","0","0","77769","","null","","","null","34","","","","","","","","","","","","","","","",""
"","time_out","","html-keyboard-response","224","233409","0.0-1.0-314.0-0.0","0","0","77769","","null","","","null","34","","","","","","","","","","","","","","","",""
"","ITI","","html-keyboard-response","225","234419","0.0-1.0-315.0","0","0","77769","","null","","","null","34","","","","","","","","","","","","","","","NaN",""
"","S1","","html-keyboard-response","226","234676","0.0-1.0-317.0","0","0","77769","","null","","","null","35","","","","","","","","","","","","","","","",""
"","ISI","","html-keyboard-response","227","235684","0.0-1.0-318.0","0","0","77769","","null","","","null","35","NaN","","","","","","","","","","","","","","",""
"","S2","","html-keyboard-response","228","235932","0.0-1.0-319.0","0","0","77769","","246","","","68","35","","d","1","35","training","adjacent","EF","5","6","M.jpg","P.jpg","0","1","0","",""
"","feedback","","html-keyboard-response","229","236941","0.0-1.0-321.0-0.0","0","0","77769","","null","","","null","35","","","","","","","","","","","","","","","",""
"","time_out","","html-keyboard-response","230","238946","0.0-1.0-323.0-0.0","0","0","77769","","null","","","null","35","","","","","","","","","","","","","","","",""
"","ITI","","html-keyboard-response","231","239957","0.0-1.0-324.0","0","0","77769","","null","","","null","35","","","","","","","","","","","","","","","NaN",""
"","S1","","html-keyboard-response","232","240212","0.0-1.0-326.0","0","0","77769","","null","","","null","36","","","","","","","","","","","","","","","",""
"","ISI","","html-keyboard-response","233","241217","0.0-1.0-327.0","0","0","77769","","null","","","null","36","NaN","","","","","","","","","","","","","","",""
"","S2","","html-keyboard-response","234","241471","0.0-1.0-328.0","0","0","77769","","null","","","null","36","","NaN","","","","","","","","","","","","","",""
"","response","","html-keyboard-response","235","241508","0.0-1.0-329.0-0.0","0","0","77769","","35","","","75","36","","","1","36","training","adjacent","GF","7","6","R.jpg","P.jpg","1","0","0","",""
"","feedback","","html-keyboard-response","236","242516","0.0-1.0-330.0-0.0","0","0","77769","","null","","","null","36","","","","","","","","","","","","","","","",""
"","time_out","","html-keyboard-response","237","244533","0.0-1.0-332.0-0.0","0","0","77769","","null","","","null","36","","","","","","","","","","","","","","","",""
"","ITI","","html-keyboard-response","238","245547","0.0-1.0-333.0","0","0","77769","","null","","","null","36","","","","","","","","","","","","","","","NaN",""
"","S1","","html-keyboard-response","239","245800","0.0-1.0-335.0","0","0","77769","","null","","","null","37","","","","","","","","","","","","","","","",""
"","ISI","","html-keyboard-response","240","246812","0.0-1.0-336.0","0","0","77769","","null","","","null","37","NaN","","","","","","","","","","","","","","",""
"","S2","","html-keyboard-response","241","247068","0.0-1.0-337.0","0","0","77769","","null","","","null","37","","NaN","","","","","","","","","","","","","",""
"","response","","html-keyboard-response","242","247071","0.0-1.0-338.0-0.0","0","0","77769","","1","","","75","37","","","1","37","training","adjacent","BA","2","1","Q.jpg","O.jpg","1","0","0","",""
"","feedback","","html-keyboard-response","243","248078","0.0-1.0-339.0-0.0","0","0","77769","","null","","","null","37","","","","","","","","","","","","","","","",""
"","time_out","","html-keyboard-response","244","250090","0.0-1.0-341.0-0.0","0","0","77769","","null","","","null","37","","","","","","","","","","","","","","","",""
"","ITI","","html-keyboard-response","245","251100","0.0-1.0-342.0","0","0","77769","","null","","","null","37","","","","","","","","","","","","","","","NaN",""
"","S1","","html-keyboard-response","246","251368","0.0-1.0-344.0","0","0","77769","","null","","","null","38","","","","","","","","","","","","","","","",""
"","ISI","","html-keyboard-response","247","252377","0.0-1.0-345.0","0","0","77769","","null","","","null","38","NaN","","","","","","","","","","","","","","",""
"","S2","","html-keyboard-response","248","252588","0.0-1.0-346.0","0","0","77769","","207","","","68","38","","d","1","38","training","adjacent","DE","4","5","N.jpg","M.jpg","0","1","0","",""
"","feedback","","html-keyboard-response","249","253600","0.0-1.0-348.0-0.0","0","0","77769","","null","","","null","38","","","","","","","","","","","","","","","",""
"","time_out","","html-keyboard-response","250","255611","0.0-1.0-350.0-0.0","0","0","77769","","null","","","null","38","","","","","","","","","","","","","","","",""
"","ITI","","html-keyboard-response","251","256628","0.0-1.0-351.0","0","0","77769","","null","","","null","38","","","","","","","","","","","","","","","NaN",""
"","S1","","html-keyboard-response","252","256891","0.0-1.0-353.0","0","0","77769","","null","","","null","39","","","","","","","","","","","","","","","",""
"","ISI","","html-keyboard-response","253","257897","0.0-1.0-354.0","0","0","77769","","null","","","null","39","NaN","","","","","","","","","","","","","","",""
"","S2","","html-keyboard-response","254","258100","0.0-1.0-355.0","0","0","77769","","200","","","75","39","","k","1","39","training","adjacent","BA","2","1","Q.jpg","O.jpg","1","0","0","",""
"","feedback","","html-keyboard-response","255","259113","0.0-1.0-357.0-0.0","0","0","77769","","null","","","null","39","","","","","","","","","","","","","","","",""
"","time_out","","html-keyboard-response","256","261117","0.0-1.0-359.0-0.0","0","0","77769","","null","","","null","39","","","","","","","","","","","","","","","",""
"","ITI","","html-keyboard-response","257","262127","0.0-1.0-360.0","0","0","77769","","null","","","null","39","","","","","","","","","","","","","","","NaN",""
"","S1","","html-keyboard-response","258","262384","0.0-1.0-362.0","0","0","77769","","null","","","null","40","","","","","","","","","","","","","","","",""
"","ISI","","html-keyboard-response","259","263400","0.0-1.0-363.0","0","0","77769","","null","","","null","40","NaN","","","","","","","","","","","","","","",""
"","S2","","html-keyboard-response","260","263524","0.0-1.0-364.0","0","0","77769","","121","","","68","40","","d","1","40","training","adjacent","FG","6","7","P.jpg","R.jpg","0","1","0","",""
"","feedback","","html-keyboard-response","261","264528","0.0-1.0-366.0-0.0","0","0","77769","","null","","","null","40","","","","","","","","","","","","","","","",""
"","time_out","","html-keyboard-response","262","266534","0.0-1.0-368.0-0.0","0","0","77769","","null","","","null","40","","","","","","","","","","","","","","","",""
"","ITI","","html-keyboard-response","263","267544","0.0-1.0-369.0","0","0","77769","","null","","","null","40","","","","","","","","","","","","","","","NaN",""
"","S1","","html-keyboard-response","264","267799","0.0-1.0-371.0","0","0","77769","","null","","","null","41","","","","","","","","","","","","","","","",""
"","ISI","","html-keyboard-response","265","268818","0.0-1.0-372.0","0","0","77769","","null","","","null","41","NaN","","","","","","","","","","","","","","",""
"","S2","","html-keyboard-response","266","269071","0.0-1.0-373.0","0","0","77769","","null","","","null","41","","NaN","","","","","","","","","","","","","",""
"","response","","html-keyboard-response","267","269524","0.0-1.0-374.0-0.0","0","0","77769","","450","","","75","41","","","1","41","training","adjacent","EF","5","6","M.jpg","P.jpg","1","1","1","",""
"","feedback","","html-keyboard-response","268","270533","0.0-1.0-375.0-0.0","0","0","77769","","null","","","null","41","","","","","","","","","","","","","","","",""
"","ITI","","html-keyboard-response","269","271541","0.0-1.0-378.0","0","0","77769","","null","","","null","41","","","","","","","","","","","","","","","NaN",""
"","S1","","html-keyboard-response","270","271807","0.0-1.0-380.0","0","0","77769","","null","","","null","42","","","","","","","","","","","","","","","",""
"","ISI","","html-keyboard-response","271","272821","0.0-1.0-381.0","0","0","77769","","null","","","null","42","NaN","","","","","","","","","","","","","","",""
"","S2","","html-keyboard-response","272","273082","0.0-1.0-382.0","0","0","77769","","null","","","null","42","","NaN","","","","","","","","","","","","","",""
"","response","","html-keyboard-response","273","273382","0.0-1.0-383.0-0.0","0","0","77769","","296","","","75","42","","","1","42","training","adjacent","ED","5","4","M.jpg","N.jpg","1","0","0","",""
"","feedback","","html-keyboard-response","274","274390","0.0-1.0-384.0-0.0","0","0","77769","","null","","","null","42","","","","","","","","","","","","","","","",""
"","time_out","","html-keyboard-response","275","276393","0.0-1.0-386.0-0.0","0","0","77769","","null","","","null","42","","","","","","","","","","","","","","","",""
"","ITI","","html-keyboard-response","276","277402","0.0-1.0-387.0","0","0","77769","","null","","","null","42","","","","","","","","","","","","","","","NaN",""
"","S1","","html-keyboard-response","277","277660","0.0-1.0-389.0","0","0","77769","","null","","","null","43","","","","","","","","","","","","","","","",""
"","ISI","","html-keyboard-response","278","278666","0.0-1.0-390.0","0","0","77769","","null","","","null","43","NaN","","","","","","","","","","","","","","",""
"","S2","","html-keyboard-response","279","278924","0.0-1.0-391.0","0","0","77769","","null","","","null","43","","NaN","","","","","","","","","","","","","",""
"","response","","html-keyboard-response","280","279053","0.0-1.0-392.0-0.0","0","0","77769","","126","","","75","43","","","1","43","training","adjacent","BA","2","1","Q.jpg","O.jpg","1","0","0","",""
"","feedback","","html-keyboard-response","281","280059","0.0-1.0-393.0-0.0","0","0","77769","","null","","","null","43","","","","","","","","","","","","","","","",""
"","time_out","","html-keyboard-response","282","282074","0.0-1.0-395.0-0.0","0","0","77769","","null","","","null","43","","","","","","","","","","","","","","","",""
"","ITI","","html-keyboard-response","283","283077","0.0-1.0-396.0","0","0","77769","","null","","","null","43","","","","","","","","","","","","","","","NaN",""
"","S1","","html-keyboard-response","284","283334","0.0-1.0-398.0","0","0","77769","","null","","","null","44","","","","","","","","","","","","","","","",""
"","ISI","","html-keyboard-response","285","284342","0.0-1.0-399.0","0","0","77769","","null","","","null","44","NaN","","","","","","","","","","","","","","",""
"","S2","","html-keyboard-response","286","284598","0.0-1.0-400.0","0","0","77769","","null","","","null","44","","NaN","","","","","","","","","","","","","",""
"","response","","html-keyboard-response","287","284668","0.0-1.0-401.0-0.0","0","0","77769","","68","","","68","44","","","1","44","training","adjacent","AB","1","2","O.jpg","Q.jpg","0","1","0","",""
"","feedback","","html-keyboard-response","288","285683","0.0-1.0-402.0-0.0","0","0","77769","","null","","","null","44","","","","","","","","","","","","","","","",""
"","time_out","","html-keyboard-response","289","287692","0.0-1.0-404.0-0.0","0","0","77769","","null","","","null","44","","","","","","","","","","","","","","","",""
"","ITI","","html-keyboard-response","290","288698","0.0-1.0-405.0","0","0","77769","","null","","","null","44","","","","","","","","","","","","","","","NaN",""
"","S1","","html-keyboard-response","291","288958","0.0-1.0-407.0","0","0","77769","","null","","","null","45","","","","","","","","","","","","","","","",""
"","ISI","","html-keyboard-response","292","289968","0.0-1.0-408.0","0","0","77769","","null","","","null","45","NaN","","","","","","","","","","","","","","",""
"","S2","","html-keyboard-response","293","290223","0.0-1.0-409.0","0","0","77769","","null","","","null","45","","NaN","","","","","","","","","","","","","",""
"","response","","html-keyboard-response","294","290237","0.0-1.0-410.0-0.0","0","0","77769","","11","","","68","45","","","1","45","training","adjacent","BA","2","1","Q.jpg","O.jpg","0","0","1","",""
"","feedback","","html-keyboard-response","295","291245","0.0-1.0-411.0-0.0","0","0","77769","","null","","","null","45","","","","","","","","","","","","","","","",""
"","ITI","","html-keyboard-response","296","292266","0.0-1.0-414.0","0","0","77769","","null","","","null","45","","","","","","","","","","","","","","","NaN",""
"","S1","","html-keyboard-response","297","292521","0.0-1.0-416.0","0","0","77769","","null","","","null","46","","","","","","","","","","","","","","","",""
"","ISI","","html-keyboard-response","298","293533","0.0-1.0-417.0","0","0","77769","","null","","","null","46","NaN","","","","","","","","","","","","","","",""
"","S2","","html-keyboard-response","299","293789","0.0-1.0-418.0","0","0","77769","","null","","","null","46","","NaN","","","","","","","","","","","","","",""
"","response","","html-keyboard-response","300","293853","0.0-1.0-419.0-0.0","0","0","77769","","61","","","68","46","","","1","46","training","adjacent","FE","6","5","P.jpg","M.jpg","0","0","1","",""
"","feedback","","html-keyboard-response","301","294864","0.0-1.0-420.0-0.0","0","0","77769","","null","","","null","46","","","","","","","","","","","","","","","",""
"","ITI","","html-keyboard-response","302","295868","0.0-1.0-423.0","0","0","77769","","null","","","null","46","","","","","","","","","","","","","","","NaN",""
"","S1","","html-keyboard-response","303","296120","0.0-1.0-425.0","0","0","77769","","null","","","null","47","","","","","","","","","","","","","","","",""
"","ISI","","html-keyboard-response","304","297130","0.0-1.0-426.0","0","0","77769","","null","","","null","47","NaN","","","","","","","","","","","","","","",""
"","S2","","html-keyboard-response","305","297388","0.0-1.0-427.0","0","0","77769","","null","","","null","47","","NaN","","","","","","","","","","","","","",""
"","response","","html-keyboard-response","306","297444","0.0-1.0-428.0-0.0","0","0","77769","","53","","","68","47","","","1","47","training","adjacent","DC","4","3","N.jpg","L.jpg","0","0","1","",""
"","feedback","","html-keyboard-response","307","298452","0.0-1.0-429.0-0.0","0","0","77769","","null","","","null","47","","","","","","","","","","","","","","","",""
"","ITI","","html-keyboard-response","308","299459","0.0-1.0-432.0","0","0","77769","","null","","","null","47","","","","","","","","","","","","","","","NaN",""
"","block_over","","html-keyboard-response","309","302004","0.0-1.0-433.0-0.0","0","0","77769","","2543","","","32","47","","","","","","","","","","","","","","","",""
"","S1","","html-keyboard-response","310","302259","0.0-1.0-434.0","0","0","77769","","null","","","null","48","","","","","","","","","","","","","","","",""
"","ISI","","html-keyboard-response","311","303271","0.0-1.0-435.0","0","0","77769","","null","","","null","48","NaN","","","","","","","","","","","","","","",""
"","S2","","html-keyboard-response","312","303527","0.0-1.0-436.0","0","0","77769","","null","","","null","48","","NaN","","","","","","","","","","","","","",""
"","response","","html-keyboard-response","313","303700","0.0-1.0-437.0-0.0","0","0","77769","","171","","","75","48","","","2","48","training","adjacent","FE","6","5","P.jpg","M.jpg","1","0","0","",""
"","feedback","","html-keyboard-response","314","304710","0.0-1.0-438.0-0.0","0","0","77769","","null","","","null","48","","","","","","","","","","","","","","","",""
"","time_out","","html-keyboard-response","315","306719","0.0-1.0-440.0-0.0","0","0","77769","","null","","","null","48","","","","","","","","","","","","","","","",""
"","ITI","","html-keyboard-response","316","307727","0.0-1.0-441.0","0","0","77769","","null","","","null","48","","","","","","","","","","","","","","","NaN",""
"","S1","","html-keyboard-response","317","307989","0.0-1.0-443.0","0","0","77769","","null","","","null","49","","","","","","","","","","","","","","","",""
"","ISI","","html-keyboard-response","318","308995","0.0-1.0-444.0","0","0","77769","","null","","","null","49","NaN","","","","","","","","","","","","","","",""
"","S2","","html-keyboard-response","319","309256","0.0-1.0-445.0","0","0","77769","","null","","","null","49","","NaN","","","","","","","","","","","","","",""
"","response","","html-keyboard-response","320","309276","0.0-1.0-446.0-0.0","0","0","77769","","19","","","75","49","","","2","49","training","adjacent","CB","3","2","L.jpg","Q.jpg","1","0","0","",""
"","feedback","","html-keyboard-response","321","310292","0.0-1.0-447.0-0.0","0","0","77769","","null","","","null","49","","","","","","","","","","","","","","","",""
"","time_out","","html-keyboard-response","322","312304","0.0-1.0-449.0-0.0","0","0","77769","","null","","","null","49","","","","","","","","","","","","","","","",""
"","ITI","","html-keyboard-response","323","313317","0.0-1.0-450.0","0","0","77769","","null","","","null","49","","","","","","","","","","","","","","","NaN",""
"","S1","","html-keyboard-response","324","313576","0.0-1.0-452.0","0","0","77769","","null","","","null","50","","","","","","","","","","","","","","","",""
"","ISI","","html-keyboard-response","325","314581","0.0-1.0-453.0","0","0","77769","","null","","","null","50","NaN","","","","","","","","","","","","","","",""
"","S2","","html-keyboard-response","326","314834","0.0-1.0-454.0","0","0","77769","","null","","","null","50","","NaN","","","","","","","","","","","","","",""
"","response","","html-keyboard-response","327","316188","0.0-1.0-455.0-0.0","0","0","77769","","1352","","","68","50","","","2","50","training","adjacent","FG","6","7","P.jpg","R.jpg","0","1","0","",""
"","feedback","","html-keyboard-response","328","317194","0.0-1.0-456.0-0.0","0","0","77769","","null","","","null","50","","","","","","","","","","","","","","","",""
"","time_out","","html-keyboard-response","329","319199","0.0-1.0-458.0-0.0","0","0","77769","","null","","","null","50","","","","","","","","","","","","","","","",""
"","ITI","","html-keyboard-response","330","320202","0.0-1.0-459.0","0","0","77769","","null","","","null","50","","","","","","","","","","","","","","","NaN",""
"","S1","","html-keyboard-response","331","320459","0.0-1.0-461.0","0","0","77769","","null","","","null","51","","","","","","","","","","","","","","","",""
"","ISI","","html-keyboard-response","332","321478","0.0-1.0-462.0","0","0","77769","","null","","","null","51","NaN","","","","","","","","","","","","","","",""
"","S2","","html-keyboard-response","333","321733","0.0-1.0-463.0","0","0","77769","","null","","","null","51","","NaN","","","","","","","","","","","","","",""
"","response","","html-keyboard-response","334","321788","0.0-1.0-464.0-0.0","0","0","77769","","52","","","75","51","","","2","51","training","adjacent","ED","5","4","M.jpg","N.jpg","1","0","0","",""
"","feedback","","html-keyboard-response","335","322796","0.0-1.0-465.0-0.0","0","0","77769","","null","","","null","51","","","","","","","","","","","","","","","",""
"","time_out","","html-keyboard-response","336","324800","0.0-1.0-467.0-0.0","0","0","77769","","null","","","null","51","","","","","","","","","","","","","","","",""
"","ITI","","html-keyboard-response","337","325807","0.0-1.0-468.0","0","0","77769","","null","","","null","51","","","","","","","","","","","","","","","NaN",""
"","S1","","html-keyboard-response","338","326062","0.0-1.0-470.0","0","0","77769","","null","","","null","52","","","","","","","","","","","","","","","",""
"","ISI","","html-keyboard-response","339","327076","0.0-1.0-471.0","0","0","77769","","null","","","null","52","NaN","","","","","","","","","","","","","","",""
"","S2","","html-keyboard-response","340","327331","0.0-1.0-472.0","0","0","77769","","null","","","null","52","","NaN","","","","","","","","","","","","","",""
"","response","","html-keyboard-response","341","327390","0.0-1.0-473.0-0.0","0","0","77769","","55","","","75","52","","","2","52","training","adjacent","EF","5","6","M.jpg","P.jpg","1","1","1","",""
"","feedback","","html-keyboard-response","342","328404","0.0-1.0-474.0-0.0","0","0","77769","","null","","","null","52","","","","","","","","","","","","","","","",""
"","ITI","","html-keyboard-response","343","329412","0.0-1.0-477.0","0","0","77769","","null","","","null","52","","","","","","","","","","","","","","","NaN",""
"","S1","","html-keyboard-response","344","329669","0.0-1.0-479.0","0","0","77769","","null","","","null","53","","","","","","","","","","","","","","","",""
"","ISI","","html-keyboard-response","345","330674","0.0-1.0-480.0","0","0","77769","","null","","","null","53","NaN","","","","","","","","","","","","","","",""
"","S2","","html-keyboard-response","346","330931","0.0-1.0-481.0","0","0","77769","","null","","","null","53","","NaN","","","","","","","","","","","","","",""
"","response","","html-keyboard-response","347","331100","0.0-1.0-482.0-0.0","0","0","77769","","167","","","68","53","","","2","53","training","adjacent","CB","3","2","L.jpg","Q.jpg","0","0","1","",""
"","feedback","","html-keyboard-response","348","332108","0.0-1.0-483.0-0.0","0","0","77769","","null","","","null","53","","","","","","","","","","","","","","","",""
"","ITI","","html-keyboard-response","349","333116","0.0-1.0-486.0","0","0","77769","","null","","","null","53","","","","","","","","","","","","","","","NaN",""
"","S1","","html-keyboard-response","350","333376","0.0-1.0-488.0","0","0","77769","","null","","","null","54","","","","","","","","","","","","","","","",""
"","ISI","","html-keyboard-response","351","334388","0.0-1.0-489.0","0","0","77769","","null","","","null","54","NaN","","","","","","","","","","","","","","",""
"","S2","","html-keyboard-response","352","334646","0.0-1.0-490.0","0","0","77769","","null","","","null","54","","NaN","","","","","","","","","","","","","",""
"","response","","html-keyboard-response","353","335036","0.0-1.0-491.0-0.0","0","0","77769","","387","","","75","54","","","2","54","training","adjacent","BC","2","3","Q.jpg","L.jpg","1","1","1","",""
"","feedback","","html-keyboard-response","354","336051","0.0-1.0-492.0-0.0","0","0","77769","","null","","","null","54","","","","","","","","","","","","","","","",""
"","ITI","","html-keyboard-response","355","337059","0.0-1.0-495.0","0","0","77769","","null","","","null","54","","","","","","","","","","","","","","","NaN",""
"","S1","","html-keyboard-response","356","337313","0.0-1.0-497.0","0","0","77769","","null","","","null","55","","","","","","","","","","","","","","","",""
"","ISI","","html-keyboard-response","357","338318","0.0-1.0-498.0","0","0","77769","","null","","","null","55","NaN","","","","","","","","","","","","","","",""
"","S2","","html-keyboard-response","358","338572","0.0-1.0-499.0","0","0","77769","","253","","","68","55","","d","2","55","training","adjacent","ED","5","4","M.jpg","N.jpg","0","0","1","",""
"","feedback","","html-keyboard-response","359","339580","0.0-1.0-501.0-0.0","0","0","77769","","null","","","null","55","","","","","","","","","","","","","","","",""
"","ITI","","html-keyboard-response","360","340593","0.0-1.0-504.0","0","0","77769","","null","","","null","55","","","","","","","","","","","","","","","NaN",""
"","S1","","html-keyboard-response","361","340849","0.0-1.0-506.0","0","0","77769","","null","","","null","56","","","","","","","","","","","","","","","",""
"","ISI","","html-keyboard-response","362","341855","0.0-1.0-507.0","0","0","77769","","null","","","null","56","NaN","","","","","","","","","","","","","","",""
"","S2","","html-keyboard-response","363","342110","0.0-1.0-508.0","0","0","77769","","null","","","null","56","","NaN","","","","","","","","","","","","","",""
"","response","","html-keyboard-response","364","342412","0.0-1.0-509.0-0.0","0","0","77769","","299","","","75","56","","","2","56","training","adjacent","FG","6","7","P.jpg","R.jpg","1","1","1","",""
"","feedback","","html-keyboard-response","365","343427","0.0-1.0-510.0-0.0","0","0","77769","","null","","","null","56","","","","","","","","","","","","","","","",""
"","ITI","","html-keyboard-response","366","344437","0.0-1.0-513.0","0","0","77769","","null","","","null","56","","","","","","","","","","","","","","","NaN",""
"","S1","","html-keyboard-response","367","344690","0.0-1.0-515.0","0","0","77769","","null","","","null","57","","","","","","","","","","","","","","","",""
"","ISI","","html-keyboard-response","368","345699","0.0-1.0-516.0","0","0","77769","","null","","","null","57","NaN","","","","","","","","","","","","","","",""
"","S2","","html-keyboard-response","369","345923","0.0-1.0-517.0","0","0","77769","","222","","","68","57","","d","2","57","training","adjacent","DC","4","3","N.jpg","L.jpg","0","0","1","",""
"","feedback","","html-keyboard-response","370","346930","0.0-1.0-519.0-0.0","0","0","77769","","null","","","null","57","","","","","","","","","","","","","","","",""
"","ITI","","html-keyboard-response","371","347937","0.0-1.0-522.0","0","0","77769","","null","","","null","57","","","","","","","","","","","","","","","NaN",""
"","S1","","html-keyboard-response","372","348192","0.0-1.0-524.0","0","0","77769","","null","","","null","58","","","","","","","","","","","","","","","",""
"","ISI","","html-keyboard-response","373","349197","0.0-1.0-525.0","0","0","77769","","null","","","null","58","NaN","","","","","","","","","","","","","","",""
"","S2","","html-keyboard-response","374","349459","0.0-1.0-526.0","0","0","77769","","null","","","null","58","","NaN","","","","","","","","","","","","","",""
"","response","","html-keyboard-response","375","349741","0.0-1.0-527.0-0.0","0","0","77769","","280","","","75","58","","","2","58","training","adjacent","FE","6","5","P.jpg","M.jpg","1","0","0","",""
"","feedback","","html-keyboard-response","376","350754","0.0-1.0-528.0-0.0","0","0","77769","","null","","","null","58","","","","","","","","","","","","","","","",""
"","time_out","","html-keyboard-response","377","352758","0.0-1.0-530.0-0.0","0","0","77769","","null","","","null","58","","","","","","","","","","","","","","","",""
"","ITI","","html-keyboard-response","378","353769","0.0-1.0-531.0","0","0","77769","","null","","","null","58","","","","","","","","","","","","","","","NaN",""
"","S1","","html-keyboard-response","379","354031","0.0-1.0-533.0","0","0","77769","","null","","","null","59","","","","","","","","","","","","","","","",""
"","ISI","","html-keyboard-response","380","355035","0.0-1.0-534.0","0","0","77769","","null","","","null","59","NaN","","","","","","","","","","","","","","",""
"","S2","","html-keyboard-response","381","355294","0.0-1.0-535.0","0","0","77769","","null","","","null","59","","NaN","","","","","","","","","","","","","",""
"","response","","html-keyboard-response","382","355340","0.0-1.0-536.0-0.0","0","0","77769","","44","","","75","59","","","2","59","training","adjacent","GF","7","6","R.jpg","P.jpg","1","0","0","",""
"","feedback","","html-keyboard-response","383","356350","0.0-1.0-537.0-0.0","0","0","77769","","null","","","null","59","","","","","","","","","","","","","","","",""
"","time_out","","html-keyboard-response","384","358358","0.0-1.0-539.0-0.0","0","0","77769","","null","","","null","59","","","","","","","","","","","","","","","",""
"","ITI","","html-keyboard-response","385","359362","0.0-1.0-540.0","0","0","77769","","null","","","null","59","","","","","","","","","","","","","","","NaN",""
"","S1","","html-keyboard-response","386","359617","0.0-1.0-542.0","0","0","77769","","null","","","null","60","","","","","","","","","","","","","","","",""
"","ISI","","html-keyboard-response","387","360632","0.0-1.0-543.0","0","0","77769","","null","","","null","60","NaN","","","","","","","","","","","","","","",""
"","S2","","html-keyboard-response","388","360891","0.0-1.0-544.0","0","0","77769","","null","","","null","60","","NaN","","","","","","","","","","","","","",""
"","response","","html-keyboard-response","389","360943","0.0-1.0-545.0-0.0","0","0","77769","","47","","","68","60","","","2","60","training","adjacent","DC","4","3","N.jpg","L.jpg","0","0","1","",""
"","feedback","","html-keyboard-response","390","361954","0.0-1.0-546.0-0.0","0","0","77769","","null","","","null","60","","","","","","","","","","","","","","","",""
"","ITI","","html-keyboard-response","391","362960","0.0-1.0-549.0","0","0","77769","","null","","","null","60","","","","","","","","","","","","","","","NaN",""
"","S1","","html-keyboard-response","392","363213","0.0-1.0-551.0","0","0","77769","","null","","","null","61","","","","","","","","","","","","","","","",""
"","ISI","","html-keyboard-response","393","364226","0.0-1.0-552.0","0","0","77769","","null","","","null","61","NaN","","","","","","","","","","","","","","",""
"","S2","","html-keyboard-response","394","364482","0.0-1.0-553.0","0","0","77769","","null","","","null","61","","NaN","","","","","","","","","","","","","",""
"","response","","html-keyboard-response","395","364524","0.0-1.0-554.0-0.0","0","0","77769","","40","","","75","61","","","2","61","training","adjacent","CB","3","2","L.jpg","Q.jpg","1","0","0","",""
"","feedback","","html-keyboard-response","396","365531","0.0-1.0-555.0-0.0","0","0","77769","","null","","","null","61","","","","","","","","","","","","","","","",""
"","time_out","","html-keyboard-response","397","367540","0.0-1.0-557.0-0.0","0","0","77769","","null","","","null","61","","","","","","","","","","","","","","","",""
"","ITI","","html-keyboard-response","398","368548","0.0-1.0-558.0","0","0","77769","","null","","","null","61","","","","","","","","","","","","","","","NaN",""
"","S1","","html-keyboard-response","399","368811","0.0-1.0-560.0","0","0","77769","","null","","","null","62","","","","","","","","","","","","","","","",""
"","ISI","","html-keyboard-response","400","369824","0.0-1.0-561.0","0","0","77769","","null","","","null","62","NaN","","","","","","","","","","","","","","",""
"","S2","","html-keyboard-response","401","370077","0.0-1.0-562.0","0","0","77769","","null","","","null","62","","NaN","","","","","","","","","","","","","",""
"","response","","html-keyboard-response","402","370260","0.0-1.0-563.0-0.0","0","0","77769","","180","","","68","62","","","2","62","training","adjacent","BA","2","1","Q.jpg","O.jpg","0","0","1","",""
"","feedback","","html-keyboard-response","403","371272","0.0-1.0-564.0-0.0","0","0","77769","","null","","","null","62","","","","","","","","","","","","","","","",""
"","ITI","","html-keyboard-response","404","372284","0.0-1.0-567.0","0","0","77769","","null","","","null","62","","","","","","","","","","","","","","","NaN",""
"","S1","","html-keyboard-response","405","372542","0.0-1.0-569.0","0","0","77769","","null","","","null","63","","","","","","","","","","","","","","","",""
"","ISI","","html-keyboard-response","406","373552","0.0-1.0-570.0","0","0","77769","","null","","","null","63","NaN","","","","","","","","","","","","","","",""
"","S2","","html-keyboard-response","407","373806","0.0-1.0-571.0","0","0","77769","","null","","","null","63","","NaN","","","","","","","","","","","","","",""
"","response","","html-keyboard-response","408","374421","0.0-1.0-572.0-0.0","0","0","77769","","613","","","75","63","","","2","63","training","adjacent","FG","6","7","P.jpg","R.jpg","1","1","1","",""
"","feedback","","html-keyboard-response","409","375429","0.0-1.0-573.0-0.0","0","0","77769","","null","","","null","63","","","","","","","","","","","","","","","",""
"","ITI","","html-keyboard-response","410","376440","0.0-1.0-576.0","0","0","77769","","null","","","null","63","","","","","","","","","","","","","","","NaN",""
"","S1","","html-keyboard-response","411","376700","0.0-1.0-578.0","0","0","77769","","null","","","null","64","","","","","","","","","","","","","","","",""
"","ISI","","html-keyboard-response","412","377706","0.0-1.0-579.0","0","0","77769","","null","","","null","64","NaN","","","","","","","","","","","","","","",""
"","S2","","html-keyboard-response","413","377963","0.0-1.0-580.0","0","0","77769","","null","","","null","64","","NaN","","","","","","","","","","","","","",""
"","response","","html-keyboard-response","414","378276","0.0-1.0-581.0-0.0","0","0","77769","","311","","","75","64","","","2","64","training","adjacent","AB","1","2","O.jpg","Q.jpg","1","1","1","",""
"","feedback","","html-keyboard-response","415","379279","0.0-1.0-582.0-0.0","0","0","77769","","null","","","null","64","","","","","","","","","","","","","","","",""
"","ITI","","html-keyboard-response","416","380286","0.0-1.0-585.0","0","0","77769","","null","","","null","64","","","","","","","","","","","","","","","NaN",""
"","S1","","html-keyboard-response","417","380548","0.0-1.0-587.0","0","0","77769","","null","","","null","65","","","","","","","","","","","","","","","",""
"","ISI","","html-keyboard-response","418","381564","0.0-1.0-588.0","0","0","77769","","null","","","null","65","NaN","","","","","","","","","","","","","","",""
"","S2","","html-keyboard-response","419","381823","0.0-1.0-589.0","0","0","77769","","null","","","null","65","","NaN","","","","","","","","","","","","","",""
"","response","","html-keyboard-response","420","381982","0.0-1.0-590.0-0.0","0","0","77769","","155","","","75","65","","","2","65","training","adjacent","AB","1","2","O.jpg","Q.jpg","1","1","1","",""
"","feedback","","html-keyboard-response","421","382993","0.0-1.0-591.0-0.0","0","0","77769","","null","","","null","65","","","","","","","","","","","","","","","",""
"","ITI","","html-keyboard-response","422","383999","0.0-1.0-594.0","0","0","77769","","null","","","null","65","","","","","","","","","","","","","","","NaN",""
"","S1","","html-keyboard-response","423","384254","0.0-1.0-596.0","0","0","77769","","null","","","null","66","","","","","","","","","","","","","","","",""
"","ISI","","html-keyboard-response","424","385265","0.0-1.0-597.0","0","0","77769","","null","","","null","66","NaN","","","","","","","","","","","","","","",""
"","S2","","html-keyboard-response","425","385520","0.0-1.0-598.0","0","0","77769","","null","","","null","66","","NaN","","","","","","","","","","","","","",""
"","response","","html-keyboard-response","426","385924","0.0-1.0-599.0-0.0","0","0","77769","","401","","","68","66","","","2","66","training","adjacent","CD","3","4","L.jpg","N.jpg","0","1","0","",""
"","feedback","","html-keyboard-response","427","386941","0.0-1.0-600.0-0.0","0","0","77769","","null","","","null","66","","","","","","","","","","","","","","","",""
"","time_out","","html-keyboard-response","428","388952","0.0-1.0-602.0-0.0","0","0","77769","","null","","","null","66","","","","","","","","","","","","","","","",""
"","ITI","","html-keyboard-response","429","389964","0.0-1.0-603.0","0","0","77769","","null","","","null","66","","","","","","","","","","","","","","","NaN",""
"","S1","","html-keyboard-response","430","390228","0.0-1.0-605.0","0","0","77769","","null","","","null","67","","","","","","","","","","","","","","","",""
"","ISI","","html-keyboard-response","431","391236","0.0-1.0-606.0","0","0","77769","","null","","","null","67","NaN","","","","","","","","","","","","","","",""
"","S2","","html-keyboard-response","432","391491","0.0-1.0-607.0","0","0","77769","","null","","","null","67","","NaN","","","","","","","","","","","","","",""
"","response","","html-keyboard-response","433","391846","0.0-1.0-608.0-0.0","0","0","77769","","352","","","68","67","","","2","67","training","adjacent","AB","1","2","O.jpg","Q.jpg","0","1","0","",""
"","feedback","","html-keyboard-response","434","392855","0.0-1.0-609.0-0.0","0","0","77769","","null","","","null","67","","","","","","","","","","","","","","","",""
"","time_out","","html-keyboard-response","435","394861","0.0-1.0-611.0-0.0","0","0","77769","","null","","","null","67","","","","","","","","","","","","","","","",""
"","ITI","","html-keyboard-response","436","395873","0.0-1.0-612.0","0","0","77769","","null","","","null","67","","","","","","","","","","","","","","","NaN",""
"","S1","","html-keyboard-response","437","396126","0.0-1.0-614.0","0","0","77769","","null","","","null","68","","","","","","","","","","","","","","","",""
"","ISI","","html-keyboard-response","438","397135","0.0-1.0-615.0","0","0","77769","","null","","","null","68","NaN","","","","","","","","","","","","","","",""
"","S2","","html-keyboard-response","439","397392","0.0-1.0-616.0","0","0","77769","","null","","","null","68","","NaN","","","","","","","","","","","","","",""
"","response","","html-keyboard-response","440","397678","0.0-1.0-617.0-0.0","0","0","77769","","283","","","75","68","","","2","68","training","adjacent","EF","5","6","M.jpg","P.jpg","1","1","1","",""
"","feedback","","html-keyboard-response","441","398688","0.0-1.0-618.0-0.0","0","0","77769","","null","","","null","68","","","","","","","","","","","","","","","",""
"","ITI","","html-keyboard-response","442","399693","0.0-1.0-621.0","0","0","77769","","null","","","null","68","","","","","","","","","","","","","","","NaN",""
"","S1","","html-keyboard-response","443","399958","0.0-1.0-623.0","0","0","77769","","null","","","null","69","","","","","","","","","","","","","","","",""
"","ISI","","html-keyboard-response","444","400963","0.0-1.0-624.0","0","0","77769","","null","","","null","69","NaN","","","","","","","","","","","","","","",""
"","S2","","html-keyboard-response","445","401228","0.0-1.0-625.0","0","0","77769","","null","","","null","69","","NaN","","","","","","","","","","","","","",""
"","response","","html-keyboard-response","446","401535","0.0-1.0-626.0-0.0","0","0","77769","","302","","","75","69","","","2","69","training","adjacent","CD","3","4","L.jpg","N.jpg","1","1","1","",""
"","feedback","","html-keyboard-response","447","402557","0.0-1.0-627.0-0.0","0","0","77769","","null","","","null","69","","","","","","","","","","","","","","","",""
"","ITI","","html-keyboard-response","448","403568","0.0-1.0-630.0","0","0","77769","","null","","","null","69","","","","","","","","","","","","","","","NaN",""
"","S1","","html-keyboard-response","449","403833","0.0-1.0-632.0","0","0","77769","","null","","","null","70","","","","","","","","","","","","","","","",""
"","ISI","","html-keyboard-response","450","404853","0.0-1.0-633.0","0","0","77769","","null","","","null","70","NaN","","","","","","","","","","","","","","",""
"","S2","","html-keyboard-response","451","405117","0.0-1.0-634.0","0","0","77769","","null","","","null","70","","NaN","","","","","","","","","","","","","",""
"","response","","html-keyboard-response","452","405446","0.0-1.0-635.0-0.0","0","0","77769","","325","","","75","70","","","2","70","training","adjacent","CD","3","4","L.jpg","N.jpg","1","1","1","",""
"","feedback","","html-keyboard-response","453","406458","0.0-1.0-636.0-0.0","0","0","77769","","null","","","null","70","","","","","","","","","","","","","","","",""
"","ITI","","html-keyboard-response","454","407472","0.0-1.0-639.0","0","0","77769","","null","","","null","70","","","","","","","","","","","","","","","NaN",""
"","S1","","html-keyboard-response","455","407743","0.0-1.0-641.0","0","0","77769","","null","","","null","71","","","","","","","","","","","","","","","",""
"","ISI","","html-keyboard-response","456","408751","0.0-1.0-642.0","0","0","77769","","null","","","null","71","NaN","","","","","","","","","","","","","","",""
"","S2","","html-keyboard-response","457","409012","0.0-1.0-643.0","0","0","77769","","null","","","null","71","","NaN","","","","","","","","","","","","","",""
"","response","","html-keyboard-response","458","409367","0.0-1.0-644.0-0.0","0","0","77769","","350","","","75","71","","","2","71","training","adjacent","BA","2","1","Q.jpg","O.jpg","1","0","0","",""
"","feedback","","html-keyboard-response","459","410377","0.0-1.0-645.0-0.0","0","0","77769","","null","","","null","71","","","","","","","","","","","","","","","",""
"","time_out","","html-keyboard-response","460","412389","0.0-1.0-647.0-0.0","0","0","77769","","null","","","null","71","","","","","","","","","","","","","","","",""
"","ITI","","html-keyboard-response","461","413394","0.0-1.0-648.0","0","0","77769","","null","","","null","71","","","","","","","","","","","","","","","NaN",""
"","S1","","html-keyboard-response","462","413656","0.0-1.0-650.0","0","0","77769","","null","","","null","72","","","","","","","","","","","","","","","",""
"","ISI","","html-keyboard-response","463","414668","0.0-1.0-651.0","0","0","77769","","null","","","null","72","NaN","","","","","","","","","","","","","","",""
"","S2","","html-keyboard-response","464","414929","0.0-1.0-652.0","0","0","77769","","null","","","null","72","","NaN","","","","","","","","","","","","","",""
"","response","","html-keyboard-response","465","415318","0.0-1.0-653.0-0.0","0","0","77769","","386","","","75","72","","","2","72","training","adjacent","CD","3","4","L.jpg","N.jpg","1","1","1","",""
"","feedback","","html-keyboard-response","466","416339","0.0-1.0-654.0-0.0","0","0","77769","","null","","","null","72","","","","","","","","","","","","","","","",""
"","ITI","","html-keyboard-response","467","417346","0.0-1.0-657.0","0","0","77769","","null","","","null","72","","","","","","","","","","","","","","","NaN",""
"","S1","","html-keyboard-response","468","417605","0.0-1.0-659.0","0","0","77769","","null","","","null","73","","","","","","","","","","","","","","","",""
"","ISI","","html-keyboard-response","469","418610","0.0-1.0-660.0","0","0","77769","","null","","","null","73","NaN","","","","","","","","","","","","","","",""
"","S2","","html-keyboard-response","470","418873","0.0-1.0-661.0","0","0","77769","","null","","","null","73","","NaN","","","","","","","","","","","","","",""
"","response","","html-keyboard-response","471","419166","0.0-1.0-662.0-0.0","0","0","77769","","289","","","75","73","","","2","73","training","adjacent","DE","4","5","N.jpg","M.jpg","1","1","1","",""
"","feedback","","html-keyboard-response","472","420172","0.0-1.0-663.0-0.0","0","0","77769","","null","","","null","73","","","","","","","","","","","","","","","",""
"","ITI","","html-keyboard-response","473","421187","0.0-1.0-666.0","0","0","77769","","null","","","null","73","","","","","","","","","","","","","","","NaN",""
"","S1","","html-keyboard-response","474","421443","0.0-1.0-668.0","0","0","77769","","null","","","null","74","","","","","","","","","","","","","","","",""
"","ISI","","html-keyboard-response","475","422452","0.0-1.0-669.0","0","0","77769","","null","","","null","74","NaN","","","","","","","","","","","","","","",""
"","S2","","html-keyboard-response","476","422708","0.0-1.0-670.0","0","0","77769","","null","","","null","74","","NaN","","","","","","","","","","","","","",""
"","response","","html-keyboard-response","477","422982","0.0-1.0-671.0-0.0","0","0","77769","","270","","","75","74","","","2","74","training","adjacent","BA","2","1","Q.jpg","O.jpg","1","0","0","",""
"","feedback","","html-keyboard-response","478","424000","0.0-1.0-672.0-0.0","0","0","77769","","null","","","null","74","","","","","","","","","","","","","","","",""
"","time_out","","html-keyboard-response","479","426009","0.0-1.0-674.0-0.0","0","0","77769","","null","","","null","74","","","","","","","","","","","","","","","",""
"","ITI","","html-keyboard-response","480","427019","0.0-1.0-675.0","0","0","77769","","null","","","null","74","","","","","","","","","","","","","","","NaN",""
"","S1","","html-keyboard-response","481","427274","0.0-1.0-677.0","0","0","77769","","null","","","null","75","","","","","","","","","","","","","","","",""
"","ISI","","html-keyboard-response","482","428277","0.0-1.0-678.0","0","0","77769","","null","","","null","75","NaN","","","","","","","","","","","","","","",""
"","S2","","html-keyboard-response","483","428541","0.0-1.0-679.0","0","0","77769","","null","","","null","75","","NaN","","","","","","","","","","","","","",""
"","response","","html-keyboard-response","484","428694","0.0-1.0-680.0-0.0","0","0","77769","","149","","","68","75","","","2","75","training","adjacent","BC","2","3","Q.jpg","L.jpg","0","1","0","",""
"","feedback","","html-keyboard-response","485","429706","0.0-1.0-681.0-0.0","0","0","77769","","null","","","null","75","","","","","","","","","","","","","","","",""
"","time_out","","html-keyboard-response","486","431718","0.0-1.0-683.0-0.0","0","0","77769","","null","","","null","75","","","","","","","","","","","","","","","",""
"","ITI","","html-keyboard-response","487","432726","0.0-1.0-684.0","0","0","77769","","null","","","null","75","","","","","","","","","","","","","","","NaN",""
"","S1","","html-keyboard-response","488","432993","0.0-1.0-686.0","0","0","77769","","null","","","null","76","","","","","","","","","","","","","","","",""
"","ISI","","html-keyboard-response","489","434007","0.0-1.0-687.0","0","0","77769","","null","","","null","76","NaN","","","","","","","","","","","","","","",""
"","S2","","html-keyboard-response","490","434277","0.0-1.0-688.0","0","0","77769","","null","","","null","76","","NaN","","","","","","","","","","","","","",""
"","response","","html-keyboard-response","491","434567","0.0-1.0-689.0-0.0","0","0","77769","","286","","","75","76","","","2","76","training","adjacent","ED","5","4","M.jpg","N.jpg","1","0","0","",""
"","feedback","","html-keyboard-response","492","435582","0.0-1.0-690.0-0.0","0","0","77769","","null","","","null","76","","","","","","","","","","","","","","","",""
"","time_out","","html-keyboard-response","493","437594","0.0-1.0-692.0-0.0","0","0","77769","","null","","","null","76","","","","","","","","","","","","","","","",""
"","ITI","","html-keyboard-response","494","438607","0.0-1.0-693.0","0","0","77769","","null","","","null","76","","","","","","","","","","","","","","","NaN",""
"","S1","","html-keyboard-response","495","438870","0.0-1.0-695.0","0","0","77769","","null","","","null","77","","","","","","","","","","","","","","","",""
"","ISI","","html-keyboard-response","496","439878","0.0-1.0-696.0","0","0","77769","","null","","","null","77","NaN","","","","","","","","","","","","","","",""
"","S2","","html-keyboard-response","497","440141","0.0-1.0-697.0","0","0","77769","","null","","","null","77","","NaN","","","","","","","","","","","","","",""
"","response","","html-keyboard-response","498","440423","0.0-1.0-698.0-0.0","0","0","77769","","277","","","68","77","","","2","77","training","adjacent","EF","5","6","M.jpg","P.jpg","0","1","0","",""
"","feedback","","html-keyboard-response","499","441430","0.0-1.0-699.0-0.0","0","0","77769","","null","","","null","77","","","","","","","","","","","","","","","",""
"","time_out","","html-keyboard-response","500","443438","0.0-1.0-701.0-0.0","0","0","77769","","null","","","null","77","","","","","","","","","","","","","","","",""
"","ITI","","html-keyboard-response","501","444453","0.0-1.0-702.0","0","0","77769","","null","","","null","77","","","","","","","","","","","","","","","NaN",""
"","S1","","html-keyboard-response","502","444711","0.0-1.0-704.0","0","0","77769","","null","","","null","78","","","","","","","","","","","","","","","",""
"","ISI","","html-keyboard-response","503","445717","0.0-1.0-705.0","0","0","77769","","null","","","null","78","NaN","","","","","","","","","","","","","","",""
"","S2","","html-keyboard-response","504","445974","0.0-1.0-706.0","0","0","77769","","null","","","null","78","","NaN","","","","","","","","","","","","","",""
"","response","","html-keyboard-response","505","446358","0.0-1.0-707.0-0.0","0","0","77769","","381","","","75","78","","","2","78","training","adjacent","AB","1","2","O.jpg","Q.jpg","1","1","1","",""
"","feedback","","html-keyboard-response","506","447371","0.0-1.0-708.0-0.0","0","0","77769","","null","","","null","78","","","","","","","","","","","","","","","",""
"","ITI","","html-keyboard-response","507","448385","0.0-1.0-711.0","0","0","77769","","null","","","null","78","","","","","","","","","","","","","","","NaN",""
"","S1","","html-keyboard-response","508","448644","0.0-1.0-713.0","0","0","77769","","null","","","null","79","","","","","","","","","","","","","","","",""
"","ISI","","html-keyboard-response","509","449658","0.0-1.0-714.0","0","0","77769","","null","","","null","79","NaN","","","","","","","","","","","","","","",""
"","S2","","html-keyboard-response","510","449921","0.0-1.0-715.0","0","0","77769","","null","","","null","79","","NaN","","","","","","","","","","","","","",""
"","response","","html-keyboard-response","511","450286","0.0-1.0-716.0-0.0","0","0","77769","","360","","","75","79","","","2","79","training","adjacent","GF","7","6","R.jpg","P.jpg","1","0","0","",""
"","feedback","","html-keyboard-response","512","451295","0.0-1.0-717.0-0.0","0","0","77769","","null","","","null","79","","","","","","","","","","","","","","","",""
"","time_out","","html-keyboard-response","513","453302","0.0-1.0-719.0-0.0","0","0","77769","","null","","","null","79","","","","","","","","","","","","","","","",""
"","ITI","","html-keyboard-response","514","454311","0.0-1.0-720.0","0","0","77769","","null","","","null","79","","","","","","","","","","","","","","","NaN",""
"","S1","","html-keyboard-response","515","454568","0.0-1.0-722.0","0","0","77769","","null","","","null","80","","","","","","","","","","","","","","","",""
"","ISI","","html-keyboard-response","516","455573","0.0-1.0-723.0","0","0","77769","","null","","","null","80","NaN","","","","","","","","","","","","","","",""
"","S2","","html-keyboard-response","517","455836","0.0-1.0-724.0","0","0","77769","","null","","","null","80","","NaN","","","","","","","","","","","","","",""
"","response","","html-keyboard-response","518","456270","0.0-1.0-725.0-0.0","0","0","77769","","430","","","75","80","","","2","80","training","adjacent","GF","7","6","R.jpg","P.jpg","1","0","0","",""
"","feedback","","html-keyboard-response","519","457280","0.0-1.0-726.0-0.0","0","0","77769","","null","","","null","80","","","","","","","","","","","","","","","",""
"","time_out","","html-keyboard-response","520","459287","0.0-1.0-728.0-0.0","0","0","77769","","null","","","null","80","","","","","","","","","","","","","","","",""
"","ITI","","html-keyboard-response","521","460294","0.0-1.0-729.0","0","0","77769","","null","","","null","80","","","","","","","","","","","","","","","NaN",""
"","S1","","html-keyboard-response","522","460549","0.0-1.0-731.0","0","0","77769","","null","","","null","81","","","","","","","","","","","","","","","",""
"","ISI","","html-keyboard-response","523","461560","0.0-1.0-732.0","0","0","77769","","null","","","null","81","NaN","","","","","","","","","","","","","","",""
"","S2","","html-keyboard-response","524","461832","0.0-1.0-733.0","0","0","77769","","null","","","null","81","","NaN","","","","","","","","","","","","","",""
"","response","","html-keyboard-response","525","462070","0.0-1.0-734.0-0.0","0","0","77769","","234","","","68","81","","","2","81","training","adjacent","EF","5","6","M.jpg","P.jpg","0","1","0","",""
"","feedback","","html-keyboard-response","526","463079","0.0-1.0-735.0-0.0","0","0","77769","","null","","","null","81","","","","","","","","","","","","","","","",""
"","time_out","","html-keyboard-response","527","465088","0.0-1.0-737.0-0.0","0","0","77769","","null","","","null","81","","","","","","","","","","","","","","","",""
"","ITI","","html-keyboard-response","528","466095","0.0-1.0-738.0","0","0","77769","","null","","","null","81","","","","","","","","","","","","","","","NaN",""
"","S1","","html-keyboard-response","529","466366","0.0-1.0-740.0","0","0","77769","","null","","","null","82","","","","","","","","","","","","","","","",""
"","ISI","","html-keyboard-response","530","467381","0.0-1.0-741.0","0","0","77769","","null","","","null","82","NaN","","","","","","","","","","","","","","",""
"","S2","","html-keyboard-response","531","467642","0.0-1.0-742.0","0","0","77769","","null","","","null","82","","NaN","","","","","","","","","","","","","",""
"","response","","html-keyboard-response","532","467903","0.0-1.0-743.0-0.0","0","0","77769","","257","","","68","82","","","2","82","training","adjacent","BA","2","1","Q.jpg","O.jpg","0","0","1","",""
"","feedback","","html-keyboard-response","533","468926","0.0-1.0-744.0-0.0","0","0","77769","","null","","","null","82","","","","","","","","","","","","","","","",""
"","ITI","","html-keyboard-response","534","469944","0.0-1.0-747.0","0","0","77769","","null","","","null","82","","","","","","","","","","","","","","","NaN",""
"","S1","","html-keyboard-response","535","470206","0.0-1.0-749.0","0","0","77769","","null","","","null","83","","","","","","","","","","","","","","","",""
"","ISI","","html-keyboard-response","536","471218","0.0-1.0-750.0","0","0","77769","","null","","","null","83","NaN","","","","","","","","","","","","","","",""
"","S2","","html-keyboard-response","537","471484","0.0-1.0-751.0","0","0","77769","","null","","","null","83","","NaN","","","","","","","","","","","","","",""
"","response","","html-keyboard-response","538","471750","0.0-1.0-752.0-0.0","0","0","77769","","261","","","75","83","","","2","83","training","adjacent","FE","6","5","P.jpg","M.jpg","1","0","0","",""
"","feedback","","html-keyboard-response","539","472755","0.0-1.0-753.0-0.0","0","0","77769","","null","","","null","83","","","","","","","","","","","","","","","",""
"","time_out","","html-keyboard-response","540","474764","0.0-1.0-755.0-0.0","0","0","77769","","null","","","null","83","","","","","","","","","","","","","","","",""
"","ITI","","html-keyboard-response","541","475776","0.0-1.0-756.0","0","0","77769","","null","","","null","83","","","","","","","","","","","","","","","NaN",""
"","S1","","html-keyboard-response","542","476032","0.0-1.0-758.0","0","0","77769","","null","","","null","84","","","","","","","","","","","","","","","",""
"","ISI","","html-keyboard-response","543","477051","0.0-1.0-759.0","0","0","77769","","null","","","null","84","NaN","","","","","","","","","","","","","","",""
"","S2","","html-keyboard-response","544","477313","0.0-1.0-760.0","0","0","77769","","null","","","null","84","","NaN","","","","","","","","","","","","","",""
"","response","","html-keyboard-response","545","477566","0.0-1.0-761.0-0.0","0","0","77769","","249","","","68","84","","","2","84","training","adjacent","CB","3","2","L.jpg","Q.jpg","0","0","1","",""
"","feedback","","html-keyboard-response","546","478578","0.0-1.0-762.0-0.0","0","0","77769","","null","","","null","84","","","","","","","","","","","","","","","",""
"","ITI","","html-keyboard-response","547","479590","0.0-1.0-765.0","0","0","77769","","null","","","null","84","","","","","","","","","","","","","","","NaN",""
"","S1","","html-keyboard-response","548","479853","0.0-1.0-767.0","0","0","77769","","null","","","null","85","","","","","","","","","","","","","","","",""
"","ISI","","html-keyboard-response","549","480866","0.0-1.0-768.0","0","0","77769","","null","","","null","85","NaN","","","","","","","","","","","","","","",""
"","S2","","html-keyboard-response","550","481127","0.0-1.0-769.0","0","0","77769","","null","","","null","85","","NaN","","","","","","","","","","","","","",""
"","response","","html-keyboard-response","551","481421","0.0-1.0-770.0-0.0","0","0","77769","","290","","","68","85","","","2","85","training","adjacent","DE","4","5","N.jpg","M.jpg","0","1","0","",""
"","feedback","","html-keyboard-response","552","482434","0.0-1.0-771.0-0.0","0","0","77769","","null","","","null","85","","","","","","","","","","","","","","","",""
"","time_out","","html-keyboard-response","553","484442","0.0-1.0-773.0-0.0","0","0","77769","","null","","","null","85","","","","","","","","","","","","","","","",""
"","ITI","","html-keyboard-response","554","485446","0.0-1.0-774.0","0","0","77769","","null","","","null","85","","","","","","","","","","","","","","","NaN",""
"","S1","","html-keyboard-response","555","485706","0.0-1.0-776.0","0","0","77769","","null","","","null","86","","","","","","","","","","","","","","","",""
"","ISI","","html-keyboard-response","556","486713","0.0-1.0-777.0","0","0","77769","","null","","","null","86","NaN","","","","","","","","","","","","","","",""
"","S2","","html-keyboard-response","557","486972","0.0-1.0-778.0","0","0","77769","","null","","","null","86","","NaN","","","","","","","","","","","","","",""
"","response","","html-keyboard-response","558","487309","0.0-1.0-779.0-0.0","0","0","77769","","333","","","68","86","","","2","86","training","adjacent","DE","4","5","N.jpg","M.jpg","0","1","0","",""
"","feedback","","html-keyboard-response","559","488320","0.0-1.0-780.0-0.0","0","0","77769","","null","","","null","86","","","","","","","","","","","","","","","",""
"","time_out","","html-keyboard-response","560","490329","0.0-1.0-782.0-0.0","0","0","77769","","null","","","null","86","","","","","","","","","","","","","","","",""
"","ITI","","html-keyboard-response","561","491335","0.0-1.0-783.0","0","0","77769","","null","","","null","86","","","","","","","","","","","","","","","NaN",""
"","S1","","html-keyboard-response","562","491597","0.0-1.0-785.0","0","0","77769","","null","","","null","87","","","","","","","","","","","","","","","",""
"","ISI","","html-keyboard-response","563","492613","0.0-1.0-786.0","0","0","77769","","null","","","null","87","NaN","","","","","","","","","","","","","","",""
"","S2","","html-keyboard-response","564","492876","0.0-1.0-787.0","0","0","77769","","null","","","null","87","","NaN","","","","","","","","","","","","","",""
"","response","","html-keyboard-response","565","493182","0.0-1.0-788.0-0.0","0","0","77769","","301","","","75","87","","","2","87","training","adjacent","BC","2","3","Q.jpg","L.jpg","1","1","1","",""
"","feedback","","html-keyboard-response","566","494188","0.0-1.0-789.0-0.0","0","0","77769","","null","","","null","87","","","","","","","","","","","","","","","",""
"","ITI","","html-keyboard-response","567","495209","0.0-1.0-792.0","0","0","77769","","null","","","null","87","","","","","","","","","","","","","","","NaN",""
"","S1","","html-keyboard-response","568","495474","0.0-1.0-794.0","0","0","77769","","null","","","null","88","","","","","","","","","","","","","","","",""
"","ISI","","html-keyboard-response","569","496478","0.0-1.0-795.0","0","0","77769","","null","","","null","88","NaN","","","","","","","","","","","","","","",""
"","S2","","html-keyboard-response","570","496732","0.0-1.0-796.0","0","0","77769","","null","","","null","88","","NaN","","","","","","","","","","","","","",""
"","response","","html-keyboard-response","571","497030","0.0-1.0-797.0-0.0","0","0","77769","","294","","","75","88","","","2","88","training","adjacent","DC","4","3","N.jpg","L.jpg","1","0","0","",""
"","feedback","","html-keyboard-response","572","498036","0.0-1.0-798.0-0.0","0","0","77769","","null","","","null","88","","","","","","","","","","","","","","","",""
"","time_out","","html-keyboard-response","573","500049","0.0-1.0-800.0-0.0","0","0","77769","","null","","","null","88","","","","","","","","","","","","","","","",""
"","ITI","","html-keyboard-response","574","501057","0.0-1.0-801.0","0","0","77769","","null","","","null","88","","","","","","","","","","","","","","","NaN",""
"","S1","","html-keyboard-response","575","501318","0.0-1.0-803.0","0","0","77769","","null","","","null","89","","","","","","","","","","","","","","","",""
"","ISI","","html-keyboard-response","576","502330","0.0-1.0-804.0","0","0","77769","","null","","","null","89","NaN","","","","","","","","","","","","","","",""
"","S2","","html-keyboard-response","577","502585","0.0-1.0-805.0","0","0","77769","","null","","","null","89","","NaN","","","","","","","","","","","","","",""
"","response","","html-keyboard-response","578","502654","0.0-1.0-806.0-0.0","0","0","77769","","65","","","75","89","","","2","89","training","adjacent","BC","2","3","Q.jpg","L.jpg","1","1","1","",""
"","feedback","","html-keyboard-response","579","503662","0.0-1.0-807.0-0.0","0","0","77769","","null","","","null","89","","","","","","","","","","","","","","","",""
"","ITI","","html-keyboard-response","580","504673","0.0-1.0-810.0","0","0","77769","","null","","","null","89","","","","","","","","","","","","","","","NaN",""
"","S1","","html-keyboard-response","581","504933","0.0-1.0-812.0","0","0","77769","","null","","","null","90","","","","","","","","","","","","","","","",""
