"success","ttype","start_time","trial_type","trial_index","time_elapsed","internal_node_id","warning","missed_checkup","PID","view_history","rt","responses","repeat_instructions","key_press","index","keypress_isi","keypress_S2","block","trial_num","phase","group_type","pair_type","S1_stim","S2_stim","S1_img","S2_img","S1_chosen","S1_higher","accuracy","keypress_iti","total_bonus_tally"
"true","full_screen","d08052022hr1533","fullscreen","0","3931","0.0-0.0","0","0","99927","","","","","","","","","","","","","","","","","","","","","",""
"","instructions","","instructions","1","20080","0.0-1.0-0.0-0.0","0","0","99927","[{""page_index"":0,""viewing_time"":4234},{""page_index"":1,""viewing_time"":6930},{""page_index"":2,""viewing_time"":3934},{""page_index"":3,""viewing_time"":1032}]","16133","","","","","","","","","","","","","","","","","","","",""
"","comprehension_check","","survey-multi-choice","2","40822","0.0-1.0-0.0-1.0","0","0","99927","","20692","{""Q0"":""True"",""Q1"":""D"",""Q2"":""Only when the screen 'MAKE A CHOICE' is shown"",""Q3"":""Green mark"",""Q4"":""either D or K""}","1","","","","","","","","","","","","","","","","","",""
"","missed_instruction_checkup","","html-keyboard-response","3","42606","0.0-1.0-0.0-2.0-0.0","0","1","99927","","1748","","","32","","","","","","","","","","","","","","","","",""
"","instructions","","instructions","4","55865","0.0-1.0-0.1-0.1","0","0","99927","[{""page_index"":0,""viewing_time"":3641},{""page_index"":1,""viewing_time"":7630},{""page_index"":2,""viewing_time"":1234},{""page_index"":3,""viewing_time"":736}]","13243","","","","","","","","","","","","","","","","","","","",""
"","comprehension_check","","survey-multi-choice","5","67464","0.0-1.0-0.1-1.1","0","0","99927","","11547","{""Q0"":""True"",""Q1"":""D"",""Q2"":""Once the second image appears and while the screen 'MAKE A CHOICE' is shown"",""Q3"":""Green mark"",""Q4"":""either D or K""}","1","","","","","","","","","","","","","","","","","",""
"","missed_instruction_checkup","","html-keyboard-response","6","68873","0.0-1.0-0.1-2.1-0.1","0","1","99927","","1376","","","32","","","","","","","","","","","","","","","","",""
"","instructions","","instructions","7","85971","0.0-1.0-0.2-0.2","0","0","99927","[{""page_index"":0,""viewing_time"":3932},{""page_index"":1,""viewing_time"":10964},{""page_index"":2,""viewing_time"":1133},{""page_index"":3,""viewing_time"":1052}]","17084","","","","","","","","","","","","","","","","","","","",""
"","comprehension_check","","survey-multi-choice","8","95822","0.0-1.0-0.2-1.2","0","0","99927","","9792","{""Q0"":""True"",""Q1"":""K"",""Q2"":""Once the second image appears and while the screen 'MAKE A CHOICE' is shown"",""Q3"":""Green mark"",""Q4"":""either D or K""}","0","","","","","","","","","","","","","","","","","",""
"","start_exp","","html-keyboard-response","9","96902","0.0-1.0-1.0","0","0","99927","","1048","","","32","","","","","","","","","","","","","","","","",""
"","S1","","html-keyboard-response","10","97164","0.0-1.0-2.0","0","0","99927","","null","","","null","0","","","","","","","","","","","","","","","",""
"","ISI","","html-keyboard-response","11","99180","0.0-1.0-3.0","0","0","99927","","null","","","null","0","NaN","","","","","","","","","","","","","","",""
"","S2","","html-keyboard-response","12","99441","0.0-1.0-4.0","0","0","99927","","null","","","null","0","","NaN","","","","","","","","","","","","","",""
"","response","","html-keyboard-response","13","100550","0.0-1.0-5.0-0.0","0","0","99927","","1099","","","75","0","","","1","0","training","adjacent","FG","6","7","P.jpg","N.jpg","1","1","1","",""
"","feedback","","html-keyboard-response","14","101567","0.0-1.0-6.0-0.0","0","0","99927","","null","","","null","0","","","","","","","","","","","","","","","",""
"","ITI","","html-keyboard-response","15","102584","0.0-1.0-9.0","0","0","99927","","null","","","null","0","","","","","","","","","","","","","","","NaN",""
"","S1","","html-keyboard-response","16","102850","0.0-1.0-11.0","0","0","99927","","null","","","null","1","","","","","","","","","","","","","","","",""
"","ISI","","html-keyboard-response","17","104866","0.0-1.0-12.0","0","0","99927","","null","","","null","1","NaN","","","","","","","","","","","","","","",""
"","S2","","html-keyboard-response","18","105132","0.0-1.0-13.0","0","0","99927","","null","","","null","1","","NaN","","","","","","","","","","","","","",""
"","response","","html-keyboard-response","19","106618","0.0-1.0-14.0-0.0","0","0","99927","","1473","","","68","1","","","1","1","training","adjacent","AB","1","2","M.jpg","R.jpg","0","1","0","",""
"","feedback","","html-keyboard-response","20","107628","0.0-1.0-15.0-0.0","0","0","99927","","null","","","null","1","","","","","","","","","","","","","","","",""
"","time_out","","html-keyboard-response","21","109637","0.0-1.0-17.0-0.0","0","0","99927","","null","","","null","1","","","","","","","","","","","","","","","",""
"","ITI","","html-keyboard-response","22","110649","0.0-1.0-18.0","0","0","99927","","null","","","null","1","","","","","","","","","","","","","","","NaN",""
"","S1","","html-keyboard-response","23","110913","0.0-1.0-20.0","0","0","99927","","null","","","null","2","","","","","","","","","","","","","","","",""
"","ISI","","html-keyboard-response","24","112928","0.0-1.0-21.0","0","0","99927","","null","","","null","2","NaN","","","","","","","","","","","","","","",""
"","S2","","html-keyboard-response","25","113196","0.0-1.0-22.0","0","0","99927","","null","","","null","2","","NaN","","","","","","","","","","","","","",""
"","response","","html-keyboard-response","26","113783","0.0-1.0-23.0-0.0","0","0","99927","","566","","","75","2","","","1","2","training","adjacent","DE","4","5","O.jpg","L.jpg","1","1","1","",""
"","feedback","","html-keyboard-response","27","114801","0.0-1.0-24.0-0.0","0","0","99927","","null","","","null","2","","","","","","","","","","","","","","","",""
"","ITI","","html-keyboard-response","28","115813","0.0-1.0-27.0","0","0","99927","","null","","","null","2","","","","","","","","","","","","","","","NaN",""
"","S1","","html-keyboard-response","29","116081","0.0-1.0-29.0","0","0","99927","","null","","","null","3","","","","","","","","","","","","","","","",""
"","ISI","","html-keyboard-response","30","118093","0.0-1.0-30.0","0","0","99927","","null","","","null","3","NaN","","","","","","","","","","","","","","",""
"","S2","","html-keyboard-response","31","118352","0.0-1.0-31.0","0","0","99927","","null","","","null","3","","NaN","","","","","","","","","","","","","",""
"","response","","html-keyboard-response","32","119558","0.0-1.0-32.0-0.0","0","0","99927","","1193","","","75","3","","","1","3","training","adjacent","BC","2","3","R.jpg","Q.jpg","1","1","1","",""
"","feedback","","html-keyboard-response","33","120576","0.0-1.0-33.0-0.0","0","0","99927","","null","","","null","3","","","","","","","","","","","","","","","",""
"","ITI","","html-keyboard-response","34","121600","0.0-1.0-36.0","0","0","99927","","null","","","null","3","","","","","","","","","","","","","","","NaN",""
"","S1","","html-keyboard-response","35","121868","0.0-1.0-38.0","0","0","99927","","null","","","null","4","","","","","","","","","","","","","","","",""
"","ISI","","html-keyboard-response","36","123881","0.0-1.0-39.0","0","0","99927","","null","","","null","4","NaN","","","","","","","","","","","","","","",""
"","S2","","html-keyboard-response","37","124149","0.0-1.0-40.0","0","0","99927","","null","","","null","4","","NaN","","","","","","","","","","","","","",""
"","response","","html-keyboard-response","38","124541","0.0-1.0-41.0-0.0","0","0","99927","","376","","","75","4","","","1","4","training","adjacent","DC","4","3","O.jpg","Q.jpg","1","0","0","",""
"","feedback","","html-keyboard-response","39","125565","0.0-1.0-42.0-0.0","0","0","99927","","null","","","null","4","","","","","","","","","","","","","","","",""
"","time_out","","html-keyboard-response","40","127582","0.0-1.0-44.0-0.0","0","0","99927","","null","","","null","4","","","","","","","","","","","","","","","",""
"","ITI","","html-keyboard-response","41","128599","0.0-1.0-45.0","0","0","99927","","null","","","null","4","","","","","","","","","","","","","","","NaN",""
"","S1","","html-keyboard-response","42","128863","0.0-1.0-47.0","0","0","99927","","null","","","null","5","","","","","","","","","","","","","","","",""
"","ISI","","html-keyboard-response","43","130877","0.0-1.0-48.0","0","0","99927","","null","","","null","5","NaN","","","","","","","","","","","","","","",""
"","S2","","html-keyboard-response","44","131146","0.0-1.0-49.0","0","0","99927","","null","","","null","5","","NaN","","","","","","","","","","","","","",""
"","response","","html-keyboard-response","45","131768","0.0-1.0-50.0-0.0","0","0","99927","","609","","","75","5","","","1","5","training","adjacent","EF","5","6","L.jpg","P.jpg","1","1","1","",""
"","feedback","","html-keyboard-response","46","132788","0.0-1.0-51.0-0.0","0","0","99927","","null","","","null","5","","","","","","","","","","","","","","","",""
"","ITI","","html-keyboard-response","47","133802","0.0-1.0-54.0","0","0","99927","","null","","","null","5","","","","","","","","","","","","","","","NaN",""
"","S1","","html-keyboard-response","48","134069","0.0-1.0-56.0","0","0","99927","","null","","","null","6","","","","","","","","","","","","","","","",""
"","ISI","","html-keyboard-response","49","136085","0.0-1.0-57.0","0","0","99927","","null","","","null","6","NaN","","","","","","","","","","","","","","",""
"","S2","","html-keyboard-response","50","136351","0.0-1.0-58.0","0","0","99927","","null","","","null","6","","NaN","","","","","","","","","","","","","",""
"","response","","html-keyboard-response","51","136923","0.0-1.0-59.0-0.0","0","0","99927","","556","","","75","6","","","1","6","training","adjacent","FG","6","7","P.jpg","N.jpg","1","1","1","",""
"","feedback","","html-keyboard-response","52","137941","0.0-1.0-60.0-0.0","0","0","99927","","null","","","null","6","","","","","","","","","","","","","","","",""
"","ITI","","html-keyboard-response","53","138957","0.0-1.0-63.0","0","0","99927","","null","","","null","6","","","","","","","","","","","","","","","NaN",""
"","S1","","html-keyboard-response","54","139229","0.0-1.0-65.0","0","0","99927","","null","","","null","7","","","","","","","","","","","","","","","",""
"","ISI","","html-keyboard-response","55","141245","0.0-1.0-66.0","0","0","99927","","null","","","null","7","NaN","","","","","","","","","","","","","","",""
"","S2","","html-keyboard-response","56","141513","0.0-1.0-67.0","0","0","99927","","null","","","null","7","","NaN","","","","","","","","","","","","","",""
"","response","","html-keyboard-response","57","142189","0.0-1.0-68.0-0.0","0","0","99927","","662","","","75","7","","","1","7","training","adjacent","BA","2","1","R.jpg","M.jpg","1","0","0","",""
"","feedback","","html-keyboard-response","58","143207","0.0-1.0-69.0-0.0","0","0","99927","","null","","","null","7","","","","","","","","","","","","","","","",""
"","time_out","","html-keyboard-response","59","145224","0.0-1.0-71.0-0.0","0","0","99927","","null","","","null","7","","","","","","","","","","","","","","","",""
"","ITI","","html-keyboard-response","60","146248","0.0-1.0-72.0","0","0","99927","","null","","","null","7","","","","","","","","","","","","","","","NaN",""
"","S1","","html-keyboard-response","61","146517","0.0-1.0-74.0","0","0","99927","","null","","","null","8","","","","","","","","","","","","","","","",""
"","ISI","","html-keyboard-response","62","148533","0.0-1.0-75.0","0","0","99927","","null","","","null","8","NaN","","","","","","","","","","","","","","",""
"","S2","","html-keyboard-response","63","148801","0.0-1.0-76.0","0","0","99927","","null","","","null","8","","NaN","","","","","","","","","","","","","",""
"","response","","html-keyboard-response","64","149824","0.0-1.0-77.0-0.0","0","0","99927","","1009","","","68","8","","","1","8","training","adjacent","BC","2","3","R.jpg","Q.jpg","0","1","0","",""
"","feedback","","html-keyboard-response","65","150840","0.0-1.0-78.0-0.0","0","0","99927","","null","","","null","8","","","","","","","","","","","","","","","",""
"","time_out","","html-keyboard-response","66","152857","0.0-1.0-80.0-0.0","0","0","99927","","null","","","null","8","","","","","","","","","","","","","","","",""
"","ITI","","html-keyboard-response","67","153875","0.0-1.0-81.0","0","0","99927","","null","","","null","8","","","","","","","","","","","","","","","NaN",""
"","S1","","html-keyboard-response","68","154140","0.0-1.0-83.0","0","0","99927","","null","","","null","9","","","","","","","","","","","","","","","",""
"","ISI","","html-keyboard-response","69","156149","0.0-1.0-84.0","0","0","99927","","null","","","null","9","NaN","","","","","","","","","","","","","","",""
"","S2","","html-keyboard-response","70","156412","0.0-1.0-85.0","0","0","99927","","null","","","null","9","","NaN","","","","","","","","","","","","","",""
"","response","","html-keyboard-response","71","157413","0.0-1.0-86.0-0.0","0","0","99927","","987","","","68","9","","","1","9","training","adjacent","CD","3","4","Q.jpg","O.jpg","0","1","0","",""
"","feedback","","html-keyboard-response","72","158424","0.0-1.0-87.0-0.0","0","0","99927","","null","","","null","9","","","","","","","","","","","","","","","",""
"","time_out","","html-keyboard-response","73","160441","0.0-1.0-89.0-0.0","0","0","99927","","null","","","null","9","","","","","","","","","","","","","","","",""
"","ITI","","html-keyboard-response","74","161458","0.0-1.0-90.0","0","0","99927","","null","","","null","9","","","","","","","","","","","","","","","NaN",""
"","S1","","html-keyboard-response","75","161727","0.0-1.0-92.0","0","0","99927","","null","","","null","10","","","","","","","","","","","","","","","",""
"","ISI","","html-keyboard-response","76","163742","0.0-1.0-93.0","0","0","99927","","null","","","null","10","NaN","","","","","","","","","","","","","","",""
"","S2","","html-keyboard-response","77","164009","0.0-1.0-94.0","0","0","99927","","null","","","null","10","","NaN","","","","","","","","","","","","","",""
"","response","","html-keyboard-response","78","164387","0.0-1.0-95.0-0.0","0","0","99927","","365","","","68","10","","","1","10","training","adjacent","DE","4","5","O.jpg","L.jpg","0","1","0","",""
"","feedback","","html-keyboard-response","79","165407","0.0-1.0-96.0-0.0","0","0","99927","","null","","","null","10","","","","","","","","","","","","","","","",""
"","time_out","","html-keyboard-response","80","167423","0.0-1.0-98.0-0.0","0","0","99927","","null","","","null","10","","","","","","","","","","","","","","","",""
"","ITI","","html-keyboard-response","81","168437","0.0-1.0-99.0","0","0","99927","","null","","","null","10","","","","","","","","","","","","","","","NaN",""
"","S1","","html-keyboard-response","82","168703","0.0-1.0-101.0","0","0","99927","","null","","","null","11","","","","","","","","","","","","","","","",""
"","ISI","","html-keyboard-response","83","170719","0.0-1.0-102.0","0","0","99927","","null","","","null","11","NaN","","","","","","","","","","","","","","",""
"","S2","","html-keyboard-response","84","170992","0.0-1.0-103.0","0","0","99927","","null","","","null","11","","NaN","","","","","","","","","","","","","",""
"","response","","html-keyboard-response","85","171612","0.0-1.0-104.0-0.0","0","0","99927","","605","","","68","11","","","1","11","training","adjacent","BA","2","1","R.jpg","M.jpg","0","0","1","",""
"","feedback","","html-keyboard-response","86","172624","0.0-1.0-105.0-0.0","0","0","99927","","null","","","null","11","","","","","","","","","","","","","","","",""
"","ITI","","html-keyboard-response","87","173640","0.0-1.0-108.0","0","0","99927","","null","","","null","11","","","","","","","","","","","","","","","NaN",""
"","S1","","html-keyboard-response","88","173909","0.0-1.0-110.0","0","0","99927","","null","","","null","12","","","","","","","","","","","","","","","",""
"","ISI","","html-keyboard-response","89","175925","0.0-1.0-111.0","0","0","99927","","null","","","null","12","NaN","","","","","","","","","","","","","","",""
"","S2","","html-keyboard-response","90","176198","0.0-1.0-112.0","0","0","99927","","null","","","null","12","","NaN","","","","","","","","","","","","","",""
"","response","","html-keyboard-response","91","176554","0.0-1.0-113.0-0.0","0","0","99927","","342","","","75","12","","","1","12","training","adjacent","DE","4","5","O.jpg","L.jpg","1","1","1","",""
"","feedback","","html-keyboard-response","92","177572","0.0-1.0-114.0-0.0","0","0","99927","","null","","","null","12","","","","","","","","","","","","","","","",""
"","ITI","","html-keyboard-response","93","178589","0.0-1.0-117.0","0","0","99927","","null","","","null","12","","","","","","","","","","","","","","","NaN",""
"","S1","","html-keyboard-response","94","178857","0.0-1.0-119.0","0","0","99927","","null","","","null","13","","","","","","","","","","","","","","","",""
"","ISI","","html-keyboard-response","95","180873","0.0-1.0-120.0","0","0","99927","","null","","","null","13","NaN","","","","","","","","","","","","","","",""
"","S2","","html-keyboard-response","96","181142","0.0-1.0-121.0","0","0","99927","","null","","","null","13","","NaN","","","","","","","","","","","","","",""
"","response","","html-keyboard-response","97","181729","0.0-1.0-122.0-0.0","0","0","99927","","572","","","75","13","","","1","13","training","adjacent","GF","7","6","N.jpg","P.jpg","1","0","0","",""
"","feedback","","html-keyboard-response","98","182745","0.0-1.0-123.0-0.0","0","0","99927","","null","","","null","13","","","","","","","","","","","","","","","",""
"","time_out","","html-keyboard-response","99","184762","0.0-1.0-125.0-0.0","0","0","99927","","null","","","null","13","","","","","","","","","","","","","","","",""
"","ITI","","html-keyboard-response","100","185778","0.0-1.0-126.0","0","0","99927","","null","","","null","13","","","","","","","","","","","","","","","NaN",""
"","S1","","html-keyboard-response","101","186047","0.0-1.0-128.0","0","0","99927","","null","","","null","14","","","","","","","","","","","","","","","",""
"","ISI","","html-keyboard-response","102","188064","0.0-1.0-129.0","0","0","99927","","null","","","null","14","NaN","","","","","","","","","","","","","","",""
"","S2","","html-keyboard-response","103","188331","0.0-1.0-130.0","0","0","99927","","null","","","null","14","","NaN","","","","","","","","","","","","","",""
"","response","","html-keyboard-response","104","189356","0.0-1.0-131.0-0.0","0","0","99927","","1010","","","75","14","","","1","14","training","adjacent","FE","6","5","P.jpg","L.jpg","1","0","0","",""
"","feedback","","html-keyboard-response","105","190374","0.0-1.0-132.0-0.0","0","0","99927","","null","","","null","14","","","","","","","","","","","","","","","",""
"","time_out","","html-keyboard-response","106","192391","0.0-1.0-134.0-0.0","0","0","99927","","null","","","null","14","","","","","","","","","","","","","","","",""
"","ITI","","html-keyboard-response","107","193407","0.0-1.0-135.0","0","0","99927","","null","","","null","14","","","","","","","","","","","","","","","NaN",""
"","S1","","html-keyboard-response","108","193674","0.0-1.0-137.0","0","0","99927","","null","","","null","15","","","","","","","","","","","","","","","",""
"","ISI","","html-keyboard-response","109","195700","0.0-1.0-138.0","0","0","99927","","587","","","75","15","k","","","","","","","","","","","","","","",""
"","S2","","html-keyboard-response","110","195972","0.0-1.0-139.0","0","0","99927","","null","","","null","15","","NaN","","","","","","","","","","","","","",""
"","response","","html-keyboard-response","111","196044","0.0-1.0-140.0-0.0","0","0","99927","","58","","","75","15","","","1","15","training","adjacent","DE","4","5","O.jpg","L.jpg","1","1","1","",""
"","feedback","","html-keyboard-response","112","197062","0.0-1.0-141.0-0.0","0","0","99927","","null","","","null","15","","","","","","","","","","","","","","","",""
"","ITI","","html-keyboard-response","113","198081","0.0-1.0-144.0","0","0","99927","","null","","","null","15","","","","","","","","","","","","","","","NaN",""
"","S1","","html-keyboard-response","114","198349","0.0-1.0-146.0","0","0","99927","","null","","","null","16","","","","","","","","","","","","","","","",""
"","ISI","","html-keyboard-response","115","200363","0.0-1.0-147.0","0","0","99927","","null","","","null","16","NaN","","","","","","","","","","","","","","",""
"","S2","","html-keyboard-response","116","200630","0.0-1.0-148.0","0","0","99927","","null","","","null","16","","NaN","","","","","","","","","","","","","",""
"","response","","html-keyboard-response","117","200980","0.0-1.0-149.0-0.0","0","0","99927","","336","","","68","16","","","1","16","training","adjacent","EF","5","6","L.jpg","P.jpg","0","1","0","",""
"","feedback","","html-keyboard-response","118","201996","0.0-1.0-150.0-0.0","0","0","99927","","null","","","null","16","","","","","","","","","","","","","","","",""
"","time_out","","html-keyboard-response","119","204011","0.0-1.0-152.0-0.0","0","0","99927","","null","","","null","16","","","","","","","","","","","","","","","",""
"","ITI","","html-keyboard-response","120","205029","0.0-1.0-153.0","0","0","99927","","null","","","null","16","","","","","","","","","","","","","","","NaN",""
"","S1","","html-keyboard-response","121","205297","0.0-1.0-155.0","0","0","99927","","null","","","null","17","","","","","","","","","","","","","","","",""
"","ISI","","html-keyboard-response","122","207315","0.0-1.0-156.0","0","0","99927","","null","","","null","17","NaN","","","","","","","","","","","","","","",""
"","S2","","html-keyboard-response","123","207589","0.0-1.0-157.0","0","0","99927","","null","","","null","17","","NaN","","","","","","","","","","","","","",""
"","response","","html-keyboard-response","124","207636","0.0-1.0-158.0-0.0","0","0","99927","","30","","","75","17","","","1","17","training","adjacent","DC","4","3","O.jpg","Q.jpg","1","0","0","",""
"","feedback","","html-keyboard-response","125","208667","0.0-1.0-159.0-0.0","0","0","99927","","null","","","null","17","","","","","","","","","","","","","","","",""
"","time_out","","html-keyboard-response","126","210682","0.0-1.0-161.0-0.0","0","0","99927","","null","","","null","17","","","","","","","","","","","","","","","",""
"","ITI","","html-keyboard-response","127","211699","0.0-1.0-162.0","0","0","99927","","null","","","null","17","","","","","","","","","","","","","","","NaN",""
"","S1","","html-keyboard-response","128","211967","0.0-1.0-164.0","0","0","99927","","null","","","null","18","","","","","","","","","","","","","","","",""
"","ISI","","html-keyboard-response","129","213983","0.0-1.0-165.0","0","0","99927","","null","","","null","18","NaN","","","","","","","","","","","","","","",""
"","S2","","html-keyboard-response","130","214251","0.0-1.0-166.0","0","0","99927","","null","","","null","18","","NaN","","","","","","","","","","","","","",""
"","response","","html-keyboard-response","131","214808","0.0-1.0-167.0-0.0","0","0","99927","","545","","","68","18","","","1","18","training","adjacent","FE","6","5","P.jpg","L.jpg","0","0","1","",""
"","feedback","","html-keyboard-response","132","215825","0.0-1.0-168.0-0.0","0","0","99927","","null","","","null","18","","","","","","","","","","","","","","","",""
"","ITI","","html-keyboard-response","133","216843","0.0-1.0-171.0","0","0","99927","","null","","","null","18","","","","","","","","","","","","","","","NaN",""
"","S1","","html-keyboard-response","134","217112","0.0-1.0-173.0","0","0","99927","","null","","","null","19","","","","","","","","","","","","","","","",""
"","ISI","","html-keyboard-response","135","219134","0.0-1.0-174.0","0","0","99927","","null","","","null","19","NaN","","","","","","","","","","","","","","",""
"","S2","","html-keyboard-response","136","219404","0.0-1.0-175.0","0","0","99927","","null","","","null","19","","NaN","","","","","","","","","","","","","",""
"","response","","html-keyboard-response","137","219993","0.0-1.0-176.0-0.0","0","0","99927","","574","","","75","19","","","1","19","training","adjacent","ED","5","4","L.jpg","O.jpg","1","0","0","",""
"","feedback","","html-keyboard-response","138","221012","0.0-1.0-177.0-0.0","0","0","99927","","null","","","null","19","","","","","","","","","","","","","","","",""
"","time_out","","html-keyboard-response","139","223029","0.0-1.0-179.0-0.0","0","0","99927","","null","","","null","19","","","","","","","","","","","","","","","",""
"","ITI","","html-keyboard-response","140","224046","0.0-1.0-180.0","0","0","99927","","null","","","null","19","","","","","","","","","","","","","","","NaN",""
"","S1","","html-keyboard-response","141","224314","0.0-1.0-182.0","0","0","99927","","null","","","null","20","","","","","","","","","","","","","","","",""
"","ISI","","html-keyboard-response","142","226330","0.0-1.0-183.0","0","0","99927","","null","","","null","20","NaN","","","","","","","","","","","","","","",""
"","S2","","html-keyboard-response","143","226598","0.0-1.0-184.0","0","0","99927","","null","","","null","20","","NaN","","","","","","","","","","","","","",""
"","response","","html-keyboard-response","144","227130","0.0-1.0-185.0-0.0","0","0","99927","","523","","","68","20","","","1","20","training","adjacent","BC","2","3","R.jpg","Q.jpg","0","1","0","",""
"","feedback","","html-keyboard-response","145","228150","0.0-1.0-186.0-0.0","0","0","99927","","null","","","null","20","","","","","","","","","","","","","","","",""
"","time_out","","html-keyboard-response","146","230167","0.0-1.0-188.0-0.0","0","0","99927","","null","","","null","20","","","","","","","","","","","","","","","",""
"","ITI","","html-keyboard-response","147","231186","0.0-1.0-189.0","0","0","99927","","null","","","null","20","","","","","","","","","","","","","","","NaN",""
"","S1","","html-keyboard-response","148","231454","0.0-1.0-191.0","0","0","99927","","null","","","null","21","","","","","","","","","","","","","","","",""
"","ISI","","html-keyboard-response","149","233472","0.0-1.0-192.0","0","0","99927","","null","","","null","21","NaN","","","","","","","","","","","","","","",""
"","S2","","html-keyboard-response","150","233753","0.0-1.0-193.0","0","0","99927","","null","","","null","21","","NaN","","","","","","","","","","","","","",""
"","response","","html-keyboard-response","151","234293","0.0-1.0-194.0-0.0","0","0","99927","","525","","","68","21","","","1","21","training","adjacent","CD","3","4","Q.jpg","O.jpg","0","1","0","",""
"","feedback","","html-keyboard-response","152","235311","0.0-1.0-195.0-0.0","0","0","99927","","null","","","null","21","","","","","","","","","","","","","","","",""
"","time_out","","html-keyboard-response","153","237329","0.0-1.0-197.0-0.0","0","0","99927","","null","","","null","21","","","","","","","","","","","","","","","",""
"","ITI","","html-keyboard-response","154","238348","0.0-1.0-198.0","0","0","99927","","null","","","null","21","","","","","","","","","","","","","","","NaN",""
"","S1","","html-keyboard-response","155","238616","0.0-1.0-200.0","0","0","99927","","null","","","null","22","","","","","","","","","","","","","","","",""
"","ISI","","html-keyboard-response","156","240631","0.0-1.0-201.0","0","0","99927","","null","","","null","22","NaN","","","","","","","","","","","","","","",""
"","S2","","html-keyboard-response","157","240908","0.0-1.0-202.0","0","0","99927","","null","","","null","22","","NaN","","","","","","","","","","","","","",""
"","response","","html-keyboard-response","158","241504","0.0-1.0-203.0-0.0","0","0","99927","","582","","","75","22","","","1","22","training","adjacent","AB","1","2","M.jpg","R.jpg","1","1","1","",""
"","feedback","","html-keyboard-response","159","242523","0.0-1.0-204.0-0.0","0","0","99927","","null","","","null","22","","","","","","","","","","","","","","","",""
"","ITI","","html-keyboard-response","160","243540","0.0-1.0-207.0","0","0","99927","","null","","","null","22","","","","","","","","","","","","","","","NaN",""
"","S1","","html-keyboard-response","161","243809","0.0-1.0-209.0","0","0","99927","","null","","","null","23","","","","","","","","","","","","","","","",""
"","ISI","","html-keyboard-response","162","245824","0.0-1.0-210.0","0","0","99927","","null","","","null","23","NaN","","","","","","","","","","","","","","",""
"","S2","","html-keyboard-response","163","246091","0.0-1.0-211.0","0","0","99927","","null","","","null","23","","NaN","","","","","","","","","","","","","",""
"","response","","html-keyboard-response","164","246354","0.0-1.0-212.0-0.0","0","0","99927","","251","","","75","23","","","1","23","training","adjacent","DC","4","3","O.jpg","Q.jpg","1","0","0","",""
"","feedback","","html-keyboard-response","165","247372","0.0-1.0-213.0-0.0","0","0","99927","","null","","","null","23","","","","","","","","","","","","","","","",""
"","time_out","","html-keyboard-response","166","249390","0.0-1.0-215.0-0.0","0","0","99927","","null","","","null","23","","","","","","","","","","","","","","","",""
"","ITI","","html-keyboard-response","167","250408","0.0-1.0-216.0","0","0","99927","","null","","","null","23","","","","","","","","","","","","","","","NaN",""
"","S1","","html-keyboard-response","168","250676","0.0-1.0-218.0","0","0","99927","","null","","","null","24","","","","","","","","","","","","","","","",""
"","ISI","","html-keyboard-response","169","252690","0.0-1.0-219.0","0","0","99927","","null","","","null","24","NaN","","","","","","","","","","","","","","",""
"","S2","","html-keyboard-response","170","252956","0.0-1.0-220.0","0","0","99927","","null","","","null","24","","NaN","","","","","","","","","","","","","",""
"","response","","html-keyboard-response","171","253531","0.0-1.0-221.0-0.0","0","0","99927","","561","","","68","24","","","1","24","training","adjacent","GF","7","6","N.jpg","P.jpg","0","0","1","",""
"","feedback","","html-keyboard-response","172","254548","0.0-1.0-222.0-0.0","0","0","99927","","null","","","null","24","","","","","","","","","","","","","","","",""
"","ITI","","html-keyboard-response","173","255567","0.0-1.0-225.0","0","0","99927","","null","","","null","24","","","","","","","","","","","","","","","NaN",""
"","S1","","html-keyboard-response","174","255834","0.0-1.0-227.0","0","0","99927","","null","","","null","25","","","","","","","","","","","","","","","",""
"","ISI","","html-keyboard-response","175","257850","0.0-1.0-228.0","0","0","99927","","null","","","null","25","NaN","","","","","","","","","","","","","","",""
"","S2","","html-keyboard-response","176","258121","0.0-1.0-229.0","0","0","99927","","null","","","null","25","","NaN","","","","","","","","","","","","","",""
"","response","","html-keyboard-response","177","258478","0.0-1.0-230.0-0.0","0","0","99927","","343","","","75","25","","","1","25","training","adjacent","CB","3","2","Q.jpg","R.jpg","1","0","0","",""
"","feedback","","html-keyboard-response","178","259496","0.0-1.0-231.0-0.0","0","0","99927","","null","","","null","25","","","","","","","","","","","","","","","",""
"","time_out","","html-keyboard-response","179","261511","0.0-1.0-233.0-0.0","0","0","99927","","null","","","null","25","","","","","","","","","","","","","","","",""
"","ITI","","html-keyboard-response","180","262527","0.0-1.0-234.0","0","0","99927","","null","","","null","25","","","","","","","","","","","","","","","NaN",""
"","S1","","html-keyboard-response","181","262793","0.0-1.0-236.0","0","0","99927","","null","","","null","26","","","","","","","","","","","","","","","",""
"","ISI","","html-keyboard-response","182","264809","0.0-1.0-237.0","0","0","99927","","null","","","null","26","NaN","","","","","","","","","","","","","","",""
"","S2","","html-keyboard-response","183","265079","0.0-1.0-238.0","0","0","99927","","null","","","null","26","","NaN","","","","","","","","","","","","","",""
"","response","","html-keyboard-response","184","266612","0.0-1.0-239.0-0.0","0","0","99927","","1519","","","68","26","","","1","26","training","adjacent","ED","5","4","L.jpg","O.jpg","0","0","1","",""
"","feedback","","html-keyboard-response","185","267631","0.0-1.0-240.0-0.0","0","0","99927","","null","","","null","26","","","","","","","","","","","","","","","",""
"","ITI","","html-keyboard-response","186","268649","0.0-1.0-243.0","0","0","99927","","null","","","null","26","","","","","","","","","","","","","","","NaN",""
"","S1","","html-keyboard-response","187","268916","0.0-1.0-245.0","0","0","99927","","null","","","null","27","","","","","","","","","","","","","","","",""
"","ISI","","html-keyboard-response","188","270933","0.0-1.0-246.0","0","0","99927","","null","","","null","27","NaN","","","","","","","","","","","","","","",""
"","S2","","html-keyboard-response","189","271208","0.0-1.0-247.0","0","0","99927","","null","","","null","27","","NaN","","","","","","","","","","","","","",""
"","response","","html-keyboard-response","190","271860","0.0-1.0-248.0-0.0","0","0","99927","","637","","","68","27","","","1","27","training","adjacent","EF","5","6","L.jpg","P.jpg","0","1","0","",""
"","feedback","","html-keyboard-response","191","272877","0.0-1.0-249.0-0.0","0","0","99927","","null","","","null","27","","","","","","","","","","","","","","","",""
"","time_out","","html-keyboard-response","192","274895","0.0-1.0-251.0-0.0","0","0","99927","","null","","","null","27","","","","","","","","","","","","","","","",""
"","ITI","","html-keyboard-response","193","275912","0.0-1.0-252.0","0","0","99927","","null","","","null","27","","","","","","","","","","","","","","","NaN",""
"","S1","","html-keyboard-response","194","276180","0.0-1.0-254.0","0","0","99927","","null","","","null","28","","","","","","","","","","","","","","","",""
"","ISI","","html-keyboard-response","195","278196","0.0-1.0-255.0","0","0","99927","","null","","","null","28","NaN","","","","","","","","","","","","","","",""
"","S2","","html-keyboard-response","196","278462","0.0-1.0-256.0","0","0","99927","","null","","","null","28","","NaN","","","","","","","","","","","","","",""
"","response","","html-keyboard-response","197","278714","0.0-1.0-257.0-0.0","0","0","99927","","239","","","75","28","","","1","28","training","adjacent","FG","6","7","P.jpg","N.jpg","1","1","1","",""
"","feedback","","html-keyboard-response","198","279735","0.0-1.0-258.0-0.0","0","0","99927","","null","","","null","28","","","","","","","","","","","","","","","",""
"","ITI","","html-keyboard-response","199","280753","0.0-1.0-261.0","0","0","99927","","null","","","null","28","","","","","","","","","","","","","","","NaN",""
"","S1","","html-keyboard-response","200","281022","0.0-1.0-263.0","0","0","99927","","null","","","null","29","","","","","","","","","","","","","","","",""
"","ISI","","html-keyboard-response","201","283039","0.0-1.0-264.0","0","0","99927","","null","","","null","29","NaN","","","","","","","","","","","","","","",""
"","S2","","html-keyboard-response","202","283307","0.0-1.0-265.0","0","0","99927","","null","","","null","29","","NaN","","","","","","","","","","","","","",""
"","response","","html-keyboard-response","203","284499","0.0-1.0-266.0-0.0","0","0","99927","","1178","","","75","29","","","1","29","training","adjacent","BA","2","1","R.jpg","M.jpg","1","0","0","",""
"","feedback","","html-keyboard-response","204","285516","0.0-1.0-267.0-0.0","0","0","99927","","null","","","null","29","","","","","","","","","","","","","","","",""
"","time_out","","html-keyboard-response","205","287531","0.0-1.0-269.0-0.0","0","0","99927","","null","","","null","29","","","","","","","","","","","","","","","",""
"","ITI","","html-keyboard-response","206","288546","0.0-1.0-270.0","0","0","99927","","null","","","null","29","","","","","","","","","","","","","","","NaN",""
"","S1","","html-keyboard-response","207","288811","0.0-1.0-272.0","0","0","99927","","null","","","null","30","","","","","","","","","","","","","","","",""
"","ISI","","html-keyboard-response","208","290823","0.0-1.0-273.0","0","0","99927","","null","","","null","30","NaN","","","","","","","","","","","","","","",""
"","S2","","html-keyboard-response","209","291089","0.0-1.0-274.0","0","0","99927","","null","","","null","30","","NaN","","","","","","","","","","","","","",""
"","response","","html-keyboard-response","210","291847","0.0-1.0-275.0-0.0","0","0","99927","","743","","","75","30","","","1","30","training","adjacent","AB","1","2","M.jpg","R.jpg","1","1","1","",""
"","feedback","","html-keyboard-response","211","292864","0.0-1.0-276.0-0.0","0","0","99927","","null","","","null","30","","","","","","","","","","","","","","","",""
"","ITI","","html-keyboard-response","212","293883","0.0-1.0-279.0","0","0","99927","","null","","","null","30","","","","","","","","","","","","","","","NaN",""
"","S1","","html-keyboard-response","213","294152","0.0-1.0-281.0","0","0","99927","","null","","","null","31","","","","","","","","","","","","","","","",""
"","ISI","","html-keyboard-response","214","296178","0.0-1.0-282.0","0","0","99927","","null","","","null","31","NaN","","","","","","","","","","","","","","",""
"","S2","","html-keyboard-response","215","296446","0.0-1.0-283.0","0","0","99927","","null","","","null","31","","NaN","","","","","","","","","","","","","",""
"","response","","html-keyboard-response","216","297016","0.0-1.0-284.0-0.0","0","0","99927","","556","","","68","31","","","1","31","training","adjacent","FE","6","5","P.jpg","L.jpg","0","0","1","",""
"","feedback","","html-keyboard-response","217","298036","0.0-1.0-285.0-0.0","0","0","99927","","null","","","null","31","","","","","","","","","","","","","","","",""
"","ITI","","html-keyboard-response","218","299054","0.0-1.0-288.0","0","0","99927","","null","","","null","31","","","","","","","","","","","","","","","NaN",""
"","S1","","html-keyboard-response","219","299323","0.0-1.0-290.0","0","0","99927","","null","","","null","32","","","","","","","","","","","","","","","",""
"","ISI","","html-keyboard-response","220","301339","0.0-1.0-291.0","0","0","99927","","null","","","null","32","NaN","","","","","","","","","","","","","","",""
"","S2","","html-keyboard-response","221","301608","0.0-1.0-292.0","0","0","99927","","null","","","null","32","","NaN","","","","","","","","","","","","","",""
"","response","","html-keyboard-response","222","302934","0.0-1.0-293.0-0.0","0","0","99927","","1313","","","75","32","","","1","32","training","adjacent","ED","5","4","L.jpg","O.jpg","1","0","0","",""
"","feedback","","html-keyboard-response","223","303951","0.0-1.0-294.0-0.0","0","0","99927","","null","","","null","32","","","","","","","","","","","","","","","",""
"","time_out","","html-keyboard-response","224","305969","0.0-1.0-296.0-0.0","0","0","99927","","null","","","null","32","","","","","","","","","","","","","","","",""
"","ITI","","html-keyboard-response","225","306983","0.0-1.0-297.0","0","0","99927","","null","","","null","32","","","","","","","","","","","","","","","NaN",""
"","S1","","html-keyboard-response","226","307252","0.0-1.0-299.0","0","0","99927","","null","","","null","33","","","","","","","","","","","","","","","",""
"","ISI","","html-keyboard-response","227","309267","0.0-1.0-300.0","0","0","99927","","671","","","75","33","k","","","","","","","","","","","","","","",""
"","S2","","html-keyboard-response","228","309533","0.0-1.0-301.0","0","0","99927","","null","","","null","33","","NaN","","","","","","","","","","","","","",""
"","response","","html-keyboard-response","229","310132","0.0-1.0-302.0-0.0","0","0","99927","","587","","","75","33","","","1","33","training","adjacent","DC","4","3","O.jpg","Q.jpg","1","0","0","",""
"","feedback","","html-keyboard-response","230","311148","0.0-1.0-303.0-0.0","0","0","99927","","null","","","null","33","","","","","","","","","","","","","","","",""
"","time_out","","html-keyboard-response","231","313165","0.0-1.0-305.0-0.0","0","0","99927","","null","","","null","33","","","","","","","","","","","","","","","",""
"","ITI","","html-keyboard-response","232","314184","0.0-1.0-306.0","0","0","99927","","null","","","null","33","","","","","","","","","","","","","","","NaN",""
"","S1","","html-keyboard-response","233","314448","0.0-1.0-308.0","0","0","99927","","null","","","null","34","","","","","","","","","","","","","","","",""
"","ISI","","html-keyboard-response","234","316463","0.0-1.0-309.0","0","0","99927","","null","","","null","34","NaN","","","","","","","","","","","","","","",""
"","S2","","html-keyboard-response","235","316728","0.0-1.0-310.0","0","0","99927","","null","","","null","34","","NaN","","","","","","","","","","","","","",""
"","response","","html-keyboard-response","236","317375","0.0-1.0-311.0-0.0","0","0","99927","","636","","","68","34","","","1","34","training","adjacent","CD","3","4","Q.jpg","O.jpg","0","1","0","",""
"","feedback","","html-keyboard-response","237","318392","0.0-1.0-312.0-0.0","0","0","99927","","null","","","null","34","","","","","","","","","","","","","","","",""
"","time_out","","html-keyboard-response","238","320408","0.0-1.0-314.0-0.0","0","0","99927","","null","","","null","34","","","","","","","","","","","","","","","",""
"","ITI","","html-keyboard-response","239","321424","0.0-1.0-315.0","0","0","99927","","null","","","null","34","","","","","","","","","","","","","","","NaN",""
"","S1","","html-keyboard-response","240","321690","0.0-1.0-317.0","0","0","99927","","null","","","null","35","","","","","","","","","","","","","","","",""
"","ISI","","html-keyboard-response","241","323703","0.0-1.0-318.0","0","0","99927","","null","","","null","35","NaN","","","","","","","","","","","","","","",""
"","S2","","html-keyboard-response","242","323969","0.0-1.0-319.0","0","0","99927","","null","","","null","35","","NaN","","","","","","","","","","","","","",""
"","response","","html-keyboard-response","243","325274","0.0-1.0-320.0-0.0","0","0","99927","","1293","","","68","35","","","1","35","training","adjacent","GF","7","6","N.jpg","P.jpg","0","0","1","",""
"","feedback","","html-keyboard-response","244","326291","0.0-1.0-321.0-0.0","0","0","99927","","null","","","null","35","","","","","","","","","","","","","","","",""
"","ITI","","html-keyboard-response","245","327311","0.0-1.0-324.0","0","0","99927","","null","","","null","35","","","","","","","","","","","","","","","NaN",""
"","S1","","html-keyboard-response","246","327581","0.0-1.0-326.0","0","0","99927","","null","","","null","36","","","","","","","","","","","","","","","",""
"","ISI","","html-keyboard-response","247","329595","0.0-1.0-327.0","0","0","99927","","null","","","null","36","NaN","","","","","","","","","","","","","","",""
"","S2","","html-keyboard-response","248","329863","0.0-1.0-328.0","0","0","99927","","null","","","null","36","","NaN","","","","","","","","","","","","","",""
"","response","","html-keyboard-response","249","330426","0.0-1.0-329.0-0.0","0","0","99927","","550","","","68","36","","","1","36","training","adjacent","BA","2","1","R.jpg","M.jpg","0","0","1","",""
"","feedback","","html-keyboard-response","250","331443","0.0-1.0-330.0-0.0","0","0","99927","","null","","","null","36","","","","","","","","","","","","","","","",""
"","ITI","","html-keyboard-response","251","332460","0.0-1.0-333.0","0","0","99927","","null","","","null","36","","","","","","","","","","","","","","","NaN",""
"","S1","","html-keyboard-response","252","332726","0.0-1.0-335.0","0","0","99927","","null","","","null","37","","","","","","","","","","","","","","","",""
"","ISI","","html-keyboard-response","253","334740","0.0-1.0-336.0","0","0","99927","","null","","","null","37","NaN","","","","","","","","","","","","","","",""
"","S2","","html-keyboard-response","254","335008","0.0-1.0-337.0","0","0","99927","","null","","","null","37","","NaN","","","","","","","","","","","","","",""
"","response","","html-keyboard-response","255","335346","0.0-1.0-338.0-0.0","0","0","99927","","325","","","75","37","","","1","37","training","adjacent","FG","6","7","P.jpg","N.jpg","1","1","1","",""
"","feedback","","html-keyboard-response","256","336366","0.0-1.0-339.0-0.0","0","0","99927","","null","","","null","37","","","","","","","","","","","","","","","",""
"","ITI","","html-keyboard-response","257","337381","0.0-1.0-342.0","0","0","99927","","null","","","null","37","","","","","","","","","","","","","","","NaN",""
"","S1","","html-keyboard-response","258","337644","0.0-1.0-344.0","0","0","99927","","null","","","null","38","","","","","","","","","","","","","","","",""
"","ISI","","html-keyboard-response","259","339655","0.0-1.0-345.0","0","0","99927","","null","","","null","38","NaN","","","","","","","","","","","","","","",""
"","S2","","html-keyboard-response","260","339923","0.0-1.0-346.0","0","0","99927","","null","","","null","38","","NaN","","","","","","","","","","","","","",""
"","response","","html-keyboard-response","261","341463","0.0-1.0-347.0-0.0","0","0","99927","","1527","","","68","38","","","1","38","training","adjacent","FE","6","5","P.jpg","L.jpg","0","0","1","",""
"","feedback","","html-keyboard-response","262","342482","0.0-1.0-348.0-0.0","0","0","99927","","null","","","null","38","","","","","","","","","","","","","","","",""
"","ITI","","html-keyboard-response","263","343499","0.0-1.0-351.0","0","0","99927","","null","","","null","38","","","","","","","","","","","","","","","NaN",""
"","S1","","html-keyboard-response","264","343765","0.0-1.0-353.0","0","0","99927","","null","","","null","39","","","","","","","","","","","","","","","",""
"","ISI","","html-keyboard-response","265","345779","0.0-1.0-354.0","0","0","99927","","null","","","null","39","NaN","","","","","","","","","","","","","","",""
"","S2","","html-keyboard-response","266","346046","0.0-1.0-355.0","0","0","99927","","null","","","null","39","","NaN","","","","","","","","","","","","","",""
"","response","","html-keyboard-response","267","346346","0.0-1.0-356.0-0.0","0","0","99927","","288","","","75","39","","","1","39","training","adjacent","CD","3","4","Q.jpg","O.jpg","1","1","1","",""
"","feedback","","html-keyboard-response","268","347361","0.0-1.0-357.0-0.0","0","0","99927","","null","","","null","39","","","","","","","","","","","","","","","",""
"","ITI","","html-keyboard-response","269","348373","0.0-1.0-360.0","0","0","99927","","null","","","null","39","","","","","","","","","","","","","","","NaN",""
"","S1","","html-keyboard-response","270","348642","0.0-1.0-362.0","0","0","99927","","null","","","null","40","","","","","","","","","","","","","","","",""
"","ISI","","html-keyboard-response","271","350655","0.0-1.0-363.0","0","0","99927","","null","","","null","40","NaN","","","","","","","","","","","","","","",""
"","S2","","html-keyboard-response","272","350924","0.0-1.0-364.0","0","0","99927","","null","","","null","40","","NaN","","","","","","","","","","","","","",""
"","response","","html-keyboard-response","273","351493","0.0-1.0-365.0-0.0","0","0","99927","","556","","","68","40","","","1","40","training","adjacent","GF","7","6","N.jpg","P.jpg","0","0","1","",""
"","feedback","","html-keyboard-response","274","352508","0.0-1.0-366.0-0.0","0","0","99927","","null","","","null","40","","","","","","","","","","","","","","","",""
"","ITI","","html-keyboard-response","275","353525","0.0-1.0-369.0","0","0","99927","","null","","","null","40","","","","","","","","","","","","","","","NaN",""
"","S1","","html-keyboard-response","276","353794","0.0-1.0-371.0","0","0","99927","","null","","","null","41","","","","","","","","","","","","","","","",""
"","ISI","","html-keyboard-response","277","355810","0.0-1.0-372.0","0","0","99927","","null","","","null","41","NaN","","","","","","","","","","","","","","",""
"","S2","","html-keyboard-response","278","356077","0.0-1.0-373.0","0","0","99927","","null","","","null","41","","NaN","","","","","","","","","","","","","",""
"","response","","html-keyboard-response","279","356470","0.0-1.0-374.0-0.0","0","0","99927","","381","","","68","41","","","1","41","training","adjacent","EF","5","6","L.jpg","P.jpg","0","1","0","",""
"","feedback","","html-keyboard-response","280","357489","0.0-1.0-375.0-0.0","0","0","99927","","null","","","null","41","","","","","","","","","","","","","","","",""
"","time_out","","html-keyboard-response","281","359505","0.0-1.0-377.0-0.0","0","0","99927","","null","","","null","41","","","","","","","","","","","","","","","",""
"","ITI","","html-keyboard-response","282","360520","0.0-1.0-378.0","0","0","99927","","null","","","null","41","","","","","","","","","","","","","","","NaN",""
"","S1","","html-keyboard-response","283","360783","0.0-1.0-380.0","0","0","99927","","null","","","null","42","","","","","","","","","","","","","","","",""
"","ISI","","html-keyboard-response","284","362799","0.0-1.0-381.0","0","0","99927","","null","","","null","42","NaN","","","","","","","","","","","","","","",""
"","S2","","html-keyboard-response","285","363066","0.0-1.0-382.0","0","0","99927","","null","","","null","42","","NaN","","","","","","","","","","","","","",""
"","response","","html-keyboard-response","286","364258","0.0-1.0-383.0-0.0","0","0","99927","","1181","","","68","42","","","1","42","training","adjacent","ED","5","4","L.jpg","O.jpg","0","0","1","",""
"","feedback","","html-keyboard-response","287","365271","0.0-1.0-384.0-0.0","0","0","99927","","null","","","null","42","","","","","","","","","","","","","","","",""
"","ITI","","html-keyboard-response","288","366295","0.0-1.0-387.0","0","0","99927","","null","","","null","42","","","","","","","","","","","","","","","NaN",""
"","S1","","html-keyboard-response","289","366555","0.0-1.0-389.0","0","0","99927","","null","","","null","43","","","","","","","","","","","","","","","",""
"","ISI","","html-keyboard-response","290","368573","0.0-1.0-390.0","0","0","99927","","null","","","null","43","NaN","","","","","","","","","","","","","","",""
"","S2","","html-keyboard-response","291","368838","0.0-1.0-391.0","0","0","99927","","null","","","null","43","","NaN","","","","","","","","","","","","","",""
"","response","","html-keyboard-response","292","369287","0.0-1.0-392.0-0.0","0","0","99927","","437","","","75","43","","","1","43","training","adjacent","AB","1","2","M.jpg","R.jpg","1","1","1","",""
"","feedback","","html-keyboard-response","293","370304","0.0-1.0-393.0-0.0","0","0","99927","","null","","","null","43","","","","","","","","","","","","","","","",""
"","ITI","","html-keyboard-response","294","371322","0.0-1.0-396.0","0","0","99927","","null","","","null","43","","","","","","","","","","","","","","","NaN",""
"","S1","","html-keyboard-response","295","371587","0.0-1.0-398.0","0","0","99927","","null","","","null","44","","","","","","","","","","","","","","","",""
"","ISI","","html-keyboard-response","296","373601","0.0-1.0-399.0","0","0","99927","","null","","","null","44","NaN","","","","","","","","","","","","","","",""
"","S2","","html-keyboard-response","297","373867","0.0-1.0-400.0","0","0","99927","","null","","","null","44","","NaN","","","","","","","","","","","","","",""
"","response","","html-keyboard-response","298","374379","0.0-1.0-401.0-0.0","0","0","99927","","497","","","75","44","","","1","44","training","adjacent","CB","3","2","Q.jpg","R.jpg","1","0","0","",""
"","feedback","","html-keyboard-response","299","375395","0.0-1.0-402.0-0.0","0","0","99927","","null","","","null","44","","","","","","","","","","","","","","","",""
"","time_out","","html-keyboard-response","300","377411","0.0-1.0-404.0-0.0","0","0","99927","","null","","","null","44","","","","","","","","","","","","","","","",""
"","ITI","","html-keyboard-response","301","378426","0.0-1.0-405.0","0","0","99927","","null","","","null","44","","","","","","","","","","","","","","","NaN",""
"","S1","","html-keyboard-response","302","378690","0.0-1.0-407.0","0","0","99927","","null","","","null","45","","","","","","","","","","","","","","","",""
"","ISI","","html-keyboard-response","303","380702","0.0-1.0-408.0","0","0","99927","","null","","","null","45","NaN","","","","","","","","","","","","","","",""
"","S2","","html-keyboard-response","304","380968","0.0-1.0-409.0","0","0","99927","","null","","","null","45","","NaN","","","","","","","","","","","","","",""
"","response","","html-keyboard-response","305","381290","0.0-1.0-410.0-0.0","0","0","99927","","307","","","75","45","","","1","45","training","adjacent","BC","2","3","R.jpg","Q.jpg","1","1","1","",""
"","feedback","","html-keyboard-response","306","382306","0.0-1.0-411.0-0.0","0","0","99927","","null","","","null","45","","","","","","","","","","","","","","","",""
"","ITI","","html-keyboard-response","307","383323","0.0-1.0-414.0","0","0","99927","","null","","","null","45","","","","","","","","","","","","","","","NaN",""
"","S1","","html-keyboard-response","308","383589","0.0-1.0-416.0","0","0","99927","","null","","","null","46","","","","","","","","","","","","","","","",""
"","ISI","","html-keyboard-response","309","385604","0.0-1.0-417.0","0","0","99927","","null","","","null","46","NaN","","","","","","","","","","","","","","",""
"","S2","","html-keyboard-response","310","385872","0.0-1.0-418.0","0","0","99927","","null","","","null","46","","NaN","","","","","","","","","","","","","",""
"","response","","html-keyboard-response","311","387125","0.0-1.0-419.0-0.0","0","0","99927","","1239","","","68","46","","","1","46","training","adjacent","CB","3","2","Q.jpg","R.jpg","0","0","1","",""
"","feedback","","html-keyboard-response","312","388141","0.0-1.0-420.0-0.0","0","0","99927","","null","","","null","46","","","","","","","","","","","","","","","",""
"","ITI","","html-keyboard-response","313","389158","0.0-1.0-423.0","0","0","99927","","null","","","null","46","","","","","","","","","","","","","","","NaN",""
"","S1","","html-keyboard-response","314","389425","0.0-1.0-425.0","0","0","99927","","null","","","null","47","","","","","","","","","","","","","","","",""
"","ISI","","html-keyboard-response","315","391441","0.0-1.0-426.0","0","0","99927","","null","","","null","47","NaN","","","","","","","","","","","","","","",""
"","S2","","html-keyboard-response","316","391708","0.0-1.0-427.0","0","0","99927","","null","","","null","47","","NaN","","","","","","","","","","","","","",""
"","response","","html-keyboard-response","317","392025","0.0-1.0-428.0-0.0","0","0","99927","","304","","","68","47","","","1","47","training","adjacent","CB","3","2","Q.jpg","R.jpg","0","0","1","",""
"","feedback","","html-keyboard-response","318","393042","0.0-1.0-429.0-0.0","0","0","99927","","null","","","null","47","","","","","","","","","","","","","","","",""
"","ITI","","html-keyboard-response","319","394057","0.0-1.0-432.0","0","0","99927","","null","","","null","47","","","","","","","","","","","","","","","NaN",""
"","block_over","","html-keyboard-response","320","402136","0.0-1.0-433.0-0.0","0","0","99927","","8064","","","32","47","","","","","","","","","","","","","","","",""
"","S1","","html-keyboard-response","321","402402","0.0-1.0-434.0","0","0","99927","","null","","","null","48","","","","","","","","","","","","","","","",""
"","ISI","","html-keyboard-response","322","404417","0.0-1.0-435.0","0","0","99927","","null","","","null","48","NaN","","","","","","","","","","","","","","",""
"","S2","","html-keyboard-response","323","404681","0.0-1.0-436.0","0","0","99927","","null","","","null","48","","NaN","","","","","","","","","","","","","",""
"","response","","html-keyboard-response","324","405646","0.0-1.0-437.0-0.0","0","0","99927","","953","","","68","48","","","2","48","training","adjacent","ED","5","4","L.jpg","O.jpg","0","0","1","",""
"","feedback","","html-keyboard-response","325","406660","0.0-1.0-438.0-0.0","0","0","99927","","null","","","null","48","","","","","","","","","","","","","","","",""
"","ITI","","html-keyboard-response","326","407673","0.0-1.0-441.0","0","0","99927","","null","","","null","48","","","","","","","","","","","","","","","NaN",""
"","S1","","html-keyboard-response","327","407939","0.0-1.0-443.0","0","0","99927","","null","","","null","49","","","","","","","","","","","","","","","",""
"","ISI","","html-keyboard-response","328","409954","0.0-1.0-444.0","0","0","99927","","null","","","null","49","NaN","","","","","","","","","","","","","","",""
"","S2","","html-keyboard-response","329","410224","0.0-1.0-445.0","0","0","99927","","null","","","null","49","","NaN","","","","","","","","","","","","","",""
"","response","","html-keyboard-response","330","410530","0.0-1.0-446.0-0.0","0","0","99927","","287","","","75","49","","","2","49","training","adjacent","BC","2","3","R.jpg","Q.jpg","1","1","1","",""
"","feedback","","html-keyboard-response","331","411548","0.0-1.0-447.0-0.0","0","0","99927","","null","","","null","49","","","","","","","","","","","","","","","",""
"","ITI","","html-keyboard-response","332","412565","0.0-1.0-450.0","0","0","99927","","null","","","null","49","","","","","","","","","","","","","","","NaN",""
"","S1","","html-keyboard-response","333","412830","0.0-1.0-452.0","0","0","99927","","null","","","null","50","","","","","","","","","","","","","","","",""
"","ISI","","html-keyboard-response","334","414846","0.0-1.0-453.0","0","0","99927","","null","","","null","50","NaN","","","","","","","","","","","","","","",""
"","S2","","html-keyboard-response","335","415113","0.0-1.0-454.0","0","0","99927","","null","","","null","50","","NaN","","","","","","","","","","","","","",""
"","response","","html-keyboard-response","336","415492","0.0-1.0-455.0-0.0","0","0","99927","","363","","","75","50","","","2","50","training","adjacent","BC","2","3","R.jpg","Q.jpg","1","1","1","",""
"","feedback","","html-keyboard-response","337","416514","0.0-1.0-456.0-0.0","0","0","99927","","null","","","null","50","","","","","","","","","","","","","","","",""
"","ITI","","html-keyboard-response","338","417531","0.0-1.0-459.0","0","0","99927","","null","","","null","50","","","","","","","","","","","","","","","NaN",""
"","S1","","html-keyboard-response","339","417798","0.0-1.0-461.0","0","0","99927","","null","","","null","51","","","","","","","","","","","","","","","",""
"","ISI","","html-keyboard-response","340","419814","0.0-1.0-462.0","0","0","99927","","null","","","null","51","NaN","","","","","","","","","","","","","","",""
"","S2","","html-keyboard-response","341","420082","0.0-1.0-463.0","0","0","99927","","null","","","null","51","","NaN","","","","","","","","","","","","","",""
"","response","","html-keyboard-response","342","420755","0.0-1.0-464.0-0.0","0","0","99927","","660","","","75","51","","","2","51","training","adjacent","BA","2","1","R.jpg","M.jpg","1","0","0","",""
"","feedback","","html-keyboard-response","343","421771","0.0-1.0-465.0-0.0","0","0","99927","","null","","","null","51","","","","","","","","","","","","","","","",""
"","time_out","","html-keyboard-response","344","423787","0.0-1.0-467.0-0.0","0","0","99927","","null","","","null","51","","","","","","","","","","","","","","","",""
"","ITI","","html-keyboard-response","345","424802","0.0-1.0-468.0","0","0","99927","","null","","","null","51","","","","","","","","","","","","","","","NaN",""
"","S1","","html-keyboard-response","346","425069","0.0-1.0-470.0","0","0","99927","","null","","","null","52","","","","","","","","","","","","","","","",""
"","ISI","","html-keyboard-response","347","427084","0.0-1.0-471.0","0","0","99927","","null","","","null","52","NaN","","","","","","","","","","","","","","",""
"","S2","","html-keyboard-response","348","427352","0.0-1.0-472.0","0","0","99927","","null","","","null","52","","NaN","","","","","","","","","","","","","",""
"","response","","html-keyboard-response","349","428218","0.0-1.0-473.0-0.0","0","0","99927","","853","","","75","52","","","2","52","training","adjacent","CD","3","4","Q.jpg","O.jpg","1","1","1","",""
"","feedback","","html-keyboard-response","350","429234","0.0-1.0-474.0-0.0","0","0","99927","","null","","","null","52","","","","","","","","","","","","","","","",""
"","ITI","","html-keyboard-response","351","430251","0.0-1.0-477.0","0","0","99927","","null","","","null","52","","","","","","","","","","","","","","","NaN",""
"","S1","","html-keyboard-response","352","430517","0.0-1.0-479.0","0","0","99927","","null","","","null","53","","","","","","","","","","","","","","","",""
"","ISI","","html-keyboard-response","353","432531","0.0-1.0-480.0","0","0","99927","","null","","","null","53","NaN","","","","","","","","","","","","","","",""
"","S2","","html-keyboard-response","354","432794","0.0-1.0-481.0","0","0","99927","","null","","","null","53","","NaN","","","","","","","","","","","","","",""
"","response","","html-keyboard-response","355","433165","0.0-1.0-482.0-0.0","0","0","99927","","360","","","68","53","","","2","53","training","adjacent","DC","4","3","O.jpg","Q.jpg","0","0","1","",""
"","feedback","","html-keyboard-response","356","434185","0.0-1.0-483.0-0.0","0","0","99927","","null","","","null","53","","","","","","","","","","","","","","","",""
"","ITI","","html-keyboard-response","357","435200","0.0-1.0-486.0","0","0","99927","","null","","","null","53","","","","","","","","","","","","","","","NaN",""
"","S1","","html-keyboard-response","358","435467","0.0-1.0-488.0","0","0","99927","","null","","","null","54","","","","","","","","","","","","","","","",""
"","ISI","","html-keyboard-response","359","437482","0.0-1.0-489.0","0","0","99927","","null","","","null","54","NaN","","","","","","","","","","","","","","",""
"","S2","","html-keyboard-response","360","437749","0.0-1.0-490.0","0","0","99927","","null","","","null","54","","NaN","","","","","","","","","","","","","",""
"","response","","html-keyboard-response","361","439043","0.0-1.0-491.0-0.0","0","0","99927","","1281","","","75","54","","","2","54","training","adjacent","DE","4","5","O.jpg","L.jpg","1","1","1","",""
"","feedback","","html-keyboard-response","362","440059","0.0-1.0-492.0-0.0","0","0","99927","","null","","","null","54","","","","","","","","","","","","","","","",""
"","ITI","","html-keyboard-response","363","441076","0.0-1.0-495.0","0","0","99927","","null","","","null","54","","","","","","","","","","","","","","","NaN",""
"","S1","","html-keyboard-response","364","441339","0.0-1.0-497.0","0","0","99927","","null","","","null","55","","","","","","","","","","","","","","","",""
"","ISI","","html-keyboard-response","365","443370","0.0-1.0-498.0","0","0","99927","","null","","","null","55","NaN","","","","","","","","","","","","","","",""
"","S2","","html-keyboard-response","366","443643","0.0-1.0-499.0","0","0","99927","","null","","","null","55","","NaN","","","","","","","","","","","","","",""
"","response","","html-keyboard-response","367","444010","0.0-1.0-500.0-0.0","0","0","99927","","356","","","75","55","","","2","55","training","adjacent","BC","2","3","R.jpg","Q.jpg","1","1","1","",""
"","feedback","","html-keyboard-response","368","445029","0.0-1.0-501.0-0.0","0","0","99927","","null","","","null","55","","","","","","","","","","","","","","","",""
"","ITI","","html-keyboard-response","369","446047","0.0-1.0-504.0","0","0","99927","","null","","","null","55","","","","","","","","","","","","","","","NaN",""
"","S1","","html-keyboard-response","370","446314","0.0-1.0-506.0","0","0","99927","","null","","","null","56","","","","","","","","","","","","","","","",""
"","ISI","","html-keyboard-response","371","448328","0.0-1.0-507.0","0","0","99927","","null","","","null","56","NaN","","","","","","","","","","","","","","",""
"","S2","","html-keyboard-response","372","448595","0.0-1.0-508.0","0","0","99927","","null","","","null","56","","NaN","","","","","","","","","","","","","",""
"","response","","html-keyboard-response","373","449374","0.0-1.0-509.0-0.0","0","0","99927","","765","","","68","56","","","2","56","training","adjacent","CB","3","2","Q.jpg","R.jpg","0","0","1","",""
"","feedback","","html-keyboard-response","374","450390","0.0-1.0-510.0-0.0","0","0","99927","","null","","","null","56","","","","","","","","","","","","","","","",""
"","ITI","","html-keyboard-response","375","451407","0.0-1.0-513.0","0","0","99927","","null","","","null","56","","","","","","","","","","","","","","","NaN",""
"","S1","","html-keyboard-response","376","451673","0.0-1.0-515.0","0","0","99927","","null","","","null","57","","","","","","","","","","","","","","","",""
"","ISI","","html-keyboard-response","377","453688","0.0-1.0-516.0","0","0","99927","","null","","","null","57","NaN","","","","","","","","","","","","","","",""
"","S2","","html-keyboard-response","378","453956","0.0-1.0-517.0","0","0","99927","","null","","","null","57","","NaN","","","","","","","","","","","","","",""
"","response","","html-keyboard-response","379","454431","0.0-1.0-518.0-0.0","0","0","99927","","459","","","68","57","","","2","57","training","adjacent","GF","7","6","N.jpg","P.jpg","0","0","1","",""
"","feedback","","html-keyboard-response","380","455448","0.0-1.0-519.0-0.0","0","0","99927","","null","","","null","57","","","","","","","","","","","","","","","",""
"","ITI","","html-keyboard-response","381","456466","0.0-1.0-522.0","0","0","99927","","null","","","null","57","","","","","","","","","","","","","","","NaN",""
"","S1","","html-keyboard-response","382","456732","0.0-1.0-524.0","0","0","99927","","null","","","null","58","","","","","","","","","","","","","","","",""
"","ISI","","html-keyboard-response","383","458746","0.0-1.0-525.0","0","0","99927","","1547","","","68","58","d","","","","","","","","","","","","","","",""
"","S2","","html-keyboard-response","384","459011","0.0-1.0-526.0","0","0","99927","","null","","","null","58","","NaN","","","","","","","","","","","","","",""
"","response","","html-keyboard-response","385","459520","0.0-1.0-527.0-0.0","0","0","99927","","495","","","75","58","","","2","58","training","adjacent","FE","6","5","P.jpg","L.jpg","1","0","0","",""
"","feedback","","html-keyboard-response","386","460542","0.0-1.0-528.0-0.0","0","0","99927","","null","","","null","58","","","","","","","","","","","","","","","",""
"","time_out","","html-keyboard-response","387","462557","0.0-1.0-530.0-0.0","0","0","99927","","null","","","null","58","","","","","","","","","","","","","","","",""
"","ITI","","html-keyboard-response","388","463570","0.0-1.0-531.0","0","0","99927","","null","","","null","58","","","","","","","","","","","","","","","NaN",""
"","S1","","html-keyboard-response","389","463836","0.0-1.0-533.0","0","0","99927","","null","","","null","59","","","","","","","","","","","","","","","",""
"","ISI","","html-keyboard-response","390","465848","0.0-1.0-534.0","0","0","99927","","null","","","null","59","NaN","","","","","","","","","","","","","","",""
"","S2","","html-keyboard-response","391","466115","0.0-1.0-535.0","0","0","99927","","null","","","null","59","","NaN","","","","","","","","","","","","","",""
"","response","","html-keyboard-response","392","467881","0.0-1.0-536.0-0.0","0","0","99927","","null","","","null","59","","","2","59","training","adjacent","DC","4","3","O.jpg","Q.jpg","NaN","0","0","",""
"","too_slow_prompt","","html-keyboard-response","393","468897","0.0-1.0-538.0-0.0","1","0","99927","","null","","","null","","","","","","","","","","","","","","","","",""
"","time_out","","html-keyboard-response","394","470914","0.0-1.0-539.0-0.0","0","0","99927","","null","","","null","59","","","","","","","","","","","","","","","",""
"","ITI","","html-keyboard-response","395","471929","0.0-1.0-540.0","0","0","99927","","null","","","null","59","","","","","","","","","","","","","","","NaN",""
"","S1","","html-keyboard-response","396","472196","0.0-1.0-542.0","0","0","99927","","null","","","null","60","","","","","","","","","","","","","","","",""
"","ISI","","html-keyboard-response","397","474206","0.0-1.0-543.0","0","0","99927","","null","","","null","60","NaN","","","","","","","","","","","","","","",""
"","S2","","html-keyboard-response","398","474465","0.0-1.0-544.0","0","0","99927","","null","","","null","60","","NaN","","","","","","","","","","","","","",""
"","response","","html-keyboard-response","399","474971","0.0-1.0-545.0-0.0","0","0","99927","","493","","","68","60","","","2","60","training","adjacent","CB","3","2","Q.jpg","R.jpg","0","0","1","",""
"","feedback","","html-keyboard-response","400","475986","0.0-1.0-546.0-0.0","0","0","99927","","null","","","null","60","","","","","","","","","","","","","","","",""
"","ITI","","html-keyboard-response","401","477000","0.0-1.0-549.0","0","0","99927","","null","","","null","60","","","","","","","","","","","","","","","NaN",""
"","S1","","html-keyboard-response","402","477268","0.0-1.0-551.0","0","0","99927","","null","","","null","61","","","","","","","","","","","","","","","",""
"","ISI","","html-keyboard-response","403","479282","0.0-1.0-552.0","0","0","99927","","null","","","null","61","NaN","","","","","","","","","","","","","","",""
"","S2","","html-keyboard-response","404","479551","0.0-1.0-553.0","0","0","99927","","null","","","null","61","","NaN","","","","","","","","","","","","","",""
"","response","","html-keyboard-response","405","480029","0.0-1.0-554.0-0.0","0","0","99927","","466","","","68","61","","","2","61","training","adjacent","DE","4","5","O.jpg","L.jpg","0","1","0","",""
"","feedback","","html-keyboard-response","406","481048","0.0-1.0-555.0-0.0","0","0","99927","","null","","","null","61","","","","","","","","","","","","","","","",""
"","time_out","","html-keyboard-response","407","483068","0.0-1.0-557.0-0.0","0","0","99927","","null","","","null","61","","","","","","","","","","","","","","","",""
"","ITI","","html-keyboard-response","408","484085","0.0-1.0-558.0","0","0","99927","","null","","","null","61","","","","","","","","","","","","","","","NaN",""
"","S1","","html-keyboard-response","409","484351","0.0-1.0-560.0","0","0","99927","","null","","","null","62","","","","","","","","","","","","","","","",""
"","ISI","","html-keyboard-response","410","486367","0.0-1.0-561.0","0","0","99927","","null","","","null","62","NaN","","","","","","","","","","","","","","",""
"","S2","","html-keyboard-response","411","486636","0.0-1.0-562.0","0","0","99927","","null","","","null","62","","NaN","","","","","","","","","","","","","",""
"","response","","html-keyboard-response","412","487207","0.0-1.0-563.0-0.0","0","0","99927","","556","","","75","62","","","2","62","training","adjacent","FG","6","7","P.jpg","N.jpg","1","1","1","",""
"","feedback","","html-keyboard-response","413","488225","0.0-1.0-564.0-0.0","0","0","99927","","null","","","null","62","","","","","","","","","","","","","","","",""
"","ITI","","html-keyboard-response","414","489242","0.0-1.0-567.0","0","0","99927","","null","","","null","62","","","","","","","","","","","","","","","NaN",""
"","S1","","html-keyboard-response","415","489506","0.0-1.0-569.0","0","0","99927","","null","","","null","63","","","","","","","","","","","","","","","",""
"","ISI","","html-keyboard-response","416","491519","0.0-1.0-570.0","0","0","99927","","null","","","null","63","NaN","","","","","","","","","","","","","","",""
"","S2","","html-keyboard-response","417","491787","0.0-1.0-571.0","0","0","99927","","null","","","null","63","","NaN","","","","","","","","","","","","","",""
"","response","","html-keyboard-response","418","492388","0.0-1.0-572.0-0.0","0","0","99927","","588","","","68","63","","","2","63","training","adjacent","BA","2","1","R.jpg","M.jpg","0","0","1","",""
"","feedback","","html-keyboard-response","419","493405","0.0-1.0-573.0-0.0","0","0","99927","","null","","","null","63","","","","","","","","","","","","","","","",""
"","ITI","","html-keyboard-response","420","494420","0.0-1.0-576.0","0","0","99927","","null","","","null","63","","","","","","","","","","","","","","","NaN",""
"","S1","","html-keyboard-response","421","494690","0.0-1.0-578.0","0","0","99927","","null","","","null","64","","","","","","","","","","","","","","","",""
"","ISI","","html-keyboard-response","422","496703","0.0-1.0-579.0","0","0","99927","","null","","","null","64","NaN","","","","","","","","","","","","","","",""
"","S2","","html-keyboard-response","423","496969","0.0-1.0-580.0","0","0","99927","","null","","","null","64","","NaN","","","","","","","","","","","","","",""
"","response","","html-keyboard-response","424","497487","0.0-1.0-581.0-0.0","0","0","99927","","505","","","68","64","","","2","64","training","adjacent","GF","7","6","N.jpg","P.jpg","0","0","1","",""
"","feedback","","html-keyboard-response","425","498505","0.0-1.0-582.0-0.0","0","0","99927","","null","","","null","64","","","","","","","","","","","","","","","",""
"","ITI","","html-keyboard-response","426","499533","0.0-1.0-585.0","0","0","99927","","null","","","null","64","","","","","","","","","","","","","","","NaN",""
"","S1","","html-keyboard-response","427","499799","0.0-1.0-587.0","0","0","99927","","null","","","null","65","","","","","","","","","","","","","","","",""
"","ISI","","html-keyboard-response","428","501815","0.0-1.0-588.0","0","0","99927","","null","","","null","65","NaN","","","","","","","","","","","","","","",""
"","S2","","html-keyboard-response","429","502079","0.0-1.0-589.0","0","0","99927","","null","","","null","65","","NaN","","","","","","","","","","","","","",""
"","response","","html-keyboard-response","430","503015","0.0-1.0-590.0-0.0","0","0","99927","","923","","","75","65","","","2","65","training","adjacent","DC","4","3","O.jpg","Q.jpg","1","0","0","",""
"","feedback","","html-keyboard-response","431","504030","0.0-1.0-591.0-0.0","0","0","99927","","null","","","null","65","","","","","","","","","","","","","","","",""
"","time_out","","html-keyboard-response","432","506045","0.0-1.0-593.0-0.0","0","0","99927","","null","","","null","65","","","","","","","","","","","","","","","",""
"","ITI","","html-keyboard-response","433","507055","0.0-1.0-594.0","0","0","99927","","null","","","null","65","","","","","","","","","","","","","","","NaN",""
"","S1","","html-keyboard-response","434","507320","0.0-1.0-596.0","0","0","99927","","null","","","null","66","","","","","","","","","","","","","","","",""
"","ISI","","html-keyboard-response","435","509335","0.0-1.0-597.0","0","0","99927","","null","","","null","66","NaN","","","","","","","","","","","","","","",""
"","S2","","html-keyboard-response","436","509601","0.0-1.0-598.0","0","0","99927","","null","","","null","66","","NaN","","","","","","","","","","","","","",""
"","response","","html-keyboard-response","437","510594","0.0-1.0-599.0-0.0","0","0","99927","","979","","","75","66","","","2","66","training","adjacent","CD","3","4","Q.jpg","O.jpg","1","1","1","",""
"","feedback","","html-keyboard-response","438","511622","0.0-1.0-600.0-0.0","0","0","99927","","null","","","null","66","","","","","","","","","","","","","","","",""
"","ITI","","html-keyboard-response","439","512645","0.0-1.0-603.0","0","0","99927","","null","","","null","66","","","","","","","","","","","","","","","NaN",""
"","S1","","html-keyboard-response","440","512910","0.0-1.0-605.0","0","0","99927","","null","","","null","67","","","","","","","","","","","","","","","",""
"","ISI","","html-keyboard-response","441","514926","0.0-1.0-606.0","0","0","99927","","null","","","null","67","NaN","","","","","","","","","","","","","","",""
"","S2","","html-keyboard-response","442","515193","0.0-1.0-607.0","0","0","99927","","null","","","null","67","","NaN","","","","","","","","","","","","","",""
"","response","","html-keyboard-response","443","515743","0.0-1.0-608.0-0.0","0","0","99927","","537","","","68","67","","","2","67","training","adjacent","FE","6","5","P.jpg","L.jpg","0","0","1","",""
"","feedback","","html-keyboard-response","444","516760","0.0-1.0-609.0-0.0","0","0","99927","","null","","","null","67","","","","","","","","","","","","","","","",""
"","ITI","","html-keyboard-response","445","517778","0.0-1.0-612.0","0","0","99927","","null","","","null","67","","","","","","","","","","","","","","","NaN",""
"","S1","","html-keyboard-response","446","518044","0.0-1.0-614.0","0","0","99927","","null","","","null","68","","","","","","","","","","","","","","","",""
"","ISI","","html-keyboard-response","447","520061","0.0-1.0-615.0","0","0","99927","","null","","","null","68","NaN","","","","","","","","","","","","","","",""
"","S2","","html-keyboard-response","448","520330","0.0-1.0-616.0","0","0","99927","","null","","","null","68","","NaN","","","","","","","","","","","","","",""
"","response","","html-keyboard-response","449","520805","0.0-1.0-617.0-0.0","0","0","99927","","461","","","68","68","","","2","68","training","adjacent","BA","2","1","R.jpg","M.jpg","0","0","1","",""
"","feedback","","html-keyboard-response","450","521821","0.0-1.0-618.0-0.0","0","0","99927","","null","","","null","68","","","","","","","","","","","","","","","",""
"","ITI","","html-keyboard-response","451","522840","0.0-1.0-621.0","0","0","99927","","null","","","null","68","","","","","","","","","","","","","","","NaN",""
"","S1","","html-keyboard-response","452","523106","0.0-1.0-623.0","0","0","99927","","null","","","null","69","","","","","","","","","","","","","","","",""
"","ISI","","html-keyboard-response","453","525117","0.0-1.0-624.0","0","0","99927","","null","","","null","69","NaN","","","","","","","","","","","","","","",""
"","S2","","html-keyboard-response","454","525380","0.0-1.0-625.0","0","0","99927","","null","","","null","69","","NaN","","","","","","","","","","","","","",""
"","response","","html-keyboard-response","455","525597","0.0-1.0-626.0-0.0","0","0","99927","","204","","","75","69","","","2","69","training","adjacent","DC","4","3","O.jpg","Q.jpg","1","0","0","",""
"","feedback","","html-keyboard-response","456","526613","0.0-1.0-627.0-0.0","0","0","99927","","null","","","null","69","","","","","","","","","","","","","","","",""
"","time_out","","html-keyboard-response","457","528630","0.0-1.0-629.0-0.0","0","0","99927","","null","","","null","69","","","","","","","","","","","","","","","",""
"","ITI","","html-keyboard-response","458","529642","0.0-1.0-630.0","0","0","99927","","null","","","null","69","","","","","","","","","","","","","","","NaN",""
"","S1","","html-keyboard-response","459","529906","0.0-1.0-632.0","0","0","99927","","null","","","null","70","","","","","","","","","","","","","","","",""
"","ISI","","html-keyboard-response","460","531922","0.0-1.0-633.0","0","0","99927","","null","","","null","70","NaN","","","","","","","","","","","","","","",""
"","S2","","html-keyboard-response","461","532189","0.0-1.0-634.0","0","0","99927","","null","","","null","70","","NaN","","","","","","","","","","","","","",""
"","response","","html-keyboard-response","462","532791","0.0-1.0-635.0-0.0","0","0","99927","","588","","","68","70","","","2","70","training","adjacent","DE","4","5","O.jpg","L.jpg","0","1","0","",""
"","feedback","","html-keyboard-response","463","533810","0.0-1.0-636.0-0.0","0","0","99927","","null","","","null","70","","","","","","","","","","","","","","","",""
"","time_out","","html-keyboard-response","464","535827","0.0-1.0-638.0-0.0","0","0","99927","","null","","","null","70","","","","","","","","","","","","","","","",""
"","ITI","","html-keyboard-response","465","536843","0.0-1.0-639.0","0","0","99927","","null","","","null","70","","","","","","","","","","","","","","","NaN",""
"","S1","","html-keyboard-response","466","537109","0.0-1.0-641.0","0","0","99927","","null","","","null","71","","","","","","","","","","","","","","","",""
"","ISI","","html-keyboard-response","467","539125","0.0-1.0-642.0","0","0","99927","","null","","","null","71","NaN","","","","","","","","","","","","","","",""
"","S2","","html-keyboard-response","468","539392","0.0-1.0-643.0","0","0","99927","","null","","","null","71","","NaN","","","","","","","","","","","","","",""
"","response","","html-keyboard-response","469","539849","0.0-1.0-644.0-0.0","0","0","99927","","443","","","75","71","","","2","71","training","adjacent","ED","5","4","L.jpg","O.jpg","1","0","0","",""
"","feedback","","html-keyboard-response","470","540865","0.0-1.0-645.0-0.0","0","0","99927","","null","","","null","71","","","","","","","","","","","","","","","",""
"","time_out","","html-keyboard-response","471","542881","0.0-1.0-647.0-0.0","0","0","99927","","null","","","null","71","","","","","","","","","","","","","","","",""
"","ITI","","html-keyboard-response","472","543898","0.0-1.0-648.0","0","0","99927","","null","","","null","71","","","","","","","","","","","","","","","NaN",""
"","S1","","html-keyboard-response","473","544166","0.0-1.0-650.0","0","0","99927","","null","","","null","72","","","","","","","","","","","","","","","",""
"","ISI","","html-keyboard-response","474","546182","0.0-1.0-651.0","0","0","99927","","null","","","null","72","NaN","","","","","","","","","","","","","","",""
"","S2","","html-keyboard-response","475","546448","0.0-1.0-652.0","0","0","99927","","null","","","null","72","","NaN","","","","","","","","","","","","","",""
"","response","","html-keyboard-response","476","547239","0.0-1.0-653.0-0.0","0","0","99927","","777","","","75","72","","","2","72","training","adjacent","CD","3","4","Q.jpg","O.jpg","1","1","1","",""
"","feedback","","html-keyboard-response","477","548257","0.0-1.0-654.0-0.0","0","0","99927","","null","","","null","72","","","","","","","","","","","","","","","",""
"","ITI","","html-keyboard-response","478","549274","0.0-1.0-657.0","0","0","99927","","null","","","null","72","","","","","","","","","","","","","","","NaN",""
"","S1","","html-keyboard-response","479","549542","0.0-1.0-659.0","0","0","99927","","null","","","null","73","","","","","","","","","","","","","","","",""
"","ISI","","html-keyboard-response","480","551556","0.0-1.0-660.0","0","0","99927","","null","","","null","73","NaN","","","","","","","","","","","","","","",""
"","S2","","html-keyboard-response","481","551824","0.0-1.0-661.0","0","0","99927","","null","","","null","73","","NaN","","","","","","","","","","","","","",""
"","response","","html-keyboard-response","482","553205","0.0-1.0-662.0-0.0","0","0","99927","","1367","","","68","73","","","2","73","training","adjacent","DE","4","5","O.jpg","L.jpg","0","1","0","",""
"","feedback","","html-keyboard-response","483","554222","0.0-1.0-663.0-0.0","0","0","99927","","null","","","null","73","","","","","","","","","","","","","","","",""
"","time_out","","html-keyboard-response","484","556240","0.0-1.0-665.0-0.0","0","0","99927","","null","","","null","73","","","","","","","","","","","","","","","",""
"","ITI","","html-keyboard-response","485","557256","0.0-1.0-666.0","0","0","99927","","null","","","null","73","","","","","","","","","","","","","","","NaN",""
"","S1","","html-keyboard-response","486","557523","0.0-1.0-668.0","0","0","99927","","null","","","null","74","","","","","","","","","","","","","","","",""
"","ISI","","html-keyboard-response","487","559538","0.0-1.0-669.0","0","0","99927","","null","","","null","74","NaN","","","","","","","","","","","","","","",""
"","S2","","html-keyboard-response","488","559806","0.0-1.0-670.0","0","0","99927","","null","","","null","74","","NaN","","","","","","","","","","","","","",""
"","response","","html-keyboard-response","489","560339","0.0-1.0-671.0-0.0","0","0","99927","","520","","","68","74","","","2","74","training","adjacent","EF","5","6","L.jpg","P.jpg","0","1","0","",""
"","feedback","","html-keyboard-response","490","561358","0.0-1.0-672.0-0.0","0","0","99927","","null","","","null","74","","","","","","","","","","","","","","","",""
"","time_out","","html-keyboard-response","491","563372","0.0-1.0-674.0-0.0","0","0","99927","","null","","","null","74","","","","","","","","","","","","","","","",""
"","ITI","","html-keyboard-response","492","564384","0.0-1.0-675.0","0","0","99927","","null","","","null","74","","","","","","","","","","","","","","","NaN",""
"","S1","","html-keyboard-response","493","564648","0.0-1.0-677.0","0","0","99927","","null","","","null","75","","","","","","","","","","","","","","","",""
"","ISI","","html-keyboard-response","494","566663","0.0-1.0-678.0","0","0","99927","","null","","","null","75","NaN","","","","","","","","","","","","","","",""
"","S2","","html-keyboard-response","495","566930","0.0-1.0-679.0","0","0","99927","","null","","","null","75","","NaN","","","","","","","","","","","","","",""
"","response","","html-keyboard-response","496","567618","0.0-1.0-680.0-0.0","0","0","99927","","664","","","68","75","","","2","75","training","adjacent","ED","5","4","L.jpg","O.jpg","0","0","1","",""
"","feedback","","html-keyboard-response","497","568636","0.0-1.0-681.0-0.0","0","0","99927","","null","","","null","75","","","","","","","","","","","","","","","",""
"","ITI","","html-keyboard-response","498","569653","0.0-1.0-684.0","0","0","99927","","null","","","null","75","","","","","","","","","","","","","","","NaN",""
"","S1","","html-keyboard-response","499","569920","0.0-1.0-686.0","0","0","99927","","null","","","null","76","","","","","","","","","","","","","","","",""
"","ISI","","html-keyboard-response","500","571937","0.0-1.0-687.0","0","0","99927","","null","","","null","76","NaN","","","","","","","","","","","","","","",""
"","S2","","html-keyboard-response","501","572205","0.0-1.0-688.0","0","0","99927","","null","","","null","76","","NaN","","","","","","","","","","","","","",""
"","response","","html-keyboard-response","502","572779","0.0-1.0-689.0-0.0","0","0","99927","","561","","","68","76","","","2","76","training","adjacent","CB","3","2","Q.jpg","R.jpg","0","0","1","",""
"","feedback","","html-keyboard-response","503","573797","0.0-1.0-690.0-0.0","0","0","99927","","null","","","null","76","","","","","","","","","","","","","","","",""
"","ITI","","html-keyboard-response","504","574819","0.0-1.0-693.0","0","0","99927","","null","","","null","76","","","","","","","","","","","","","","","NaN",""
"","S1","","html-keyboard-response","505","575086","0.0-1.0-695.0","0","0","99927","","null","","","null","77","","","","","","","","","","","","","","","",""
"","ISI","","html-keyboard-response","506","577101","0.0-1.0-696.0","0","0","99927","","null","","","null","77","NaN","","","","","","","","","","","","","","",""
"","S2","","html-keyboard-response","507","577368","0.0-1.0-697.0","0","0","99927","","null","","","null","77","","NaN","","","","","","","","","","","","","",""
"","response","","html-keyboard-response","508","578018","0.0-1.0-698.0-0.0","0","0","99927","","636","","","75","77","","","2","77","training","adjacent","AB","1","2","M.jpg","R.jpg","1","1","1","",""
"","feedback","","html-keyboard-response","509","579037","0.0-1.0-699.0-0.0","0","0","99927","","null","","","null","77","","","","","","","","","","","","","","","",""
"","ITI","","html-keyboard-response","510","580057","0.0-1.0-702.0","0","0","99927","","null","","","null","77","","","","","","","","","","","","","","","NaN",""
"","S1","","html-keyboard-response","511","580324","0.0-1.0-704.0","0","0","99927","","null","","","null","78","","","","","","","","","","","","","","","",""
"","ISI","","html-keyboard-response","512","582341","0.0-1.0-705.0","0","0","99927","","null","","","null","78","NaN","","","","","","","","","","","","","","",""
"","S2","","html-keyboard-response","513","582611","0.0-1.0-706.0","0","0","99927","","null","","","null","78","","NaN","","","","","","","","","","","","","",""
"","response","","html-keyboard-response","514","583016","0.0-1.0-707.0-0.0","0","0","99927","","390","","","68","78","","","2","78","training","adjacent","FE","6","5","P.jpg","L.jpg","0","0","1","",""
"","feedback","","html-keyboard-response","515","584034","0.0-1.0-708.0-0.0","0","0","99927","","null","","","null","78","","","","","","","","","","","","","","","",""
"","ITI","","html-keyboard-response","516","585049","0.0-1.0-711.0","0","0","99927","","null","","","null","78","","","","","","","","","","","","","","","NaN",""
"","S1","","html-keyboard-response","517","585317","0.0-1.0-713.0","0","0","99927","","null","","","null","79","","","","","","","","","","","","","","","",""
"","ISI","","html-keyboard-response","518","587333","0.0-1.0-714.0","0","0","99927","","null","","","null","79","NaN","","","","","","","","","","","","","","",""
"","S2","","html-keyboard-response","519","587601","0.0-1.0-715.0","0","0","99927","","null","","","null","79","","NaN","","","","","","","","","","","","","",""
"","response","","html-keyboard-response","520","588069","0.0-1.0-716.0-0.0","0","0","99927","","455","","","75","79","","","2","79","training","adjacent","FE","6","5","P.jpg","L.jpg","1","0","0","",""
"","feedback","","html-keyboard-response","521","589087","0.0-1.0-717.0-0.0","0","0","99927","","null","","","null","79","","","","","","","","","","","","","","","",""
"","time_out","","html-keyboard-response","522","591106","0.0-1.0-719.0-0.0","0","0","99927","","null","","","null","79","","","","","","","","","","","","","","","",""
"","ITI","","html-keyboard-response","523","592124","0.0-1.0-720.0","0","0","99927","","null","","","null","79","","","","","","","","","","","","","","","NaN",""
"","S1","","html-keyboard-response","524","592391","0.0-1.0-722.0","0","0","99927","","null","","","null","80","","","","","","","","","","","","","","","",""
"","ISI","","html-keyboard-response","525","594408","0.0-1.0-723.0","0","0","99927","","null","","","null","80","NaN","","","","","","","","","","","","","","",""
"","S2","","html-keyboard-response","526","594675","0.0-1.0-724.0","0","0","99927","","null","","","null","80","","NaN","","","","","","","","","","","","","",""
"","response","","html-keyboard-response","527","595195","0.0-1.0-725.0-0.0","0","0","99927","","508","","","68","80","","","2","80","training","adjacent","FG","6","7","P.jpg","N.jpg","0","1","0","",""
"","feedback","","html-keyboard-response","528","596213","0.0-1.0-726.0-0.0","0","0","99927","","null","","","null","80","","","","","","","","","","","","","","","",""
"","time_out","","html-keyboard-response","529","598226","0.0-1.0-728.0-0.0","0","0","99927","","null","","","null","80","","","","","","","","","","","","","","","",""
"","ITI","","html-keyboard-response","530","599241","0.0-1.0-729.0","0","0","99927","","null","","","null","80","","","","","","","","","","","","","","","NaN",""
"","S1","","html-keyboard-response","531","599505","0.0-1.0-731.0","0","0","99927","","null","","","null","81","","","","","","","","","","","","","","","",""
"","ISI","","html-keyboard-response","532","601524","0.0-1.0-732.0","0","0","99927","","null","","","null","81","NaN","","","","","","","","","","","","","","",""
"","S2","","html-keyboard-response","533","601792","0.0-1.0-733.0","0","0","99927","","null","","","null","81","","NaN","","","","","","","","","","","","","",""
"","response","","html-keyboard-response","534","602401","0.0-1.0-734.0-0.0","0","0","99927","","596","","","68","81","","","2","81","training","adjacent","AB","1","2","M.jpg","R.jpg","0","1","0","",""
"","feedback","","html-keyboard-response","535","603419","0.0-1.0-735.0-0.0","0","0","99927","","null","","","null","81","","","","","","","","","","","","","","","",""
"","time_out","","html-keyboard-response","536","605440","0.0-1.0-737.0-0.0","0","0","99927","","null","","","null","81","","","","","","","","","","","","","","","",""
"","ITI","","html-keyboard-response","537","606456","0.0-1.0-738.0","0","0","99927","","null","","","null","81","","","","","","","","","","","","","","","NaN",""
"","S1","","html-keyboard-response","538","606725","0.0-1.0-740.0","0","0","99927","","null","","","null","82","","","","","","","","","","","","","","","",""
"","ISI","","html-keyboard-response","539","608740","0.0-1.0-741.0","0","0","99927","","null","","","null","82","NaN","","","","","","","","","","","","","","",""
"","S2","","html-keyboard-response","540","609008","0.0-1.0-742.0","0","0","99927","","null","","","null","82","","NaN","","","","","","","","","","","","","",""
"","response","","html-keyboard-response","541","610051","0.0-1.0-743.0-0.0","0","0","99927","","1031","","","75","82","","","2","82","training","adjacent","GF","7","6","N.jpg","P.jpg","1","0","0","",""
"","feedback","","html-keyboard-response","542","611069","0.0-1.0-744.0-0.0","0","0","99927","","null","","","null","82","","","","","","","","","","","","","","","",""
"","time_out","","html-keyboard-response","543","613088","0.0-1.0-746.0-0.0","0","0","99927","","null","","","null","82","","","","","","","","","","","","","","","",""
"","ITI","","html-keyboard-response","544","614105","0.0-1.0-747.0","0","0","99927","","null","","","null","82","","","","","","","","","","","","","","","NaN",""
"","S1","","html-keyboard-response","545","614371","0.0-1.0-749.0","0","0","99927","","null","","","null","83","","","","","","","","","","","","","","","",""
"","ISI","","html-keyboard-response","546","616387","0.0-1.0-750.0","0","0","99927","","null","","","null","83","NaN","","","","","","","","","","","","","","",""
"","S2","","html-keyboard-response","547","616659","0.0-1.0-751.0","0","0","99927","","null","","","null","83","","NaN","","","","","","","","","","","","","",""
"","response","","html-keyboard-response","548","616754","0.0-1.0-752.0-0.0","0","0","99927","","79","","","68","83","","","2","83","training","adjacent","EF","5","6","L.jpg","P.jpg","0","1","0","",""
"","feedback","","html-keyboard-response","549","617773","0.0-1.0-753.0-0.0","0","0","99927","","null","","","null","83","","","","","","","","","","","","","","","",""
"","time_out","","html-keyboard-response","550","619787","0.0-1.0-755.0-0.0","0","0","99927","","null","","","null","83","","","","","","","","","","","","","","","",""
"","ITI","","html-keyboard-response","551","620801","0.0-1.0-756.0","0","0","99927","","null","","","null","83","","","","","","","","","","","","","","","NaN",""
"","S1","","html-keyboard-response","552","621068","0.0-1.0-758.0","0","0","99927","","null","","","null","84","","","","","","","","","","","","","","","",""
"","ISI","","html-keyboard-response","553","623084","0.0-1.0-759.0","0","0","99927","","null","","","null","84","NaN","","","","","","","","","","","","","","",""
"","S2","","html-keyboard-response","554","623350","0.0-1.0-760.0","0","0","99927","","null","","","null","84","","NaN","","","","","","","","","","","","","",""
"","response","","html-keyboard-response","555","623546","0.0-1.0-761.0-0.0","0","0","99927","","184","","","75","84","","","2","84","training","adjacent","EF","5","6","L.jpg","P.jpg","1","1","1","",""
"","feedback","","html-keyboard-response","556","624567","0.0-1.0-762.0-0.0","0","0","99927","","null","","","null","84","","","","","","","","","","","","","","","",""
"","ITI","","html-keyboard-response","557","625586","0.0-1.0-765.0","0","0","99927","","null","","","null","84","","","","","","","","","","","","","","","NaN",""
"","S1","","html-keyboard-response","558","625853","0.0-1.0-767.0","0","0","99927","","null","","","null","85","","","","","","","","","","","","","","","",""
"","ISI","","html-keyboard-response","559","627868","0.0-1.0-768.0","0","0","99927","","null","","","null","85","NaN","","","","","","","","","","","","","","",""
"","S2","","html-keyboard-response","560","628135","0.0-1.0-769.0","0","0","99927","","null","","","null","85","","NaN","","","","","","","","","","","","","",""
"","response","","html-keyboard-response","561","628778","0.0-1.0-770.0-0.0","0","0","99927","","630","","","68","85","","","2","85","training","adjacent","BA","2","1","R.jpg","M.jpg","0","0","1","",""
"","feedback","","html-keyboard-response","562","629793","0.0-1.0-771.0-0.0","0","0","99927","","null","","","null","85","","","","","","","","","","","","","","","",""
"","ITI","","html-keyboard-response","563","630810","0.0-1.0-774.0","0","0","99927","","null","","","null","85","","","","","","","","","","","","","","","NaN",""
"","S1","","html-keyboard-response","564","631076","0.0-1.0-776.0","0","0","99927","","null","","","null","86","","","","","","","","","","","","","","","",""
"","ISI","","html-keyboard-response","565","633093","0.0-1.0-777.0","0","0","99927","","null","","","null","86","NaN","","","","","","","","","","","","","","",""
"","S2","","html-keyboard-response","566","633359","0.0-1.0-778.0","0","0","99927","","null","","","null","86","","NaN","","","","","","","","","","","","","",""
"","response","","html-keyboard-response","567","634421","0.0-1.0-779.0-0.0","0","0","99927","","1049","","","75","86","","","2","86","training","adjacent","GF","7","6","N.jpg","P.jpg","1","0","0","",""
"","feedback","","html-keyboard-response","568","635439","0.0-1.0-780.0-0.0","0","0","99927","","null","","","null","86","","","","","","","","","","","","","","","",""
"","time_out","","html-keyboard-response","569","637458","0.0-1.0-782.0-0.0","0","0","99927","","null","","","null","86","","","","","","","","","","","","","","","",""
"","ITI","","html-keyboard-response","570","638474","0.0-1.0-783.0","0","0","99927","","null","","","null","86","","","","","","","","","","","","","","","NaN",""
"","S1","","html-keyboard-response","571","638741","0.0-1.0-785.0","0","0","99927","","null","","","null","87","","","","","","","","","","","","","","","",""
"","ISI","","html-keyboard-response","572","640757","0.0-1.0-786.0","0","0","99927","","null","","","null","87","NaN","","","","","","","","","","","","","","",""
"","S2","","html-keyboard-response","573","641024","0.0-1.0-787.0","0","0","99927","","null","","","null","87","","NaN","","","","","","","","","","","","","",""
"","response","","html-keyboard-response","574","642166","0.0-1.0-788.0-0.0","0","0","99927","","1130","","","75","87","","","2","87","training","adjacent","CD","3","4","Q.jpg","O.jpg","1","1","1","",""
"","feedback","","html-keyboard-response","575","643182","0.0-1.0-789.0-0.0","0","0","99927","","null","","","null","87","","","","","","","","","","","","","","","",""
"","ITI","","html-keyboard-response","576","644203","0.0-1.0-792.0","0","0","99927","","null","","","null","87","","","","","","","","","","","","","","","NaN",""
"","S1","","html-keyboard-response","577","644463","0.0-1.0-794.0","0","0","99927","","null","","","null","88","","","","","","","","","","","","","","","",""
"","ISI","","html-keyboard-response","578","646476","0.0-1.0-795.0","0","0","99927","","null","","","null","88","NaN","","","","","","","","","","","","","","",""
"","S2","","html-keyboard-response","579","646744","0.0-1.0-796.0","0","0","99927","","null","","","null","88","","NaN","","","","","","","","","","","","","",""
