"success","ttype","start_time","trial_type","trial_index","time_elapsed","internal_node_id","warning","missed_checkup","PID","view_history","rt","responses","repeat_instructions","key_press","index","keypress_isi","keypress_S2","block","trial_num","phase","group_type","pair_type","S1_stim","S2_stim","S1_img","S2_img","S1_chosen","S1_higher","accuracy","keypress_iti","total_bonus_tally"
"true","full_screen","d03032023hr2046","fullscreen","0","2717","0.0-0.0","0","0","46404","","","","","","","","","","","","","","","","","","","","","",""
"","instructions","","instructions","1","10068","0.0-1.0-0.0-0.0","0","0","46404","[{""page_index"":0,""viewing_time"":1641},{""page_index"":1,""viewing_time"":2775},{""page_index"":2,""viewing_time"":1792},{""page_index"":3,""viewing_time"":1136}]","7345","","","","","","","","","","","","","","","","","","","",""
"","comprehension_check","","survey-multi-choice","2","25600","0.0-1.0-0.0-1.0","0","0","46404","","15520","{""Q0"":""True"",""Q1"":""D"",""Q2"":""Once the second image appears and while the screen 'MAKE A CHOICE' is shown"",""Q3"":""Green mark"",""Q4"":""either D or K""}","0","","","","","","","","","","","","","","","","","",""
"","start_exp","","html-keyboard-response","3","27813","0.0-1.0-1.0","0","0","46404","","2206","","","32","","","","","","","","","","","","","","","","",""
"","S1","","html-keyboard-response","4","28067","0.0-1.0-2.0","0","0","46404","","null","","","null","0","","","","","","","","","","","","","","","",""
"","ISI","","html-keyboard-response","5","28571","0.0-1.0-3.0","0","0","46404","","null","","","null","0","NaN","","","","","","","","","","","","","","",""
"","S2","","html-keyboard-response","6","28826","0.0-1.0-4.0","0","0","46404","","null","","","null","0","","NaN","","","","","","","","","","","","","",""
"","response","","html-keyboard-response","7","30582","0.0-1.0-5.0-0.0","0","0","46404","","null","","","null","0","","","1","0","training","adjacent","BA","2","1","Q.jpg","N.jpg","NaN","0","0","",""
"","too_slow_prompt","","html-keyboard-response","8","31588","0.0-1.0-7.0-0.0","1","0","46404","","null","","","null","","","","","","","","","","","","","","","","",""
"","time_out","","html-keyboard-response","9","33595","0.0-1.0-8.0-0.0","0","0","46404","","null","","","null","0","","","","","","","","","","","","","","","",""
"","ITI","","html-keyboard-response","10","34599","0.0-1.0-9.0","0","0","46404","","1","","","68","0","","","","","","","","","","","","","","","d",""
"","S1","","html-keyboard-response","11","34854","0.0-1.0-11.0","0","0","46404","","null","","","null","1","","","","","","","","","","","","","","","",""
"","ISI","","html-keyboard-response","12","35357","0.0-1.0-12.0","0","0","46404","","424","","","68","1","d","","","","","","","","","","","","","","",""
"","S2","","html-keyboard-response","13","35611","0.0-1.0-13.0","0","0","46404","","null","","","null","1","","NaN","","","","","","","","","","","","","",""
"","response","","html-keyboard-response","14","36014","0.0-1.0-14.0-0.0","0","0","46404","","399","","","75","1","","","1","1","training","adjacent","CB","3","2","M.jpg","Q.jpg","0","0","1","",""
"","feedback","","html-keyboard-response","15","37018","0.0-1.0-15.0-0.0","0","0","46404","","null","","","null","1","","","","","","","","","","","","","","","",""
"","ITI","","html-keyboard-response","16","38023","0.0-1.0-18.0","0","0","46404","","444","","","75","1","","","","","","","","","","","","","","","k",""
"","S1","","html-keyboard-response","17","38277","0.0-1.0-20.0","0","0","46404","","null","","","null","2","","","","","","","","","","","","","","","",""
"","ISI","","html-keyboard-response","18","38781","0.0-1.0-21.0","0","0","46404","","458","","","75","2","k","","","","","","","","","","","","","","",""
"","S2","","html-keyboard-response","19","39036","0.0-1.0-22.0","0","0","46404","","null","","","null","2","","NaN","","","","","","","","","","","","","",""
"","response","","html-keyboard-response","20","39110","0.0-1.0-23.0-0.0","0","0","46404","","69","","","75","2","","","1","2","training","adjacent","DE","4","5","O.jpg","R.jpg","0","1","0","",""
"","feedback","","html-keyboard-response","21","40115","0.0-1.0-24.0-0.0","0","0","46404","","null","","","null","2","","","","","","","","","","","","","","","",""
"","time_out","","html-keyboard-response","22","42121","0.0-1.0-26.0-0.0","0","0","46404","","null","","","null","2","","","","","","","","","","","","","","","",""
"","ITI","","html-keyboard-response","23","43124","0.0-1.0-27.0","0","0","46404","","274","","","75","2","","","","","","","","","","","","","","","k",""
"","S1","","html-keyboard-response","24","43377","0.0-1.0-29.0","0","0","46404","","null","","","null","3","","","","","","","","","","","","","","","",""
"","ISI","","html-keyboard-response","25","43881","0.0-1.0-30.0","0","0","46404","","334","","","75","3","k","","","","","","","","","","","","","","",""
"","S2","","html-keyboard-response","26","44135","0.0-1.0-31.0","0","0","46404","","null","","","null","3","","NaN","","","","","","","","","","","","","",""
"","response","","html-keyboard-response","27","44318","0.0-1.0-32.0-0.0","0","0","46404","","180","","","75","3","","","1","3","training","adjacent","EF","5","6","R.jpg","P.jpg","0","1","0","",""
"","feedback","","html-keyboard-response","28","45323","0.0-1.0-33.0-0.0","0","0","46404","","null","","","null","3","","","","","","","","","","","","","","","",""
"","time_out","","html-keyboard-response","29","47329","0.0-1.0-35.0-0.0","0","0","46404","","null","","","null","3","","","","","","","","","","","","","","","",""
"","ITI","","html-keyboard-response","30","48333","0.0-1.0-36.0","0","0","46404","","null","","","null","3","","","","","","","","","","","","","","","NaN",""
"","S1","","html-keyboard-response","31","48587","0.0-1.0-38.0","0","0","46404","","null","","","null","4","","","","","","","","","","","","","","","",""
"","ISI","","html-keyboard-response","32","49089","0.0-1.0-39.0","0","0","46404","","352","","","68","4","d","","","","","","","","","","","","","","",""
"","S2","","html-keyboard-response","33","49343","0.0-1.0-40.0","0","0","46404","","null","","","null","4","","NaN","","","","","","","","","","","","","",""
"","response","","html-keyboard-response","34","49634","0.0-1.0-41.0-0.0","0","0","46404","","288","","","68","4","","","1","4","training","adjacent","BC","2","3","Q.jpg","M.jpg","1","1","1","",""
"","feedback","","html-keyboard-response","35","50637","0.0-1.0-42.0-0.0","0","0","46404","","null","","","null","4","","","","","","","","","","","","","","","",""
"","ITI","","html-keyboard-response","36","51641","0.0-1.0-45.0","0","0","46404","","null","","","null","4","","","","","","","","","","","","","","","NaN",""
"","S1","","html-keyboard-response","37","51896","0.0-1.0-47.0","0","0","46404","","null","","","null","5","","","","","","","","","","","","","","","",""
"","ISI","","html-keyboard-response","38","52399","0.0-1.0-48.0","0","0","46404","","null","","","null","5","NaN","","","","","","","","","","","","","","",""
"","S2","","html-keyboard-response","39","52655","0.0-1.0-49.0","0","0","46404","","null","","","null","5","","NaN","","","","","","","","","","","","","",""
"","response","","html-keyboard-response","40","52959","0.0-1.0-50.0-0.0","0","0","46404","","301","","","68","5","","","1","5","training","adjacent","ED","5","4","R.jpg","O.jpg","1","0","0","",""
"","feedback","","html-keyboard-response","41","53963","0.0-1.0-51.0-0.0","0","0","46404","","null","","","null","5","","","","","","","","","","","","","","","",""
"","time_out","","html-keyboard-response","42","55968","0.0-1.0-53.0-0.0","0","0","46404","","null","","","null","5","","","","","","","","","","","","","","","",""
"","ITI","","html-keyboard-response","43","56972","0.0-1.0-54.0","0","0","46404","","null","","","null","5","","","","","","","","","","","","","","","NaN",""
"","S1","","html-keyboard-response","44","57225","0.0-1.0-56.0","0","0","46404","","null","","","null","6","","","","","","","","","","","","","","","",""
"","ISI","","html-keyboard-response","45","57729","0.0-1.0-57.0","0","0","46404","","null","","","null","6","NaN","","","","","","","","","","","","","","",""
"","S2","","html-keyboard-response","46","57983","0.0-1.0-58.0","0","0","46404","","null","","","null","6","","NaN","","","","","","","","","","","","","",""
"","response","","html-keyboard-response","47","58284","0.0-1.0-59.0-0.0","0","0","46404","","294","","","68","6","","","1","6","training","adjacent","FG","6","7","P.jpg","L.jpg","1","1","1","",""
"","feedback","","html-keyboard-response","48","59293","0.0-1.0-60.0-0.0","0","0","46404","","null","","","null","6","","","","","","","","","","","","","","","",""
"","ITI","","html-keyboard-response","49","60297","0.0-1.0-63.0","0","0","46404","","null","","","null","6","","","","","","","","","","","","","","","NaN",""
"","S1","","html-keyboard-response","50","60550","0.0-1.0-65.0","0","0","46404","","null","","","null","7","","","","","","","","","","","","","","","",""
"","ISI","","html-keyboard-response","51","61056","0.0-1.0-66.0","0","0","46404","","null","","","null","7","NaN","","","","","","","","","","","","","","",""
"","S2","","html-keyboard-response","52","61310","0.0-1.0-67.0","0","0","46404","","null","","","null","7","","NaN","","","","","","","","","","","","","",""
"","response","","html-keyboard-response","53","61600","0.0-1.0-68.0-0.0","0","0","46404","","286","","","68","7","","","1","7","training","adjacent","CB","3","2","M.jpg","Q.jpg","1","0","0","",""
"","feedback","","html-keyboard-response","54","62605","0.0-1.0-69.0-0.0","0","0","46404","","null","","","null","7","","","","","","","","","","","","","","","",""
"","time_out","","html-keyboard-response","55","64611","0.0-1.0-71.0-0.0","0","0","46404","","null","","","null","7","","","","","","","","","","","","","","","",""
"","ITI","","html-keyboard-response","56","65618","0.0-1.0-72.0","0","0","46404","","null","","","null","7","","","","","","","","","","","","","","","NaN",""
"","S1","","html-keyboard-response","57","65871","0.0-1.0-74.0","0","0","46404","","null","","","null","8","","","","","","","","","","","","","","","",""
"","ISI","","html-keyboard-response","58","66374","0.0-1.0-75.0","0","0","46404","","null","","","null","8","NaN","","","","","","","","","","","","","","",""
"","S2","","html-keyboard-response","59","66628","0.0-1.0-76.0","0","0","46404","","null","","","null","8","","NaN","","","","","","","","","","","","","",""
"","response","","html-keyboard-response","60","66860","0.0-1.0-77.0-0.0","0","0","46404","","227","","","75","8","","","1","8","training","adjacent","DC","4","3","O.jpg","M.jpg","0","0","1","",""
"","feedback","","html-keyboard-response","61","67866","0.0-1.0-78.0-0.0","0","0","46404","","null","","","null","8","","","","","","","","","","","","","","","",""
"","ITI","","html-keyboard-response","62","68869","0.0-1.0-81.0","0","0","46404","","null","","","null","8","","","","","","","","","","","","","","","NaN",""
"","S1","","html-keyboard-response","63","69123","0.0-1.0-83.0","0","0","46404","","null","","","null","9","","","","","","","","","","","","","","","",""
"","ISI","","html-keyboard-response","64","69628","0.0-1.0-84.0","0","0","46404","","null","","","null","9","NaN","","","","","","","","","","","","","","",""
"","S2","","html-keyboard-response","65","69881","0.0-1.0-85.0","0","0","46404","","null","","","null","9","","NaN","","","","","","","","","","","","","",""
"","response","","html-keyboard-response","66","70451","0.0-1.0-86.0-0.0","0","0","46404","","565","","","68","9","","","1","9","training","adjacent","DE","4","5","O.jpg","R.jpg","1","1","1","",""
"","feedback","","html-keyboard-response","67","71455","0.0-1.0-87.0-0.0","0","0","46404","","null","","","null","9","","","","","","","","","","","","","","","",""
"","ITI","","html-keyboard-response","68","72461","0.0-1.0-90.0","0","0","46404","","null","","","null","9","","","","","","","","","","","","","","","NaN",""
"","S1","","html-keyboard-response","69","72717","0.0-1.0-92.0","0","0","46404","","null","","","null","10","","","","","","","","","","","","","","","",""
"","ISI","","html-keyboard-response","70","73221","0.0-1.0-93.0","0","0","46404","","null","","","null","10","NaN","","","","","","","","","","","","","","",""
"","S2","","html-keyboard-response","71","73477","0.0-1.0-94.0","0","0","46404","","null","","","null","10","","NaN","","","","","","","","","","","","","",""
"","response","","html-keyboard-response","72","73716","0.0-1.0-95.0-0.0","0","0","46404","","234","","","68","10","","","1","10","training","adjacent","DE","4","5","O.jpg","R.jpg","1","1","1","",""
"","feedback","","html-keyboard-response","73","74723","0.0-1.0-96.0-0.0","0","0","46404","","null","","","null","10","","","","","","","","","","","","","","","",""
"","ITI","","html-keyboard-response","74","75729","0.0-1.0-99.0","0","0","46404","","null","","","null","10","","","","","","","","","","","","","","","NaN",""
"","S1","","html-keyboard-response","75","75983","0.0-1.0-101.0","0","0","46404","","null","","","null","11","","","","","","","","","","","","","","","",""
"","ISI","","html-keyboard-response","76","76487","0.0-1.0-102.0","0","0","46404","","null","","","null","11","NaN","","","","","","","","","","","","","","",""
"","S2","","html-keyboard-response","77","76742","0.0-1.0-103.0","0","0","46404","","null","","","null","11","","NaN","","","","","","","","","","","","","",""
"","response","","html-keyboard-response","78","76936","0.0-1.0-104.0-0.0","0","0","46404","","190","","","75","11","","","1","11","training","adjacent","CB","3","2","M.jpg","Q.jpg","0","0","1","",""
"","feedback","","html-keyboard-response","79","77947","0.0-1.0-105.0-0.0","0","0","46404","","null","","","null","11","","","","","","","","","","","","","","","",""
"","ITI","","html-keyboard-response","80","78952","0.0-1.0-108.0","0","0","46404","","null","","","null","11","","","","","","","","","","","","","","","NaN",""
"","S1","","html-keyboard-response","81","79207","0.0-1.0-110.0","0","0","46404","","null","","","null","12","","","","","","","","","","","","","","","",""
"","ISI","","html-keyboard-response","82","79711","0.0-1.0-111.0","0","0","46404","","null","","","null","12","NaN","","","","","","","","","","","","","","",""
"","S2","","html-keyboard-response","83","79965","0.0-1.0-112.0","0","0","46404","","null","","","null","12","","NaN","","","","","","","","","","","","","",""
"","response","","html-keyboard-response","84","80125","0.0-1.0-113.0-0.0","0","0","46404","","156","","","68","12","","","1","12","training","adjacent","CD","3","4","M.jpg","O.jpg","1","1","1","",""
"","feedback","","html-keyboard-response","85","81129","0.0-1.0-114.0-0.0","0","0","46404","","null","","","null","12","","","","","","","","","","","","","","","",""
"","ITI","","html-keyboard-response","86","82134","0.0-1.0-117.0","0","0","46404","","null","","","null","12","","","","","","","","","","","","","","","NaN",""
"","S1","","html-keyboard-response","87","82388","0.0-1.0-119.0","0","0","46404","","null","","","null","13","","","","","","","","","","","","","","","",""
"","ISI","","html-keyboard-response","88","82892","0.0-1.0-120.0","0","0","46404","","null","","","null","13","NaN","","","","","","","","","","","","","","",""
"","S2","","html-keyboard-response","89","83148","0.0-1.0-121.0","0","0","46404","","null","","","null","13","","NaN","","","","","","","","","","","","","",""
"","response","","html-keyboard-response","90","83480","0.0-1.0-122.0-0.0","0","0","46404","","327","","","68","13","","","1","13","training","adjacent","DC","4","3","O.jpg","M.jpg","1","0","0","",""
"","feedback","","html-keyboard-response","91","84495","0.0-1.0-123.0-0.0","0","0","46404","","null","","","null","13","","","","","","","","","","","","","","","",""
"","time_out","","html-keyboard-response","92","86499","0.0-1.0-125.0-0.0","0","0","46404","","null","","","null","13","","","","","","","","","","","","","","","",""
"","ITI","","html-keyboard-response","93","87504","0.0-1.0-126.0","0","0","46404","","null","","","null","13","","","","","","","","","","","","","","","NaN",""
"","S1","","html-keyboard-response","94","87758","0.0-1.0-128.0","0","0","46404","","null","","","null","14","","","","","","","","","","","","","","","",""
"","ISI","","html-keyboard-response","95","88292","0.0-1.0-129.0","0","0","46404","","null","","","null","14","NaN","","","","","","","","","","","","","","",""
"","S2","","html-keyboard-response","96","88546","0.0-1.0-130.0","0","0","46404","","null","","","null","14","","NaN","","","","","","","","","","","","","",""
"","response","","html-keyboard-response","97","88802","0.0-1.0-131.0-0.0","0","0","46404","","250","","","75","14","","","1","14","training","adjacent","BA","2","1","Q.jpg","N.jpg","0","0","1","",""
"","feedback","","html-keyboard-response","98","89808","0.0-1.0-132.0-0.0","0","0","46404","","null","","","null","14","","","","","","","","","","","","","","","",""
"","ITI","","html-keyboard-response","99","90814","0.0-1.0-135.0","0","0","46404","","null","","","null","14","","","","","","","","","","","","","","","NaN",""
"","S1","","html-keyboard-response","100","91070","0.0-1.0-137.0","0","0","46404","","null","","","null","15","","","","","","","","","","","","","","","",""
"","ISI","","html-keyboard-response","101","91574","0.0-1.0-138.0","0","0","46404","","null","","","null","15","NaN","","","","","","","","","","","","","","",""
"","S2","","html-keyboard-response","102","91833","0.0-1.0-139.0","0","0","46404","","null","","","null","15","","NaN","","","","","","","","","","","","","",""
"","response","","html-keyboard-response","103","91980","0.0-1.0-140.0-0.0","0","0","46404","","143","","","75","15","","","1","15","training","adjacent","CD","3","4","M.jpg","O.jpg","0","1","0","",""
"","feedback","","html-keyboard-response","104","92986","0.0-1.0-141.0-0.0","0","0","46404","","null","","","null","15","","","","","","","","","","","","","","","",""
"","time_out","","html-keyboard-response","105","94991","0.0-1.0-143.0-0.0","0","0","46404","","null","","","null","15","","","","","","","","","","","","","","","",""
"","ITI","","html-keyboard-response","106","95997","0.0-1.0-144.0","0","0","46404","","null","","","null","15","","","","","","","","","","","","","","","NaN",""
"","S1","","html-keyboard-response","107","96256","0.0-1.0-146.0","0","0","46404","","null","","","null","16","","","","","","","","","","","","","","","",""
"","ISI","","html-keyboard-response","108","96760","0.0-1.0-147.0","0","0","46404","","null","","","null","16","NaN","","","","","","","","","","","","","","",""
"","S2","","html-keyboard-response","109","97017","0.0-1.0-148.0","0","0","46404","","null","","","null","16","","NaN","","","","","","","","","","","","","",""
"","response","","html-keyboard-response","110","97639","0.0-1.0-149.0-0.0","0","0","46404","","618","","","68","16","","","1","16","training","adjacent","BA","2","1","Q.jpg","N.jpg","1","0","0","",""
"","feedback","","html-keyboard-response","111","98643","0.0-1.0-150.0-0.0","0","0","46404","","null","","","null","16","","","","","","","","","","","","","","","",""
"","time_out","","html-keyboard-response","112","100647","0.0-1.0-152.0-0.0","0","0","46404","","null","","","null","16","","","","","","","","","","","","","","","",""
"","ITI","","html-keyboard-response","113","101651","0.0-1.0-153.0","0","0","46404","","null","","","null","16","","","","","","","","","","","","","","","NaN",""
"","S1","","html-keyboard-response","114","101905","0.0-1.0-155.0","0","0","46404","","null","","","null","17","","","","","","","","","","","","","","","",""
"","ISI","","html-keyboard-response","115","102409","0.0-1.0-156.0","0","0","46404","","null","","","null","17","NaN","","","","","","","","","","","","","","",""
"","S2","","html-keyboard-response","116","102664","0.0-1.0-157.0","0","0","46404","","null","","","null","17","","NaN","","","","","","","","","","","","","",""
"","response","","html-keyboard-response","117","103239","0.0-1.0-158.0-0.0","0","0","46404","","569","","","68","17","","","1","17","training","adjacent","DC","4","3","O.jpg","M.jpg","1","0","0","",""
"","feedback","","html-keyboard-response","118","104244","0.0-1.0-159.0-0.0","0","0","46404","","null","","","null","17","","","","","","","","","","","","","","","",""
"","time_out","","html-keyboard-response","119","106255","0.0-1.0-161.0-0.0","0","0","46404","","null","","","null","17","","","","","","","","","","","","","","","",""
"","ITI","","html-keyboard-response","120","107261","0.0-1.0-162.0","0","0","46404","","null","","","null","17","","","","","","","","","","","","","","","NaN",""
"","S1","","html-keyboard-response","121","107514","0.0-1.0-164.0","0","0","46404","","null","","","null","18","","","","","","","","","","","","","","","",""
"","ISI","","html-keyboard-response","122","108018","0.0-1.0-165.0","0","0","46404","","261","","","68","18","d","","","","","","","","","","","","","","",""
"","S2","","html-keyboard-response","123","108286","0.0-1.0-166.0","0","0","46404","","null","","","null","18","","NaN","","","","","","","","","","","","","",""
"","response","","html-keyboard-response","124","108650","0.0-1.0-167.0-0.0","0","0","46404","","361","","","68","18","","","1","18","training","adjacent","FE","6","5","P.jpg","R.jpg","1","0","0","",""
"","feedback","","html-keyboard-response","125","109654","0.0-1.0-168.0-0.0","0","0","46404","","null","","","null","18","","","","","","","","","","","","","","","",""
"","time_out","","html-keyboard-response","126","111661","0.0-1.0-170.0-0.0","0","0","46404","","null","","","null","18","","","","","","","","","","","","","","","",""
"","ITI","","html-keyboard-response","127","112665","0.0-1.0-171.0","0","0","46404","","null","","","null","18","","","","","","","","","","","","","","","NaN",""
"","S1","","html-keyboard-response","128","112921","0.0-1.0-173.0","0","0","46404","","null","","","null","19","","","","","","","","","","","","","","","",""
"","ISI","","html-keyboard-response","129","113426","0.0-1.0-174.0","0","0","46404","","null","","","null","19","NaN","","","","","","","","","","","","","","",""
"","S2","","html-keyboard-response","130","113680","0.0-1.0-175.0","0","0","46404","","null","","","null","19","","NaN","","","","","","","","","","","","","",""
"","response","","html-keyboard-response","131","114542","0.0-1.0-176.0-0.0","0","0","46404","","857","","","68","19","","","1","19","training","adjacent","FG","6","7","P.jpg","L.jpg","1","1","1","",""
"","feedback","","html-keyboard-response","132","115546","0.0-1.0-177.0-0.0","0","0","46404","","null","","","null","19","","","","","","","","","","","","","","","",""
"","ITI","","html-keyboard-response","133","116549","0.0-1.0-180.0","0","0","46404","","null","","","null","19","","","","","","","","","","","","","","","NaN",""
"","S1","","html-keyboard-response","134","116802","0.0-1.0-182.0","0","0","46404","","null","","","null","20","","","","","","","","","","","","","","","",""
"","ISI","","html-keyboard-response","135","117306","0.0-1.0-183.0","0","0","46404","","null","","","null","20","NaN","","","","","","","","","","","","","","",""
"","S2","","html-keyboard-response","136","117560","0.0-1.0-184.0","0","0","46404","","null","","","null","20","","NaN","","","","","","","","","","","","","",""
"","response","","html-keyboard-response","137","119315","0.0-1.0-185.0-0.0","0","0","46404","","null","","","null","20","","","1","20","training","adjacent","BA","2","1","Q.jpg","N.jpg","NaN","0","0","",""
"","too_slow_prompt","","html-keyboard-response","138","120321","0.0-1.0-187.0-0.0","1","0","46404","","null","","","null","","","","","","","","","","","","","","","","",""
"","time_out","","html-keyboard-response","139","122327","0.0-1.0-188.0-0.0","0","0","46404","","null","","","null","20","","","","","","","","","","","","","","","",""
"","ITI","","html-keyboard-response","140","123331","0.0-1.0-189.0","0","0","46404","","null","","","null","20","","","","","","","","","","","","","","","NaN",""
"","S1","","html-keyboard-response","141","123585","0.0-1.0-191.0","0","0","46404","","null","","","null","21","","","","","","","","","","","","","","","",""
"","ISI","","html-keyboard-response","142","124089","0.0-1.0-192.0","0","0","46404","","null","","","null","21","NaN","","","","","","","","","","","","","","",""
"","S2","","html-keyboard-response","143","124345","0.0-1.0-193.0","0","0","46404","","null","","","null","21","","NaN","","","","","","","","","","","","","",""
"","response","","html-keyboard-response","144","124551","0.0-1.0-194.0-0.0","0","0","46404","","200","","","75","21","","","1","21","training","adjacent","FG","6","7","P.jpg","L.jpg","0","1","0","",""
"","feedback","","html-keyboard-response","145","125558","0.0-1.0-195.0-0.0","0","0","46404","","null","","","null","21","","","","","","","","","","","","","","","",""
"","time_out","","html-keyboard-response","146","127562","0.0-1.0-197.0-0.0","0","0","46404","","null","","","null","21","","","","","","","","","","","","","","","",""
"","ITI","","html-keyboard-response","147","128567","0.0-1.0-198.0","0","0","46404","","null","","","null","21","","","","","","","","","","","","","","","NaN",""
"","S1","","html-keyboard-response","148","128823","0.0-1.0-200.0","0","0","46404","","null","","","null","22","","","","","","","","","","","","","","","",""
"","ISI","","html-keyboard-response","149","129328","0.0-1.0-201.0","0","0","46404","","null","","","null","22","NaN","","","","","","","","","","","","","","",""
"","S2","","html-keyboard-response","150","129586","0.0-1.0-202.0","0","0","46404","","null","","","null","22","","NaN","","","","","","","","","","","","","",""
"","response","","html-keyboard-response","151","130327","0.0-1.0-203.0-0.0","0","0","46404","","735","","","75","22","","","1","22","training","adjacent","BC","2","3","Q.jpg","M.jpg","0","1","0","",""
"","feedback","","html-keyboard-response","152","131331","0.0-1.0-204.0-0.0","0","0","46404","","null","","","null","22","","","","","","","","","","","","","","","",""
"","time_out","","html-keyboard-response","153","133335","0.0-1.0-206.0-0.0","0","0","46404","","null","","","null","22","","","","","","","","","","","","","","","",""
"","ITI","","html-keyboard-response","154","134360","0.0-1.0-207.0","0","0","46404","","null","","","null","22","","","","","","","","","","","","","","","NaN",""
"","S1","","html-keyboard-response","155","134613","0.0-1.0-209.0","0","0","46404","","null","","","null","23","","","","","","","","","","","","","","","",""
"","ISI","","html-keyboard-response","156","135115","0.0-1.0-210.0","0","0","46404","","null","","","null","23","NaN","","","","","","","","","","","","","","",""
"","S2","","html-keyboard-response","157","135369","0.0-1.0-211.0","0","0","46404","","null","","","null","23","","NaN","","","","","","","","","","","","","",""
"","response","","html-keyboard-response","158","135798","0.0-1.0-212.0-0.0","0","0","46404","","426","","","75","23","","","1","23","training","adjacent","GF","7","6","L.jpg","P.jpg","0","0","1","",""
"","feedback","","html-keyboard-response","159","136803","0.0-1.0-213.0-0.0","0","0","46404","","null","","","null","23","","","","","","","","","","","","","","","",""
"","ITI","","html-keyboard-response","160","137808","0.0-1.0-216.0","0","0","46404","","null","","","null","23","","","","","","","","","","","","","","","NaN",""
"","S1","","html-keyboard-response","161","138061","0.0-1.0-218.0","0","0","46404","","null","","","null","24","","","","","","","","","","","","","","","",""
"","ISI","","html-keyboard-response","162","138566","0.0-1.0-219.0","0","0","46404","","null","","","null","24","NaN","","","","","","","","","","","","","","",""
"","S2","","html-keyboard-response","163","138839","0.0-1.0-220.0","0","0","46404","","null","","","null","24","","NaN","","","","","","","","","","","","","",""
"","response","","html-keyboard-response","164","139609","0.0-1.0-221.0-0.0","0","0","46404","","766","","","75","24","","","1","24","training","adjacent","AB","1","2","N.jpg","Q.jpg","0","1","0","",""
"","feedback","","html-keyboard-response","165","140614","0.0-1.0-222.0-0.0","0","0","46404","","null","","","null","24","","","","","","","","","","","","","","","",""
"","time_out","","html-keyboard-response","166","142618","0.0-1.0-224.0-0.0","0","0","46404","","null","","","null","24","","","","","","","","","","","","","","","",""
"","ITI","","html-keyboard-response","167","143624","0.0-1.0-225.0","0","0","46404","","null","","","null","24","","","","","","","","","","","","","","","NaN",""
"","S1","","html-keyboard-response","168","143879","0.0-1.0-227.0","0","0","46404","","null","","","null","25","","","","","","","","","","","","","","","",""
"","ISI","","html-keyboard-response","169","144381","0.0-1.0-228.0","0","0","46404","","null","","","null","25","NaN","","","","","","","","","","","","","","",""
"","S2","","html-keyboard-response","170","144635","0.0-1.0-229.0","0","0","46404","","null","","","null","25","","NaN","","","","","","","","","","","","","",""
"","response","","html-keyboard-response","171","145357","0.0-1.0-230.0-0.0","0","0","46404","","717","","","75","25","","","1","25","training","adjacent","ED","5","4","R.jpg","O.jpg","0","0","1","",""
"","feedback","","html-keyboard-response","172","146371","0.0-1.0-231.0-0.0","0","0","46404","","null","","","null","25","","","","","","","","","","","","","","","",""
"","ITI","","html-keyboard-response","173","147377","0.0-1.0-234.0","0","0","46404","","null","","","null","25","","","","","","","","","","","","","","","NaN",""
"","S1","","html-keyboard-response","174","147633","0.0-1.0-236.0","0","0","46404","","null","","","null","26","","","","","","","","","","","","","","","",""
"","ISI","","html-keyboard-response","175","148136","0.0-1.0-237.0","0","0","46404","","null","","","null","26","NaN","","","","","","","","","","","","","","",""
"","S2","","html-keyboard-response","176","148391","0.0-1.0-238.0","0","0","46404","","null","","","null","26","","NaN","","","","","","","","","","","","","",""
"","response","","html-keyboard-response","177","150146","0.0-1.0-239.0-0.0","0","0","46404","","null","","","null","26","","","1","26","training","adjacent","AB","1","2","N.jpg","Q.jpg","NaN","1","0","",""
"","too_slow_prompt","","html-keyboard-response","178","151154","0.0-1.0-241.0-0.0","1","0","46404","","null","","","null","","","","","","","","","","","","","","","","",""
"","time_out","","html-keyboard-response","179","153159","0.0-1.0-242.0-0.0","0","0","46404","","null","","","null","26","","","","","","","","","","","","","","","",""
"","ITI","","html-keyboard-response","180","154163","0.0-1.0-243.0","0","0","46404","","null","","","null","26","","","","","","","","","","","","","","","NaN",""
"","S1","","html-keyboard-response","181","154419","0.0-1.0-245.0","0","0","46404","","null","","","null","27","","","","","","","","","","","","","","","",""
"","ISI","","html-keyboard-response","182","154927","0.0-1.0-246.0","0","0","46404","","449","","","75","27","k","","","","","","","","","","","","","","",""
"","S2","","html-keyboard-response","183","155182","0.0-1.0-247.0","0","0","46404","","null","","","null","27","","NaN","","","","","","","","","","","","","",""
"","response","","html-keyboard-response","184","156068","0.0-1.0-248.0-0.0","0","0","46404","","880","","","75","27","","","1","27","training","adjacent","EF","5","6","R.jpg","P.jpg","0","1","0","",""
"","feedback","","html-keyboard-response","185","157074","0.0-1.0-249.0-0.0","0","0","46404","","null","","","null","27","","","","","","","","","","","","","","","",""
"","time_out","","html-keyboard-response","186","159079","0.0-1.0-251.0-0.0","0","0","46404","","null","","","null","27","","","","","","","","","","","","","","","",""
"","ITI","","html-keyboard-response","187","160083","0.0-1.0-252.0","0","0","46404","","null","","","null","27","","","","","","","","","","","","","","","NaN",""
"","S1","","html-keyboard-response","188","160338","0.0-1.0-254.0","0","0","46404","","null","","","null","28","","","","","","","","","","","","","","","",""
"","ISI","","html-keyboard-response","189","160841","0.0-1.0-255.0","0","0","46404","","null","","","null","28","NaN","","","","","","","","","","","","","","",""
"","S2","","html-keyboard-response","190","161096","0.0-1.0-256.0","0","0","46404","","null","","","null","28","","NaN","","","","","","","","","","","","","",""
"","response","","html-keyboard-response","191","162853","0.0-1.0-257.0-0.0","0","0","46404","","null","","","null","28","","","1","28","training","adjacent","GF","7","6","L.jpg","P.jpg","NaN","0","0","",""
"","too_slow_prompt","","html-keyboard-response","192","163859","0.0-1.0-259.0-0.0","1","0","46404","","null","","","null","","","","","","","","","","","","","","","","",""
"","time_out","","html-keyboard-response","193","165865","0.0-1.0-260.0-0.0","0","0","46404","","null","","","null","28","","","","","","","","","","","","","","","",""
"","ITI","","html-keyboard-response","194","166872","0.0-1.0-261.0","0","0","46404","","null","","","null","28","","","","","","","","","","","","","","","NaN",""
"","S1","","html-keyboard-response","195","167128","0.0-1.0-263.0","0","0","46404","","null","","","null","29","","","","","","","","","","","","","","","",""
"","ISI","","html-keyboard-response","196","167632","0.0-1.0-264.0","0","0","46404","","null","","","null","29","NaN","","","","","","","","","","","","","","",""
"","S2","","html-keyboard-response","197","167646","0.0-1.0-265.0","0","0","46404","","10","","","68","29","","d","1","29","training","adjacent","FG","6","7","P.jpg","L.jpg","1","1","1","",""
"","feedback","","html-keyboard-response","198","168654","0.0-1.0-267.0-0.0","0","0","46404","","null","","","null","29","","","","","","","","","","","","","","","",""
"","ITI","","html-keyboard-response","199","169658","0.0-1.0-270.0","0","0","46404","","null","","","null","29","","","","","","","","","","","","","","","NaN",""
"","S1","","html-keyboard-response","200","169913","0.0-1.0-272.0","0","0","46404","","null","","","null","30","","","","","","","","","","","","","","","",""
"","ISI","","html-keyboard-response","201","170416","0.0-1.0-273.0","0","0","46404","","null","","","null","30","NaN","","","","","","","","","","","","","","",""
"","S2","","html-keyboard-response","202","170670","0.0-1.0-274.0","0","0","46404","","null","","","null","30","","NaN","","","","","","","","","","","","","",""
"","response","","html-keyboard-response","203","172097","0.0-1.0-275.0-0.0","0","0","46404","","1424","","","68","30","","","1","30","training","adjacent","AB","1","2","N.jpg","Q.jpg","1","1","1","",""
"","feedback","","html-keyboard-response","204","173101","0.0-1.0-276.0-0.0","0","0","46404","","null","","","null","30","","","","","","","","","","","","","","","",""
"","ITI","","html-keyboard-response","205","174108","0.0-1.0-279.0","0","0","46404","","null","","","null","30","","","","","","","","","","","","","","","NaN",""
"","S1","","html-keyboard-response","206","174362","0.0-1.0-281.0","0","0","46404","","null","","","null","31","","","","","","","","","","","","","","","",""
"","ISI","","html-keyboard-response","207","174864","0.0-1.0-282.0","0","0","46404","","null","","","null","31","NaN","","","","","","","","","","","","","","",""
"","S2","","html-keyboard-response","208","175119","0.0-1.0-283.0","0","0","46404","","null","","","null","31","","NaN","","","","","","","","","","","","","",""
"","response","","html-keyboard-response","209","176874","0.0-1.0-284.0-0.0","0","0","46404","","null","","","null","31","","","1","31","training","adjacent","GF","7","6","L.jpg","P.jpg","NaN","0","0","",""
"","too_slow_prompt","","html-keyboard-response","210","177879","0.0-1.0-286.0-0.0","1","0","46404","","null","","","null","","","","","","","","","","","","","","","","",""
"","time_out","","html-keyboard-response","211","179883","0.0-1.0-287.0-0.0","0","0","46404","","null","","","null","31","","","","","","","","","","","","","","","",""
"","ITI","","html-keyboard-response","212","180887","0.0-1.0-288.0","0","0","46404","","260","","","68","31","","","","","","","","","","","","","","","d",""
"","S1","","html-keyboard-response","213","181143","0.0-1.0-290.0","0","0","46404","","null","","","null","32","","","","","","","","","","","","","","","",""
"","ISI","","html-keyboard-response","214","181649","0.0-1.0-291.0","0","0","46404","","null","","","null","32","NaN","","","","","","","","","","","","","","",""
"","S2","","html-keyboard-response","215","181902","0.0-1.0-292.0","0","0","46404","","null","","","null","32","","NaN","","","","","","","","","","","","","",""
"","response","","html-keyboard-response","216","182341","0.0-1.0-293.0-0.0","0","0","46404","","434","","","68","32","","","1","32","training","adjacent","CD","3","4","M.jpg","O.jpg","1","1","1","",""
"","feedback","","html-keyboard-response","217","183347","0.0-1.0-294.0-0.0","0","0","46404","","null","","","null","32","","","","","","","","","","","","","","","",""
"","ITI","","html-keyboard-response","218","184350","0.0-1.0-297.0","0","0","46404","","null","","","null","32","","","","","","","","","","","","","","","NaN",""
"","S1","","html-keyboard-response","219","184603","0.0-1.0-299.0","0","0","46404","","null","","","null","33","","","","","","","","","","","","","","","",""
"","ISI","","html-keyboard-response","220","185106","0.0-1.0-300.0","0","0","46404","","null","","","null","33","NaN","","","","","","","","","","","","","","",""
"","S2","","html-keyboard-response","221","185361","0.0-1.0-301.0","0","0","46404","","null","","","null","33","","NaN","","","","","","","","","","","","","",""
"","response","","html-keyboard-response","222","187079","0.0-1.0-302.0-0.0","0","0","46404","","1715","","","68","33","","","1","33","training","adjacent","FE","6","5","P.jpg","R.jpg","1","0","0","",""
"","feedback","","html-keyboard-response","223","188083","0.0-1.0-303.0-0.0","0","0","46404","","null","","","null","33","","","","","","","","","","","","","","","",""
"","time_out","","html-keyboard-response","224","190089","0.0-1.0-305.0-0.0","0","0","46404","","null","","","null","33","","","","","","","","","","","","","","","",""
"","ITI","","html-keyboard-response","225","191094","0.0-1.0-306.0","0","0","46404","","null","","","null","33","","","","","","","","","","","","","","","NaN",""
"","S1","","html-keyboard-response","226","191348","0.0-1.0-308.0","0","0","46404","","null","","","null","34","","","","","","","","","","","","","","","",""
"","ISI","","html-keyboard-response","227","191852","0.0-1.0-309.0","0","0","46404","","null","","","null","34","NaN","","","","","","","","","","","","","","",""
"","S2","","html-keyboard-response","228","192106","0.0-1.0-310.0","0","0","46404","","null","","","null","34","","NaN","","","","","","","","","","","","","",""
"","response","","html-keyboard-response","229","192915","0.0-1.0-311.0-0.0","0","0","46404","","804","","","68","34","","","1","34","training","adjacent","CD","3","4","M.jpg","O.jpg","1","1","1","",""
"","feedback","","html-keyboard-response","230","193920","0.0-1.0-312.0-0.0","0","0","46404","","null","","","null","34","","","","","","","","","","","","","","","",""
"","ITI","","html-keyboard-response","231","194924","0.0-1.0-315.0","0","0","46404","","null","","","null","34","","","","","","","","","","","","","","","NaN",""
"","S1","","html-keyboard-response","232","195178","0.0-1.0-317.0","0","0","46404","","null","","","null","35","","","","","","","","","","","","","","","",""
"","ISI","","html-keyboard-response","233","195685","0.0-1.0-318.0","0","0","46404","","null","","","null","35","NaN","","","","","","","","","","","","","","",""
"","S2","","html-keyboard-response","234","195941","0.0-1.0-319.0","0","0","46404","","null","","","null","35","","NaN","","","","","","","","","","","","","",""
"","response","","html-keyboard-response","235","196285","0.0-1.0-320.0-0.0","0","0","46404","","341","","","75","35","","","1","35","training","adjacent","ED","5","4","R.jpg","O.jpg","0","0","1","",""
"","feedback","","html-keyboard-response","236","197289","0.0-1.0-321.0-0.0","0","0","46404","","null","","","null","35","","","","","","","","","","","","","","","",""
"","ITI","","html-keyboard-response","237","198294","0.0-1.0-324.0","0","0","46404","","null","","","null","35","","","","","","","","","","","","","","","NaN",""
"","S1","","html-keyboard-response","238","198551","0.0-1.0-326.0","0","0","46404","","null","","","null","36","","","","","","","","","","","","","","","",""
"","ISI","","html-keyboard-response","239","199054","0.0-1.0-327.0","0","0","46404","","null","","","null","36","NaN","","","","","","","","","","","","","","",""
"","S2","","html-keyboard-response","240","199311","0.0-1.0-328.0","0","0","46404","","null","","","null","36","","NaN","","","","","","","","","","","","","",""
"","response","","html-keyboard-response","241","200045","0.0-1.0-329.0-0.0","0","0","46404","","729","","","75","36","","","1","36","training","adjacent","CB","3","2","M.jpg","Q.jpg","0","0","1","",""
"","feedback","","html-keyboard-response","242","201050","0.0-1.0-330.0-0.0","0","0","46404","","null","","","null","36","","","","","","","","","","","","","","","",""
"","ITI","","html-keyboard-response","243","202055","0.0-1.0-333.0","0","0","46404","","null","","","null","36","","","","","","","","","","","","","","","NaN",""
"","S1","","html-keyboard-response","244","202310","0.0-1.0-335.0","0","0","46404","","null","","","null","37","","","","","","","","","","","","","","","",""
"","ISI","","html-keyboard-response","245","202814","0.0-1.0-336.0","0","0","46404","","null","","","null","37","NaN","","","","","","","","","","","","","","",""
"","S2","","html-keyboard-response","246","203071","0.0-1.0-337.0","0","0","46404","","null","","","null","37","","NaN","","","","","","","","","","","","","",""
"","response","","html-keyboard-response","247","203870","0.0-1.0-338.0-0.0","0","0","46404","","794","","","68","37","","","1","37","training","adjacent","FE","6","5","P.jpg","R.jpg","1","0","0","",""
"","feedback","","html-keyboard-response","248","204876","0.0-1.0-339.0-0.0","0","0","46404","","null","","","null","37","","","","","","","","","","","","","","","",""
"","time_out","","html-keyboard-response","249","206883","0.0-1.0-341.0-0.0","0","0","46404","","null","","","null","37","","","","","","","","","","","","","","","",""
"","ITI","","html-keyboard-response","250","207892","0.0-1.0-342.0","0","0","46404","","null","","","null","37","","","","","","","","","","","","","","","NaN",""
"","S1","","html-keyboard-response","251","208146","0.0-1.0-344.0","0","0","46404","","null","","","null","38","","","","","","","","","","","","","","","",""
"","ISI","","html-keyboard-response","252","208649","0.0-1.0-345.0","0","0","46404","","null","","","null","38","NaN","","","","","","","","","","","","","","",""
"","S2","","html-keyboard-response","253","208904","0.0-1.0-346.0","0","0","46404","","null","","","null","38","","NaN","","","","","","","","","","","","","",""
"","response","","html-keyboard-response","254","209219","0.0-1.0-347.0-0.0","0","0","46404","","310","","","68","38","","","1","38","training","adjacent","EF","5","6","R.jpg","P.jpg","1","1","1","",""
"","feedback","","html-keyboard-response","255","210227","0.0-1.0-348.0-0.0","0","0","46404","","null","","","null","38","","","","","","","","","","","","","","","",""
"","ITI","","html-keyboard-response","256","211232","0.0-1.0-351.0","0","0","46404","","null","","","null","38","","","","","","","","","","","","","","","NaN",""
"","S1","","html-keyboard-response","257","211487","0.0-1.0-353.0","0","0","46404","","null","","","null","39","","","","","","","","","","","","","","","",""
"","ISI","","html-keyboard-response","258","211990","0.0-1.0-354.0","0","0","46404","","null","","","null","39","NaN","","","","","","","","","","","","","","",""
"","S2","","html-keyboard-response","259","212314","0.0-1.0-355.0","0","0","46404","","null","","","null","39","","NaN","","","","","","","","","","","","","",""
"","response","","html-keyboard-response","260","212695","0.0-1.0-356.0-0.0","0","0","46404","","377","","","75","39","","","1","39","training","adjacent","AB","1","2","N.jpg","Q.jpg","0","1","0","",""
"","feedback","","html-keyboard-response","261","213700","0.0-1.0-357.0-0.0","0","0","46404","","null","","","null","39","","","","","","","","","","","","","","","",""
"","time_out","","html-keyboard-response","262","215705","0.0-1.0-359.0-0.0","0","0","46404","","null","","","null","39","","","","","","","","","","","","","","","",""
"","ITI","","html-keyboard-response","263","216710","0.0-1.0-360.0","0","0","46404","","null","","","null","39","","","","","","","","","","","","","","","NaN",""
"","S1","","html-keyboard-response","264","216964","0.0-1.0-362.0","0","0","46404","","null","","","null","40","","","","","","","","","","","","","","","",""
"","ISI","","html-keyboard-response","265","217467","0.0-1.0-363.0","0","0","46404","","null","","","null","40","NaN","","","","","","","","","","","","","","",""
"","S2","","html-keyboard-response","266","217722","0.0-1.0-364.0","0","0","46404","","null","","","null","40","","NaN","","","","","","","","","","","","","",""
"","response","","html-keyboard-response","267","218126","0.0-1.0-365.0-0.0","0","0","46404","","399","","","68","40","","","1","40","training","adjacent","FE","6","5","P.jpg","R.jpg","1","0","0","",""
"","feedback","","html-keyboard-response","268","219132","0.0-1.0-366.0-0.0","0","0","46404","","null","","","null","40","","","","","","","","","","","","","","","",""
"","time_out","","html-keyboard-response","269","221137","0.0-1.0-368.0-0.0","0","0","46404","","null","","","null","40","","","","","","","","","","","","","","","",""
"","ITI","","html-keyboard-response","270","222141","0.0-1.0-369.0","0","0","46404","","null","","","null","40","","","","","","","","","","","","","","","NaN",""
"","S1","","html-keyboard-response","271","222396","0.0-1.0-371.0","0","0","46404","","null","","","null","41","","","","","","","","","","","","","","","",""
"","ISI","","html-keyboard-response","272","222900","0.0-1.0-372.0","0","0","46404","","null","","","null","41","NaN","","","","","","","","","","","","","","",""
"","S2","","html-keyboard-response","273","223156","0.0-1.0-373.0","0","0","46404","","null","","","null","41","","NaN","","","","","","","","","","","","","",""
"","response","","html-keyboard-response","274","223415","0.0-1.0-374.0-0.0","0","0","46404","","255","","","68","41","","","1","41","training","adjacent","DE","4","5","O.jpg","R.jpg","1","1","1","",""
"","feedback","","html-keyboard-response","275","224422","0.0-1.0-375.0-0.0","0","0","46404","","null","","","null","41","","","","","","","","","","","","","","","",""
"","ITI","","html-keyboard-response","276","225429","0.0-1.0-378.0","0","0","46404","","null","","","null","41","","","","","","","","","","","","","","","NaN",""
"","S1","","html-keyboard-response","277","225684","0.0-1.0-380.0","0","0","46404","","null","","","null","42","","","","","","","","","","","","","","","",""
"","ISI","","html-keyboard-response","278","226187","0.0-1.0-381.0","0","0","46404","","null","","","null","42","NaN","","","","","","","","","","","","","","",""
"","S2","","html-keyboard-response","279","226447","0.0-1.0-382.0","0","0","46404","","null","","","null","42","","NaN","","","","","","","","","","","","","",""
"","response","","html-keyboard-response","280","228203","0.0-1.0-383.0-0.0","0","0","46404","","null","","","null","42","","","1","42","training","adjacent","EF","5","6","R.jpg","P.jpg","NaN","1","0","",""
"","too_slow_prompt","","html-keyboard-response","281","229218","0.0-1.0-385.0-0.0","1","0","46404","","null","","","null","","","","","","","","","","","","","","","","",""
"","time_out","","html-keyboard-response","282","231225","0.0-1.0-386.0-0.0","0","0","46404","","null","","","null","42","","","","","","","","","","","","","","","",""
"","ITI","","html-keyboard-response","283","232231","0.0-1.0-387.0","0","0","46404","","null","","","null","42","","","","","","","","","","","","","","","NaN",""
"","S1","","html-keyboard-response","284","232485","0.0-1.0-389.0","0","0","46404","","null","","","null","43","","","","","","","","","","","","","","","",""
"","ISI","","html-keyboard-response","285","232988","0.0-1.0-390.0","0","0","46404","","437","","","68","43","d","","","","","","","","","","","","","","",""
"","S2","","html-keyboard-response","286","233244","0.0-1.0-391.0","0","0","46404","","null","","","null","43","","NaN","","","","","","","","","","","","","",""
"","response","","html-keyboard-response","287","233794","0.0-1.0-392.0-0.0","0","0","46404","","546","","","68","43","","","1","43","training","adjacent","BC","2","3","Q.jpg","M.jpg","1","1","1","",""
"","feedback","","html-keyboard-response","288","234801","0.0-1.0-393.0-0.0","0","0","46404","","null","","","null","43","","","","","","","","","","","","","","","",""
"","ITI","","html-keyboard-response","289","235808","0.0-1.0-396.0","0","0","46404","","null","","","null","43","","","","","","","","","","","","","","","NaN",""
"","S1","","html-keyboard-response","290","236063","0.0-1.0-398.0","0","0","46404","","null","","","null","44","","","","","","","","","","","","","","","",""
"","ISI","","html-keyboard-response","291","236581","0.0-1.0-399.0","0","0","46404","","null","","","null","44","NaN","","","","","","","","","","","","","","",""
"","S2","","html-keyboard-response","292","236836","0.0-1.0-400.0","0","0","46404","","null","","","null","44","","NaN","","","","","","","","","","","","","",""
"","response","","html-keyboard-response","293","237722","0.0-1.0-401.0-0.0","0","0","46404","","878","","","68","44","","","1","44","training","adjacent","BC","2","3","Q.jpg","M.jpg","1","1","1","",""
"","feedback","","html-keyboard-response","294","238730","0.0-1.0-402.0-0.0","0","0","46404","","null","","","null","44","","","","","","","","","","","","","","","",""
"","ITI","","html-keyboard-response","295","239736","0.0-1.0-405.0","0","0","46404","","null","","","null","44","","","","","","","","","","","","","","","NaN",""
"","S1","","html-keyboard-response","296","239992","0.0-1.0-407.0","0","0","46404","","null","","","null","45","","","","","","","","","","","","","","","",""
"","ISI","","html-keyboard-response","297","240498","0.0-1.0-408.0","0","0","46404","","null","","","null","45","NaN","","","","","","","","","","","","","","",""
"","S2","","html-keyboard-response","298","240755","0.0-1.0-409.0","0","0","46404","","null","","","null","45","","NaN","","","","","","","","","","","","","",""
"","response","","html-keyboard-response","299","241464","0.0-1.0-410.0-0.0","0","0","46404","","703","","","68","45","","","1","45","training","adjacent","ED","5","4","R.jpg","O.jpg","1","0","0","",""
"","feedback","","html-keyboard-response","300","242469","0.0-1.0-411.0-0.0","0","0","46404","","null","","","null","45","","","","","","","","","","","","","","","",""
"","time_out","","html-keyboard-response","301","244477","0.0-1.0-413.0-0.0","0","0","46404","","null","","","null","45","","","","","","","","","","","","","","","",""
"","ITI","","html-keyboard-response","302","245480","0.0-1.0-414.0","0","0","46404","","null","","","null","45","","","","","","","","","","","","","","","NaN",""
"","S1","","html-keyboard-response","303","245733","0.0-1.0-416.0","0","0","46404","","null","","","null","46","","","","","","","","","","","","","","","",""
"","ISI","","html-keyboard-response","304","246253","0.0-1.0-417.0","0","0","46404","","null","","","null","46","NaN","","","","","","","","","","","","","","",""
"","S2","","html-keyboard-response","305","246511","0.0-1.0-418.0","0","0","46404","","null","","","null","46","","NaN","","","","","","","","","","","","","",""
"","response","","html-keyboard-response","306","246805","0.0-1.0-419.0-0.0","0","0","46404","","289","","","68","46","","","1","46","training","adjacent","DC","4","3","O.jpg","M.jpg","1","0","0","",""
"","feedback","","html-keyboard-response","307","247811","0.0-1.0-420.0-0.0","0","0","46404","","null","","","null","46","","","","","","","","","","","","","","","",""
"","time_out","","html-keyboard-response","308","249816","0.0-1.0-422.0-0.0","0","0","46404","","null","","","null","46","","","","","","","","","","","","","","","",""
"","ITI","","html-keyboard-response","309","250820","0.0-1.0-423.0","0","0","46404","","null","","","null","46","","","","","","","","","","","","","","","NaN",""
"","S1","","html-keyboard-response","310","251075","0.0-1.0-425.0","0","0","46404","","null","","","null","47","","","","","","","","","","","","","","","",""
"","ISI","","html-keyboard-response","311","251580","0.0-1.0-426.0","0","0","46404","","null","","","null","47","NaN","","","","","","","","","","","","","","",""
"","S2","","html-keyboard-response","312","251838","0.0-1.0-427.0","0","0","46404","","null","","","null","47","","NaN","","","","","","","","","","","","","",""
"","response","","html-keyboard-response","313","253593","0.0-1.0-428.0-0.0","0","0","46404","","null","","","null","47","","","1","47","training","adjacent","GF","7","6","L.jpg","P.jpg","NaN","0","0","",""
"","too_slow_prompt","","html-keyboard-response","314","254597","0.0-1.0-430.0-0.0","1","0","46404","","null","","","null","","","","","","","","","","","","","","","","",""
"","time_out","","html-keyboard-response","315","256603","0.0-1.0-431.0-0.0","0","0","46404","","null","","","null","47","","","","","","","","","","","","","","","",""
"","ITI","","html-keyboard-response","316","257606","0.0-1.0-432.0","0","0","46404","","null","","","null","47","","","","","","","","","","","","","","","NaN",""
"","block_over","","html-keyboard-response","317","259746","0.0-1.0-433.0-0.0","0","0","46404","","2135","","","32","47","","","","","","","","","","","","","","","",""
"","S1","","html-keyboard-response","318","259999","0.0-1.0-434.0","0","0","46404","","null","","","null","48","","","","","","","","","","","","","","","",""
"","ISI","","html-keyboard-response","319","260503","0.0-1.0-435.0","0","0","46404","","null","","","null","48","NaN","","","","","","","","","","","","","","",""
"","S2","","html-keyboard-response","320","260758","0.0-1.0-436.0","0","0","46404","","null","","","null","48","","NaN","","","","","","","","","","","","","",""
"","response","","html-keyboard-response","321","261202","0.0-1.0-437.0-0.0","0","0","46404","","441","","","68","48","","","2","48","training","adjacent","DE","4","5","O.jpg","R.jpg","1","1","1","",""
"","feedback","","html-keyboard-response","322","262207","0.0-1.0-438.0-0.0","0","0","46404","","null","","","null","48","","","","","","","","","","","","","","","",""
"","ITI","","html-keyboard-response","323","263212","0.0-1.0-441.0","0","0","46404","","null","","","null","48","","","","","","","","","","","","","","","NaN",""
"","S1","","html-keyboard-response","324","263468","0.0-1.0-443.0","0","0","46404","","null","","","null","49","","","","","","","","","","","","","","","",""
"","ISI","","html-keyboard-response","325","263972","0.0-1.0-444.0","0","0","46404","","null","","","null","49","NaN","","","","","","","","","","","","","","",""
"","S2","","html-keyboard-response","326","264225","0.0-1.0-445.0","0","0","46404","","null","","","null","49","","NaN","","","","","","","","","","","","","",""
"","response","","html-keyboard-response","327","264748","0.0-1.0-446.0-0.0","0","0","46404","","520","","","68","49","","","2","49","training","adjacent","BC","2","3","Q.jpg","M.jpg","1","1","1","",""
"","feedback","","html-keyboard-response","328","265753","0.0-1.0-447.0-0.0","0","0","46404","","null","","","null","49","","","","","","","","","","","","","","","",""
"","ITI","","html-keyboard-response","329","266758","0.0-1.0-450.0","0","0","46404","","null","","","null","49","","","","","","","","","","","","","","","NaN",""
"","S1","","html-keyboard-response","330","267010","0.0-1.0-452.0","0","0","46404","","null","","","null","50","","","","","","","","","","","","","","","",""
"","ISI","","html-keyboard-response","331","267515","0.0-1.0-453.0","0","0","46404","","null","","","null","50","NaN","","","","","","","","","","","","","","",""
"","S2","","html-keyboard-response","332","267771","0.0-1.0-454.0","0","0","46404","","null","","","null","50","","NaN","","","","","","","","","","","","","",""
"","response","","html-keyboard-response","333","268004","0.0-1.0-455.0-0.0","0","0","46404","","231","","","68","50","","","2","50","training","adjacent","CB","3","2","M.jpg","Q.jpg","1","0","0","",""
"","feedback","","html-keyboard-response","334","269010","0.0-1.0-456.0-0.0","0","0","46404","","null","","","null","50","","","","","","","","","","","","","","","",""
"","time_out","","html-keyboard-response","335","271015","0.0-1.0-458.0-0.0","0","0","46404","","null","","","null","50","","","","","","","","","","","","","","","",""
"","ITI","","html-keyboard-response","336","272019","0.0-1.0-459.0","0","0","46404","","null","","","null","50","","","","","","","","","","","","","","","NaN",""
"","S1","","html-keyboard-response","337","272274","0.0-1.0-461.0","0","0","46404","","null","","","null","51","","","","","","","","","","","","","","","",""
"","ISI","","html-keyboard-response","338","272778","0.0-1.0-462.0","0","0","46404","","null","","","null","51","NaN","","","","","","","","","","","","","","",""
"","S2","","html-keyboard-response","339","273034","0.0-1.0-463.0","0","0","46404","","null","","","null","51","","NaN","","","","","","","","","","","","","",""
"","response","","html-keyboard-response","340","273251","0.0-1.0-464.0-0.0","0","0","46404","","213","","","68","51","","","2","51","training","adjacent","CB","3","2","M.jpg","Q.jpg","1","0","0","",""
"","feedback","","html-keyboard-response","341","274293","0.0-1.0-465.0-0.0","0","0","46404","","null","","","null","51","","","","","","","","","","","","","","","",""
"","time_out","","html-keyboard-response","342","276349","0.0-1.0-467.0-0.0","0","0","46404","","null","","","null","51","","","","","","","","","","","","","","","",""
"","ITI","","html-keyboard-response","343","277353","0.0-1.0-468.0","0","0","46404","","null","","","null","51","","","","","","","","","","","","","","","NaN",""
"","S1","","html-keyboard-response","344","277608","0.0-1.0-470.0","0","0","46404","","null","","","null","52","","","","","","","","","","","","","","","",""
"","ISI","","html-keyboard-response","345","278113","0.0-1.0-471.0","0","0","46404","","null","","","null","52","NaN","","","","","","","","","","","","","","",""
"","S2","","html-keyboard-response","346","278369","0.0-1.0-472.0","0","0","46404","","null","","","null","52","","NaN","","","","","","","","","","","","","",""
"","response","","html-keyboard-response","347","278617","0.0-1.0-473.0-0.0","0","0","46404","","245","","","68","52","","","2","52","training","adjacent","DC","4","3","O.jpg","M.jpg","1","0","0","",""
"","feedback","","html-keyboard-response","348","279623","0.0-1.0-474.0-0.0","0","0","46404","","null","","","null","52","","","","","","","","","","","","","","","",""
"","time_out","","html-keyboard-response","349","281625","0.0-1.0-476.0-0.0","0","0","46404","","null","","","null","52","","","","","","","","","","","","","","","",""
"","ITI","","html-keyboard-response","350","282627","0.0-1.0-477.0","0","0","46404","","null","","","null","52","","","","","","","","","","","","","","","NaN",""
"","S1","","html-keyboard-response","351","282880","0.0-1.0-479.0","0","0","46404","","null","","","null","53","","","","","","","","","","","","","","","",""
"","ISI","","html-keyboard-response","352","283384","0.0-1.0-480.0","0","0","46404","","null","","","null","53","NaN","","","","","","","","","","","","","","",""
"","S2","","html-keyboard-response","353","283641","0.0-1.0-481.0","0","0","46404","","null","","","null","53","","NaN","","","","","","","","","","","","","",""
"","response","","html-keyboard-response","354","284262","0.0-1.0-482.0-0.0","0","0","46404","","615","","","68","53","","","2","53","training","adjacent","DE","4","5","O.jpg","R.jpg","1","1","1","",""
"","feedback","","html-keyboard-response","355","285268","0.0-1.0-483.0-0.0","0","0","46404","","null","","","null","53","","","","","","","","","","","","","","","",""
"","ITI","","html-keyboard-response","356","286366","0.0-1.0-486.0","0","0","46404","","null","","","null","53","","","","","","","","","","","","","","","NaN",""
"","S1","","html-keyboard-response","357","286621","0.0-1.0-488.0","0","0","46404","","null","","","null","54","","","","","","","","","","","","","","","",""
"","ISI","","html-keyboard-response","358","287125","0.0-1.0-489.0","0","0","46404","","null","","","null","54","NaN","","","","","","","","","","","","","","",""
"","S2","","html-keyboard-response","359","287381","0.0-1.0-490.0","0","0","46404","","null","","","null","54","","NaN","","","","","","","","","","","","","",""
"","response","","html-keyboard-response","360","289136","0.0-1.0-491.0-0.0","0","0","46404","","null","","","null","54","","","2","54","training","adjacent","BC","2","3","Q.jpg","M.jpg","NaN","1","0","",""
"","too_slow_prompt","","html-keyboard-response","361","290141","0.0-1.0-493.0-0.0","1","0","46404","","null","","","null","","","","","","","","","","","","","","","","",""
"","time_out","","html-keyboard-response","362","292147","0.0-1.0-494.0-0.0","0","0","46404","","null","","","null","54","","","","","","","","","","","","","","","",""
"","ITI","","html-keyboard-response","363","293152","0.0-1.0-495.0","0","0","46404","","null","","","null","54","","","","","","","","","","","","","","","NaN",""
"","S1","","html-keyboard-response","364","293406","0.0-1.0-497.0","0","0","46404","","null","","","null","55","","","","","","","","","","","","","","","",""
"","ISI","","html-keyboard-response","365","293911","0.0-1.0-498.0","0","0","46404","","null","","","null","55","NaN","","","","","","","","","","","","","","",""
"","S2","","html-keyboard-response","366","294167","0.0-1.0-499.0","0","0","46404","","null","","","null","55","","NaN","","","","","","","","","","","","","",""
"","response","","html-keyboard-response","367","294490","0.0-1.0-500.0-0.0","0","0","46404","","318","","","68","55","","","2","55","training","adjacent","ED","5","4","R.jpg","O.jpg","1","0","0","",""
"","feedback","","html-keyboard-response","368","295498","0.0-1.0-501.0-0.0","0","0","46404","","null","","","null","55","","","","","","","","","","","","","","","",""
"","time_out","","html-keyboard-response","369","297503","0.0-1.0-503.0-0.0","0","0","46404","","null","","","null","55","","","","","","","","","","","","","","","",""
"","ITI","","html-keyboard-response","370","298506","0.0-1.0-504.0","0","0","46404","","null","","","null","55","","","","","","","","","","","","","","","NaN",""
"","S1","","html-keyboard-response","371","298761","0.0-1.0-506.0","0","0","46404","","null","","","null","56","","","","","","","","","","","","","","","",""
"","ISI","","html-keyboard-response","372","299264","0.0-1.0-507.0","0","0","46404","","null","","","null","56","NaN","","","","","","","","","","","","","","",""
"","S2","","html-keyboard-response","373","299520","0.0-1.0-508.0","0","0","46404","","null","","","null","56","","NaN","","","","","","","","","","","","","",""
"","response","","html-keyboard-response","374","300249","0.0-1.0-509.0-0.0","0","0","46404","","721","","","68","56","","","2","56","training","adjacent","DC","4","3","O.jpg","M.jpg","1","0","0","",""
"","feedback","","html-keyboard-response","375","301252","0.0-1.0-510.0-0.0","0","0","46404","","null","","","null","56","","","","","","","","","","","","","","","",""
"","time_out","","html-keyboard-response","376","303256","0.0-1.0-512.0-0.0","0","0","46404","","null","","","null","56","","","","","","","","","","","","","","","",""
"","ITI","","html-keyboard-response","377","304267","0.0-1.0-513.0","0","0","46404","","null","","","null","56","","","","","","","","","","","","","","","NaN",""
"","S1","","html-keyboard-response","378","304522","0.0-1.0-515.0","0","0","46404","","null","","","null","57","","","","","","","","","","","","","","","",""
"","ISI","","html-keyboard-response","379","305025","0.0-1.0-516.0","0","0","46404","","null","","","null","57","NaN","","","","","","","","","","","","","","",""
"","S2","","html-keyboard-response","380","305284","0.0-1.0-517.0","0","0","46404","","null","","","null","57","","NaN","","","","","","","","","","","","","",""
"","response","","html-keyboard-response","381","305303","0.0-1.0-518.0-0.0","0","0","46404","","15","","","75","57","","","2","57","training","adjacent","BA","2","1","Q.jpg","N.jpg","0","0","1","",""
"","feedback","","html-keyboard-response","382","306326","0.0-1.0-519.0-0.0","0","0","46404","","null","","","null","57","","","","","","","","","","","","","","","",""
"","ITI","","html-keyboard-response","383","307330","0.0-1.0-522.0","0","0","46404","","null","","","null","57","","","","","","","","","","","","","","","NaN",""
"","S1","","html-keyboard-response","384","307586","0.0-1.0-524.0","0","0","46404","","null","","","null","58","","","","","","","","","","","","","","","",""
"","ISI","","html-keyboard-response","385","308089","0.0-1.0-525.0","0","0","46404","","null","","","null","58","NaN","","","","","","","","","","","","","","",""
"","S2","","html-keyboard-response","386","308347","0.0-1.0-526.0","0","0","46404","","null","","","null","58","","NaN","","","","","","","","","","","","","",""
"","response","","html-keyboard-response","387","308555","0.0-1.0-527.0-0.0","0","0","46404","","204","","","75","58","","","2","58","training","adjacent","ED","5","4","R.jpg","O.jpg","0","0","1","",""
"","feedback","","html-keyboard-response","388","309562","0.0-1.0-528.0-0.0","0","0","46404","","null","","","null","58","","","","","","","","","","","","","","","",""
"","ITI","","html-keyboard-response","389","310568","0.0-1.0-531.0","0","0","46404","","null","","","null","58","","","","","","","","","","","","","","","NaN",""
"","S1","","html-keyboard-response","390","310823","0.0-1.0-533.0","0","0","46404","","null","","","null","59","","","","","","","","","","","","","","","",""
"","ISI","","html-keyboard-response","391","311330","0.0-1.0-534.0","0","0","46404","","null","","","null","59","NaN","","","","","","","","","","","","","","",""
"","S2","","html-keyboard-response","392","311585","0.0-1.0-535.0","0","0","46404","","null","","","null","59","","NaN","","","","","","","","","","","","","",""
"","response","","html-keyboard-response","393","311881","0.0-1.0-536.0-0.0","0","0","46404","","290","","","75","59","","","2","59","training","adjacent","CD","3","4","M.jpg","O.jpg","0","1","0","",""
"","feedback","","html-keyboard-response","394","312886","0.0-1.0-537.0-0.0","0","0","46404","","null","","","null","59","","","","","","","","","","","","","","","",""
"","time_out","","html-keyboard-response","395","314890","0.0-1.0-539.0-0.0","0","0","46404","","null","","","null","59","","","","","","","","","","","","","","","",""
"","ITI","","html-keyboard-response","396","315894","0.0-1.0-540.0","0","0","46404","","null","","","null","59","","","","","","","","","","","","","","","NaN",""
"","S1","","html-keyboard-response","397","316149","0.0-1.0-542.0","0","0","46404","","null","","","null","60","","","","","","","","","","","","","","","",""
"","ISI","","html-keyboard-response","398","316655","0.0-1.0-543.0","0","0","46404","","null","","","null","60","NaN","","","","","","","","","","","","","","",""
"","S2","","html-keyboard-response","399","316913","0.0-1.0-544.0","0","0","46404","","null","","","null","60","","NaN","","","","","","","","","","","","","",""
"","response","","html-keyboard-response","400","317234","0.0-1.0-545.0-0.0","0","0","46404","","317","","","68","60","","","2","60","training","adjacent","GF","7","6","L.jpg","P.jpg","1","0","0","",""
"","feedback","","html-keyboard-response","401","318239","0.0-1.0-546.0-0.0","0","0","46404","","null","","","null","60","","","","","","","","","","","","","","","",""
"","time_out","","html-keyboard-response","402","320248","0.0-1.0-548.0-0.0","0","0","46404","","null","","","null","60","","","","","","","","","","","","","","","",""
"","ITI","","html-keyboard-response","403","321256","0.0-1.0-549.0","0","0","46404","","null","","","null","60","","","","","","","","","","","","","","","NaN",""
"","S1","","html-keyboard-response","404","321514","0.0-1.0-551.0","0","0","46404","","null","","","null","61","","","","","","","","","","","","","","","",""
"","ISI","","html-keyboard-response","405","322017","0.0-1.0-552.0","0","0","46404","","null","","","null","61","NaN","","","","","","","","","","","","","","",""
"","S2","","html-keyboard-response","406","322275","0.0-1.0-553.0","0","0","46404","","null","","","null","61","","NaN","","","","","","","","","","","","","",""
"","response","","html-keyboard-response","407","322581","0.0-1.0-554.0-0.0","0","0","46404","","300","","","75","61","","","2","61","training","adjacent","FG","6","7","P.jpg","L.jpg","0","1","0","",""
"","feedback","","html-keyboard-response","408","323586","0.0-1.0-555.0-0.0","0","0","46404","","null","","","null","61","","","","","","","","","","","","","","","",""
"","time_out","","html-keyboard-response","409","325590","0.0-1.0-557.0-0.0","0","0","46404","","null","","","null","61","","","","","","","","","","","","","","","",""
"","ITI","","html-keyboard-response","410","326595","0.0-1.0-558.0","0","0","46404","","null","","","null","61","","","","","","","","","","","","","","","NaN",""
"","S1","","html-keyboard-response","411","326852","0.0-1.0-560.0","0","0","46404","","null","","","null","62","","","","","","","","","","","","","","","",""
"","ISI","","html-keyboard-response","412","327360","0.0-1.0-561.0","0","0","46404","","null","","","null","62","NaN","","","","","","","","","","","","","","",""
"","S2","","html-keyboard-response","413","327618","0.0-1.0-562.0","0","0","46404","","null","","","null","62","","NaN","","","","","","","","","","","","","",""
"","response","","html-keyboard-response","414","327828","0.0-1.0-563.0-0.0","0","0","46404","","204","","","68","62","","","2","62","training","adjacent","FE","6","5","P.jpg","R.jpg","1","0","0","",""
"","feedback","","html-keyboard-response","415","328835","0.0-1.0-564.0-0.0","0","0","46404","","null","","","null","62","","","","","","","","","","","","","","","",""
"","time_out","","html-keyboard-response","416","330842","0.0-1.0-566.0-0.0","0","0","46404","","null","","","null","62","","","","","","","","","","","","","","","",""
"","ITI","","html-keyboard-response","417","331849","0.0-1.0-567.0","0","0","46404","","null","","","null","62","","","","","","","","","","","","","","","NaN",""
"","S1","","html-keyboard-response","418","332105","0.0-1.0-569.0","0","0","46404","","null","","","null","63","","","","","","","","","","","","","","","",""
"","ISI","","html-keyboard-response","419","332609","0.0-1.0-570.0","0","0","46404","","null","","","null","63","NaN","","","","","","","","","","","","","","",""
"","S2","","html-keyboard-response","420","332868","0.0-1.0-571.0","0","0","46404","","null","","","null","63","","NaN","","","","","","","","","","","","","",""
"","response","","html-keyboard-response","421","332887","0.0-1.0-572.0-0.0","0","0","46404","","13","","","75","63","","","2","63","training","adjacent","AB","1","2","N.jpg","Q.jpg","0","1","0","",""
"","feedback","","html-keyboard-response","422","333892","0.0-1.0-573.0-0.0","0","0","46404","","null","","","null","63","","","","","","","","","","","","","","","",""
"","time_out","","html-keyboard-response","423","335896","0.0-1.0-575.0-0.0","0","0","46404","","null","","","null","63","","","","","","","","","","","","","","","",""
"","ITI","","html-keyboard-response","424","336903","0.0-1.0-576.0","0","0","46404","","null","","","null","63","","","","","","","","","","","","","","","NaN",""
"","S1","","html-keyboard-response","425","337157","0.0-1.0-578.0","0","0","46404","","null","","","null","64","","","","","","","","","","","","","","","",""
"","ISI","","html-keyboard-response","426","337660","0.0-1.0-579.0","0","0","46404","","null","","","null","64","NaN","","","","","","","","","","","","","","",""
"","S2","","html-keyboard-response","427","337679","0.0-1.0-580.0","0","0","46404","","15","","","68","64","","d","2","64","training","adjacent","AB","1","2","N.jpg","Q.jpg","1","1","1","",""
"","feedback","","html-keyboard-response","428","338685","0.0-1.0-582.0-0.0","0","0","46404","","null","","","null","64","","","","","","","","","","","","","","","",""
"","ITI","","html-keyboard-response","429","339690","0.0-1.0-585.0","0","0","46404","","null","","","null","64","","","","","","","","","","","","","","","NaN",""
"","S1","","html-keyboard-response","430","339944","0.0-1.0-587.0","0","0","46404","","null","","","null","65","","","","","","","","","","","","","","","",""
"","ISI","","html-keyboard-response","431","340448","0.0-1.0-588.0","0","0","46404","","null","","","null","65","NaN","","","","","","","","","","","","","","",""
"","S2","","html-keyboard-response","432","340704","0.0-1.0-589.0","0","0","46404","","null","","","null","65","","NaN","","","","","","","","","","","","","",""
"","response","","html-keyboard-response","433","341383","0.0-1.0-590.0-0.0","0","0","46404","","675","","","75","65","","","2","65","training","adjacent","BA","2","1","Q.jpg","N.jpg","0","0","1","",""
"","feedback","","html-keyboard-response","434","342390","0.0-1.0-591.0-0.0","0","0","46404","","null","","","null","65","","","","","","","","","","","","","","","",""
"","ITI","","html-keyboard-response","435","343397","0.0-1.0-594.0","0","0","46404","","null","","","null","65","","","","","","","","","","","","","","","NaN",""
"","S1","","html-keyboard-response","436","343654","0.0-1.0-596.0","0","0","46404","","null","","","null","66","","","","","","","","","","","","","","","",""
"","ISI","","html-keyboard-response","437","344158","0.0-1.0-597.0","0","0","46404","","null","","","null","66","NaN","","","","","","","","","","","","","","",""
"","S2","","html-keyboard-response","438","344413","0.0-1.0-598.0","0","0","46404","","null","","","null","66","","NaN","","","","","","","","","","","","","",""
"","response","","html-keyboard-response","439","345085","0.0-1.0-599.0-0.0","0","0","46404","","665","","","75","66","","","2","66","training","adjacent","FE","6","5","P.jpg","R.jpg","0","0","1","",""
"","feedback","","html-keyboard-response","440","346092","0.0-1.0-600.0-0.0","0","0","46404","","null","","","null","66","","","","","","","","","","","","","","","",""
"","ITI","","html-keyboard-response","441","347098","0.0-1.0-603.0","0","0","46404","","null","","","null","66","","","","","","","","","","","","","","","NaN",""
"","S1","","html-keyboard-response","442","347354","0.0-1.0-605.0","0","0","46404","","null","","","null","67","","","","","","","","","","","","","","","",""
"","ISI","","html-keyboard-response","443","347858","0.0-1.0-606.0","0","0","46404","","null","","","null","67","NaN","","","","","","","","","","","","","","",""
"","S2","","html-keyboard-response","444","348113","0.0-1.0-607.0","0","0","46404","","null","","","null","67","","NaN","","","","","","","","","","","","","",""
"","response","","html-keyboard-response","445","348304","0.0-1.0-608.0-0.0","0","0","46404","","187","","","75","67","","","2","67","training","adjacent","DE","4","5","O.jpg","R.jpg","0","1","0","",""
"","feedback","","html-keyboard-response","446","349308","0.0-1.0-609.0-0.0","0","0","46404","","null","","","null","67","","","","","","","","","","","","","","","",""
"","time_out","","html-keyboard-response","447","351313","0.0-1.0-611.0-0.0","0","0","46404","","null","","","null","67","","","","","","","","","","","","","","","",""
"","ITI","","html-keyboard-response","448","352317","0.0-1.0-612.0","0","0","46404","","null","","","null","67","","","","","","","","","","","","","","","NaN",""
"","S1","","html-keyboard-response","449","352572","0.0-1.0-614.0","0","0","46404","","null","","","null","68","","","","","","","","","","","","","","","",""
"","ISI","","html-keyboard-response","450","353088","0.0-1.0-615.0","0","0","46404","","null","","","null","68","NaN","","","","","","","","","","","","","","",""
"","S2","","html-keyboard-response","451","353342","0.0-1.0-616.0","0","0","46404","","null","","","null","68","","NaN","","","","","","","","","","","","","",""
"","response","","html-keyboard-response","452","353885","0.0-1.0-617.0-0.0","0","0","46404","","539","","","75","68","","","2","68","training","adjacent","FE","6","5","P.jpg","R.jpg","0","0","1","",""
"","feedback","","html-keyboard-response","453","354892","0.0-1.0-618.0-0.0","0","0","46404","","null","","","null","68","","","","","","","","","","","","","","","",""
"","ITI","","html-keyboard-response","454","355898","0.0-1.0-621.0","0","0","46404","","null","","","null","68","","","","","","","","","","","","","","","NaN",""
"","S1","","html-keyboard-response","455","356153","0.0-1.0-623.0","0","0","46404","","null","","","null","69","","","","","","","","","","","","","","","",""
"","ISI","","html-keyboard-response","456","356657","0.0-1.0-624.0","0","0","46404","","null","","","null","69","NaN","","","","","","","","","","","","","","",""
"","S2","","html-keyboard-response","457","356912","0.0-1.0-625.0","0","0","46404","","null","","","null","69","","NaN","","","","","","","","","","","","","",""
"","response","","html-keyboard-response","458","357189","0.0-1.0-626.0-0.0","0","0","46404","","274","","","75","69","","","2","69","training","adjacent","DC","4","3","O.jpg","M.jpg","0","0","1","",""
"","feedback","","html-keyboard-response","459","358193","0.0-1.0-627.0-0.0","0","0","46404","","null","","","null","69","","","","","","","","","","","","","","","",""
"","ITI","","html-keyboard-response","460","359200","0.0-1.0-630.0","0","0","46404","","null","","","null","69","","","","","","","","","","","","","","","NaN",""
"","S1","","html-keyboard-response","461","359455","0.0-1.0-632.0","0","0","46404","","null","","","null","70","","","","","","","","","","","","","","","",""
"","ISI","","html-keyboard-response","462","359958","0.0-1.0-633.0","0","0","46404","","null","","","null","70","NaN","","","","","","","","","","","","","","",""
"","S2","","html-keyboard-response","463","360214","0.0-1.0-634.0","0","0","46404","","null","","","null","70","","NaN","","","","","","","","","","","","","",""
"","response","","html-keyboard-response","464","360460","0.0-1.0-635.0-0.0","0","0","46404","","242","","","75","70","","","2","70","training","adjacent","CB","3","2","M.jpg","Q.jpg","0","0","1","",""
"","feedback","","html-keyboard-response","465","361468","0.0-1.0-636.0-0.0","0","0","46404","","null","","","null","70","","","","","","","","","","","","","","","",""
"","ITI","","html-keyboard-response","466","362475","0.0-1.0-639.0","0","0","46404","","null","","","null","70","","","","","","","","","","","","","","","NaN",""
"","S1","","html-keyboard-response","467","362747","0.0-1.0-641.0","0","0","46404","","null","","","null","71","","","","","","","","","","","","","","","",""
"","ISI","","html-keyboard-response","468","363252","0.0-1.0-642.0","0","0","46404","","null","","","null","71","NaN","","","","","","","","","","","","","","",""
"","S2","","html-keyboard-response","469","363508","0.0-1.0-643.0","0","0","46404","","null","","","null","71","","NaN","","","","","","","","","","","","","",""
"","response","","html-keyboard-response","470","363873","0.0-1.0-644.0-0.0","0","0","46404","","360","","","75","71","","","2","71","training","adjacent","AB","1","2","N.jpg","Q.jpg","0","1","0","",""
"","feedback","","html-keyboard-response","471","364879","0.0-1.0-645.0-0.0","0","0","46404","","null","","","null","71","","","","","","","","","","","","","","","",""
"","time_out","","html-keyboard-response","472","366885","0.0-1.0-647.0-0.0","0","0","46404","","null","","","null","71","","","","","","","","","","","","","","","",""
"","ITI","","html-keyboard-response","473","367891","0.0-1.0-648.0","0","0","46404","","null","","","null","71","","","","","","","","","","","","","","","NaN",""
"","S1","","html-keyboard-response","474","368146","0.0-1.0-650.0","0","0","46404","","null","","","null","72","","","","","","","","","","","","","","","",""
"","ISI","","html-keyboard-response","475","368650","0.0-1.0-651.0","0","0","46404","","null","","","null","72","NaN","","","","","","","","","","","","","","",""
"","S2","","html-keyboard-response","476","368905","0.0-1.0-652.0","0","0","46404","","null","","","null","72","","NaN","","","","","","","","","","","","","",""
"","response","","html-keyboard-response","477","368908","0.0-1.0-653.0-0.0","0","0","46404","","1","","","75","72","","","2","72","training","adjacent","ED","5","4","R.jpg","O.jpg","0","0","1","",""
"","feedback","","html-keyboard-response","478","369912","0.0-1.0-654.0-0.0","0","0","46404","","null","","","null","72","","","","","","","","","","","","","","","",""
"","ITI","","html-keyboard-response","479","370915","0.0-1.0-657.0","0","0","46404","","null","","","null","72","","","","","","","","","","","","","","","NaN",""
"","S1","","html-keyboard-response","480","371170","0.0-1.0-659.0","0","0","46404","","null","","","null","73","","","","","","","","","","","","","","","",""
"","ISI","","html-keyboard-response","481","371675","0.0-1.0-660.0","0","0","46404","","null","","","null","73","NaN","","","","","","","","","","","","","","",""
"","S2","","html-keyboard-response","482","371930","0.0-1.0-661.0","0","0","46404","","null","","","null","73","","NaN","","","","","","","","","","","","","",""
"","response","","html-keyboard-response","483","372206","0.0-1.0-662.0-0.0","0","0","46404","","274","","","75","73","","","2","73","training","adjacent","EF","5","6","R.jpg","P.jpg","0","1","0","",""
"","feedback","","html-keyboard-response","484","373214","0.0-1.0-663.0-0.0","0","0","46404","","null","","","null","73","","","","","","","","","","","","","","","",""
"","time_out","","html-keyboard-response","485","375239","0.0-1.0-665.0-0.0","0","0","46404","","null","","","null","73","","","","","","","","","","","","","","","",""
"","ITI","","html-keyboard-response","486","376244","0.0-1.0-666.0","0","0","46404","","null","","","null","73","","","","","","","","","","","","","","","NaN",""
"","S1","","html-keyboard-response","487","376501","0.0-1.0-668.0","0","0","46404","","null","","","null","74","","","","","","","","","","","","","","","",""
"","ISI","","html-keyboard-response","488","377004","0.0-1.0-669.0","0","0","46404","","null","","","null","74","NaN","","","","","","","","","","","","","","",""
"","S2","","html-keyboard-response","489","377258","0.0-1.0-670.0","0","0","46404","","null","","","null","74","","NaN","","","","","","","","","","","","","",""
"","response","","html-keyboard-response","490","377368","0.0-1.0-671.0-0.0","0","0","46404","","106","","","75","74","","","2","74","training","adjacent","CD","3","4","M.jpg","O.jpg","0","1","0","",""
"","feedback","","html-keyboard-response","491","378373","0.0-1.0-672.0-0.0","0","0","46404","","null","","","null","74","","","","","","","","","","","","","","","",""
"","time_out","","html-keyboard-response","492","380383","0.0-1.0-674.0-0.0","0","0","46404","","null","","","null","74","","","","","","","","","","","","","","","",""
"","ITI","","html-keyboard-response","493","381393","0.0-1.0-675.0","0","0","46404","","null","","","null","74","","","","","","","","","","","","","","","NaN",""
"","S1","","html-keyboard-response","494","381650","0.0-1.0-677.0","0","0","46404","","null","","","null","75","","","","","","","","","","","","","","","",""
"","ISI","","html-keyboard-response","495","382154","0.0-1.0-678.0","0","0","46404","","429","","","75","75","k","","","","","","","","","","","","","","",""
"","S2","","html-keyboard-response","496","382410","0.0-1.0-679.0","0","0","46404","","null","","","null","75","","NaN","","","","","","","","","","","","","",""
"","response","","html-keyboard-response","497","382763","0.0-1.0-680.0-0.0","0","0","46404","","350","","","75","75","","","2","75","training","adjacent","FG","6","7","P.jpg","L.jpg","0","1","0","",""
"","feedback","","html-keyboard-response","498","383770","0.0-1.0-681.0-0.0","0","0","46404","","null","","","null","75","","","","","","","","","","","","","","","",""
"","time_out","","html-keyboard-response","499","385777","0.0-1.0-683.0-0.0","0","0","46404","","null","","","null","75","","","","","","","","","","","","","","","",""
"","ITI","","html-keyboard-response","500","386780","0.0-1.0-684.0","0","0","46404","","null","","","null","75","","","","","","","","","","","","","","","NaN",""
"","S1","","html-keyboard-response","501","387034","0.0-1.0-686.0","0","0","46404","","null","","","null","76","","","","","","","","","","","","","","","",""
"","ISI","","html-keyboard-response","502","387542","0.0-1.0-687.0","0","0","46404","","null","","","null","76","NaN","","","","","","","","","","","","","","",""
"","S2","","html-keyboard-response","503","387810","0.0-1.0-688.0","0","0","46404","","null","","","null","76","","NaN","","","","","","","","","","","","","",""
"","response","","html-keyboard-response","504","388466","0.0-1.0-689.0-0.0","0","0","46404","","651","","","75","76","","","2","76","training","adjacent","AB","1","2","N.jpg","Q.jpg","0","1","0","",""
"","feedback","","html-keyboard-response","505","389472","0.0-1.0-690.0-0.0","0","0","46404","","null","","","null","76","","","","","","","","","","","","","","","",""
"","time_out","","html-keyboard-response","506","391482","0.0-1.0-692.0-0.0","0","0","46404","","null","","","null","76","","","","","","","","","","","","","","","",""
"","ITI","","html-keyboard-response","507","392587","0.0-1.0-693.0","0","0","46404","","null","","","null","76","","","","","","","","","","","","","","","NaN",""
"","S1","","html-keyboard-response","508","392852","0.0-1.0-695.0","0","0","46404","","null","","","null","77","","","","","","","","","","","","","","","",""
"","ISI","","html-keyboard-response","509","393356","0.0-1.0-696.0","0","0","46404","","null","","","null","77","NaN","","","","","","","","","","","","","","",""
"","S2","","html-keyboard-response","510","393610","0.0-1.0-697.0","0","0","46404","","null","","","null","77","","NaN","","","","","","","","","","","","","",""
"","response","","html-keyboard-response","511","393823","0.0-1.0-698.0-0.0","0","0","46404","","209","","","68","77","","","2","77","training","adjacent","CD","3","4","M.jpg","O.jpg","1","1","1","",""
"","feedback","","html-keyboard-response","512","394831","0.0-1.0-699.0-0.0","0","0","46404","","null","","","null","77","","","","","","","","","","","","","","","",""
"","ITI","","html-keyboard-response","513","395837","0.0-1.0-702.0","0","0","46404","","null","","","null","77","","","","","","","","","","","","","","","NaN",""
"","S1","","html-keyboard-response","514","396093","0.0-1.0-704.0","0","0","46404","","null","","","null","78","","","","","","","","","","","","","","","",""
"","ISI","","html-keyboard-response","515","396598","0.0-1.0-705.0","0","0","46404","","null","","","null","78","NaN","","","","","","","","","","","","","","",""
"","S2","","html-keyboard-response","516","396852","0.0-1.0-706.0","0","0","46404","","null","","","null","78","","NaN","","","","","","","","","","","","","",""
"","response","","html-keyboard-response","517","397472","0.0-1.0-707.0-0.0","0","0","46404","","615","","","75","78","","","2","78","training","adjacent","DC","4","3","O.jpg","M.jpg","0","0","1","",""
"","feedback","","html-keyboard-response","518","398475","0.0-1.0-708.0-0.0","0","0","46404","","null","","","null","78","","","","","","","","","","","","","","","",""
"","ITI","","html-keyboard-response","519","399478","0.0-1.0-711.0","0","0","46404","","null","","","null","78","","","","","","","","","","","","","","","NaN",""
"","S1","","html-keyboard-response","520","399732","0.0-1.0-713.0","0","0","46404","","null","","","null","79","","","","","","","","","","","","","","","",""
"","ISI","","html-keyboard-response","521","400236","0.0-1.0-714.0","0","0","46404","","null","","","null","79","NaN","","","","","","","","","","","","","","",""
"","S2","","html-keyboard-response","522","400491","0.0-1.0-715.0","0","0","46404","","null","","","null","79","","NaN","","","","","","","","","","","","","",""
"","response","","html-keyboard-response","523","400690","0.0-1.0-716.0-0.0","0","0","46404","","195","","","68","79","","","2","79","training","adjacent","GF","7","6","L.jpg","P.jpg","1","0","0","",""
"","feedback","","html-keyboard-response","524","401696","0.0-1.0-717.0-0.0","0","0","46404","","null","","","null","79","","","","","","","","","","","","","","","",""
"","time_out","","html-keyboard-response","525","403702","0.0-1.0-719.0-0.0","0","0","46404","","null","","","null","79","","","","","","","","","","","","","","","",""
"","ITI","","html-keyboard-response","526","404707","0.0-1.0-720.0","0","0","46404","","null","","","null","79","","","","","","","","","","","","","","","NaN",""
"","S1","","html-keyboard-response","527","404961","0.0-1.0-722.0","0","0","46404","","null","","","null","80","","","","","","","","","","","","","","","",""
"","ISI","","html-keyboard-response","528","405466","0.0-1.0-723.0","0","0","46404","","null","","","null","80","NaN","","","","","","","","","","","","","","",""
"","S2","","html-keyboard-response","529","405721","0.0-1.0-724.0","0","0","46404","","null","","","null","80","","NaN","","","","","","","","","","","","","",""
"","response","","html-keyboard-response","530","405765","0.0-1.0-725.0-0.0","0","0","46404","","39","","","68","80","","","2","80","training","adjacent","CB","3","2","M.jpg","Q.jpg","1","0","0","",""
"","feedback","","html-keyboard-response","531","406772","0.0-1.0-726.0-0.0","0","0","46404","","null","","","null","80","","","","","","","","","","","","","","","",""
"","time_out","","html-keyboard-response","532","408780","0.0-1.0-728.0-0.0","0","0","46404","","null","","","null","80","","","","","","","","","","","","","","","",""
"","ITI","","html-keyboard-response","533","409786","0.0-1.0-729.0","0","0","46404","","null","","","null","80","","","","","","","","","","","","","","","NaN",""
"","S1","","html-keyboard-response","534","410047","0.0-1.0-731.0","0","0","46404","","null","","","null","81","","","","","","","","","","","","","","","",""
"","ISI","","html-keyboard-response","535","410555","0.0-1.0-732.0","0","0","46404","","null","","","null","81","NaN","","","","","","","","","","","","","","",""
"","S2","","html-keyboard-response","536","410809","0.0-1.0-733.0","0","0","46404","","null","","","null","81","","NaN","","","","","","","","","","","","","",""
"","response","","html-keyboard-response","537","412566","0.0-1.0-734.0-0.0","0","0","46404","","null","","","null","81","","","2","81","training","adjacent","EF","5","6","R.jpg","P.jpg","NaN","1","0","",""
"","too_slow_prompt","","html-keyboard-response","538","413571","0.0-1.0-736.0-0.0","1","0","46404","","null","","","null","","","","","","","","","","","","","","","","",""
"","time_out","","html-keyboard-response","539","415574","0.0-1.0-737.0-0.0","0","0","46404","","null","","","null","81","","","","","","","","","","","","","","","",""
"","ITI","","html-keyboard-response","540","416580","0.0-1.0-738.0","0","0","46404","","null","","","null","81","","","","","","","","","","","","","","","NaN",""
"","S1","","html-keyboard-response","541","416835","0.0-1.0-740.0","0","0","46404","","null","","","null","82","","","","","","","","","","","","","","","",""
"","ISI","","html-keyboard-response","542","417338","0.0-1.0-741.0","0","0","46404","","239","","","68","82","d","","","","","","","","","","","","","","",""
"","S2","","html-keyboard-response","543","417593","0.0-1.0-742.0","0","0","46404","","null","","","null","82","","NaN","","","","","","","","","","","","","",""
"","response","","html-keyboard-response","544","417882","0.0-1.0-743.0-0.0","0","0","46404","","284","","","68","82","","","2","82","training","adjacent","EF","5","6","R.jpg","P.jpg","1","1","1","",""
"","feedback","","html-keyboard-response","545","418890","0.0-1.0-744.0-0.0","0","0","46404","","null","","","null","82","","","","","","","","","","","","","","","",""
"","ITI","","html-keyboard-response","546","419894","0.0-1.0-747.0","0","0","46404","","null","","","null","82","","","","","","","","","","","","","","","NaN",""
"","S1","","html-keyboard-response","547","420146","0.0-1.0-749.0","0","0","46404","","null","","","null","83","","","","","","","","","","","","","","","",""
"","ISI","","html-keyboard-response","548","420651","0.0-1.0-750.0","0","0","46404","","null","","","null","83","NaN","","","","","","","","","","","","","","",""
"","S2","","html-keyboard-response","549","420907","0.0-1.0-751.0","0","0","46404","","null","","","null","83","","NaN","","","","","","","","","","","","","",""
"","response","","html-keyboard-response","550","422660","0.0-1.0-752.0-0.0","0","0","46404","","null","","","null","83","","","2","83","training","adjacent","EF","5","6","R.jpg","P.jpg","NaN","1","0","",""
"","too_slow_prompt","","html-keyboard-response","551","423665","0.0-1.0-754.0-0.0","1","0","46404","","null","","","null","","","","","","","","","","","","","","","","",""
"","time_out","","html-keyboard-response","552","425670","0.0-1.0-755.0-0.0","0","0","46404","","null","","","null","83","","","","","","","","","","","","","","","",""
"","ITI","","html-keyboard-response","553","426673","0.0-1.0-756.0","0","0","46404","","null","","","null","83","","","","","","","","","","","","","","","NaN",""
"","S1","","html-keyboard-response","554","426927","0.0-1.0-758.0","0","0","46404","","null","","","null","84","","","","","","","","","","","","","","","",""
"","ISI","","html-keyboard-response","555","427431","0.0-1.0-759.0","0","0","46404","","449","","","68","84","d","","","","","","","","","","","","","","",""
"","S2","","html-keyboard-response","556","427688","0.0-1.0-760.0","0","0","46404","","null","","","null","84","","NaN","","","","","","","","","","","","","",""
"","response","","html-keyboard-response","557","428077","0.0-1.0-761.0-0.0","0","0","46404","","384","","","68","84","","","2","84","training","adjacent","CD","3","4","M.jpg","O.jpg","1","1","1","",""
"","feedback","","html-keyboard-response","558","429083","0.0-1.0-762.0-0.0","0","0","46404","","null","","","null","84","","","","","","","","","","","","","","","",""
"","ITI","","html-keyboard-response","559","430089","0.0-1.0-765.0","0","0","46404","","null","","","null","84","","","","","","","","","","","","","","","NaN",""
"","S1","","html-keyboard-response","560","430342","0.0-1.0-767.0","0","0","46404","","null","","","null","85","","","","","","","","","","","","","","","",""
"","ISI","","html-keyboard-response","561","430846","0.0-1.0-768.0","0","0","46404","","null","","","null","85","NaN","","","","","","","","","","","","","","",""
"","S2","","html-keyboard-response","562","431101","0.0-1.0-769.0","0","0","46404","","null","","","null","85","","NaN","","","","","","","","","","","","","",""
"","response","","html-keyboard-response","563","432046","0.0-1.0-770.0-0.0","0","0","46404","","941","","","68","85","","","2","85","training","adjacent","FG","6","7","P.jpg","L.jpg","1","1","1","",""
"","feedback","","html-keyboard-response","564","433052","0.0-1.0-771.0-0.0","0","0","46404","","null","","","null","85","","","","","","","","","","","","","","","",""
"","ITI","","html-keyboard-response","565","434057","0.0-1.0-774.0","0","0","46404","","null","","","null","85","","","","","","","","","","","","","","","NaN",""
"","S1","","html-keyboard-response","566","434313","0.0-1.0-776.0","0","0","46404","","null","","","null","86","","","","","","","","","","","","","","","",""
"","ISI","","html-keyboard-response","567","434819","0.0-1.0-777.0","0","0","46404","","null","","","null","86","NaN","","","","","","","","","","","","","","",""
"","S2","","html-keyboard-response","568","435075","0.0-1.0-778.0","0","0","46404","","null","","","null","86","","NaN","","","","","","","","","","","","","",""
"","response","","html-keyboard-response","569","435760","0.0-1.0-779.0-0.0","0","0","46404","","680","","","68","86","","","2","86","training","adjacent","BA","2","1","Q.jpg","N.jpg","1","0","0","",""
"","feedback","","html-keyboard-response","570","436764","0.0-1.0-780.0-0.0","0","0","46404","","null","","","null","86","","","","","","","","","","","","","","","",""
"","time_out","","html-keyboard-response","571","438772","0.0-1.0-782.0-0.0","0","0","46404","","null","","","null","86","","","","","","","","","","","","","","","",""
"","ITI","","html-keyboard-response","572","439777","0.0-1.0-783.0","0","0","46404","","null","","","null","86","","","","","","","","","","","","","","","NaN",""
"","S1","","html-keyboard-response","573","440031","0.0-1.0-785.0","0","0","46404","","null","","","null","87","","","","","","","","","","","","","","","",""
"","ISI","","html-keyboard-response","574","440533","0.0-1.0-786.0","0","0","46404","","null","","","null","87","NaN","","","","","","","","","","","","","","",""
"","S2","","html-keyboard-response","575","440789","0.0-1.0-787.0","0","0","46404","","null","","","null","87","","NaN","","","","","","","","","","","","","",""
"","response","","html-keyboard-response","576","441058","0.0-1.0-788.0-0.0","0","0","46404","","262","","","68","87","","","2","87","training","adjacent","BC","2","3","Q.jpg","M.jpg","1","1","1","",""
"","feedback","","html-keyboard-response","577","442066","0.0-1.0-789.0-0.0","0","0","46404","","null","","","null","87","","","","","","","","","","","","","","","",""
"","ITI","","html-keyboard-response","578","443073","0.0-1.0-792.0","0","0","46404","","null","","","null","87","","","","","","","","","","","","","","","NaN",""
"","S1","","html-keyboard-response","579","443361","0.0-1.0-794.0","0","0","46404","","null","","","null","88","","","","","","","","","","","","","","","",""
"","ISI","","html-keyboard-response","580","443864","0.0-1.0-795.0","0","0","46404","","null","","","null","88","NaN","","","","","","","","","","","","","","",""
"","S2","","html-keyboard-response","581","444117","0.0-1.0-796.0","0","0","46404","","null","","","null","88","","NaN","","","","","","","","","","","","","",""
"","response","","html-keyboard-response","582","445622","0.0-1.0-797.0-0.0","0","0","46404","","1500","","","68","88","","","2","88","training","adjacent","BC","2","3","Q.jpg","M.jpg","1","1","1","",""
"","feedback","","html-keyboard-response","583","446629","0.0-1.0-798.0-0.0","0","0","46404","","null","","","null","88","","","","","","","","","","","","","","","",""
