"success","ttype","start_time","trial_type","trial_index","time_elapsed","internal_node_id","warning","missed_checkup","PID","view_history","rt","responses","repeat_instructions","key_press","index","keypress_isi","keypress_S2","block","trial_num","phase","group_type","pair_type","S1_stim","S2_stim","S1_img","S2_img","S1_chosen","S1_higher","accuracy","keypress_iti","total_bonus_tally"
"true","full_screen","d04142023hr0456","fullscreen","0","2009","0.0-0.0","0","0","54375","","","","","","","","","","","","","","","","","","","","","",""
"","instructions","","instructions","1","5198","0.0-1.0-0.0-0.0","0","0","54375","[{""page_index"":0,""viewing_time"":1408},{""page_index"":1,""viewing_time"":748},{""page_index"":2,""viewing_time"":502},{""page_index"":3,""viewing_time"":526}]","3185","","","","","","","","","","","","","","","","","","","",""
"","comprehension_check","","survey-multi-choice","2","18364","0.0-1.0-0.0-1.0","0","0","54375","","13159","{""Q0"":""True"",""Q1"":""K"",""Q2"":""Once the second image appears and while the screen 'MAKE A CHOICE' is shown"",""Q3"":""Green mark"",""Q4"":""either D or K""}","0","","","","","","","","","","","","","","","","","",""
"","start_exp","","html-keyboard-response","3","19878","0.0-1.0-1.0","0","0","54375","","1508","","","32","","","","","","","","","","","","","","","","",""
"","S1","","html-keyboard-response","4","20138","0.0-1.0-2.0","0","0","54375","","null","","","null","0","","","","","","","","","","","","","","","",""
"","ISI","","html-keyboard-response","5","21154","0.0-1.0-3.0","0","0","54375","","null","","","null","0","NaN","","","","","","","","","","","","","","",""
"","S2","","html-keyboard-response","6","21418","0.0-1.0-4.0","0","0","54375","","null","","","null","0","","NaN","","","","","","","","","","","","","",""
"","response","","html-keyboard-response","7","21818","0.0-1.0-5.0-0.0","0","0","54375","","395","","","68","0","","","1","0","training","adjacent","FG","6","7","L.jpg","P.jpg","0","1","0","",""
"","feedback","","html-keyboard-response","8","22829","0.0-1.0-6.0-0.0","0","0","54375","","null","","","null","0","","","","","","","","","","","","","","","",""
"","time_out","","html-keyboard-response","9","24837","0.0-1.0-8.0-0.0","0","0","54375","","null","","","null","0","","","","","","","","","","","","","","","",""
"","ITI","","html-keyboard-response","10","25847","0.0-1.0-9.0","0","0","54375","","null","","","null","0","","","","","","","","","","","","","","","NaN",""
"","S1","","html-keyboard-response","11","26109","0.0-1.0-11.0","0","0","54375","","null","","","null","1","","","","","","","","","","","","","","","",""
"","ISI","","html-keyboard-response","12","27120","0.0-1.0-12.0","0","0","54375","","null","","","null","1","NaN","","","","","","","","","","","","","","",""
"","S2","","html-keyboard-response","13","27385","0.0-1.0-13.0","0","0","54375","","null","","","null","1","","NaN","","","","","","","","","","","","","",""
"","response","","html-keyboard-response","14","27685","0.0-1.0-14.0-0.0","0","0","54375","","296","","","68","1","","","1","1","training","adjacent","FG","6","7","L.jpg","P.jpg","0","1","0","",""
"","feedback","","html-keyboard-response","15","28698","0.0-1.0-15.0-0.0","0","0","54375","","null","","","null","1","","","","","","","","","","","","","","","",""
"","time_out","","html-keyboard-response","16","30707","0.0-1.0-17.0-0.0","0","0","54375","","null","","","null","1","","","","","","","","","","","","","","","",""
"","ITI","","html-keyboard-response","17","31721","0.0-1.0-18.0","0","0","54375","","null","","","null","1","","","","","","","","","","","","","","","NaN",""
"","S1","","html-keyboard-response","18","31986","0.0-1.0-20.0","0","0","54375","","null","","","null","2","","","","","","","","","","","","","","","",""
"","ISI","","html-keyboard-response","19","33002","0.0-1.0-21.0","0","0","54375","","195","","","75","2","k","","","","","","","","","","","","","","",""
"","S2","","html-keyboard-response","20","33092","0.0-1.0-22.0","0","0","54375","","83","","","75","2","","k","1","2","training","adjacent","GF","7","6","P.jpg","L.jpg","1","0","0","",""
"","feedback","","html-keyboard-response","21","34100","0.0-1.0-24.0-0.0","0","0","54375","","null","","","null","2","","","","","","","","","","","","","","","",""
"","time_out","","html-keyboard-response","22","36112","0.0-1.0-26.0-0.0","0","0","54375","","null","","","null","2","","","","","","","","","","","","","","","",""
"","ITI","","html-keyboard-response","23","37121","0.0-1.0-27.0","0","0","54375","","null","","","null","2","","","","","","","","","","","","","","","NaN",""
"","S1","","html-keyboard-response","24","37382","0.0-1.0-29.0","0","0","54375","","null","","","null","3","","","","","","","","","","","","","","","",""
"","ISI","","html-keyboard-response","25","38394","0.0-1.0-30.0","0","0","54375","","108","","","75","3","k","","","","","","","","","","","","","","",""
"","S2","","html-keyboard-response","26","38421","0.0-1.0-31.0","0","0","54375","","24","","","75","3","","k","1","3","training","adjacent","FG","6","7","L.jpg","P.jpg","1","1","1","",""
"","feedback","","html-keyboard-response","27","39430","0.0-1.0-33.0-0.0","0","0","54375","","null","","","null","3","","","","","","","","","","","","","","","",""
"","ITI","","html-keyboard-response","28","40442","0.0-1.0-36.0","0","0","54375","","null","","","null","3","","","","","","","","","","","","","","","NaN",""
"","S1","","html-keyboard-response","29","40703","0.0-1.0-38.0","0","0","54375","","null","","","null","4","","","","","","","","","","","","","","","",""
"","ISI","","html-keyboard-response","30","41710","0.0-1.0-39.0","0","0","54375","","null","","","null","4","NaN","","","","","","","","","","","","","","",""
"","S2","","html-keyboard-response","31","41976","0.0-1.0-40.0","0","0","54375","","null","","","null","4","","NaN","","","","","","","","","","","","","",""
"","response","","html-keyboard-response","32","42363","0.0-1.0-41.0-0.0","0","0","54375","","384","","","68","4","","","1","4","training","adjacent","CD","3","4","Q.jpg","R.jpg","0","1","0","",""
"","feedback","","html-keyboard-response","33","43374","0.0-1.0-42.0-0.0","0","0","54375","","null","","","null","4","","","","","","","","","","","","","","","",""
"","time_out","","html-keyboard-response","34","45385","0.0-1.0-44.0-0.0","0","0","54375","","null","","","null","4","","","","","","","","","","","","","","","",""
"","ITI","","html-keyboard-response","35","46401","0.0-1.0-45.0","0","0","54375","","null","","","null","4","","","","","","","","","","","","","","","NaN",""
"","S1","","html-keyboard-response","36","46663","0.0-1.0-47.0","0","0","54375","","null","","","null","5","","","","","","","","","","","","","","","",""
"","ISI","","html-keyboard-response","37","47670","0.0-1.0-48.0","0","0","54375","","175","","","68","5","d","","","","","","","","","","","","","","",""
"","S2","","html-keyboard-response","38","47796","0.0-1.0-49.0","0","0","54375","","124","","","68","5","","d","1","5","training","adjacent","CB","3","2","Q.jpg","N.jpg","0","0","1","",""
"","feedback","","html-keyboard-response","39","48809","0.0-1.0-51.0-0.0","0","0","54375","","null","","","null","5","","","","","","","","","","","","","","","",""
"","ITI","","html-keyboard-response","40","49826","0.0-1.0-54.0","0","0","54375","","165","","","75","5","","","","","","","","","","","","","","","k",""
"","S1","","html-keyboard-response","41","50090","0.0-1.0-56.0","0","0","54375","","null","","","null","6","","","","","","","","","","","","","","","",""
"","ISI","","html-keyboard-response","42","51103","0.0-1.0-57.0","0","0","54375","","107","","","75","6","k","","","","","","","","","","","","","","",""
"","S2","","html-keyboard-response","43","51209","0.0-1.0-58.0","0","0","54375","","102","","","68","6","","d","1","6","training","adjacent","AB","1","2","M.jpg","N.jpg","0","1","0","",""
"","feedback","","html-keyboard-response","44","52226","0.0-1.0-60.0-0.0","0","0","54375","","null","","","null","6","","","","","","","","","","","","","","","",""
"","time_out","","html-keyboard-response","45","54242","0.0-1.0-62.0-0.0","0","0","54375","","null","","","null","6","","","","","","","","","","","","","","","",""
"","ITI","","html-keyboard-response","46","55255","0.0-1.0-63.0","0","0","54375","","43","","","75","6","","","","","","","","","","","","","","","k",""
"","S1","","html-keyboard-response","47","55520","0.0-1.0-65.0","0","0","54375","","null","","","null","7","","","","","","","","","","","","","","","",""
"","ISI","","html-keyboard-response","48","56526","0.0-1.0-66.0","0","0","54375","","4","","","75","7","k","","","","","","","","","","","","","","",""
"","S2","","html-keyboard-response","49","56538","0.0-1.0-67.0","0","0","54375","","9","","","75","7","","k","1","7","training","adjacent","DC","4","3","R.jpg","Q.jpg","1","0","0","",""
"","feedback","","html-keyboard-response","50","57553","0.0-1.0-69.0-0.0","0","0","54375","","null","","","null","7","","","","","","","","","","","","","","","",""
"","time_out","","html-keyboard-response","51","59570","0.0-1.0-71.0-0.0","0","0","54375","","null","","","null","7","","","","","","","","","","","","","","","",""
"","ITI","","html-keyboard-response","52","60586","0.0-1.0-72.0","0","0","54375","","13","","","75","7","","","","","","","","","","","","","","","k",""
"","S1","","html-keyboard-response","53","60851","0.0-1.0-74.0","0","0","54375","","null","","","null","8","","","","","","","","","","","","","","","",""
"","ISI","","html-keyboard-response","54","61866","0.0-1.0-75.0","0","0","54375","","79","","","75","8","k","","","","","","","","","","","","","","",""
"","S2","","html-keyboard-response","55","61882","0.0-1.0-76.0","0","0","54375","","11","","","75","8","","k","1","8","training","adjacent","ED","5","4","O.jpg","R.jpg","1","0","0","",""
"","feedback","","html-keyboard-response","56","62889","0.0-1.0-78.0-0.0","0","0","54375","","null","","","null","8","","","","","","","","","","","","","","","",""
"","time_out","","html-keyboard-response","57","64906","0.0-1.0-80.0-0.0","0","0","54375","","null","","","null","8","","","","","","","","","","","","","","","",""
"","ITI","","html-keyboard-response","58","65922","0.0-1.0-81.0","0","0","54375","","1","","","75","8","","","","","","","","","","","","","","","k",""
"","S1","","html-keyboard-response","59","66182","0.0-1.0-83.0","0","0","54375","","null","","","null","9","","","","","","","","","","","","","","","",""
"","ISI","","html-keyboard-response","60","67191","0.0-1.0-84.0","0","0","54375","","49","","","75","9","k","","","","","","","","","","","","","","",""
"","S2","","html-keyboard-response","61","67323","0.0-1.0-85.0","0","0","54375","","127","","","75","9","","k","1","9","training","adjacent","AB","1","2","M.jpg","N.jpg","1","1","1","",""
"","feedback","","html-keyboard-response","62","68333","0.0-1.0-87.0-0.0","0","0","54375","","null","","","null","9","","","","","","","","","","","","","","","",""
"","ITI","","html-keyboard-response","63","69340","0.0-1.0-90.0","0","0","54375","","261","","","68","9","","","","","","","","","","","","","","","d",""
"","S1","","html-keyboard-response","64","69599","0.0-1.0-92.0","0","0","54375","","null","","","null","10","","","","","","","","","","","","","","","",""
"","ISI","","html-keyboard-response","65","70606","0.0-1.0-93.0","0","0","54375","","24","","","68","10","d","","","","","","","","","","","","","","",""
"","S2","","html-keyboard-response","66","70687","0.0-1.0-94.0","0","0","54375","","75","","","68","10","","d","1","10","training","adjacent","BA","2","1","N.jpg","M.jpg","0","0","1","",""
"","feedback","","html-keyboard-response","67","71696","0.0-1.0-96.0-0.0","0","0","54375","","null","","","null","10","","","","","","","","","","","","","","","",""
"","ITI","","html-keyboard-response","68","72703","0.0-1.0-99.0","0","0","54375","","61","","","68","10","","","","","","","","","","","","","","","d",""
"","S1","","html-keyboard-response","69","72968","0.0-1.0-101.0","0","0","54375","","null","","","null","11","","","","","","","","","","","","","","","",""
"","ISI","","html-keyboard-response","70","73974","0.0-1.0-102.0","0","0","54375","","472","","","68","11","d","","","","","","","","","","","","","","",""
"","S2","","html-keyboard-response","71","74097","0.0-1.0-103.0","0","0","54375","","117","","","68","11","","d","1","11","training","adjacent","DC","4","3","R.jpg","Q.jpg","0","0","1","",""
"","feedback","","html-keyboard-response","72","75115","0.0-1.0-105.0-0.0","0","0","54375","","null","","","null","11","","","","","","","","","","","","","","","",""
"","ITI","","html-keyboard-response","73","76130","0.0-1.0-108.0","0","0","54375","","null","","","null","11","","","","","","","","","","","","","","","NaN",""
"","S1","","html-keyboard-response","74","76389","0.0-1.0-110.0","0","0","54375","","null","","","null","12","","","","","","","","","","","","","","","",""
"","ISI","","html-keyboard-response","75","77399","0.0-1.0-111.0","0","0","54375","","null","","","null","12","NaN","","","","","","","","","","","","","","",""
"","S2","","html-keyboard-response","76","77666","0.0-1.0-112.0","0","0","54375","","null","","","null","12","","NaN","","","","","","","","","","","","","",""
"","response","","html-keyboard-response","77","77695","0.0-1.0-113.0-0.0","0","0","54375","","26","","","75","12","","","1","12","training","adjacent","EF","5","6","O.jpg","L.jpg","1","1","1","",""
"","feedback","","html-keyboard-response","78","78706","0.0-1.0-114.0-0.0","0","0","54375","","null","","","null","12","","","","","","","","","","","","","","","",""
"","ITI","","html-keyboard-response","79","79718","0.0-1.0-117.0","0","0","54375","","null","","","null","12","","","","","","","","","","","","","","","NaN",""
"","S1","","html-keyboard-response","80","79985","0.0-1.0-119.0","0","0","54375","","null","","","null","13","","","","","","","","","","","","","","","",""
"","ISI","","html-keyboard-response","81","80998","0.0-1.0-120.0","0","0","54375","","null","","","null","13","NaN","","","","","","","","","","","","","","",""
"","S2","","html-keyboard-response","82","81262","0.0-1.0-121.0","0","0","54375","","null","","","null","13","","NaN","","","","","","","","","","","","","",""
"","response","","html-keyboard-response","83","81399","0.0-1.0-122.0-0.0","0","0","54375","","133","","","75","13","","","1","13","training","adjacent","CB","3","2","Q.jpg","N.jpg","1","0","0","",""
"","feedback","","html-keyboard-response","84","82408","0.0-1.0-123.0-0.0","0","0","54375","","null","","","null","13","","","","","","","","","","","","","","","",""
"","time_out","","html-keyboard-response","85","84414","0.0-1.0-125.0-0.0","0","0","54375","","null","","","null","13","","","","","","","","","","","","","","","",""
"","ITI","","html-keyboard-response","86","85421","0.0-1.0-126.0","0","0","54375","","null","","","null","13","","","","","","","","","","","","","","","NaN",""
"","S1","","html-keyboard-response","87","85677","0.0-1.0-128.0","0","0","54375","","null","","","null","14","","","","","","","","","","","","","","","",""
"","ISI","","html-keyboard-response","88","86685","0.0-1.0-129.0","0","0","54375","","null","","","null","14","NaN","","","","","","","","","","","","","","",""
"","S2","","html-keyboard-response","89","86946","0.0-1.0-130.0","0","0","54375","","null","","","null","14","","NaN","","","","","","","","","","","","","",""
"","response","","html-keyboard-response","90","87062","0.0-1.0-131.0-0.0","0","0","54375","","112","","","75","14","","","1","14","training","adjacent","BC","2","3","N.jpg","Q.jpg","1","1","1","",""
"","feedback","","html-keyboard-response","91","88070","0.0-1.0-132.0-0.0","0","0","54375","","null","","","null","14","","","","","","","","","","","","","","","",""
"","ITI","","html-keyboard-response","92","89080","0.0-1.0-135.0","0","0","54375","","null","","","null","14","","","","","","","","","","","","","","","NaN",""
"","S1","","html-keyboard-response","93","89343","0.0-1.0-137.0","0","0","54375","","null","","","null","15","","","","","","","","","","","","","","","",""
"","ISI","","html-keyboard-response","94","90351","0.0-1.0-138.0","0","0","54375","","null","","","null","15","NaN","","","","","","","","","","","","","","",""
"","S2","","html-keyboard-response","95","90615","0.0-1.0-139.0","0","0","54375","","null","","","null","15","","NaN","","","","","","","","","","","","","",""
"","response","","html-keyboard-response","96","90724","0.0-1.0-140.0-0.0","0","0","54375","","106","","","75","15","","","1","15","training","adjacent","BC","2","3","N.jpg","Q.jpg","1","1","1","",""
"","feedback","","html-keyboard-response","97","91738","0.0-1.0-141.0-0.0","0","0","54375","","null","","","null","15","","","","","","","","","","","","","","","",""
"","ITI","","html-keyboard-response","98","92750","0.0-1.0-144.0","0","0","54375","","null","","","null","15","","","","","","","","","","","","","","","NaN",""
"","S1","","html-keyboard-response","99","93008","0.0-1.0-146.0","0","0","54375","","null","","","null","16","","","","","","","","","","","","","","","",""
"","ISI","","html-keyboard-response","100","94015","0.0-1.0-147.0","0","0","54375","","null","","","null","16","NaN","","","","","","","","","","","","","","",""
"","S2","","html-keyboard-response","101","94282","0.0-1.0-148.0","0","0","54375","","null","","","null","16","","NaN","","","","","","","","","","","","","",""
"","response","","html-keyboard-response","102","94287","0.0-1.0-149.0-0.0","0","0","54375","","3","","","75","16","","","1","16","training","adjacent","BC","2","3","N.jpg","Q.jpg","1","1","1","",""
"","feedback","","html-keyboard-response","103","95298","0.0-1.0-150.0-0.0","0","0","54375","","null","","","null","16","","","","","","","","","","","","","","","",""
"","ITI","","html-keyboard-response","104","96313","0.0-1.0-153.0","0","0","54375","","null","","","null","16","","","","","","","","","","","","","","","NaN",""
"","S1","","html-keyboard-response","105","96574","0.0-1.0-155.0","0","0","54375","","null","","","null","17","","","","","","","","","","","","","","","",""
"","ISI","","html-keyboard-response","106","97581","0.0-1.0-156.0","0","0","54375","","236","","","68","17","d","","","","","","","","","","","","","","",""
"","S2","","html-keyboard-response","107","97633","0.0-1.0-157.0","0","0","54375","","49","","","68","17","","d","1","17","training","adjacent","DE","4","5","R.jpg","O.jpg","0","1","0","",""
"","feedback","","html-keyboard-response","108","98649","0.0-1.0-159.0-0.0","0","0","54375","","null","","","null","17","","","","","","","","","","","","","","","",""
"","time_out","","html-keyboard-response","109","100664","0.0-1.0-161.0-0.0","0","0","54375","","null","","","null","17","","","","","","","","","","","","","","","",""
"","ITI","","html-keyboard-response","110","101670","0.0-1.0-162.0","0","0","54375","","null","","","null","17","","","","","","","","","","","","","","","NaN",""
"","S1","","html-keyboard-response","111","101925","0.0-1.0-164.0","0","0","54375","","null","","","null","18","","","","","","","","","","","","","","","",""
"","ISI","","html-keyboard-response","112","102937","0.0-1.0-165.0","0","0","54375","","null","","","null","18","NaN","","","","","","","","","","","","","","",""
"","S2","","html-keyboard-response","113","103199","0.0-1.0-166.0","0","0","54375","","null","","","null","18","","NaN","","","","","","","","","","","","","",""
"","response","","html-keyboard-response","114","103370","0.0-1.0-167.0-0.0","0","0","54375","","167","","","75","18","","","1","18","training","adjacent","BA","2","1","N.jpg","M.jpg","1","0","0","",""
"","feedback","","html-keyboard-response","115","104386","0.0-1.0-168.0-0.0","0","0","54375","","null","","","null","18","","","","","","","","","","","","","","","",""
"","time_out","","html-keyboard-response","116","106402","0.0-1.0-170.0-0.0","0","0","54375","","null","","","null","18","","","","","","","","","","","","","","","",""
"","ITI","","html-keyboard-response","117","107414","0.0-1.0-171.0","0","0","54375","","null","","","null","18","","","","","","","","","","","","","","","NaN",""
"","S1","","html-keyboard-response","118","107677","0.0-1.0-173.0","0","0","54375","","null","","","null","19","","","","","","","","","","","","","","","",""
"","ISI","","html-keyboard-response","119","108686","0.0-1.0-174.0","0","0","54375","","null","","","null","19","NaN","","","","","","","","","","","","","","",""
"","S2","","html-keyboard-response","120","108851","0.0-1.0-175.0","0","0","54375","","159","","","75","19","","k","1","19","training","adjacent","FE","6","5","L.jpg","O.jpg","1","0","0","",""
"","feedback","","html-keyboard-response","121","109866","0.0-1.0-177.0-0.0","0","0","54375","","null","","","null","19","","","","","","","","","","","","","","","",""
"","time_out","","html-keyboard-response","122","111882","0.0-1.0-179.0-0.0","0","0","54375","","null","","","null","19","","","","","","","","","","","","","","","",""
"","ITI","","html-keyboard-response","123","112895","0.0-1.0-180.0","0","0","54375","","null","","","null","19","","","","","","","","","","","","","","","NaN",""
"","S1","","html-keyboard-response","124","113153","0.0-1.0-182.0","0","0","54375","","null","","","null","20","","","","","","","","","","","","","","","",""
"","ISI","","html-keyboard-response","125","114167","0.0-1.0-183.0","0","0","54375","","378","","","75","20","k","","","","","","","","","","","","","","",""
"","S2","","html-keyboard-response","126","114402","0.0-1.0-184.0","0","0","54375","","229","","","75","20","","k","1","20","training","adjacent","ED","5","4","O.jpg","R.jpg","1","0","0","",""
"","feedback","","html-keyboard-response","127","115413","0.0-1.0-186.0-0.0","0","0","54375","","null","","","null","20","","","","","","","","","","","","","","","",""
"","time_out","","html-keyboard-response","128","117425","0.0-1.0-188.0-0.0","0","0","54375","","null","","","null","20","","","","","","","","","","","","","","","",""
"","ITI","","html-keyboard-response","129","118442","0.0-1.0-189.0","0","0","54375","","null","","","null","20","","","","","","","","","","","","","","","NaN",""
"","S1","","html-keyboard-response","130","118701","0.0-1.0-191.0","0","0","54375","","null","","","null","21","","","","","","","","","","","","","","","",""
"","ISI","","html-keyboard-response","131","119712","0.0-1.0-192.0","0","0","54375","","null","","","null","21","NaN","","","","","","","","","","","","","","",""
"","S2","","html-keyboard-response","132","119911","0.0-1.0-193.0","0","0","54375","","193","","","75","21","","k","1","21","training","adjacent","ED","5","4","O.jpg","R.jpg","1","0","0","",""
"","feedback","","html-keyboard-response","133","120922","0.0-1.0-195.0-0.0","0","0","54375","","null","","","null","21","","","","","","","","","","","","","","","",""
"","time_out","","html-keyboard-response","134","122938","0.0-1.0-197.0-0.0","0","0","54375","","null","","","null","21","","","","","","","","","","","","","","","",""
"","ITI","","html-keyboard-response","135","123949","0.0-1.0-198.0","0","0","54375","","35","","","75","21","","","","","","","","","","","","","","","k",""
"","S1","","html-keyboard-response","136","124205","0.0-1.0-200.0","0","0","54375","","null","","","null","22","","","","","","","","","","","","","","","",""
"","ISI","","html-keyboard-response","137","125218","0.0-1.0-201.0","0","0","54375","","33","","","75","22","k","","","","","","","","","","","","","","",""
"","S2","","html-keyboard-response","138","125469","0.0-1.0-202.0","0","0","54375","","246","","","75","22","","k","1","22","training","adjacent","CB","3","2","Q.jpg","N.jpg","1","0","0","",""
"","feedback","","html-keyboard-response","139","126477","0.0-1.0-204.0-0.0","0","0","54375","","null","","","null","22","","","","","","","","","","","","","","","",""
"","time_out","","html-keyboard-response","140","128485","0.0-1.0-206.0-0.0","0","0","54375","","null","","","null","22","","","","","","","","","","","","","","","",""
"","ITI","","html-keyboard-response","141","129494","0.0-1.0-207.0","0","0","54375","","103","","","75","22","","","","","","","","","","","","","","","k",""
"","S1","","html-keyboard-response","142","129756","0.0-1.0-209.0","0","0","54375","","null","","","null","23","","","","","","","","","","","","","","","",""
"","ISI","","html-keyboard-response","143","130764","0.0-1.0-210.0","0","0","54375","","52","","","75","23","k","","","","","","","","","","","","","","",""
"","S2","","html-keyboard-response","144","130818","0.0-1.0-211.0","0","0","54375","","48","","","68","23","","d","1","23","training","adjacent","FG","6","7","L.jpg","P.jpg","0","1","0","",""
"","feedback","","html-keyboard-response","145","131834","0.0-1.0-213.0-0.0","0","0","54375","","null","","","null","23","","","","","","","","","","","","","","","",""
"","time_out","","html-keyboard-response","146","133846","0.0-1.0-215.0-0.0","0","0","54375","","null","","","null","23","","","","","","","","","","","","","","","",""
"","ITI","","html-keyboard-response","147","134858","0.0-1.0-216.0","0","0","54375","","29","","","75","23","","","","","","","","","","","","","","","k",""
"","S1","","html-keyboard-response","148","135122","0.0-1.0-218.0","0","0","54375","","null","","","null","24","","","","","","","","","","","","","","","",""
"","ISI","","html-keyboard-response","149","136134","0.0-1.0-219.0","0","0","54375","","13","","","75","24","k","","","","","","","","","","","","","","",""
"","S2","","html-keyboard-response","150","136214","0.0-1.0-220.0","0","0","54375","","75","","","75","24","","k","1","24","training","adjacent","EF","5","6","O.jpg","L.jpg","1","1","1","",""
"","feedback","","html-keyboard-response","151","137224","0.0-1.0-222.0-0.0","0","0","54375","","null","","","null","24","","","","","","","","","","","","","","","",""
"","ITI","","html-keyboard-response","152","138229","0.0-1.0-225.0","0","0","54375","","93","","","68","24","","","","","","","","","","","","","","","d",""
"","S1","","html-keyboard-response","153","138488","0.0-1.0-227.0","0","0","54375","","null","","","null","25","","","","","","","","","","","","","","","",""
"","ISI","","html-keyboard-response","154","139502","0.0-1.0-228.0","0","0","54375","","131","","","68","25","d","","","","","","","","","","","","","","",""
"","S2","","html-keyboard-response","155","139643","0.0-1.0-229.0","0","0","54375","","136","","","68","25","","d","1","25","training","adjacent","FE","6","5","L.jpg","O.jpg","0","0","1","",""
"","feedback","","html-keyboard-response","156","140654","0.0-1.0-231.0-0.0","0","0","54375","","null","","","null","25","","","","","","","","","","","","","","","",""
"","ITI","","html-keyboard-response","157","141666","0.0-1.0-234.0","0","0","54375","","11","","","68","25","","","","","","","","","","","","","","","d",""
"","S1","","html-keyboard-response","158","141923","0.0-1.0-236.0","0","0","54375","","null","","","null","26","","","","","","","","","","","","","","","",""
"","ISI","","html-keyboard-response","159","142935","0.0-1.0-237.0","0","0","54375","","25","","","68","26","d","","","","","","","","","","","","","","",""
"","S2","","html-keyboard-response","160","143056","0.0-1.0-238.0","0","0","54375","","119","","","68","26","","d","1","26","training","adjacent","BA","2","1","N.jpg","M.jpg","0","0","1","",""
"","feedback","","html-keyboard-response","161","144066","0.0-1.0-240.0-0.0","0","0","54375","","null","","","null","26","","","","","","","","","","","","","","","",""
"","ITI","","html-keyboard-response","162","145078","0.0-1.0-243.0","0","0","54375","","276","","","75","26","","","","","","","","","","","","","","","k",""
"","S1","","html-keyboard-response","163","145337","0.0-1.0-245.0","0","0","54375","","null","","","null","27","","","","","","","","","","","","","","","",""
"","ISI","","html-keyboard-response","164","146354","0.0-1.0-246.0","0","0","54375","","62","","","75","27","k","","","","","","","","","","","","","","",""
"","S2","","html-keyboard-response","165","146358","0.0-1.0-247.0","0","0","54375","","2","","","75","27","","k","1","27","training","adjacent","DC","4","3","R.jpg","Q.jpg","1","0","0","",""
"","feedback","","html-keyboard-response","166","147365","0.0-1.0-249.0-0.0","0","0","54375","","null","","","null","27","","","","","","","","","","","","","","","",""
"","time_out","","html-keyboard-response","167","149369","0.0-1.0-251.0-0.0","0","0","54375","","null","","","null","27","","","","","","","","","","","","","","","",""
"","ITI","","html-keyboard-response","168","150381","0.0-1.0-252.0","0","0","54375","","80","","","75","27","","","","","","","","","","","","","","","k",""
"","S1","","html-keyboard-response","169","150638","0.0-1.0-254.0","0","0","54375","","null","","","null","28","","","","","","","","","","","","","","","",""
"","ISI","","html-keyboard-response","170","151647","0.0-1.0-255.0","0","0","54375","","18","","","75","28","k","","","","","","","","","","","","","","",""
"","S2","","html-keyboard-response","171","151668","0.0-1.0-256.0","0","0","54375","","18","","","75","28","","k","1","28","training","adjacent","FE","6","5","L.jpg","O.jpg","1","0","0","",""
"","feedback","","html-keyboard-response","172","152681","0.0-1.0-258.0-0.0","0","0","54375","","null","","","null","28","","","","","","","","","","","","","","","",""
"","time_out","","html-keyboard-response","173","154694","0.0-1.0-260.0-0.0","0","0","54375","","null","","","null","28","","","","","","","","","","","","","","","",""
"","ITI","","html-keyboard-response","174","155704","0.0-1.0-261.0","0","0","54375","","230","","","75","28","","","","","","","","","","","","","","","k",""
"","S1","","html-keyboard-response","175","155967","0.0-1.0-263.0","0","0","54375","","null","","","null","29","","","","","","","","","","","","","","","",""
"","ISI","","html-keyboard-response","176","156974","0.0-1.0-264.0","0","0","54375","","25","","","75","29","k","","","","","","","","","","","","","","",""
"","S2","","html-keyboard-response","177","157031","0.0-1.0-265.0","0","0","54375","","53","","","75","29","","k","1","29","training","adjacent","DC","4","3","R.jpg","Q.jpg","1","0","0","",""
"","feedback","","html-keyboard-response","178","158036","0.0-1.0-267.0-0.0","0","0","54375","","null","","","null","29","","","","","","","","","","","","","","","",""
"","time_out","","html-keyboard-response","179","160046","0.0-1.0-269.0-0.0","0","0","54375","","null","","","null","29","","","","","","","","","","","","","","","",""
"","ITI","","html-keyboard-response","180","161055","0.0-1.0-270.0","0","0","54375","","96","","","75","29","","","","","","","","","","","","","","","k",""
"","S1","","html-keyboard-response","181","161322","0.0-1.0-272.0","0","0","54375","","null","","","null","30","","","","","","","","","","","","","","","",""
"","ISI","","html-keyboard-response","182","162334","0.0-1.0-273.0","0","0","54375","","115","","","75","30","k","","","","","","","","","","","","","","",""
"","S2","","html-keyboard-response","183","162393","0.0-1.0-274.0","0","0","54375","","55","","","75","30","","k","1","30","training","adjacent","AB","1","2","M.jpg","N.jpg","1","1","1","",""
"","feedback","","html-keyboard-response","184","163408","0.0-1.0-276.0-0.0","0","0","54375","","null","","","null","30","","","","","","","","","","","","","","","",""
"","ITI","","html-keyboard-response","185","164414","0.0-1.0-279.0","0","0","54375","","53","","","75","30","","","","","","","","","","","","","","","k",""
"","S1","","html-keyboard-response","186","164673","0.0-1.0-281.0","0","0","54375","","null","","","null","31","","","","","","","","","","","","","","","",""
"","ISI","","html-keyboard-response","187","165690","0.0-1.0-282.0","0","0","54375","","148","","","68","31","d","","","","","","","","","","","","","","",""
"","S2","","html-keyboard-response","188","165875","0.0-1.0-283.0","0","0","54375","","182","","","68","31","","d","1","31","training","adjacent","ED","5","4","O.jpg","R.jpg","0","0","1","",""
"","feedback","","html-keyboard-response","189","166890","0.0-1.0-285.0-0.0","0","0","54375","","null","","","null","31","","","","","","","","","","","","","","","",""
"","ITI","","html-keyboard-response","190","167901","0.0-1.0-288.0","0","0","54375","","150","","","75","31","","","","","","","","","","","","","","","k",""
"","S1","","html-keyboard-response","191","168157","0.0-1.0-290.0","0","0","54375","","null","","","null","32","","","","","","","","","","","","","","","",""
"","ISI","","html-keyboard-response","192","169170","0.0-1.0-291.0","0","0","54375","","168","","","68","32","d","","","","","","","","","","","","","","",""
"","S2","","html-keyboard-response","193","169305","0.0-1.0-292.0","0","0","54375","","130","","","68","32","","d","1","32","training","adjacent","EF","5","6","O.jpg","L.jpg","0","1","0","",""
"","feedback","","html-keyboard-response","194","170317","0.0-1.0-294.0-0.0","0","0","54375","","null","","","null","32","","","","","","","","","","","","","","","",""
"","time_out","","html-keyboard-response","195","172326","0.0-1.0-296.0-0.0","0","0","54375","","null","","","null","32","","","","","","","","","","","","","","","",""
"","ITI","","html-keyboard-response","196","173334","0.0-1.0-297.0","0","0","54375","","50","","","68","32","","","","","","","","","","","","","","","d",""
"","S1","","html-keyboard-response","197","173590","0.0-1.0-299.0","0","0","54375","","null","","","null","33","","","","","","","","","","","","","","","",""
"","ISI","","html-keyboard-response","198","174602","0.0-1.0-300.0","0","0","54375","","89","","","68","33","d","","","","","","","","","","","","","","",""
"","S2","","html-keyboard-response","199","174606","0.0-1.0-301.0","0","0","54375","","1","","","75","33","","k","1","33","training","adjacent","AB","1","2","M.jpg","N.jpg","1","1","1","",""
"","feedback","","html-keyboard-response","200","175616","0.0-1.0-303.0-0.0","0","0","54375","","null","","","null","33","","","","","","","","","","","","","","","",""
"","ITI","","html-keyboard-response","201","176624","0.0-1.0-306.0","0","0","54375","","96","","","75","33","","","","","","","","","","","","","","","k",""
"","S1","","html-keyboard-response","202","176890","0.0-1.0-308.0","0","0","54375","","null","","","null","34","","","","","","","","","","","","","","","",""
"","ISI","","html-keyboard-response","203","177899","0.0-1.0-309.0","0","0","54375","","120","","","75","34","k","","","","","","","","","","","","","","",""
"","S2","","html-keyboard-response","204","178067","0.0-1.0-310.0","0","0","54375","","163","","","75","34","","k","1","34","training","adjacent","CD","3","4","Q.jpg","R.jpg","1","1","1","",""
"","feedback","","html-keyboard-response","205","179077","0.0-1.0-312.0-0.0","0","0","54375","","null","","","null","34","","","","","","","","","","","","","","","",""
"","ITI","","html-keyboard-response","206","180087","0.0-1.0-315.0","0","0","54375","","36","","","68","34","","","","","","","","","","","","","","","d",""
"","S1","","html-keyboard-response","207","180343","0.0-1.0-317.0","0","0","54375","","null","","","null","35","","","","","","","","","","","","","","","",""
"","ISI","","html-keyboard-response","208","181350","0.0-1.0-318.0","0","0","54375","","69","","","68","35","d","","","","","","","","","","","","","","",""
"","S2","","html-keyboard-response","209","181552","0.0-1.0-319.0","0","0","54375","","197","","","68","35","","d","1","35","training","adjacent","CD","3","4","Q.jpg","R.jpg","0","1","0","",""
"","feedback","","html-keyboard-response","210","182562","0.0-1.0-321.0-0.0","0","0","54375","","null","","","null","35","","","","","","","","","","","","","","","",""
"","time_out","","html-keyboard-response","211","184573","0.0-1.0-323.0-0.0","0","0","54375","","null","","","null","35","","","","","","","","","","","","","","","",""
"","ITI","","html-keyboard-response","212","185585","0.0-1.0-324.0","0","0","54375","","395","","","68","35","","","","","","","","","","","","","","","d",""
"","S1","","html-keyboard-response","213","185842","0.0-1.0-326.0","0","0","54375","","null","","","null","36","","","","","","","","","","","","","","","",""
"","ISI","","html-keyboard-response","214","186858","0.0-1.0-327.0","0","0","54375","","28","","","68","36","d","","","","","","","","","","","","","","",""
"","S2","","html-keyboard-response","215","186889","0.0-1.0-328.0","0","0","54375","","29","","","68","36","","d","1","36","training","adjacent","BA","2","1","N.jpg","M.jpg","0","0","1","",""
"","feedback","","html-keyboard-response","216","187901","0.0-1.0-330.0-0.0","0","0","54375","","null","","","null","36","","","","","","","","","","","","","","","",""
"","ITI","","html-keyboard-response","217","188913","0.0-1.0-333.0","0","0","54375","","213","","","75","36","","","","","","","","","","","","","","","k",""
"","S1","","html-keyboard-response","218","189178","0.0-1.0-335.0","0","0","54375","","null","","","null","37","","","","","","","","","","","","","","","",""
"","ISI","","html-keyboard-response","219","190190","0.0-1.0-336.0","0","0","54375","","2","","","75","37","k","","","","","","","","","","","","","","",""
"","S2","","html-keyboard-response","220","190296","0.0-1.0-337.0","0","0","54375","","101","","","75","37","","k","1","37","training","adjacent","BC","2","3","N.jpg","Q.jpg","1","1","1","",""
"","feedback","","html-keyboard-response","221","191312","0.0-1.0-339.0-0.0","0","0","54375","","null","","","null","37","","","","","","","","","","","","","","","",""
"","ITI","","html-keyboard-response","222","192319","0.0-1.0-342.0","0","0","54375","","116","","","68","37","","","","","","","","","","","","","","","d",""
"","S1","","html-keyboard-response","223","192581","0.0-1.0-344.0","0","0","54375","","null","","","null","38","","","","","","","","","","","","","","","",""
"","ISI","","html-keyboard-response","224","193590","0.0-1.0-345.0","0","0","54375","","59","","","75","38","k","","","","","","","","","","","","","","",""
"","S2","","html-keyboard-response","225","193613","0.0-1.0-346.0","0","0","54375","","19","","","75","38","","k","1","38","training","adjacent","FE","6","5","L.jpg","O.jpg","1","0","0","",""
"","feedback","","html-keyboard-response","226","194624","0.0-1.0-348.0-0.0","0","0","54375","","null","","","null","38","","","","","","","","","","","","","","","",""
"","time_out","","html-keyboard-response","227","196627","0.0-1.0-350.0-0.0","0","0","54375","","null","","","null","38","","","","","","","","","","","","","","","",""
"","ITI","","html-keyboard-response","228","197642","0.0-1.0-351.0","0","0","54375","","497","","","75","38","","","","","","","","","","","","","","","k",""
"","S1","","html-keyboard-response","229","197903","0.0-1.0-353.0","0","0","54375","","null","","","null","39","","","","","","","","","","","","","","","",""
"","ISI","","html-keyboard-response","230","198911","0.0-1.0-354.0","0","0","54375","","170","","","68","39","d","","","","","","","","","","","","","","",""
"","S2","","html-keyboard-response","231","199049","0.0-1.0-355.0","0","0","54375","","133","","","68","39","","d","1","39","training","adjacent","GF","7","6","P.jpg","L.jpg","0","0","1","",""
"","feedback","","html-keyboard-response","232","200063","0.0-1.0-357.0-0.0","0","0","54375","","null","","","null","39","","","","","","","","","","","","","","","",""
"","ITI","","html-keyboard-response","233","201074","0.0-1.0-360.0","0","0","54375","","1","","","75","39","","","","","","","","","","","","","","","k",""
"","S1","","html-keyboard-response","234","201328","0.0-1.0-362.0","0","0","54375","","null","","","null","40","","","","","","","","","","","","","","","",""
"","ISI","","html-keyboard-response","235","202336","0.0-1.0-363.0","0","0","54375","","165","","","75","40","k","","","","","","","","","","","","","","",""
"","S2","","html-keyboard-response","236","202372","0.0-1.0-364.0","0","0","54375","","32","","","75","40","","k","1","40","training","adjacent","DE","4","5","R.jpg","O.jpg","1","1","1","",""
"","feedback","","html-keyboard-response","237","203386","0.0-1.0-366.0-0.0","0","0","54375","","null","","","null","40","","","","","","","","","","","","","","","",""
"","ITI","","html-keyboard-response","238","204400","0.0-1.0-369.0","0","0","54375","","2","","","75","40","","","","","","","","","","","","","","","k",""
"","S1","","html-keyboard-response","239","204663","0.0-1.0-371.0","0","0","54375","","null","","","null","41","","","","","","","","","","","","","","","",""
"","ISI","","html-keyboard-response","240","205674","0.0-1.0-372.0","0","0","54375","","218","","","75","41","k","","","","","","","","","","","","","","",""
"","S2","","html-keyboard-response","241","205764","0.0-1.0-373.0","0","0","54375","","86","","","75","41","","k","1","41","training","adjacent","GF","7","6","P.jpg","L.jpg","1","0","0","",""
"","feedback","","html-keyboard-response","242","206778","0.0-1.0-375.0-0.0","0","0","54375","","null","","","null","41","","","","","","","","","","","","","","","",""
"","time_out","","html-keyboard-response","243","208790","0.0-1.0-377.0-0.0","0","0","54375","","null","","","null","41","","","","","","","","","","","","","","","",""
"","ITI","","html-keyboard-response","244","209802","0.0-1.0-378.0","0","0","54375","","null","","","null","41","","","","","","","","","","","","","","","NaN",""
"","S1","","html-keyboard-response","245","210067","0.0-1.0-380.0","0","0","54375","","null","","","null","42","","","","","","","","","","","","","","","",""
"","ISI","","html-keyboard-response","246","211077","0.0-1.0-381.0","0","0","54375","","null","","","null","42","NaN","","","","","","","","","","","","","","",""
"","S2","","html-keyboard-response","247","211346","0.0-1.0-382.0","0","0","54375","","null","","","null","42","","NaN","","","","","","","","","","","","","",""
"","response","","html-keyboard-response","248","211429","0.0-1.0-383.0-0.0","0","0","54375","","79","","","75","42","","","1","42","training","adjacent","GF","7","6","P.jpg","L.jpg","1","0","0","",""
"","feedback","","html-keyboard-response","249","212442","0.0-1.0-384.0-0.0","0","0","54375","","null","","","null","42","","","","","","","","","","","","","","","",""
"","time_out","","html-keyboard-response","250","214458","0.0-1.0-386.0-0.0","0","0","54375","","null","","","null","42","","","","","","","","","","","","","","","",""
"","ITI","","html-keyboard-response","251","215471","0.0-1.0-387.0","0","0","54375","","316","","","68","42","","","","","","","","","","","","","","","d",""
"","S1","","html-keyboard-response","252","215734","0.0-1.0-389.0","0","0","54375","","null","","","null","43","","","","","","","","","","","","","","","",""
"","ISI","","html-keyboard-response","253","216744","0.0-1.0-390.0","0","0","54375","","22","","","68","43","d","","","","","","","","","","","","","","",""
"","S2","","html-keyboard-response","254","217006","0.0-1.0-391.0","0","0","54375","","null","","","null","43","","NaN","","","","","","","","","","","","","",""
"","response","","html-keyboard-response","255","217610","0.0-1.0-392.0-0.0","0","0","54375","","600","","","68","43","","","1","43","training","adjacent","DE","4","5","R.jpg","O.jpg","0","1","0","",""
"","feedback","","html-keyboard-response","256","218620","0.0-1.0-393.0-0.0","0","0","54375","","null","","","null","43","","","","","","","","","","","","","","","",""
"","time_out","","html-keyboard-response","257","220633","0.0-1.0-395.0-0.0","0","0","54375","","null","","","null","43","","","","","","","","","","","","","","","",""
"","ITI","","html-keyboard-response","258","221650","0.0-1.0-396.0","0","0","54375","","88","","","75","43","","","","","","","","","","","","","","","k",""
"","S1","","html-keyboard-response","259","221914","0.0-1.0-398.0","0","0","54375","","null","","","null","44","","","","","","","","","","","","","","","",""
"","ISI","","html-keyboard-response","260","222925","0.0-1.0-399.0","0","0","54375","","127","","","75","44","k","","","","","","","","","","","","","","",""
"","S2","","html-keyboard-response","261","222974","0.0-1.0-400.0","0","0","54375","","45","","","75","44","","k","1","44","training","adjacent","CD","3","4","Q.jpg","R.jpg","1","1","1","",""
"","feedback","","html-keyboard-response","262","223985","0.0-1.0-402.0-0.0","0","0","54375","","null","","","null","44","","","","","","","","","","","","","","","",""
"","ITI","","html-keyboard-response","263","225002","0.0-1.0-405.0","0","0","54375","","17","","","75","44","","","","","","","","","","","","","","","k",""
"","S1","","html-keyboard-response","264","225265","0.0-1.0-407.0","0","0","54375","","null","","","null","45","","","","","","","","","","","","","","","",""
"","ISI","","html-keyboard-response","265","226281","0.0-1.0-408.0","0","0","54375","","557","","","68","45","d","","","","","","","","","","","","","","",""
"","S2","","html-keyboard-response","266","226361","0.0-1.0-409.0","0","0","54375","","76","","","68","45","","d","1","45","training","adjacent","CB","3","2","Q.jpg","N.jpg","0","0","1","",""
"","feedback","","html-keyboard-response","267","227375","0.0-1.0-411.0-0.0","0","0","54375","","null","","","null","45","","","","","","","","","","","","","","","",""
"","ITI","","html-keyboard-response","268","228386","0.0-1.0-414.0","0","0","54375","","99","","","75","45","","","","","","","","","","","","","","","k",""
"","S1","","html-keyboard-response","269","228645","0.0-1.0-416.0","0","0","54375","","null","","","null","46","","","","","","","","","","","","","","","",""
"","ISI","","html-keyboard-response","270","229653","0.0-1.0-417.0","0","0","54375","","5","","","75","46","k","","","","","","","","","","","","","","",""
"","S2","","html-keyboard-response","271","229787","0.0-1.0-418.0","0","0","54375","","128","","","75","46","","k","1","46","training","adjacent","EF","5","6","O.jpg","L.jpg","1","1","1","",""
"","feedback","","html-keyboard-response","272","230800","0.0-1.0-420.0-0.0","0","0","54375","","null","","","null","46","","","","","","","","","","","","","","","",""
"","ITI","","html-keyboard-response","273","231818","0.0-1.0-423.0","0","0","54375","","60","","","75","46","","","","","","","","","","","","","","","k",""
"","S1","","html-keyboard-response","274","232077","0.0-1.0-425.0","0","0","54375","","null","","","null","47","","","","","","","","","","","","","","","",""
"","ISI","","html-keyboard-response","275","233089","0.0-1.0-426.0","0","0","54375","","15","","","75","47","k","","","","","","","","","","","","","","",""
"","S2","","html-keyboard-response","276","233134","0.0-1.0-427.0","0","0","54375","","41","","","75","47","","k","1","47","training","adjacent","DE","4","5","R.jpg","O.jpg","1","1","1","",""
"","feedback","","html-keyboard-response","277","234145","0.0-1.0-429.0-0.0","0","0","54375","","null","","","null","47","","","","","","","","","","","","","","","",""
"","ITI","","html-keyboard-response","278","235160","0.0-1.0-432.0","0","0","54375","","97","","","75","47","","","","","","","","","","","","","","","k",""
"","block_over","","html-keyboard-response","279","239210","0.0-1.0-433.0-0.0","0","0","54375","","4045","","","32","47","","","","","","","","","","","","","","","",""
"","S1","","html-keyboard-response","280","239473","0.0-1.0-434.0","0","0","54375","","null","","","null","48","","","","","","","","","","","","","","","",""
"","ISI","","html-keyboard-response","281","240483","0.0-1.0-435.0","0","0","54375","","14","","","75","48","k","","","","","","","","","","","","","","",""
"","S2","","html-keyboard-response","282","240644","0.0-1.0-436.0","0","0","54375","","159","","","75","48","","k","2","48","training","adjacent","AB","1","2","M.jpg","N.jpg","1","1","1","",""
"","feedback","","html-keyboard-response","283","241658","0.0-1.0-438.0-0.0","0","0","54375","","null","","","null","48","","","","","","","","","","","","","","","",""
"","ITI","","html-keyboard-response","284","242670","0.0-1.0-441.0","0","0","54375","","88","","","75","48","","","","","","","","","","","","","","","k",""
"","S1","","html-keyboard-response","285","242936","0.0-1.0-443.0","0","0","54375","","null","","","null","49","","","","","","","","","","","","","","","",""
"","ISI","","html-keyboard-response","286","243945","0.0-1.0-444.0","0","0","54375","","109","","","75","49","k","","","","","","","","","","","","","","",""
"","S2","","html-keyboard-response","287","244017","0.0-1.0-445.0","0","0","54375","","66","","","75","49","","k","2","49","training","adjacent","FE","6","5","L.jpg","O.jpg","1","0","0","",""
"","feedback","","html-keyboard-response","288","245030","0.0-1.0-447.0-0.0","0","0","54375","","null","","","null","49","","","","","","","","","","","","","","","",""
"","time_out","","html-keyboard-response","289","247041","0.0-1.0-449.0-0.0","0","0","54375","","null","","","null","49","","","","","","","","","","","","","","","",""
"","ITI","","html-keyboard-response","290","248058","0.0-1.0-450.0","0","0","54375","","36","","","75","49","","","","","","","","","","","","","","","k",""
"","S1","","html-keyboard-response","291","248319","0.0-1.0-452.0","0","0","54375","","null","","","null","50","","","","","","","","","","","","","","","",""
"","ISI","","html-keyboard-response","292","249330","0.0-1.0-453.0","0","0","54375","","10","","","75","50","k","","","","","","","","","","","","","","",""
"","S2","","html-keyboard-response","293","249456","0.0-1.0-454.0","0","0","54375","","122","","","75","50","","k","2","50","training","adjacent","EF","5","6","O.jpg","L.jpg","1","1","1","",""
"","feedback","","html-keyboard-response","294","250473","0.0-1.0-456.0-0.0","0","0","54375","","null","","","null","50","","","","","","","","","","","","","","","",""
"","ITI","","html-keyboard-response","295","251490","0.0-1.0-459.0","0","0","54375","","163","","","75","50","","","","","","","","","","","","","","","k",""
"","S1","","html-keyboard-response","296","251750","0.0-1.0-461.0","0","0","54375","","null","","","null","51","","","","","","","","","","","","","","","",""
"","ISI","","html-keyboard-response","297","252761","0.0-1.0-462.0","0","0","54375","","119","","","75","51","k","","","","","","","","","","","","","","",""
"","S2","","html-keyboard-response","298","252916","0.0-1.0-463.0","0","0","54375","","150","","","75","51","","k","2","51","training","adjacent","DE","4","5","R.jpg","O.jpg","1","1","1","",""
"","feedback","","html-keyboard-response","299","253926","0.0-1.0-465.0-0.0","0","0","54375","","null","","","null","51","","","","","","","","","","","","","","","",""
"","ITI","","html-keyboard-response","300","254933","0.0-1.0-468.0","0","0","54375","","115","","","75","51","","","","","","","","","","","","","","","k",""
"","S1","","html-keyboard-response","301","255193","0.0-1.0-470.0","0","0","54375","","null","","","null","52","","","","","","","","","","","","","","","",""
"","ISI","","html-keyboard-response","302","256206","0.0-1.0-471.0","0","0","54375","","131","","","68","52","d","","","","","","","","","","","","","","",""
"","S2","","html-keyboard-response","303","256456","0.0-1.0-472.0","0","0","54375","","244","","","68","52","","d","2","52","training","adjacent","BA","2","1","N.jpg","M.jpg","0","0","1","",""
"","feedback","","html-keyboard-response","304","257474","0.0-1.0-474.0-0.0","0","0","54375","","null","","","null","52","","","","","","","","","","","","","","","",""
"","ITI","","html-keyboard-response","305","258486","0.0-1.0-477.0","0","0","54375","","118","","","75","52","","","","","","","","","","","","","","","k",""
"","S1","","html-keyboard-response","306","258751","0.0-1.0-479.0","0","0","54375","","null","","","null","53","","","","","","","","","","","","","","","",""
"","ISI","","html-keyboard-response","307","259761","0.0-1.0-480.0","0","0","54375","","157","","","75","53","k","","","","","","","","","","","","","","",""
"","S2","","html-keyboard-response","308","259835","0.0-1.0-481.0","0","0","54375","","68","","","75","53","","k","2","53","training","adjacent","GF","7","6","P.jpg","L.jpg","1","0","0","",""
"","feedback","","html-keyboard-response","309","260847","0.0-1.0-483.0-0.0","0","0","54375","","null","","","null","53","","","","","","","","","","","","","","","",""
"","time_out","","html-keyboard-response","310","262856","0.0-1.0-485.0-0.0","0","0","54375","","null","","","null","53","","","","","","","","","","","","","","","",""
"","ITI","","html-keyboard-response","311","263865","0.0-1.0-486.0","0","0","54375","","130","","","75","53","","","","","","","","","","","","","","","k",""
"","S1","","html-keyboard-response","312","264125","0.0-1.0-488.0","0","0","54375","","null","","","null","54","","","","","","","","","","","","","","","",""
"","ISI","","html-keyboard-response","313","265134","0.0-1.0-489.0","0","0","54375","","126","","","75","54","k","","","","","","","","","","","","","","",""
"","S2","","html-keyboard-response","314","265147","0.0-1.0-490.0","0","0","54375","","10","","","75","54","","k","2","54","training","adjacent","EF","5","6","O.jpg","L.jpg","1","1","1","",""
"","feedback","","html-keyboard-response","315","266157","0.0-1.0-492.0-0.0","0","0","54375","","null","","","null","54","","","","","","","","","","","","","","","",""
"","ITI","","html-keyboard-response","316","267168","0.0-1.0-495.0","0","0","54375","","163","","","75","54","","","","","","","","","","","","","","","k",""
"","S1","","html-keyboard-response","317","267433","0.0-1.0-497.0","0","0","54375","","null","","","null","55","","","","","","","","","","","","","","","",""
"","ISI","","html-keyboard-response","318","268438","0.0-1.0-498.0","0","0","54375","","39","","","75","55","k","","","","","","","","","","","","","","",""
"","S2","","html-keyboard-response","319","268626","0.0-1.0-499.0","0","0","54375","","184","","","75","55","","k","2","55","training","adjacent","CD","3","4","Q.jpg","R.jpg","1","1","1","",""
"","feedback","","html-keyboard-response","320","269639","0.0-1.0-501.0-0.0","0","0","54375","","null","","","null","55","","","","","","","","","","","","","","","",""
"","ITI","","html-keyboard-response","321","270650","0.0-1.0-504.0","0","0","54375","","121","","","75","55","","","","","","","","","","","","","","","k",""
"","S1","","html-keyboard-response","322","270909","0.0-1.0-506.0","0","0","54375","","null","","","null","56","","","","","","","","","","","","","","","",""
"","ISI","","html-keyboard-response","323","271921","0.0-1.0-507.0","0","0","54375","","null","","","null","56","NaN","","","","","","","","","","","","","","",""
"","S2","","html-keyboard-response","324","272113","0.0-1.0-508.0","0","0","54375","","189","","","68","56","","d","2","56","training","adjacent","BC","2","3","N.jpg","Q.jpg","0","1","0","",""
"","feedback","","html-keyboard-response","325","273127","0.0-1.0-510.0-0.0","0","0","54375","","null","","","null","56","","","","","","","","","","","","","","","",""
"","time_out","","html-keyboard-response","326","275133","0.0-1.0-512.0-0.0","0","0","54375","","null","","","null","56","","","","","","","","","","","","","","","",""
"","ITI","","html-keyboard-response","327","276146","0.0-1.0-513.0","0","0","54375","","195","","","75","56","","","","","","","","","","","","","","","k",""
"","S1","","html-keyboard-response","328","276405","0.0-1.0-515.0","0","0","54375","","null","","","null","57","","","","","","","","","","","","","","","",""
"","ISI","","html-keyboard-response","329","277417","0.0-1.0-516.0","0","0","54375","","9","","","75","57","k","","","","","","","","","","","","","","",""
"","S2","","html-keyboard-response","330","277516","0.0-1.0-517.0","0","0","54375","","93","","","75","57","","k","2","57","training","adjacent","BC","2","3","N.jpg","Q.jpg","1","1","1","",""
"","feedback","","html-keyboard-response","331","278529","0.0-1.0-519.0-0.0","0","0","54375","","null","","","null","57","","","","","","","","","","","","","","","",""
"","ITI","","html-keyboard-response","332","279546","0.0-1.0-522.0","0","0","54375","","55","","","75","57","","","","","","","","","","","","","","","k",""
"","S1","","html-keyboard-response","333","279810","0.0-1.0-524.0","0","0","54375","","null","","","null","58","","","","","","","","","","","","","","","",""
"","ISI","","html-keyboard-response","334","280826","0.0-1.0-525.0","0","0","54375","","141","","","75","58","k","","","","","","","","","","","","","","",""
"","S2","","html-keyboard-response","335","281007","0.0-1.0-526.0","0","0","54375","","176","","","75","58","","k","2","58","training","adjacent","ED","5","4","O.jpg","R.jpg","1","0","0","",""
"","feedback","","html-keyboard-response","336","282023","0.0-1.0-528.0-0.0","0","0","54375","","null","","","null","58","","","","","","","","","","","","","","","",""
"","time_out","","html-keyboard-response","337","284030","0.0-1.0-530.0-0.0","0","0","54375","","null","","","null","58","","","","","","","","","","","","","","","",""
"","ITI","","html-keyboard-response","338","285038","0.0-1.0-531.0","0","0","54375","","178","","","75","58","","","","","","","","","","","","","","","k",""
"","S1","","html-keyboard-response","339","285305","0.0-1.0-533.0","0","0","54375","","null","","","null","59","","","","","","","","","","","","","","","",""
"","ISI","","html-keyboard-response","340","286322","0.0-1.0-534.0","0","0","54375","","142","","","75","59","k","","","","","","","","","","","","","","",""
"","S2","","html-keyboard-response","341","286581","0.0-1.0-535.0","0","0","54375","","null","","","null","59","","NaN","","","","","","","","","","","","","",""
"","response","","html-keyboard-response","342","286931","0.0-1.0-536.0-0.0","0","0","54375","","347","","","75","59","","","2","59","training","adjacent","CD","3","4","Q.jpg","R.jpg","1","1","1","",""
"","feedback","","html-keyboard-response","343","287946","0.0-1.0-537.0-0.0","0","0","54375","","null","","","null","59","","","","","","","","","","","","","","","",""
"","ITI","","html-keyboard-response","344","288961","0.0-1.0-540.0","0","0","54375","","1","","","75","59","","","","","","","","","","","","","","","k",""
"","S1","","html-keyboard-response","345","289225","0.0-1.0-542.0","0","0","54375","","null","","","null","60","","","","","","","","","","","","","","","",""
"","ISI","","html-keyboard-response","346","290238","0.0-1.0-543.0","0","0","54375","","157","","","75","60","k","","","","","","","","","","","","","","",""
"","S2","","html-keyboard-response","347","290308","0.0-1.0-544.0","0","0","54375","","65","","","75","60","","k","2","60","training","adjacent","BA","2","1","N.jpg","M.jpg","1","0","0","",""
"","feedback","","html-keyboard-response","348","291320","0.0-1.0-546.0-0.0","0","0","54375","","null","","","null","60","","","","","","","","","","","","","","","",""
"","time_out","","html-keyboard-response","349","293334","0.0-1.0-548.0-0.0","0","0","54375","","null","","","null","60","","","","","","","","","","","","","","","",""
"","ITI","","html-keyboard-response","350","294341","0.0-1.0-549.0","0","0","54375","","538","","","68","60","","","","","","","","","","","","","","","d",""
"","S1","","html-keyboard-response","351","294600","0.0-1.0-551.0","0","0","54375","","null","","","null","61","","","","","","","","","","","","","","","",""
"","ISI","","html-keyboard-response","352","295605","0.0-1.0-552.0","0","0","54375","","274","","","68","61","d","","","","","","","","","","","","","","",""
"","S2","","html-keyboard-response","353","295725","0.0-1.0-553.0","0","0","54375","","115","","","68","61","","d","2","61","training","adjacent","FG","6","7","L.jpg","P.jpg","0","1","0","",""
"","feedback","","html-keyboard-response","354","296735","0.0-1.0-555.0-0.0","0","0","54375","","null","","","null","61","","","","","","","","","","","","","","","",""
"","time_out","","html-keyboard-response","355","298741","0.0-1.0-557.0-0.0","0","0","54375","","null","","","null","61","","","","","","","","","","","","","","","",""
"","ITI","","html-keyboard-response","356","299750","0.0-1.0-558.0","0","0","54375","","49","","","75","61","","","","","","","","","","","","","","","k",""
"","S1","","html-keyboard-response","357","300009","0.0-1.0-560.0","0","0","54375","","null","","","null","62","","","","","","","","","","","","","","","",""
"","ISI","","html-keyboard-response","358","301025","0.0-1.0-561.0","0","0","54375","","168","","","75","62","k","","","","","","","","","","","","","","",""
"","S2","","html-keyboard-response","359","301213","0.0-1.0-562.0","0","0","54375","","182","","","75","62","","k","2","62","training","adjacent","EF","5","6","O.jpg","L.jpg","1","1","1","",""
"","feedback","","html-keyboard-response","360","302226","0.0-1.0-564.0-0.0","0","0","54375","","null","","","null","62","","","","","","","","","","","","","","","",""
"","ITI","","html-keyboard-response","361","303240","0.0-1.0-567.0","0","0","54375","","167","","","75","62","","","","","","","","","","","","","","","k",""
"","S1","","html-keyboard-response","362","303502","0.0-1.0-569.0","0","0","54375","","null","","","null","63","","","","","","","","","","","","","","","",""
"","ISI","","html-keyboard-response","363","304513","0.0-1.0-570.0","0","0","54375","","727","","","75","63","k","","","","","","","","","","","","","","",""
"","S2","","html-keyboard-response","364","304594","0.0-1.0-571.0","0","0","54375","","75","","","75","63","","k","2","63","training","adjacent","BA","2","1","N.jpg","M.jpg","1","0","0","",""
"","feedback","","html-keyboard-response","365","305605","0.0-1.0-573.0-0.0","0","0","54375","","null","","","null","63","","","","","","","","","","","","","","","",""
"","time_out","","html-keyboard-response","366","307614","0.0-1.0-575.0-0.0","0","0","54375","","null","","","null","63","","","","","","","","","","","","","","","",""
"","ITI","","html-keyboard-response","367","308622","0.0-1.0-576.0","0","0","54375","","364","","","75","63","","","","","","","","","","","","","","","k",""
"","S1","","html-keyboard-response","368","308888","0.0-1.0-578.0","0","0","54375","","null","","","null","64","","","","","","","","","","","","","","","",""
"","ISI","","html-keyboard-response","369","309905","0.0-1.0-579.0","0","0","54375","","58","","","75","64","k","","","","","","","","","","","","","","",""
"","S2","","html-keyboard-response","370","309933","0.0-1.0-580.0","0","0","54375","","25","","","75","64","","k","2","64","training","adjacent","EF","5","6","O.jpg","L.jpg","1","1","1","",""
"","feedback","","html-keyboard-response","371","310945","0.0-1.0-582.0-0.0","0","0","54375","","null","","","null","64","","","","","","","","","","","","","","","",""
"","ITI","","html-keyboard-response","372","311958","0.0-1.0-585.0","0","0","54375","","99","","","75","64","","","","","","","","","","","","","","","k",""
"","S1","","html-keyboard-response","373","312224","0.0-1.0-587.0","0","0","54375","","null","","","null","65","","","","","","","","","","","","","","","",""
"","ISI","","html-keyboard-response","374","313233","0.0-1.0-588.0","0","0","54375","","null","","","null","65","NaN","","","","","","","","","","","","","","",""
"","S2","","html-keyboard-response","375","313239","0.0-1.0-589.0","0","0","54375","","3","","","75","65","","k","2","65","training","adjacent","AB","1","2","M.jpg","N.jpg","1","1","1","",""
"","feedback","","html-keyboard-response","376","314245","0.0-1.0-591.0-0.0","0","0","54375","","null","","","null","65","","","","","","","","","","","","","","","",""
"","ITI","","html-keyboard-response","377","315257","0.0-1.0-594.0","0","0","54375","","19","","","75","65","","","","","","","","","","","","","","","k",""
"","S1","","html-keyboard-response","378","315517","0.0-1.0-596.0","0","0","54375","","null","","","null","66","","","","","","","","","","","","","","","",""
"","ISI","","html-keyboard-response","379","316525","0.0-1.0-597.0","0","0","54375","","376","","","75","66","k","","","","","","","","","","","","","","",""
"","S2","","html-keyboard-response","380","316781","0.0-1.0-598.0","0","0","54375","","null","","","null","66","","NaN","","","","","","","","","","","","","",""
"","response","","html-keyboard-response","381","317008","0.0-1.0-599.0-0.0","0","0","54375","","222","","","75","66","","","2","66","training","adjacent","BC","2","3","N.jpg","Q.jpg","1","1","1","",""
"","feedback","","html-keyboard-response","382","318023","0.0-1.0-600.0-0.0","0","0","54375","","null","","","null","66","","","","","","","","","","","","","","","",""
"","ITI","","html-keyboard-response","383","319030","0.0-1.0-603.0","0","0","54375","","43","","","75","66","","","","","","","","","","","","","","","k",""
"","S1","","html-keyboard-response","384","319296","0.0-1.0-605.0","0","0","54375","","null","","","null","67","","","","","","","","","","","","","","","",""
"","ISI","","html-keyboard-response","385","320305","0.0-1.0-606.0","0","0","54375","","406","","","75","67","k","","","","","","","","","","","","","","",""
"","S2","","html-keyboard-response","386","320419","0.0-1.0-607.0","0","0","54375","","108","","","75","67","","k","2","67","training","adjacent","CB","3","2","Q.jpg","N.jpg","1","0","0","",""
"","feedback","","html-keyboard-response","387","321432","0.0-1.0-609.0-0.0","0","0","54375","","null","","","null","67","","","","","","","","","","","","","","","",""
"","time_out","","html-keyboard-response","388","323444","0.0-1.0-611.0-0.0","0","0","54375","","null","","","null","67","","","","","","","","","","","","","","","",""
"","ITI","","html-keyboard-response","389","324455","0.0-1.0-612.0","0","0","54375","","94","","","75","67","","","","","","","","","","","","","","","k",""
"","S1","","html-keyboard-response","390","324722","0.0-1.0-614.0","0","0","54375","","null","","","null","68","","","","","","","","","","","","","","","",""
"","ISI","","html-keyboard-response","391","325737","0.0-1.0-615.0","0","0","54375","","83","","","75","68","k","","","","","","","","","","","","","","",""
"","S2","","html-keyboard-response","392","325869","0.0-1.0-616.0","0","0","54375","","126","","","75","68","","k","2","68","training","adjacent","DE","4","5","R.jpg","O.jpg","1","1","1","",""
"","feedback","","html-keyboard-response","393","326881","0.0-1.0-618.0-0.0","0","0","54375","","null","","","null","68","","","","","","","","","","","","","","","",""
"","ITI","","html-keyboard-response","394","327895","0.0-1.0-621.0","0","0","54375","","372","","","75","68","","","","","","","","","","","","","","","k",""
"","S1","","html-keyboard-response","395","328161","0.0-1.0-623.0","0","0","54375","","null","","","null","69","","","","","","","","","","","","","","","",""
"","ISI","","html-keyboard-response","396","329173","0.0-1.0-624.0","0","0","54375","","25","","","75","69","k","","","","","","","","","","","","","","",""
"","S2","","html-keyboard-response","397","329442","0.0-1.0-625.0","0","0","54375","","null","","","null","69","","NaN","","","","","","","","","","","","","",""
"","response","","html-keyboard-response","398","329572","0.0-1.0-626.0-0.0","0","0","54375","","127","","","75","69","","","2","69","training","adjacent","CD","3","4","Q.jpg","R.jpg","1","1","1","",""
"","feedback","","html-keyboard-response","399","330585","0.0-1.0-627.0-0.0","0","0","54375","","null","","","null","69","","","","","","","","","","","","","","","",""
"","ITI","","html-keyboard-response","400","331601","0.0-1.0-630.0","0","0","54375","","41","","","75","69","","","","","","","","","","","","","","","k",""
"","S1","","html-keyboard-response","401","331861","0.0-1.0-632.0","0","0","54375","","null","","","null","70","","","","","","","","","","","","","","","",""
"","ISI","","html-keyboard-response","402","332873","0.0-1.0-633.0","0","0","54375","","176","","","75","70","k","","","","","","","","","","","","","","",""
"","S2","","html-keyboard-response","403","333031","0.0-1.0-634.0","0","0","54375","","155","","","75","70","","k","2","70","training","adjacent","BA","2","1","N.jpg","M.jpg","1","0","0","",""
"","feedback","","html-keyboard-response","404","334039","0.0-1.0-636.0-0.0","0","0","54375","","null","","","null","70","","","","","","","","","","","","","","","",""
"","time_out","","html-keyboard-response","405","336046","0.0-1.0-638.0-0.0","0","0","54375","","null","","","null","70","","","","","","","","","","","","","","","",""
"","ITI","","html-keyboard-response","406","337054","0.0-1.0-639.0","0","0","54375","","119","","","75","70","","","","","","","","","","","","","","","k",""
"","S1","","html-keyboard-response","407","337317","0.0-1.0-641.0","0","0","54375","","null","","","null","71","","","","","","","","","","","","","","","",""
"","ISI","","html-keyboard-response","408","338330","0.0-1.0-642.0","0","0","54375","","655","","","75","71","k","","","","","","","","","","","","","","",""
"","S2","","html-keyboard-response","409","338368","0.0-1.0-643.0","0","0","54375","","33","","","75","71","","k","2","71","training","adjacent","GF","7","6","P.jpg","L.jpg","1","0","0","",""
"","feedback","","html-keyboard-response","410","339385","0.0-1.0-645.0-0.0","0","0","54375","","null","","","null","71","","","","","","","","","","","","","","","",""
"","time_out","","html-keyboard-response","411","341401","0.0-1.0-647.0-0.0","0","0","54375","","null","","","null","71","","","","","","","","","","","","","","","",""
"","ITI","","html-keyboard-response","412","342417","0.0-1.0-648.0","0","0","54375","","148","","","75","71","","","","","","","","","","","","","","","k",""
"","S1","","html-keyboard-response","413","342679","0.0-1.0-650.0","0","0","54375","","null","","","null","72","","","","","","","","","","","","","","","",""
"","ISI","","html-keyboard-response","414","343689","0.0-1.0-651.0","0","0","54375","","1","","","75","72","k","","","","","","","","","","","","","","",""
"","S2","","html-keyboard-response","415","343954","0.0-1.0-652.0","0","0","54375","","null","","","null","72","","NaN","","","","","","","","","","","","","",""
"","response","","html-keyboard-response","416","344399","0.0-1.0-653.0-0.0","0","0","54375","","442","","","75","72","","","2","72","training","adjacent","FE","6","5","L.jpg","O.jpg","1","0","0","",""
"","feedback","","html-keyboard-response","417","345410","0.0-1.0-654.0-0.0","0","0","54375","","null","","","null","72","","","","","","","","","","","","","","","",""
"","time_out","","html-keyboard-response","418","347424","0.0-1.0-656.0-0.0","0","0","54375","","null","","","null","72","","","","","","","","","","","","","","","",""
"","ITI","","html-keyboard-response","419","348441","0.0-1.0-657.0","0","0","54375","","327","","","75","72","","","","","","","","","","","","","","","k",""
"","S1","","html-keyboard-response","420","348702","0.0-1.0-659.0","0","0","54375","","null","","","null","73","","","","","","","","","","","","","","","",""
"","ISI","","html-keyboard-response","421","349710","0.0-1.0-660.0","0","0","54375","","32","","","75","73","k","","","","","","","","","","","","","","",""
"","S2","","html-keyboard-response","422","349808","0.0-1.0-661.0","0","0","54375","","93","","","75","73","","k","2","73","training","adjacent","ED","5","4","O.jpg","R.jpg","1","0","0","",""
"","feedback","","html-keyboard-response","423","350825","0.0-1.0-663.0-0.0","0","0","54375","","null","","","null","73","","","","","","","","","","","","","","","",""
"","time_out","","html-keyboard-response","424","352842","0.0-1.0-665.0-0.0","0","0","54375","","null","","","null","73","","","","","","","","","","","","","","","",""
"","ITI","","html-keyboard-response","425","353854","0.0-1.0-666.0","0","0","54375","","489","","","75","73","","","","","","","","","","","","","","","k",""
"","S1","","html-keyboard-response","426","354117","0.0-1.0-668.0","0","0","54375","","null","","","null","74","","","","","","","","","","","","","","","",""
"","ISI","","html-keyboard-response","427","355127","0.0-1.0-669.0","0","0","54375","","390","","","75","74","k","","","","","","","","","","","","","","",""
"","S2","","html-keyboard-response","428","355392","0.0-1.0-670.0","0","0","54375","","null","","","null","74","","NaN","","","","","","","","","","","","","",""
"","response","","html-keyboard-response","429","356734","0.0-1.0-671.0-0.0","0","0","54375","","1336","","","75","74","","","2","74","training","adjacent","DC","4","3","R.jpg","Q.jpg","1","0","0","",""
"","feedback","","html-keyboard-response","430","357744","0.0-1.0-672.0-0.0","0","0","54375","","null","","","null","74","","","","","","","","","","","","","","","",""
"","time_out","","html-keyboard-response","431","359754","0.0-1.0-674.0-0.0","0","0","54375","","null","","","null","74","","","","","","","","","","","","","","","",""
"","ITI","","html-keyboard-response","432","360768","0.0-1.0-675.0","0","0","54375","","35","","","75","74","","","","","","","","","","","","","","","k",""
"","S1","","html-keyboard-response","433","361022","0.0-1.0-677.0","0","0","54375","","null","","","null","75","","","","","","","","","","","","","","","",""
"","ISI","","html-keyboard-response","434","362030","0.0-1.0-678.0","0","0","54375","","196","","","68","75","d","","","","","","","","","","","","","","",""
"","S2","","html-keyboard-response","435","362034","0.0-1.0-679.0","0","0","54375","","0","","","68","75","","d","2","75","training","adjacent","GF","7","6","P.jpg","L.jpg","0","0","1","",""
"","feedback","","html-keyboard-response","436","363049","0.0-1.0-681.0-0.0","0","0","54375","","null","","","null","75","","","","","","","","","","","","","","","",""
"","ITI","","html-keyboard-response","437","364062","0.0-1.0-684.0","0","0","54375","","77","","","68","75","","","","","","","","","","","","","","","d",""
"","S1","","html-keyboard-response","438","364321","0.0-1.0-686.0","0","0","54375","","null","","","null","76","","","","","","","","","","","","","","","",""
"","ISI","","html-keyboard-response","439","365326","0.0-1.0-687.0","0","0","54375","","77","","","68","76","d","","","","","","","","","","","","","","",""
"","S2","","html-keyboard-response","440","365490","0.0-1.0-688.0","0","0","54375","","159","","","68","76","","d","2","76","training","adjacent","DE","4","5","R.jpg","O.jpg","0","1","0","",""
"","feedback","","html-keyboard-response","441","366506","0.0-1.0-690.0-0.0","0","0","54375","","null","","","null","76","","","","","","","","","","","","","","","",""
"","time_out","","html-keyboard-response","442","368519","0.0-1.0-692.0-0.0","0","0","54375","","null","","","null","76","","","","","","","","","","","","","","","",""
"","ITI","","html-keyboard-response","443","369525","0.0-1.0-693.0","0","0","54375","","58","","","75","76","","","","","","","","","","","","","","","k",""
"","S1","","html-keyboard-response","444","369782","0.0-1.0-695.0","0","0","54375","","null","","","null","77","","","","","","","","","","","","","","","",""
"","ISI","","html-keyboard-response","445","370789","0.0-1.0-696.0","0","0","54375","","425","","","75","77","k","","","","","","","","","","","","","","",""
"","S2","","html-keyboard-response","446","370996","0.0-1.0-697.0","0","0","54375","","203","","","75","77","","k","2","77","training","adjacent","CB","3","2","Q.jpg","N.jpg","1","0","0","",""
"","feedback","","html-keyboard-response","447","372009","0.0-1.0-699.0-0.0","0","0","54375","","null","","","null","77","","","","","","","","","","","","","","","",""
"","time_out","","html-keyboard-response","448","374025","0.0-1.0-701.0-0.0","0","0","54375","","null","","","null","77","","","","","","","","","","","","","","","",""
"","ITI","","html-keyboard-response","449","375041","0.0-1.0-702.0","0","0","54375","","25","","","75","77","","","","","","","","","","","","","","","k",""
"","S1","","html-keyboard-response","450","375295","0.0-1.0-704.0","0","0","54375","","null","","","null","78","","","","","","","","","","","","","","","",""
"","ISI","","html-keyboard-response","451","376306","0.0-1.0-705.0","0","0","54375","","174","","","75","78","k","","","","","","","","","","","","","","",""
"","S2","","html-keyboard-response","452","376488","0.0-1.0-706.0","0","0","54375","","177","","","75","78","","k","2","78","training","adjacent","DC","4","3","R.jpg","Q.jpg","1","0","0","",""
"","feedback","","html-keyboard-response","453","377505","0.0-1.0-708.0-0.0","0","0","54375","","null","","","null","78","","","","","","","","","","","","","","","",""
"","time_out","","html-keyboard-response","454","379514","0.0-1.0-710.0-0.0","0","0","54375","","null","","","null","78","","","","","","","","","","","","","","","",""
"","ITI","","html-keyboard-response","455","380526","0.0-1.0-711.0","0","0","54375","","296","","","75","78","","","","","","","","","","","","","","","k",""
"","S1","","html-keyboard-response","456","380781","0.0-1.0-713.0","0","0","54375","","null","","","null","79","","","","","","","","","","","","","","","",""
"","ISI","","html-keyboard-response","457","381793","0.0-1.0-714.0","0","0","54375","","204","","","75","79","k","","","","","","","","","","","","","","",""
"","S2","","html-keyboard-response","458","381838","0.0-1.0-715.0","0","0","54375","","40","","","75","79","","k","2","79","training","adjacent","DE","4","5","R.jpg","O.jpg","1","1","1","",""
"","feedback","","html-keyboard-response","459","382847","0.0-1.0-717.0-0.0","0","0","54375","","null","","","null","79","","","","","","","","","","","","","","","",""
"","ITI","","html-keyboard-response","460","383854","0.0-1.0-720.0","0","0","54375","","95","","","75","79","","","","","","","","","","","","","","","k",""
"","S1","","html-keyboard-response","461","384109","0.0-1.0-722.0","0","0","54375","","null","","","null","80","","","","","","","","","","","","","","","",""
"","ISI","","html-keyboard-response","462","385121","0.0-1.0-723.0","0","0","54375","","362","","","68","80","d","","","","","","","","","","","","","","",""
"","S2","","html-keyboard-response","463","385155","0.0-1.0-724.0","0","0","54375","","29","","","68","80","","d","2","80","training","adjacent","FE","6","5","L.jpg","O.jpg","0","0","1","",""
"","feedback","","html-keyboard-response","464","386169","0.0-1.0-726.0-0.0","0","0","54375","","null","","","null","80","","","","","","","","","","","","","","","",""
"","ITI","","html-keyboard-response","465","387185","0.0-1.0-729.0","0","0","54375","","205","","","68","80","","","","","","","","","","","","","","","d",""
"","S1","","html-keyboard-response","466","387449","0.0-1.0-731.0","0","0","54375","","null","","","null","81","","","","","","","","","","","","","","","",""
"","ISI","","html-keyboard-response","467","388465","0.0-1.0-732.0","0","0","54375","","292","","","75","81","k","","","","","","","","","","","","","","",""
"","S2","","html-keyboard-response","468","388726","0.0-1.0-733.0","0","0","54375","","null","","","null","81","","NaN","","","","","","","","","","","","","",""
"","response","","html-keyboard-response","469","388896","0.0-1.0-734.0-0.0","0","0","54375","","166","","","75","81","","","2","81","training","adjacent","AB","1","2","M.jpg","N.jpg","1","1","1","",""
"","feedback","","html-keyboard-response","470","389912","0.0-1.0-735.0-0.0","0","0","54375","","null","","","null","81","","","","","","","","","","","","","","","",""
"","ITI","","html-keyboard-response","471","390925","0.0-1.0-738.0","0","0","54375","","160","","","75","81","","","","","","","","","","","","","","","k",""
"","S1","","html-keyboard-response","472","391181","0.0-1.0-740.0","0","0","54375","","null","","","null","82","","","","","","","","","","","","","","","",""
"","ISI","","html-keyboard-response","473","392194","0.0-1.0-741.0","0","0","54375","","560","","","68","82","d","","","","","","","","","","","","","","",""
"","S2","","html-keyboard-response","474","392393","0.0-1.0-742.0","0","0","54375","","194","","","68","82","","d","2","82","training","adjacent","ED","5","4","O.jpg","R.jpg","0","0","1","",""
"","feedback","","html-keyboard-response","475","393409","0.0-1.0-744.0-0.0","0","0","54375","","null","","","null","82","","","","","","","","","","","","","","","",""
"","ITI","","html-keyboard-response","476","394424","0.0-1.0-747.0","0","0","54375","","84","","","75","82","","","","","","","","","","","","","","","k",""
"","S1","","html-keyboard-response","477","394684","0.0-1.0-749.0","0","0","54375","","null","","","null","83","","","","","","","","","","","","","","","",""
"","ISI","","html-keyboard-response","478","395693","0.0-1.0-750.0","0","0","54375","","108","","","74","83","j","","","","","","","","","","","","","","",""
"","S2","","html-keyboard-response","479","395953","0.0-1.0-751.0","0","0","54375","","null","","","null","83","","NaN","","","","","","","","","","","","","",""
"","response","","html-keyboard-response","480","397717","0.0-1.0-752.0-0.0","0","0","54375","","null","","","null","83","","","2","83","training","adjacent","FG","6","7","L.jpg","P.jpg","NaN","1","0","",""
"","too_slow_prompt","","html-keyboard-response","481","398730","0.0-1.0-754.0-0.0","1","0","54375","","null","","","null","","","","","","","","","","","","","","","","",""
"","time_out","","html-keyboard-response","482","400746","0.0-1.0-755.0-0.0","0","0","54375","","null","","","null","83","","","","","","","","","","","","","","","",""
"","ITI","","html-keyboard-response","483","401761","0.0-1.0-756.0","0","0","54375","","null","","","null","83","","","","","","","","","","","","","","","NaN",""
"","S1","","html-keyboard-response","484","402025","0.0-1.0-758.0","0","0","54375","","null","","","null","84","","","","","","","","","","","","","","","",""
"","ISI","","html-keyboard-response","485","403040","0.0-1.0-759.0","0","0","54375","","119","","","74","84","j","","","","","","","","","","","","","","",""
"","S2","","html-keyboard-response","486","403306","0.0-1.0-760.0","0","0","54375","","null","","","null","84","","NaN","","","","","","","","","","","","","",""
"","response","","html-keyboard-response","487","404534","0.0-1.0-761.0-0.0","0","0","54375","","1223","","","75","84","","","2","84","training","adjacent","BC","2","3","N.jpg","Q.jpg","1","1","1","",""
"","feedback","","html-keyboard-response","488","405544","0.0-1.0-762.0-0.0","0","0","54375","","null","","","null","84","","","","","","","","","","","","","","","",""
"","ITI","","html-keyboard-response","489","406560","0.0-1.0-765.0","0","0","54375","","380","","","75","84","","","","","","","","","","","","","","","k",""
"","S1","","html-keyboard-response","490","406824","0.0-1.0-767.0","0","0","54375","","null","","","null","85","","","","","","","","","","","","","","","",""
"","ISI","","html-keyboard-response","491","407832","0.0-1.0-768.0","0","0","54375","","67","","","75","85","k","","","","","","","","","","","","","","",""
"","S2","","html-keyboard-response","492","407876","0.0-1.0-769.0","0","0","54375","","41","","","68","85","","d","2","85","training","adjacent","CB","3","2","Q.jpg","N.jpg","0","0","1","",""
"","feedback","","html-keyboard-response","493","408888","0.0-1.0-771.0-0.0","0","0","54375","","null","","","null","85","","","","","","","","","","","","","","","",""
"","ITI","","html-keyboard-response","494","409902","0.0-1.0-774.0","0","0","54375","","119","","","75","85","","","","","","","","","","","","","","","k",""
"","S1","","html-keyboard-response","495","410157","0.0-1.0-776.0","0","0","54375","","null","","","null","86","","","","","","","","","","","","","","","",""
"","ISI","","html-keyboard-response","496","411166","0.0-1.0-777.0","0","0","54375","","49","","","75","86","k","","","","","","","","","","","","","","",""
"","S2","","html-keyboard-response","497","411179","0.0-1.0-778.0","0","0","54375","","10","","","75","86","","k","2","86","training","adjacent","ED","5","4","O.jpg","R.jpg","1","0","0","",""
"","feedback","","html-keyboard-response","498","412191","0.0-1.0-780.0-0.0","0","0","54375","","null","","","null","86","","","","","","","","","","","","","","","",""
"","time_out","","html-keyboard-response","499","414198","0.0-1.0-782.0-0.0","0","0","54375","","null","","","null","86","","","","","","","","","","","","","","","",""
"","ITI","","html-keyboard-response","500","415210","0.0-1.0-783.0","0","0","54375","","143","","","75","86","","","","","","","","","","","","","","","k",""
"","S1","","html-keyboard-response","501","415474","0.0-1.0-785.0","0","0","54375","","null","","","null","87","","","","","","","","","","","","","","","",""
"","ISI","","html-keyboard-response","502","416482","0.0-1.0-786.0","0","0","54375","","10","","","75","87","k","","","","","","","","","","","","","","",""
"","S2","","html-keyboard-response","503","416568","0.0-1.0-787.0","0","0","54375","","83","","","75","87","","k","2","87","training","adjacent","CD","3","4","Q.jpg","R.jpg","1","1","1","",""
"","feedback","","html-keyboard-response","504","417582","0.0-1.0-789.0-0.0","0","0","54375","","null","","","null","87","","","","","","","","","","","","","","","",""
"","ITI","","html-keyboard-response","505","418589","0.0-1.0-792.0","0","0","54375","","127","","","68","87","","","","","","","","","","","","","","","d",""
"","S1","","html-keyboard-response","506","418849","0.0-1.0-794.0","0","0","54375","","null","","","null","88","","","","","","","","","","","","","","","",""
"","ISI","","html-keyboard-response","507","419864","0.0-1.0-795.0","0","0","54375","","10","","","68","88","d","","","","","","","","","","","","","","",""
"","S2","","html-keyboard-response","508","419927","0.0-1.0-796.0","0","0","54375","","57","","","68","88","","d","2","88","training","adjacent","AB","1","2","M.jpg","N.jpg","0","1","0","",""
"","feedback","","html-keyboard-response","509","420934","0.0-1.0-798.0-0.0","0","0","54375","","null","","","null","88","","","","","","","","","","","","","","","",""
"","time_out","","html-keyboard-response","510","422941","0.0-1.0-800.0-0.0","0","0","54375","","null","","","null","88","","","","","","","","","","","","","","","",""
"","ITI","","html-keyboard-response","511","423950","0.0-1.0-801.0","0","0","54375","","73","","","75","88","","","","","","","","","","","","","","","k",""
"","S1","","html-keyboard-response","512","424210","0.0-1.0-803.0","0","0","54375","","null","","","null","89","","","","","","","","","","","","","","","",""
"","ISI","","html-keyboard-response","513","425221","0.0-1.0-804.0","0","0","54375","","241","","","75","89","k","","","","","","","","","","","","","","",""
"","S2","","html-keyboard-response","514","425486","0.0-1.0-805.0","0","0","54375","","259","","","75","89","","k","2","89","training","adjacent","FG","6","7","L.jpg","P.jpg","1","1","1","",""
"","feedback","","html-keyboard-response","515","426496","0.0-1.0-807.0-0.0","0","0","54375","","null","","","null","89","","","","","","","","","","","","","","","",""
"","ITI","","html-keyboard-response","516","427510","0.0-1.0-810.0","0","0","54375","","433","","","75","89","","","","","","","","","","","","","","","k",""
"","S1","","html-keyboard-response","517","427772","0.0-1.0-812.0","0","0","54375","","null","","","null","90","","","","","","","","","","","","","","","",""
"","ISI","","html-keyboard-response","518","428782","0.0-1.0-813.0","0","0","54375","","250","","","75","90","k","","","","","","","","","","","","","","",""
"","S2","","html-keyboard-response","519","428907","0.0-1.0-814.0","0","0","54375","","121","","","75","90","","k","2","90","training","adjacent","DC","4","3","R.jpg","Q.jpg","1","0","0","",""
"","feedback","","html-keyboard-response","520","429917","0.0-1.0-816.0-0.0","0","0","54375","","null","","","null","90","","","","","","","","","","","","","","","",""
"","time_out","","html-keyboard-response","521","431925","0.0-1.0-818.0-0.0","0","0","54375","","null","","","null","90","","","","","","","","","","","","","","","",""
"","ITI","","html-keyboard-response","522","432937","0.0-1.0-819.0","0","0","54375","","286","","","75","90","","","","","","","","","","","","","","","k",""
"","S1","","html-keyboard-response","523","433197","0.0-1.0-821.0","0","0","54375","","null","","","null","91","","","","","","","","","","","","","","","",""
"","ISI","","html-keyboard-response","524","434205","0.0-1.0-822.0","0","0","54375","","131","","","75","91","k","","","","","","","","","","","","","","",""
"","S2","","html-keyboard-response","525","434461","0.0-1.0-823.0","0","0","54375","","null","","","null","91","","NaN","","","","","","","","","","","","","",""
"","response","","html-keyboard-response","526","435729","0.0-1.0-824.0-0.0","0","0","54375","","1262","","","75","91","","","2","91","training","adjacent","GF","7","6","P.jpg","L.jpg","1","0","0","",""
"","feedback","","html-keyboard-response","527","436742","0.0-1.0-825.0-0.0","0","0","54375","","null","","","null","91","","","","","","","","","","","","","","","",""
"","time_out","","html-keyboard-response","528","438750","0.0-1.0-827.0-0.0","0","0","54375","","null","","","null","91","","","","","","","","","","","","","","","",""
"","ITI","","html-keyboard-response","529","439759","0.0-1.0-828.0","0","0","54375","","340","","","75","91","","","","","","","","","","","","","","","k",""
"","S1","","html-keyboard-response","530","440024","0.0-1.0-830.0","0","0","54375","","null","","","null","92","","","","","","","","","","","","","","","",""
"","ISI","","html-keyboard-response","531","441029","0.0-1.0-831.0","0","0","54375","","355","","","75","92","k","","","","","","","","","","","","","","",""
"","S2","","html-keyboard-response","532","441298","0.0-1.0-832.0","0","0","54375","","null","","","null","92","","NaN","","","","","","","","","","","","","",""
"","response","","html-keyboard-response","533","441310","0.0-1.0-833.0-0.0","0","0","54375","","9","","","68","92","","","2","92","training","adjacent","FE","6","5","L.jpg","O.jpg","0","0","1","",""
"","feedback","","html-keyboard-response","534","442319","0.0-1.0-834.0-0.0","0","0","54375","","null","","","null","92","","","","","","","","","","","","","","","",""
"","ITI","","html-keyboard-response","535","443330","0.0-1.0-837.0","0","0","54375","","55","","","68","92","","","","","","","","","","","","","","","d",""
"","S1","","html-keyboard-response","536","443592","0.0-1.0-839.0","0","0","54375","","null","","","null","93","","","","","","","","","","","","","","","",""
"","ISI","","html-keyboard-response","537","444609","0.0-1.0-840.0","0","0","54375","","242","","","75","93","k","","","","","","","","","","","","","","",""
"","S2","","html-keyboard-response","538","444775","0.0-1.0-841.0","0","0","54375","","161","","","75","93","","k","2","93","training","adjacent","DC","4","3","R.jpg","Q.jpg","1","0","0","",""
"","feedback","","html-keyboard-response","539","445794","0.0-1.0-843.0-0.0","0","0","54375","","null","","","null","93","","","","","","","","","","","","","","","",""
"","time_out","","html-keyboard-response","540","447809","0.0-1.0-845.0-0.0","0","0","54375","","null","","","null","93","","","","","","","","","","","","","","","",""
"","ITI","","html-keyboard-response","541","448819","0.0-1.0-846.0","0","0","54375","","431","","","75","93","","","","","","","","","","","","","","","k",""
"","S1","","html-keyboard-response","542","449078","0.0-1.0-848.0","0","0","54375","","null","","","null","94","","","","","","","","","","","","","","","",""
"","ISI","","html-keyboard-response","543","450085","0.0-1.0-849.0","0","0","54375","","323","","","75","94","k","","","","","","","","","","","","","","",""
"","S2","","html-keyboard-response","544","450253","0.0-1.0-850.0","0","0","54375","","163","","","75","94","","k","2","94","training","adjacent","CB","3","2","Q.jpg","N.jpg","1","0","0","",""
"","feedback","","html-keyboard-response","545","451265","0.0-1.0-852.0-0.0","0","0","54375","","null","","","null","94","","","","","","","","","","","","","","","",""
"","time_out","","html-keyboard-response","546","453273","0.0-1.0-854.0-0.0","0","0","54375","","null","","","null","94","","","","","","","","","","","","","","","",""
"","ITI","","html-keyboard-response","547","454288","0.0-1.0-855.0","0","0","54375","","null","","","null","94","","","","","","","","","","","","","","","NaN",""
"","S1","","html-keyboard-response","548","454553","0.0-1.0-857.0","0","0","54375","","null","","","null","95","","","","","","","","","","","","","","","",""
"","ISI","","html-keyboard-response","549","455559","0.0-1.0-858.0","0","0","54375","","null","","","null","95","NaN","","","","","","","","","","","","","","",""
"","S2","","html-keyboard-response","550","455820","0.0-1.0-859.0","0","0","54375","","null","","","null","95","","NaN","","","","","","","","","","","","","",""
"","response","","html-keyboard-response","551","456659","0.0-1.0-860.0-0.0","0","0","54375","","835","","","75","95","","","2","95","training","adjacent","FG","6","7","L.jpg","P.jpg","1","1","1","",""
"","feedback","","html-keyboard-response","552","457674","0.0-1.0-861.0-0.0","0","0","54375","","null","","","null","95","","","","","","","","","","","","","","","",""
"","ITI","","html-keyboard-response","553","458685","0.0-1.0-864.0","0","0","54375","","581","","","75","95","","","","","","","","","","","","","","","k",""
"","block_over","","html-keyboard-response","554","471789","0.0-1.0-865.0-0.0","0","0","54375","","13098","","","32","95","","","","","","","","","","","","","","","",""
"","S1","","html-keyboard-response","555","472049","0.0-1.0-866.0","0","0","54375","","null","","","null","96","","","","","","","","","","","","","","","",""
"","ISI","","html-keyboard-response","556","473057","0.0-1.0-867.0","0","0","54375","","158","","","75","96","k","","","","","","","","","","","","","","",""
"","S2","","html-keyboard-response","557","473088","0.0-1.0-868.0","0","0","54375","","26","","","75","96","","k","3","96","training","adjacent","AB","1","2","M.jpg","N.jpg","1","1","1","",""
"","feedback","","html-keyboard-response","558","474102","0.0-1.0-870.0-0.0","0","0","54375","","null","","","null","96","","","","","","","","","","","","","","","",""
"","ITI","","html-keyboard-response","559","475111","0.0-1.0-873.0","0","0","54375","","362","","","68","96","","","","","","","","","","","","","","","d",""
"","S1","","html-keyboard-response","560","475377","0.0-1.0-875.0","0","0","54375","","null","","","null","97","","","","","","","","","","","","","","","",""
"","ISI","","html-keyboard-response","561","476392","0.0-1.0-876.0","0","0","54375","","110","","","68","97","d","","","","","","","","","","","","","","",""
"","S2","","html-keyboard-response","562","476397","0.0-1.0-877.0","0","0","54375","","2","","","68","97","","d","3","97","training","adjacent","ED","5","4","O.jpg","R.jpg","0","0","1","",""
"","feedback","","html-keyboard-response","563","477404","0.0-1.0-879.0-0.0","0","0","54375","","null","","","null","97","","","","","","","","","","","","","","","",""
"","ITI","","html-keyboard-response","564","478418","0.0-1.0-882.0","0","0","54375","","84","","","75","97","","","","","","","","","","","","","","","k",""
"","S1","","html-keyboard-response","565","478681","0.0-1.0-884.0","0","0","54375","","null","","","null","98","","","","","","","","","","","","","","","",""
"","ISI","","html-keyboard-response","566","479694","0.0-1.0-885.0","0","0","54375","","200","","","75","98","k","","","","","","","","","","","","","","",""
"","S2","","html-keyboard-response","567","479831","0.0-1.0-886.0","0","0","54375","","133","","","75","98","","k","3","98","training","adjacent","EF","5","6","O.jpg","L.jpg","1","1","1","",""
"","feedback","","html-keyboard-response","568","480837","0.0-1.0-888.0-0.0","0","0","54375","","null","","","null","98","","","","","","","","","","","","","","","",""
"","ITI","","html-keyboard-response","569","481850","0.0-1.0-891.0","0","0","54375","","197","","","75","98","","","","","","","","","","","","","","","k",""
"","S1","","html-keyboard-response","570","482110","0.0-1.0-893.0","0","0","54375","","null","","","null","99","","","","","","","","","","","","","","","",""
"","ISI","","html-keyboard-response","571","483117","0.0-1.0-894.0","0","0","54375","","86","","","75","99","k","","","","","","","","","","","","","","",""
"","S2","","html-keyboard-response","572","483381","0.0-1.0-895.0","0","0","54375","","null","","","null","99","","NaN","","","","","","","","","","","","","",""
"","response","","html-keyboard-response","573","483518","0.0-1.0-896.0-0.0","0","0","54375","","133","","","68","99","","","3","99","training","adjacent","FG","6","7","L.jpg","P.jpg","0","1","0","",""
"","feedback","","html-keyboard-response","574","484527","0.0-1.0-897.0-0.0","0","0","54375","","null","","","null","99","","","","","","","","","","","","","","","",""
"","time_out","","html-keyboard-response","575","486535","0.0-1.0-899.0-0.0","0","0","54375","","null","","","null","99","","","","","","","","","","","","","","","",""
"","ITI","","html-keyboard-response","576","487542","0.0-1.0-900.0","0","0","54375","","73","","","75","99","","","","","","","","","","","","","","","k",""
"","S1","","html-keyboard-response","577","487805","0.0-1.0-902.0","0","0","54375","","null","","","null","100","","","","","","","","","","","","","","","",""
"","ISI","","html-keyboard-response","578","488817","0.0-1.0-903.0","0","0","54375","","182","","","75","100","k","","","","","","","","","","","","","","",""
"","S2","","html-keyboard-response","579","488855","0.0-1.0-904.0","0","0","54375","","36","","","75","100","","k","3","100","training","adjacent","DC","4","3","R.jpg","Q.jpg","1","0","0","",""
"","feedback","","html-keyboard-response","580","489863","0.0-1.0-906.0-0.0","0","0","54375","","null","","","null","100","","","","","","","","","","","","","","","",""
"","time_out","","html-keyboard-response","581","491870","0.0-1.0-908.0-0.0","0","0","54375","","null","","","null","100","","","","","","","","","","","","","","","",""
"","ITI","","html-keyboard-response","582","492881","0.0-1.0-909.0","0","0","54375","","null","","","null","100","","","","","","","","","","","","","","","NaN",""
"","S1","","html-keyboard-response","583","493142","0.0-1.0-911.0","0","0","54375","","null","","","null","101","","","","","","","","","","","","","","","",""
"","ISI","","html-keyboard-response","584","494150","0.0-1.0-912.0","0","0","54375","","null","","","null","101","NaN","","","","","","","","","","","","","","",""
"","S2","","html-keyboard-response","585","494409","0.0-1.0-913.0","0","0","54375","","null","","","null","101","","NaN","","","","","","","","","","","","","",""
"","response","","html-keyboard-response","586","494621","0.0-1.0-914.0-0.0","0","0","54375","","208","","","75","101","","","3","101","training","adjacent","GF","7","6","P.jpg","L.jpg","1","0","0","",""
"","feedback","","html-keyboard-response","587","495632","0.0-1.0-915.0-0.0","0","0","54375","","null","","","null","101","","","","","","","","","","","","","","","",""
"","time_out","","html-keyboard-response","588","497640","0.0-1.0-917.0-0.0","0","0","54375","","null","","","null","101","","","","","","","","","","","","","","","",""
"","ITI","","html-keyboard-response","589","498653","0.0-1.0-918.0","0","0","54375","","725","","","75","101","","","","","","","","","","","","","","","k",""
