"success","ttype","start_time","trial_type","trial_index","time_elapsed","internal_node_id","warning","missed_checkup","PID","view_history","rt","responses","repeat_instructions","key_press","index","keypress_isi","keypress_S2","block","trial_num","phase","group_type","pair_type","S1_stim","S2_stim","S1_img","S2_img","S1_chosen","S1_higher","accuracy","keypress_iti","total_bonus_tally"
"true","full_screen","d04132023hr1606","fullscreen","0","5032","0.0-0.0","0","0","31670","","","","","","","","","","","","","","","","","","","","","",""
"","instructions","","instructions","1","50831","0.0-1.0-0.0-0.0","0","0","31670","[{""page_index"":0,""viewing_time"":5918},{""page_index"":1,""viewing_time"":8642},{""page_index"":2,""viewing_time"":10408},{""page_index"":1,""viewing_time"":18315},{""page_index"":2,""viewing_time"":1223},{""page_index"":3,""viewing_time"":1289}]","45796","","","","","","","","","","","","","","","","","","","",""
"","comprehension_check","","survey-multi-choice","2","69728","0.0-1.0-0.0-1.0","0","0","31670","","18890","{""Q0"":""True"",""Q1"":""D"",""Q2"":""Once the second image appears and while the screen 'MAKE A CHOICE' is shown"",""Q3"":""Green mark"",""Q4"":""either D or K""}","0","","","","","","","","","","","","","","","","","",""
"","start_exp","","html-keyboard-response","3","74547","0.0-1.0-1.0","0","0","31670","","4814","","","32","","","","","","","","","","","","","","","","",""
"","S1","","html-keyboard-response","4","74810","0.0-1.0-2.0","0","0","31670","","null","","","null","0","","","","","","","","","","","","","","","",""
"","ISI","","html-keyboard-response","5","75815","0.0-1.0-3.0","0","0","31670","","null","","","null","0","NaN","","","","","","","","","","","","","","",""
"","S2","","html-keyboard-response","6","76076","0.0-1.0-4.0","0","0","31670","","null","","","null","0","","NaN","","","","","","","","","","","","","",""
"","response","","html-keyboard-response","7","76763","0.0-1.0-5.0-0.0","0","0","31670","","686","","","68","0","","","1","0","training","adjacent","DC","4","3","R.jpg","L.jpg","1","0","0","",""
"","feedback","","html-keyboard-response","8","77768","0.0-1.0-6.0-0.0","0","0","31670","","null","","","null","0","","","","","","","","","","","","","","","",""
"","time_out","","html-keyboard-response","9","79776","0.0-1.0-8.0-0.0","0","0","31670","","null","","","null","0","","","","","","","","","","","","","","","",""
"","ITI","","html-keyboard-response","10","80784","0.0-1.0-9.0","0","0","31670","","null","","","null","0","","","","","","","","","","","","","","","NaN",""
"","S1","","html-keyboard-response","11","81039","0.0-1.0-11.0","0","0","31670","","null","","","null","1","","","","","","","","","","","","","","","",""
"","ISI","","html-keyboard-response","12","82048","0.0-1.0-12.0","0","0","31670","","null","","","null","1","NaN","","","","","","","","","","","","","","",""
"","S2","","html-keyboard-response","13","82305","0.0-1.0-13.0","0","0","31670","","null","","","null","1","","NaN","","","","","","","","","","","","","",""
"","response","","html-keyboard-response","14","82854","0.0-1.0-14.0-0.0","0","0","31670","","548","","","75","1","","","1","1","training","adjacent","CD","3","4","L.jpg","R.jpg","0","1","0","",""
"","feedback","","html-keyboard-response","15","83866","0.0-1.0-15.0-0.0","0","0","31670","","null","","","null","1","","","","","","","","","","","","","","","",""
"","time_out","","html-keyboard-response","16","85875","0.0-1.0-17.0-0.0","0","0","31670","","null","","","null","1","","","","","","","","","","","","","","","",""
"","ITI","","html-keyboard-response","17","86880","0.0-1.0-18.0","0","0","31670","","null","","","null","1","","","","","","","","","","","","","","","NaN",""
"","S1","","html-keyboard-response","18","87140","0.0-1.0-20.0","0","0","31670","","null","","","null","2","","","","","","","","","","","","","","","",""
"","ISI","","html-keyboard-response","19","88145","0.0-1.0-21.0","0","0","31670","","172","","","68","2","d","","","","","","","","","","","","","","",""
"","S2","","html-keyboard-response","20","88400","0.0-1.0-22.0","0","0","31670","","null","","","null","2","","NaN","","","","","","","","","","","","","",""
"","response","","html-keyboard-response","21","88610","0.0-1.0-23.0-0.0","0","0","31670","","209","","","68","2","","","1","2","training","adjacent","CD","3","4","L.jpg","R.jpg","1","1","1","",""
"","feedback","","html-keyboard-response","22","89619","0.0-1.0-24.0-0.0","0","0","31670","","null","","","null","2","","","","","","","","","","","","","","","",""
"","ITI","","html-keyboard-response","23","90623","0.0-1.0-27.0","0","0","31670","","null","","","null","2","","","","","","","","","","","","","","","NaN",""
"","S1","","html-keyboard-response","24","90879","0.0-1.0-29.0","0","0","31670","","null","","","null","3","","","","","","","","","","","","","","","",""
"","ISI","","html-keyboard-response","25","91889","0.0-1.0-30.0","0","0","31670","","null","","","null","3","NaN","","","","","","","","","","","","","","",""
"","S2","","html-keyboard-response","26","92144","0.0-1.0-31.0","0","0","31670","","null","","","null","3","","NaN","","","","","","","","","","","","","",""
"","response","","html-keyboard-response","27","92366","0.0-1.0-32.0-0.0","0","0","31670","","221","","","68","3","","","1","3","training","adjacent","FG","6","7","N.jpg","P.jpg","1","1","1","",""
"","feedback","","html-keyboard-response","28","93375","0.0-1.0-33.0-0.0","0","0","31670","","null","","","null","3","","","","","","","","","","","","","","","",""
"","ITI","","html-keyboard-response","29","94384","0.0-1.0-36.0","0","0","31670","","null","","","null","3","","","","","","","","","","","","","","","NaN",""
"","S1","","html-keyboard-response","30","94639","0.0-1.0-38.0","0","0","31670","","null","","","null","4","","","","","","","","","","","","","","","",""
"","ISI","","html-keyboard-response","31","95649","0.0-1.0-39.0","0","0","31670","","null","","","null","4","NaN","","","","","","","","","","","","","","",""
"","S2","","html-keyboard-response","32","95906","0.0-1.0-40.0","0","0","31670","","null","","","null","4","","NaN","","","","","","","","","","","","","",""
"","response","","html-keyboard-response","33","96025","0.0-1.0-41.0-0.0","0","0","31670","","118","","","68","4","","","1","4","training","adjacent","BC","2","3","O.jpg","L.jpg","1","1","1","",""
"","feedback","","html-keyboard-response","34","97030","0.0-1.0-42.0-0.0","0","0","31670","","null","","","null","4","","","","","","","","","","","","","","","",""
"","ITI","","html-keyboard-response","35","98041","0.0-1.0-45.0","0","0","31670","","null","","","null","4","","","","","","","","","","","","","","","NaN",""
"","S1","","html-keyboard-response","36","98296","0.0-1.0-47.0","0","0","31670","","null","","","null","5","","","","","","","","","","","","","","","",""
"","ISI","","html-keyboard-response","37","99305","0.0-1.0-48.0","0","0","31670","","null","","","null","5","NaN","","","","","","","","","","","","","","",""
"","S2","","html-keyboard-response","38","99562","0.0-1.0-49.0","0","0","31670","","null","","","null","5","","NaN","","","","","","","","","","","","","",""
"","response","","html-keyboard-response","39","99677","0.0-1.0-50.0-0.0","0","0","31670","","114","","","68","5","","","1","5","training","adjacent","FG","6","7","N.jpg","P.jpg","1","1","1","",""
"","feedback","","html-keyboard-response","40","100688","0.0-1.0-51.0-0.0","0","0","31670","","null","","","null","5","","","","","","","","","","","","","","","",""
"","ITI","","html-keyboard-response","41","101701","0.0-1.0-54.0","0","0","31670","","null","","","null","5","","","","","","","","","","","","","","","NaN",""
"","S1","","html-keyboard-response","42","101959","0.0-1.0-56.0","0","0","31670","","null","","","null","6","","","","","","","","","","","","","","","",""
"","ISI","","html-keyboard-response","43","102971","0.0-1.0-57.0","0","0","31670","","null","","","null","6","NaN","","","","","","","","","","","","","","",""
"","S2","","html-keyboard-response","44","103232","0.0-1.0-58.0","0","0","31670","","null","","","null","6","","NaN","","","","","","","","","","","","","",""
"","response","","html-keyboard-response","45","103668","0.0-1.0-59.0-0.0","0","0","31670","","434","","","68","6","","","1","6","training","adjacent","DE","4","5","R.jpg","Q.jpg","1","1","1","",""
"","feedback","","html-keyboard-response","46","104672","0.0-1.0-60.0-0.0","0","0","31670","","null","","","null","6","","","","","","","","","","","","","","","",""
"","ITI","","html-keyboard-response","47","105682","0.0-1.0-63.0","0","0","31670","","null","","","null","6","","","","","","","","","","","","","","","NaN",""
"","S1","","html-keyboard-response","48","105937","0.0-1.0-65.0","0","0","31670","","null","","","null","7","","","","","","","","","","","","","","","",""
"","ISI","","html-keyboard-response","49","106948","0.0-1.0-66.0","0","0","31670","","null","","","null","7","NaN","","","","","","","","","","","","","","",""
"","S2","","html-keyboard-response","50","107209","0.0-1.0-67.0","0","0","31670","","null","","","null","7","","NaN","","","","","","","","","","","","","",""
"","response","","html-keyboard-response","51","107381","0.0-1.0-68.0-0.0","0","0","31670","","170","","","68","7","","","1","7","training","adjacent","DE","4","5","R.jpg","Q.jpg","1","1","1","",""
"","feedback","","html-keyboard-response","52","108393","0.0-1.0-69.0-0.0","0","0","31670","","null","","","null","7","","","","","","","","","","","","","","","",""
"","ITI","","html-keyboard-response","53","109403","0.0-1.0-72.0","0","0","31670","","null","","","null","7","","","","","","","","","","","","","","","NaN",""
"","S1","","html-keyboard-response","54","109664","0.0-1.0-74.0","0","0","31670","","null","","","null","8","","","","","","","","","","","","","","","",""
"","ISI","","html-keyboard-response","55","110674","0.0-1.0-75.0","0","0","31670","","null","","","null","8","NaN","","","","","","","","","","","","","","",""
"","S2","","html-keyboard-response","56","110929","0.0-1.0-76.0","0","0","31670","","null","","","null","8","","NaN","","","","","","","","","","","","","",""
"","response","","html-keyboard-response","57","111043","0.0-1.0-77.0-0.0","0","0","31670","","112","","","68","8","","","1","8","training","adjacent","CD","3","4","L.jpg","R.jpg","1","1","1","",""
"","feedback","","html-keyboard-response","58","112050","0.0-1.0-78.0-0.0","0","0","31670","","null","","","null","8","","","","","","","","","","","","","","","",""
"","ITI","","html-keyboard-response","59","113060","0.0-1.0-81.0","0","0","31670","","null","","","null","8","","","","","","","","","","","","","","","NaN",""
"","S1","","html-keyboard-response","60","113322","0.0-1.0-83.0","0","0","31670","","null","","","null","9","","","","","","","","","","","","","","","",""
"","ISI","","html-keyboard-response","61","114332","0.0-1.0-84.0","0","0","31670","","null","","","null","9","NaN","","","","","","","","","","","","","","",""
"","S2","","html-keyboard-response","62","114593","0.0-1.0-85.0","0","0","31670","","null","","","null","9","","NaN","","","","","","","","","","","","","",""
"","response","","html-keyboard-response","63","114643","0.0-1.0-86.0-0.0","0","0","31670","","47","","","68","9","","","1","9","training","adjacent","BC","2","3","O.jpg","L.jpg","1","1","1","",""
"","feedback","","html-keyboard-response","64","115648","0.0-1.0-87.0-0.0","0","0","31670","","null","","","null","9","","","","","","","","","","","","","","","",""
"","ITI","","html-keyboard-response","65","116659","0.0-1.0-90.0","0","0","31670","","null","","","null","9","","","","","","","","","","","","","","","NaN",""
"","S1","","html-keyboard-response","66","116915","0.0-1.0-92.0","0","0","31670","","null","","","null","10","","","","","","","","","","","","","","","",""
"","ISI","","html-keyboard-response","67","117925","0.0-1.0-93.0","0","0","31670","","null","","","null","10","NaN","","","","","","","","","","","","","","",""
"","S2","","html-keyboard-response","68","118185","0.0-1.0-94.0","0","0","31670","","null","","","null","10","","NaN","","","","","","","","","","","","","",""
"","response","","html-keyboard-response","69","118269","0.0-1.0-95.0-0.0","0","0","31670","","82","","","68","10","","","1","10","training","adjacent","EF","5","6","Q.jpg","N.jpg","1","1","1","",""
"","feedback","","html-keyboard-response","70","119272","0.0-1.0-96.0-0.0","0","0","31670","","null","","","null","10","","","","","","","","","","","","","","","",""
"","ITI","","html-keyboard-response","71","120282","0.0-1.0-99.0","0","0","31670","","null","","","null","10","","","","","","","","","","","","","","","NaN",""
"","S1","","html-keyboard-response","72","120537","0.0-1.0-101.0","0","0","31670","","null","","","null","11","","","","","","","","","","","","","","","",""
"","ISI","","html-keyboard-response","73","121548","0.0-1.0-102.0","0","0","31670","","null","","","null","11","NaN","","","","","","","","","","","","","","",""
"","S2","","html-keyboard-response","74","121808","0.0-1.0-103.0","0","0","31670","","null","","","null","11","","NaN","","","","","","","","","","","","","",""
"","response","","html-keyboard-response","75","121998","0.0-1.0-104.0-0.0","0","0","31670","","188","","","68","11","","","1","11","training","adjacent","BC","2","3","O.jpg","L.jpg","1","1","1","",""
"","feedback","","html-keyboard-response","76","123010","0.0-1.0-105.0-0.0","0","0","31670","","null","","","null","11","","","","","","","","","","","","","","","",""
"","ITI","","html-keyboard-response","77","124021","0.0-1.0-108.0","0","0","31670","","null","","","null","11","","","","","","","","","","","","","","","NaN",""
"","S1","","html-keyboard-response","78","124281","0.0-1.0-110.0","0","0","31670","","null","","","null","12","","","","","","","","","","","","","","","",""
"","ISI","","html-keyboard-response","79","125292","0.0-1.0-111.0","0","0","31670","","null","","","null","12","NaN","","","","","","","","","","","","","","",""
"","S2","","html-keyboard-response","80","125553","0.0-1.0-112.0","0","0","31670","","null","","","null","12","","NaN","","","","","","","","","","","","","",""
"","response","","html-keyboard-response","81","125662","0.0-1.0-113.0-0.0","0","0","31670","","106","","","68","12","","","1","12","training","adjacent","DC","4","3","R.jpg","L.jpg","1","0","0","",""
"","feedback","","html-keyboard-response","82","126673","0.0-1.0-114.0-0.0","0","0","31670","","null","","","null","12","","","","","","","","","","","","","","","",""
"","time_out","","html-keyboard-response","83","128684","0.0-1.0-116.0-0.0","0","0","31670","","null","","","null","12","","","","","","","","","","","","","","","",""
"","ITI","","html-keyboard-response","84","129692","0.0-1.0-117.0","0","0","31670","","null","","","null","12","","","","","","","","","","","","","","","NaN",""
"","S1","","html-keyboard-response","85","129953","0.0-1.0-119.0","0","0","31670","","null","","","null","13","","","","","","","","","","","","","","","",""
"","ISI","","html-keyboard-response","86","130964","0.0-1.0-120.0","0","0","31670","","null","","","null","13","NaN","","","","","","","","","","","","","","",""
"","S2","","html-keyboard-response","87","131224","0.0-1.0-121.0","0","0","31670","","null","","","null","13","","NaN","","","","","","","","","","","","","",""
"","response","","html-keyboard-response","88","131379","0.0-1.0-122.0-0.0","0","0","31670","","153","","","75","13","","","1","13","training","adjacent","BC","2","3","O.jpg","L.jpg","0","1","0","",""
"","feedback","","html-keyboard-response","89","132386","0.0-1.0-123.0-0.0","0","0","31670","","null","","","null","13","","","","","","","","","","","","","","","",""
"","time_out","","html-keyboard-response","90","134394","0.0-1.0-125.0-0.0","0","0","31670","","null","","","null","13","","","","","","","","","","","","","","","",""
"","ITI","","html-keyboard-response","91","135405","0.0-1.0-126.0","0","0","31670","","null","","","null","13","","","","","","","","","","","","","","","NaN",""
"","S1","","html-keyboard-response","92","135666","0.0-1.0-128.0","0","0","31670","","null","","","null","14","","","","","","","","","","","","","","","",""
"","ISI","","html-keyboard-response","93","136676","0.0-1.0-129.0","0","0","31670","","null","","","null","14","NaN","","","","","","","","","","","","","","",""
"","S2","","html-keyboard-response","94","136937","0.0-1.0-130.0","0","0","31670","","null","","","null","14","","NaN","","","","","","","","","","","","","",""
"","response","","html-keyboard-response","95","137104","0.0-1.0-131.0-0.0","0","0","31670","","165","","","68","14","","","1","14","training","adjacent","EF","5","6","Q.jpg","N.jpg","1","1","1","",""
"","feedback","","html-keyboard-response","96","138115","0.0-1.0-132.0-0.0","0","0","31670","","null","","","null","14","","","","","","","","","","","","","","","",""
"","ITI","","html-keyboard-response","97","139125","0.0-1.0-135.0","0","0","31670","","null","","","null","14","","","","","","","","","","","","","","","NaN",""
"","S1","","html-keyboard-response","98","139387","0.0-1.0-137.0","0","0","31670","","null","","","null","15","","","","","","","","","","","","","","","",""
"","ISI","","html-keyboard-response","99","140397","0.0-1.0-138.0","0","0","31670","","null","","","null","15","NaN","","","","","","","","","","","","","","",""
"","S2","","html-keyboard-response","100","140658","0.0-1.0-139.0","0","0","31670","","null","","","null","15","","NaN","","","","","","","","","","","","","",""
"","response","","html-keyboard-response","101","141070","0.0-1.0-140.0-0.0","0","0","31670","","410","","","68","15","","","1","15","training","adjacent","CD","3","4","L.jpg","R.jpg","1","1","1","",""
"","feedback","","html-keyboard-response","102","142075","0.0-1.0-141.0-0.0","0","0","31670","","null","","","null","15","","","","","","","","","","","","","","","",""
"","ITI","","html-keyboard-response","103","143085","0.0-1.0-144.0","0","0","31670","","null","","","null","15","","","","","","","","","","","","","","","NaN",""
"","S1","","html-keyboard-response","104","143346","0.0-1.0-146.0","0","0","31670","","null","","","null","16","","","","","","","","","","","","","","","",""
"","ISI","","html-keyboard-response","105","144356","0.0-1.0-147.0","0","0","31670","","null","","","null","16","NaN","","","","","","","","","","","","","","",""
"","S2","","html-keyboard-response","106","144620","0.0-1.0-148.0","0","0","31670","","null","","","null","16","","NaN","","","","","","","","","","","","","",""
"","response","","html-keyboard-response","107","144752","0.0-1.0-149.0-0.0","0","0","31670","","130","","","68","16","","","1","16","training","adjacent","FG","6","7","N.jpg","P.jpg","1","1","1","",""
"","feedback","","html-keyboard-response","108","145760","0.0-1.0-150.0-0.0","0","0","31670","","null","","","null","16","","","","","","","","","","","","","","","",""
"","ITI","","html-keyboard-response","109","146771","0.0-1.0-153.0","0","0","31670","","null","","","null","16","","","","","","","","","","","","","","","NaN",""
"","S1","","html-keyboard-response","110","147026","0.0-1.0-155.0","0","0","31670","","null","","","null","17","","","","","","","","","","","","","","","",""
"","ISI","","html-keyboard-response","111","148036","0.0-1.0-156.0","0","0","31670","","null","","","null","17","NaN","","","","","","","","","","","","","","",""
"","S2","","html-keyboard-response","112","148297","0.0-1.0-157.0","0","0","31670","","null","","","null","17","","NaN","","","","","","","","","","","","","",""
"","response","","html-keyboard-response","113","148397","0.0-1.0-158.0-0.0","0","0","31670","","97","","","68","17","","","1","17","training","adjacent","DC","4","3","R.jpg","L.jpg","1","0","0","",""
"","feedback","","html-keyboard-response","114","149401","0.0-1.0-159.0-0.0","0","0","31670","","null","","","null","17","","","","","","","","","","","","","","","",""
"","time_out","","html-keyboard-response","115","151409","0.0-1.0-161.0-0.0","0","0","31670","","null","","","null","17","","","","","","","","","","","","","","","",""
"","ITI","","html-keyboard-response","116","152419","0.0-1.0-162.0","0","0","31670","","null","","","null","17","","","","","","","","","","","","","","","NaN",""
"","S1","","html-keyboard-response","117","152674","0.0-1.0-164.0","0","0","31670","","null","","","null","18","","","","","","","","","","","","","","","",""
"","ISI","","html-keyboard-response","118","153684","0.0-1.0-165.0","0","0","31670","","null","","","null","18","NaN","","","","","","","","","","","","","","",""
"","S2","","html-keyboard-response","119","153946","0.0-1.0-166.0","0","0","31670","","null","","","null","18","","NaN","","","","","","","","","","","","","",""
"","response","","html-keyboard-response","120","154062","0.0-1.0-167.0-0.0","0","0","31670","","114","","","75","18","","","1","18","training","adjacent","CB","3","2","L.jpg","O.jpg","0","0","1","",""
"","feedback","","html-keyboard-response","121","155066","0.0-1.0-168.0-0.0","0","0","31670","","null","","","null","18","","","","","","","","","","","","","","","",""
"","ITI","","html-keyboard-response","122","156075","0.0-1.0-171.0","0","0","31670","","null","","","null","18","","","","","","","","","","","","","","","NaN",""
"","S1","","html-keyboard-response","123","156332","0.0-1.0-173.0","0","0","31670","","null","","","null","19","","","","","","","","","","","","","","","",""
"","ISI","","html-keyboard-response","124","157342","0.0-1.0-174.0","0","0","31670","","null","","","null","19","NaN","","","","","","","","","","","","","","",""
"","S2","","html-keyboard-response","125","157602","0.0-1.0-175.0","0","0","31670","","null","","","null","19","","NaN","","","","","","","","","","","","","",""
"","response","","html-keyboard-response","126","157660","0.0-1.0-176.0-0.0","0","0","31670","","56","","","75","19","","","1","19","training","adjacent","CB","3","2","L.jpg","O.jpg","0","0","1","",""
"","feedback","","html-keyboard-response","127","158665","0.0-1.0-177.0-0.0","0","0","31670","","null","","","null","19","","","","","","","","","","","","","","","",""
"","ITI","","html-keyboard-response","128","159675","0.0-1.0-180.0","0","0","31670","","null","","","null","19","","","","","","","","","","","","","","","NaN",""
"","S1","","html-keyboard-response","129","159930","0.0-1.0-182.0","0","0","31670","","null","","","null","20","","","","","","","","","","","","","","","",""
"","ISI","","html-keyboard-response","130","160940","0.0-1.0-183.0","0","0","31670","","null","","","null","20","NaN","","","","","","","","","","","","","","",""
"","S2","","html-keyboard-response","131","161197","0.0-1.0-184.0","0","0","31670","","null","","","null","20","","NaN","","","","","","","","","","","","","",""
"","response","","html-keyboard-response","132","161252","0.0-1.0-185.0-0.0","0","0","31670","","54","","","75","20","","","1","20","training","adjacent","AB","1","2","M.jpg","O.jpg","0","1","0","",""
"","feedback","","html-keyboard-response","133","162258","0.0-1.0-186.0-0.0","0","0","31670","","null","","","null","20","","","","","","","","","","","","","","","",""
"","time_out","","html-keyboard-response","134","164267","0.0-1.0-188.0-0.0","0","0","31670","","null","","","null","20","","","","","","","","","","","","","","","",""
"","ITI","","html-keyboard-response","135","165278","0.0-1.0-189.0","0","0","31670","","null","","","null","20","","","","","","","","","","","","","","","NaN",""
"","S1","","html-keyboard-response","136","165539","0.0-1.0-191.0","0","0","31670","","null","","","null","21","","","","","","","","","","","","","","","",""
"","ISI","","html-keyboard-response","137","166549","0.0-1.0-192.0","0","0","31670","","null","","","null","21","NaN","","","","","","","","","","","","","","",""
"","S2","","html-keyboard-response","138","166722","0.0-1.0-193.0","0","0","31670","","171","","","68","21","","d","1","21","training","adjacent","BA","2","1","O.jpg","M.jpg","1","0","0","",""
"","feedback","","html-keyboard-response","139","167733","0.0-1.0-195.0-0.0","0","0","31670","","null","","","null","21","","","","","","","","","","","","","","","",""
"","time_out","","html-keyboard-response","140","169742","0.0-1.0-197.0-0.0","0","0","31670","","null","","","null","21","","","","","","","","","","","","","","","",""
"","ITI","","html-keyboard-response","141","170746","0.0-1.0-198.0","0","0","31670","","null","","","null","21","","","","","","","","","","","","","","","NaN",""
"","S1","","html-keyboard-response","142","171002","0.0-1.0-200.0","0","0","31670","","null","","","null","22","","","","","","","","","","","","","","","",""
"","ISI","","html-keyboard-response","143","172012","0.0-1.0-201.0","0","0","31670","","109","","","75","22","k","","","","","","","","","","","","","","",""
"","S2","","html-keyboard-response","144","172266","0.0-1.0-202.0","0","0","31670","","null","","","null","22","","NaN","","","","","","","","","","","","","",""
"","response","","html-keyboard-response","145","172335","0.0-1.0-203.0-0.0","0","0","31670","","67","","","75","22","","","1","22","training","adjacent","BA","2","1","O.jpg","M.jpg","0","0","1","",""
"","feedback","","html-keyboard-response","146","173347","0.0-1.0-204.0-0.0","0","0","31670","","null","","","null","22","","","","","","","","","","","","","","","",""
"","ITI","","html-keyboard-response","147","174357","0.0-1.0-207.0","0","0","31670","","null","","","null","22","","","","","","","","","","","","","","","NaN",""
"","S1","","html-keyboard-response","148","174617","0.0-1.0-209.0","0","0","31670","","null","","","null","23","","","","","","","","","","","","","","","",""
"","ISI","","html-keyboard-response","149","175628","0.0-1.0-210.0","0","0","31670","","null","","","null","23","NaN","","","","","","","","","","","","","","",""
"","S2","","html-keyboard-response","150","175884","0.0-1.0-211.0","0","0","31670","","null","","","null","23","","NaN","","","","","","","","","","","","","",""
"","response","","html-keyboard-response","151","176224","0.0-1.0-212.0-0.0","0","0","31670","","339","","","75","23","","","1","23","training","adjacent","EF","5","6","Q.jpg","N.jpg","0","1","0","",""
"","feedback","","html-keyboard-response","152","177237","0.0-1.0-213.0-0.0","0","0","31670","","null","","","null","23","","","","","","","","","","","","","","","",""
"","time_out","","html-keyboard-response","153","179245","0.0-1.0-215.0-0.0","0","0","31670","","null","","","null","23","","","","","","","","","","","","","","","",""
"","ITI","","html-keyboard-response","154","180252","0.0-1.0-216.0","0","0","31670","","null","","","null","23","","","","","","","","","","","","","","","NaN",""
"","S1","","html-keyboard-response","155","180510","0.0-1.0-218.0","0","0","31670","","null","","","null","24","","","","","","","","","","","","","","","",""
"","ISI","","html-keyboard-response","156","181515","0.0-1.0-219.0","0","0","31670","","null","","","null","24","NaN","","","","","","","","","","","","","","",""
"","S2","","html-keyboard-response","157","181770","0.0-1.0-220.0","0","0","31670","","null","","","null","24","","NaN","","","","","","","","","","","","","",""
"","response","","html-keyboard-response","158","182039","0.0-1.0-221.0-0.0","0","0","31670","","267","","","68","24","","","1","24","training","adjacent","AB","1","2","M.jpg","O.jpg","1","1","1","",""
"","feedback","","html-keyboard-response","159","183041","0.0-1.0-222.0-0.0","0","0","31670","","null","","","null","24","","","","","","","","","","","","","","","",""
"","ITI","","html-keyboard-response","160","184052","0.0-1.0-225.0","0","0","31670","","null","","","null","24","","","","","","","","","","","","","","","NaN",""
"","S1","","html-keyboard-response","161","184307","0.0-1.0-227.0","0","0","31670","","null","","","null","25","","","","","","","","","","","","","","","",""
"","ISI","","html-keyboard-response","162","185317","0.0-1.0-228.0","0","0","31670","","null","","","null","25","NaN","","","","","","","","","","","","","","",""
"","S2","","html-keyboard-response","163","185579","0.0-1.0-229.0","0","0","31670","","null","","","null","25","","NaN","","","","","","","","","","","","","",""
"","response","","html-keyboard-response","164","185943","0.0-1.0-230.0-0.0","0","0","31670","","363","","","68","25","","","1","25","training","adjacent","AB","1","2","M.jpg","O.jpg","1","1","1","",""
"","feedback","","html-keyboard-response","165","186950","0.0-1.0-231.0-0.0","0","0","31670","","null","","","null","25","","","","","","","","","","","","","","","",""
"","ITI","","html-keyboard-response","166","187958","0.0-1.0-234.0","0","0","31670","","null","","","null","25","","","","","","","","","","","","","","","NaN",""
"","S1","","html-keyboard-response","167","188220","0.0-1.0-236.0","0","0","31670","","null","","","null","26","","","","","","","","","","","","","","","",""
"","ISI","","html-keyboard-response","168","189230","0.0-1.0-237.0","0","0","31670","","null","","","null","26","NaN","","","","","","","","","","","","","","",""
"","S2","","html-keyboard-response","169","189491","0.0-1.0-238.0","0","0","31670","","null","","","null","26","","NaN","","","","","","","","","","","","","",""
"","response","","html-keyboard-response","170","189663","0.0-1.0-239.0-0.0","0","0","31670","","171","","","68","26","","","1","26","training","adjacent","ED","5","4","Q.jpg","R.jpg","1","0","0","",""
"","feedback","","html-keyboard-response","171","190670","0.0-1.0-240.0-0.0","0","0","31670","","null","","","null","26","","","","","","","","","","","","","","","",""
"","time_out","","html-keyboard-response","172","192678","0.0-1.0-242.0-0.0","0","0","31670","","null","","","null","26","","","","","","","","","","","","","","","",""
"","ITI","","html-keyboard-response","173","193683","0.0-1.0-243.0","0","0","31670","","null","","","null","26","","","","","","","","","","","","","","","NaN",""
"","S1","","html-keyboard-response","174","193938","0.0-1.0-245.0","0","0","31670","","null","","","null","27","","","","","","","","","","","","","","","",""
"","ISI","","html-keyboard-response","175","194947","0.0-1.0-246.0","0","0","31670","","null","","","null","27","NaN","","","","","","","","","","","","","","",""
"","S2","","html-keyboard-response","176","195203","0.0-1.0-247.0","0","0","31670","","null","","","null","27","","NaN","","","","","","","","","","","","","",""
"","response","","html-keyboard-response","177","195329","0.0-1.0-248.0-0.0","0","0","31670","","124","","","75","27","","","1","27","training","adjacent","GF","7","6","P.jpg","N.jpg","0","0","1","",""
"","feedback","","html-keyboard-response","178","196340","0.0-1.0-249.0-0.0","0","0","31670","","null","","","null","27","","","","","","","","","","","","","","","",""
"","ITI","","html-keyboard-response","179","197346","0.0-1.0-252.0","0","0","31670","","null","","","null","27","","","","","","","","","","","","","","","NaN",""
"","S1","","html-keyboard-response","180","197606","0.0-1.0-254.0","0","0","31670","","null","","","null","28","","","","","","","","","","","","","","","",""
"","ISI","","html-keyboard-response","181","198611","0.0-1.0-255.0","0","0","31670","","null","","","null","28","NaN","","","","","","","","","","","","","","",""
"","S2","","html-keyboard-response","182","198866","0.0-1.0-256.0","0","0","31670","","null","","","null","28","","NaN","","","","","","","","","","","","","",""
"","response","","html-keyboard-response","183","198976","0.0-1.0-257.0-0.0","0","0","31670","","108","","","75","28","","","1","28","training","adjacent","DE","4","5","R.jpg","Q.jpg","0","1","0","",""
"","feedback","","html-keyboard-response","184","199987","0.0-1.0-258.0-0.0","0","0","31670","","null","","","null","28","","","","","","","","","","","","","","","",""
"","time_out","","html-keyboard-response","185","201995","0.0-1.0-260.0-0.0","0","0","31670","","null","","","null","28","","","","","","","","","","","","","","","",""
"","ITI","","html-keyboard-response","186","203005","0.0-1.0-261.0","0","0","31670","","null","","","null","28","","","","","","","","","","","","","","","NaN",""
"","S1","","html-keyboard-response","187","203260","0.0-1.0-263.0","0","0","31670","","null","","","null","29","","","","","","","","","","","","","","","",""
"","ISI","","html-keyboard-response","188","204270","0.0-1.0-264.0","0","0","31670","","null","","","null","29","NaN","","","","","","","","","","","","","","",""
"","S2","","html-keyboard-response","189","204532","0.0-1.0-265.0","0","0","31670","","null","","","null","29","","NaN","","","","","","","","","","","","","",""
"","response","","html-keyboard-response","190","204645","0.0-1.0-266.0-0.0","0","0","31670","","112","","","68","29","","","1","29","training","adjacent","FE","6","5","N.jpg","Q.jpg","1","0","0","",""
"","feedback","","html-keyboard-response","191","205653","0.0-1.0-267.0-0.0","0","0","31670","","null","","","null","29","","","","","","","","","","","","","","","",""
"","time_out","","html-keyboard-response","192","207661","0.0-1.0-269.0-0.0","0","0","31670","","null","","","null","29","","","","","","","","","","","","","","","",""
"","ITI","","html-keyboard-response","193","208670","0.0-1.0-270.0","0","0","31670","","null","","","null","29","","","","","","","","","","","","","","","NaN",""
"","S1","","html-keyboard-response","194","208932","0.0-1.0-272.0","0","0","31670","","null","","","null","30","","","","","","","","","","","","","","","",""
"","ISI","","html-keyboard-response","195","209942","0.0-1.0-273.0","0","0","31670","","null","","","null","30","NaN","","","","","","","","","","","","","","",""
"","S2","","html-keyboard-response","196","210204","0.0-1.0-274.0","0","0","31670","","null","","","null","30","","NaN","","","","","","","","","","","","","",""
"","response","","html-keyboard-response","197","210251","0.0-1.0-275.0-0.0","0","0","31670","","46","","","75","30","","","1","30","training","adjacent","DC","4","3","R.jpg","L.jpg","0","0","1","",""
"","feedback","","html-keyboard-response","198","211260","0.0-1.0-276.0-0.0","0","0","31670","","null","","","null","30","","","","","","","","","","","","","","","",""
"","ITI","","html-keyboard-response","199","212269","0.0-1.0-279.0","0","0","31670","","null","","","null","30","","","","","","","","","","","","","","","NaN",""
"","S1","","html-keyboard-response","200","212526","0.0-1.0-281.0","0","0","31670","","null","","","null","31","","","","","","","","","","","","","","","",""
"","ISI","","html-keyboard-response","201","213536","0.0-1.0-282.0","0","0","31670","","null","","","null","31","NaN","","","","","","","","","","","","","","",""
"","S2","","html-keyboard-response","202","213765","0.0-1.0-283.0","0","0","31670","","228","","","75","31","","k","1","31","training","adjacent","FE","6","5","N.jpg","Q.jpg","0","0","1","",""
"","feedback","","html-keyboard-response","203","214772","0.0-1.0-285.0-0.0","0","0","31670","","null","","","null","31","","","","","","","","","","","","","","","",""
"","ITI","","html-keyboard-response","204","215782","0.0-1.0-288.0","0","0","31670","","null","","","null","31","","","","","","","","","","","","","","","NaN",""
"","S1","","html-keyboard-response","205","216043","0.0-1.0-290.0","0","0","31670","","null","","","null","32","","","","","","","","","","","","","","","",""
"","ISI","","html-keyboard-response","206","217054","0.0-1.0-291.0","0","0","31670","","null","","","null","32","NaN","","","","","","","","","","","","","","",""
"","S2","","html-keyboard-response","207","217315","0.0-1.0-292.0","0","0","31670","","null","","","null","32","","NaN","","","","","","","","","","","","","",""
"","response","","html-keyboard-response","208","217404","0.0-1.0-293.0-0.0","0","0","31670","","87","","","75","32","","","1","32","training","adjacent","AB","1","2","M.jpg","O.jpg","0","1","0","",""
"","feedback","","html-keyboard-response","209","218413","0.0-1.0-294.0-0.0","0","0","31670","","null","","","null","32","","","","","","","","","","","","","","","",""
"","time_out","","html-keyboard-response","210","220421","0.0-1.0-296.0-0.0","0","0","31670","","null","","","null","32","","","","","","","","","","","","","","","",""
"","ITI","","html-keyboard-response","211","221431","0.0-1.0-297.0","0","0","31670","","null","","","null","32","","","","","","","","","","","","","","","NaN",""
"","S1","","html-keyboard-response","212","221691","0.0-1.0-299.0","0","0","31670","","null","","","null","33","","","","","","","","","","","","","","","",""
"","ISI","","html-keyboard-response","213","222703","0.0-1.0-300.0","0","0","31670","","null","","","null","33","NaN","","","","","","","","","","","","","","",""
"","S2","","html-keyboard-response","214","222964","0.0-1.0-301.0","0","0","31670","","null","","","null","33","","NaN","","","","","","","","","","","","","",""
"","response","","html-keyboard-response","215","223102","0.0-1.0-302.0-0.0","0","0","31670","","137","","","68","33","","","1","33","training","adjacent","ED","5","4","Q.jpg","R.jpg","1","0","0","",""
"","feedback","","html-keyboard-response","216","224111","0.0-1.0-303.0-0.0","0","0","31670","","null","","","null","33","","","","","","","","","","","","","","","",""
"","time_out","","html-keyboard-response","217","226117","0.0-1.0-305.0-0.0","0","0","31670","","null","","","null","33","","","","","","","","","","","","","","","",""
"","ITI","","html-keyboard-response","218","227126","0.0-1.0-306.0","0","0","31670","","null","","","null","33","","","","","","","","","","","","","","","NaN",""
"","S1","","html-keyboard-response","219","227381","0.0-1.0-308.0","0","0","31670","","null","","","null","34","","","","","","","","","","","","","","","",""
"","ISI","","html-keyboard-response","220","228391","0.0-1.0-309.0","0","0","31670","","null","","","null","34","NaN","","","","","","","","","","","","","","",""
"","S2","","html-keyboard-response","221","228653","0.0-1.0-310.0","0","0","31670","","null","","","null","34","","NaN","","","","","","","","","","","","","",""
"","response","","html-keyboard-response","222","228723","0.0-1.0-311.0-0.0","0","0","31670","","69","","","75","34","","","1","34","training","adjacent","FE","6","5","N.jpg","Q.jpg","0","0","1","",""
"","feedback","","html-keyboard-response","223","229733","0.0-1.0-312.0-0.0","0","0","31670","","null","","","null","34","","","","","","","","","","","","","","","",""
"","ITI","","html-keyboard-response","224","230743","0.0-1.0-315.0","0","0","31670","","null","","","null","34","","","","","","","","","","","","","","","NaN",""
"","S1","","html-keyboard-response","225","231004","0.0-1.0-317.0","0","0","31670","","null","","","null","35","","","","","","","","","","","","","","","",""
"","ISI","","html-keyboard-response","226","232014","0.0-1.0-318.0","0","0","31670","","null","","","null","35","NaN","","","","","","","","","","","","","","",""
"","S2","","html-keyboard-response","227","232270","0.0-1.0-319.0","0","0","31670","","null","","","null","35","","NaN","","","","","","","","","","","","","",""
"","response","","html-keyboard-response","228","232331","0.0-1.0-320.0-0.0","0","0","31670","","60","","","75","35","","","1","35","training","adjacent","ED","5","4","Q.jpg","R.jpg","0","0","1","",""
"","feedback","","html-keyboard-response","229","233343","0.0-1.0-321.0-0.0","0","0","31670","","null","","","null","35","","","","","","","","","","","","","","","",""
"","ITI","","html-keyboard-response","230","234348","0.0-1.0-324.0","0","0","31670","","null","","","null","35","","","","","","","","","","","","","","","NaN",""
"","S1","","html-keyboard-response","231","234604","0.0-1.0-326.0","0","0","31670","","null","","","null","36","","","","","","","","","","","","","","","",""
"","ISI","","html-keyboard-response","232","235613","0.0-1.0-327.0","0","0","31670","","null","","","null","36","NaN","","","","","","","","","","","","","","",""
"","S2","","html-keyboard-response","233","235868","0.0-1.0-328.0","0","0","31670","","null","","","null","36","","NaN","","","","","","","","","","","","","",""
"","response","","html-keyboard-response","234","235913","0.0-1.0-329.0-0.0","0","0","31670","","43","","","75","36","","","1","36","training","adjacent","BA","2","1","O.jpg","M.jpg","0","0","1","",""
"","feedback","","html-keyboard-response","235","236925","0.0-1.0-330.0-0.0","0","0","31670","","null","","","null","36","","","","","","","","","","","","","","","",""
"","ITI","","html-keyboard-response","236","237935","0.0-1.0-333.0","0","0","31670","","null","","","null","36","","","","","","","","","","","","","","","NaN",""
"","S1","","html-keyboard-response","237","238196","0.0-1.0-335.0","0","0","31670","","null","","","null","37","","","","","","","","","","","","","","","",""
"","ISI","","html-keyboard-response","238","239207","0.0-1.0-336.0","0","0","31670","","null","","","null","37","NaN","","","","","","","","","","","","","","",""
"","S2","","html-keyboard-response","239","239468","0.0-1.0-337.0","0","0","31670","","null","","","null","37","","NaN","","","","","","","","","","","","","",""
"","response","","html-keyboard-response","240","239553","0.0-1.0-338.0-0.0","0","0","31670","","83","","","75","37","","","1","37","training","adjacent","DE","4","5","R.jpg","Q.jpg","0","1","0","",""
"","feedback","","html-keyboard-response","241","240565","0.0-1.0-339.0-0.0","0","0","31670","","null","","","null","37","","","","","","","","","","","","","","","",""
"","time_out","","html-keyboard-response","242","242574","0.0-1.0-341.0-0.0","0","0","31670","","null","","","null","37","","","","","","","","","","","","","","","",""
"","ITI","","html-keyboard-response","243","243583","0.0-1.0-342.0","0","0","31670","","null","","","null","37","","","","","","","","","","","","","","","NaN",""
"","S1","","html-keyboard-response","244","243845","0.0-1.0-344.0","0","0","31670","","null","","","null","38","","","","","","","","","","","","","","","",""
"","ISI","","html-keyboard-response","245","244854","0.0-1.0-345.0","0","0","31670","","null","","","null","38","NaN","","","","","","","","","","","","","","",""
"","S2","","html-keyboard-response","246","245110","0.0-1.0-346.0","0","0","31670","","null","","","null","38","","NaN","","","","","","","","","","","","","",""
"","response","","html-keyboard-response","247","245486","0.0-1.0-347.0-0.0","0","0","31670","","374","","","68","38","","","1","38","training","adjacent","FE","6","5","N.jpg","Q.jpg","1","0","0","",""
"","feedback","","html-keyboard-response","248","246492","0.0-1.0-348.0-0.0","0","0","31670","","null","","","null","38","","","","","","","","","","","","","","","",""
"","time_out","","html-keyboard-response","249","248500","0.0-1.0-350.0-0.0","0","0","31670","","null","","","null","38","","","","","","","","","","","","","","","",""
"","ITI","","html-keyboard-response","250","249510","0.0-1.0-351.0","0","0","31670","","null","","","null","38","","","","","","","","","","","","","","","NaN",""
"","S1","","html-keyboard-response","251","249765","0.0-1.0-353.0","0","0","31670","","null","","","null","39","","","","","","","","","","","","","","","",""
"","ISI","","html-keyboard-response","252","250776","0.0-1.0-354.0","0","0","31670","","null","","","null","39","NaN","","","","","","","","","","","","","","",""
"","S2","","html-keyboard-response","253","251036","0.0-1.0-355.0","0","0","31670","","null","","","null","39","","NaN","","","","","","","","","","","","","",""
"","response","","html-keyboard-response","254","251137","0.0-1.0-356.0-0.0","0","0","31670","","99","","","75","39","","","1","39","training","adjacent","FG","6","7","N.jpg","P.jpg","0","1","0","",""
"","feedback","","html-keyboard-response","255","252152","0.0-1.0-357.0-0.0","0","0","31670","","null","","","null","39","","","","","","","","","","","","","","","",""
"","time_out","","html-keyboard-response","256","254161","0.0-1.0-359.0-0.0","0","0","31670","","null","","","null","39","","","","","","","","","","","","","","","",""
"","ITI","","html-keyboard-response","257","255167","0.0-1.0-360.0","0","0","31670","","null","","","null","39","","","","","","","","","","","","","","","NaN",""
"","S1","","html-keyboard-response","258","255421","0.0-1.0-362.0","0","0","31670","","null","","","null","40","","","","","","","","","","","","","","","",""
"","ISI","","html-keyboard-response","259","256430","0.0-1.0-363.0","0","0","31670","","null","","","null","40","NaN","","","","","","","","","","","","","","",""
"","S2","","html-keyboard-response","260","256686","0.0-1.0-364.0","0","0","31670","","null","","","null","40","","NaN","","","","","","","","","","","","","",""
"","response","","html-keyboard-response","261","256755","0.0-1.0-365.0-0.0","0","0","31670","","67","","","68","40","","","1","40","training","adjacent","GF","7","6","P.jpg","N.jpg","1","0","0","",""
"","feedback","","html-keyboard-response","262","257765","0.0-1.0-366.0-0.0","0","0","31670","","null","","","null","40","","","","","","","","","","","","","","","",""
"","time_out","","html-keyboard-response","263","259774","0.0-1.0-368.0-0.0","0","0","31670","","null","","","null","40","","","","","","","","","","","","","","","",""
"","ITI","","html-keyboard-response","264","260784","0.0-1.0-369.0","0","0","31670","","null","","","null","40","","","","","","","","","","","","","","","NaN",""
"","S1","","html-keyboard-response","265","261045","0.0-1.0-371.0","0","0","31670","","null","","","null","41","","","","","","","","","","","","","","","",""
"","ISI","","html-keyboard-response","266","262056","0.0-1.0-372.0","0","0","31670","","null","","","null","41","NaN","","","","","","","","","","","","","","",""
"","S2","","html-keyboard-response","267","262317","0.0-1.0-373.0","0","0","31670","","null","","","null","41","","NaN","","","","","","","","","","","","","",""
"","response","","html-keyboard-response","268","262381","0.0-1.0-374.0-0.0","0","0","31670","","63","","","75","41","","","1","41","training","adjacent","GF","7","6","P.jpg","N.jpg","0","0","1","",""
"","feedback","","html-keyboard-response","269","263391","0.0-1.0-375.0-0.0","0","0","31670","","null","","","null","41","","","","","","","","","","","","","","","",""
"","ITI","","html-keyboard-response","270","264401","0.0-1.0-378.0","0","0","31670","","null","","","null","41","","","","","","","","","","","","","","","NaN",""
"","S1","","html-keyboard-response","271","264662","0.0-1.0-380.0","0","0","31670","","null","","","null","42","","","","","","","","","","","","","","","",""
"","ISI","","html-keyboard-response","272","265672","0.0-1.0-381.0","0","0","31670","","null","","","null","42","NaN","","","","","","","","","","","","","","",""
"","S2","","html-keyboard-response","273","265933","0.0-1.0-382.0","0","0","31670","","null","","","null","42","","NaN","","","","","","","","","","","","","",""
"","response","","html-keyboard-response","274","266281","0.0-1.0-383.0-0.0","0","0","31670","","346","","","75","42","","","1","42","training","adjacent","BA","2","1","O.jpg","M.jpg","0","0","1","",""
"","feedback","","html-keyboard-response","275","267287","0.0-1.0-384.0-0.0","0","0","31670","","null","","","null","42","","","","","","","","","","","","","","","",""
"","ITI","","html-keyboard-response","276","268296","0.0-1.0-387.0","0","0","31670","","null","","","null","42","","","","","","","","","","","","","","","NaN",""
"","S1","","html-keyboard-response","277","268558","0.0-1.0-389.0","0","0","31670","","null","","","null","43","","","","","","","","","","","","","","","",""
"","ISI","","html-keyboard-response","278","269568","0.0-1.0-390.0","0","0","31670","","null","","","null","43","NaN","","","","","","","","","","","","","","",""
"","S2","","html-keyboard-response","279","269829","0.0-1.0-391.0","0","0","31670","","null","","","null","43","","NaN","","","","","","","","","","","","","",""
"","response","","html-keyboard-response","280","269957","0.0-1.0-392.0-0.0","0","0","31670","","126","","","75","43","","","1","43","training","adjacent","GF","7","6","P.jpg","N.jpg","0","0","1","",""
"","feedback","","html-keyboard-response","281","270966","0.0-1.0-393.0-0.0","0","0","31670","","null","","","null","43","","","","","","","","","","","","","","","",""
"","ITI","","html-keyboard-response","282","271977","0.0-1.0-396.0","0","0","31670","","null","","","null","43","","","","","","","","","","","","","","","NaN",""
"","S1","","html-keyboard-response","283","272238","0.0-1.0-398.0","0","0","31670","","null","","","null","44","","","","","","","","","","","","","","","",""
"","ISI","","html-keyboard-response","284","273248","0.0-1.0-399.0","0","0","31670","","null","","","null","44","NaN","","","","","","","","","","","","","","",""
"","S2","","html-keyboard-response","285","273509","0.0-1.0-400.0","0","0","31670","","null","","","null","44","","NaN","","","","","","","","","","","","","",""
"","response","","html-keyboard-response","286","273554","0.0-1.0-401.0-0.0","0","0","31670","","43","","","75","44","","","1","44","training","adjacent","EF","5","6","Q.jpg","N.jpg","0","1","0","",""
"","feedback","","html-keyboard-response","287","274565","0.0-1.0-402.0-0.0","0","0","31670","","null","","","null","44","","","","","","","","","","","","","","","",""
"","time_out","","html-keyboard-response","288","276574","0.0-1.0-404.0-0.0","0","0","31670","","null","","","null","44","","","","","","","","","","","","","","","",""
"","ITI","","html-keyboard-response","289","277584","0.0-1.0-405.0","0","0","31670","","null","","","null","44","","","","","","","","","","","","","","","NaN",""
"","S1","","html-keyboard-response","290","277845","0.0-1.0-407.0","0","0","31670","","null","","","null","45","","","","","","","","","","","","","","","",""
"","ISI","","html-keyboard-response","291","278856","0.0-1.0-408.0","0","0","31670","","null","","","null","45","NaN","","","","","","","","","","","","","","",""
"","S2","","html-keyboard-response","292","279117","0.0-1.0-409.0","0","0","31670","","null","","","null","45","","NaN","","","","","","","","","","","","","",""
"","response","","html-keyboard-response","293","279204","0.0-1.0-410.0-0.0","0","0","31670","","85","","","68","45","","","1","45","training","adjacent","ED","5","4","Q.jpg","R.jpg","1","0","0","",""
"","feedback","","html-keyboard-response","294","280214","0.0-1.0-411.0-0.0","0","0","31670","","null","","","null","45","","","","","","","","","","","","","","","",""
"","time_out","","html-keyboard-response","295","282223","0.0-1.0-413.0-0.0","0","0","31670","","null","","","null","45","","","","","","","","","","","","","","","",""
"","ITI","","html-keyboard-response","296","283233","0.0-1.0-414.0","0","0","31670","","null","","","null","45","","","","","","","","","","","","","","","NaN",""
"","S1","","html-keyboard-response","297","283494","0.0-1.0-416.0","0","0","31670","","null","","","null","46","","","","","","","","","","","","","","","",""
"","ISI","","html-keyboard-response","298","284504","0.0-1.0-417.0","0","0","31670","","51","","","75","46","k","","","","","","","","","","","","","","",""
"","S2","","html-keyboard-response","299","284766","0.0-1.0-418.0","0","0","31670","","null","","","null","46","","NaN","","","","","","","","","","","","","",""
"","response","","html-keyboard-response","300","285076","0.0-1.0-419.0-0.0","0","0","31670","","309","","","75","46","","","1","46","training","adjacent","CB","3","2","L.jpg","O.jpg","0","0","1","",""
"","feedback","","html-keyboard-response","301","286089","0.0-1.0-420.0-0.0","0","0","31670","","null","","","null","46","","","","","","","","","","","","","","","",""
"","ITI","","html-keyboard-response","302","287093","0.0-1.0-423.0","0","0","31670","","null","","","null","46","","","","","","","","","","","","","","","NaN",""
"","S1","","html-keyboard-response","303","287353","0.0-1.0-425.0","0","0","31670","","null","","","null","47","","","","","","","","","","","","","","","",""
"","ISI","","html-keyboard-response","304","288359","0.0-1.0-426.0","0","0","31670","","null","","","null","47","NaN","","","","","","","","","","","","","","",""
"","S2","","html-keyboard-response","305","288613","0.0-1.0-427.0","0","0","31670","","null","","","null","47","","NaN","","","","","","","","","","","","","",""
"","response","","html-keyboard-response","306","289053","0.0-1.0-428.0-0.0","0","0","31670","","438","","","75","47","","","1","47","training","adjacent","CB","3","2","L.jpg","O.jpg","0","0","1","",""
"","feedback","","html-keyboard-response","307","290065","0.0-1.0-429.0-0.0","0","0","31670","","null","","","null","47","","","","","","","","","","","","","","","",""
"","ITI","","html-keyboard-response","308","291070","0.0-1.0-432.0","0","0","31670","","null","","","null","47","","","","","","","","","","","","","","","NaN",""
"","block_over","","html-keyboard-response","309","461193","0.0-1.0-433.0-0.0","0","0","31670","","170120","","","32","47","","","","","","","","","","","","","","","",""
"","S1","","html-keyboard-response","310","461452","0.0-1.0-434.0","0","0","31670","","null","","","null","48","","","","","","","","","","","","","","","",""
"","ISI","","html-keyboard-response","311","462462","0.0-1.0-435.0","0","0","31670","","null","","","null","48","NaN","","","","","","","","","","","","","","",""
"","S2","","html-keyboard-response","312","462723","0.0-1.0-436.0","0","0","31670","","null","","","null","48","","NaN","","","","","","","","","","","","","",""
"","response","","html-keyboard-response","313","464038","0.0-1.0-437.0-0.0","0","0","31670","","1313","","","75","48","","","2","48","training","adjacent","EF","5","6","Q.jpg","N.jpg","0","1","0","",""
"","feedback","","html-keyboard-response","314","465044","0.0-1.0-438.0-0.0","0","0","31670","","null","","","null","48","","","","","","","","","","","","","","","",""
"","time_out","","html-keyboard-response","315","467053","0.0-1.0-440.0-0.0","0","0","31670","","null","","","null","48","","","","","","","","","","","","","","","",""
"","ITI","","html-keyboard-response","316","468059","0.0-1.0-441.0","0","0","31670","","null","","","null","48","","","","","","","","","","","","","","","NaN",""
"","S1","","html-keyboard-response","317","468319","0.0-1.0-443.0","0","0","31670","","null","","","null","49","","","","","","","","","","","","","","","",""
"","ISI","","html-keyboard-response","318","469323","0.0-1.0-444.0","0","0","31670","","null","","","null","49","NaN","","","","","","","","","","","","","","",""
"","S2","","html-keyboard-response","319","469408","0.0-1.0-445.0","0","0","31670","","83","","","68","49","","d","2","49","training","adjacent","EF","5","6","Q.jpg","N.jpg","1","1","1","",""
"","feedback","","html-keyboard-response","320","470420","0.0-1.0-447.0-0.0","0","0","31670","","null","","","null","49","","","","","","","","","","","","","","","",""
"","ITI","","html-keyboard-response","321","471430","0.0-1.0-450.0","0","0","31670","","null","","","null","49","","","","","","","","","","","","","","","NaN",""
"","S1","","html-keyboard-response","322","471686","0.0-1.0-452.0","0","0","31670","","null","","","null","50","","","","","","","","","","","","","","","",""
"","ISI","","html-keyboard-response","323","472690","0.0-1.0-453.0","0","0","31670","","null","","","null","50","NaN","","","","","","","","","","","","","","",""
"","S2","","html-keyboard-response","324","472951","0.0-1.0-454.0","0","0","31670","","null","","","null","50","","NaN","","","","","","","","","","","","","",""
"","response","","html-keyboard-response","325","473041","0.0-1.0-455.0-0.0","0","0","31670","","88","","","75","50","","","2","50","training","adjacent","BA","2","1","O.jpg","M.jpg","0","0","1","",""
"","feedback","","html-keyboard-response","326","474053","0.0-1.0-456.0-0.0","0","0","31670","","null","","","null","50","","","","","","","","","","","","","","","",""
"","ITI","","html-keyboard-response","327","475058","0.0-1.0-459.0","0","0","31670","","null","","","null","50","","","","","","","","","","","","","","","NaN",""
"","S1","","html-keyboard-response","328","475318","0.0-1.0-461.0","0","0","31670","","null","","","null","51","","","","","","","","","","","","","","","",""
"","ISI","","html-keyboard-response","329","476324","0.0-1.0-462.0","0","0","31670","","null","","","null","51","NaN","","","","","","","","","","","","","","",""
"","S2","","html-keyboard-response","330","476580","0.0-1.0-463.0","0","0","31670","","null","","","null","51","","NaN","","","","","","","","","","","","","",""
"","response","","html-keyboard-response","331","476607","0.0-1.0-464.0-0.0","0","0","31670","","25","","","75","51","","","2","51","training","adjacent","BC","2","3","O.jpg","L.jpg","0","1","0","",""
"","feedback","","html-keyboard-response","332","477614","0.0-1.0-465.0-0.0","0","0","31670","","null","","","null","51","","","","","","","","","","","","","","","",""
"","time_out","","html-keyboard-response","333","479622","0.0-1.0-467.0-0.0","0","0","31670","","null","","","null","51","","","","","","","","","","","","","","","",""
"","ITI","","html-keyboard-response","334","480631","0.0-1.0-468.0","0","0","31670","","null","","","null","51","","","","","","","","","","","","","","","NaN",""
"","S1","","html-keyboard-response","335","480891","0.0-1.0-470.0","0","0","31670","","null","","","null","52","","","","","","","","","","","","","","","",""
"","ISI","","html-keyboard-response","336","481903","0.0-1.0-471.0","0","0","31670","","null","","","null","52","NaN","","","","","","","","","","","","","","",""
"","S2","","html-keyboard-response","337","482075","0.0-1.0-472.0","0","0","31670","","170","","","68","52","","d","2","52","training","adjacent","AB","1","2","M.jpg","O.jpg","1","1","1","",""
"","feedback","","html-keyboard-response","338","483087","0.0-1.0-474.0-0.0","0","0","31670","","null","","","null","52","","","","","","","","","","","","","","","",""
"","ITI","","html-keyboard-response","339","484092","0.0-1.0-477.0","0","0","31670","","null","","","null","52","","","","","","","","","","","","","","","NaN",""
"","S1","","html-keyboard-response","340","484347","0.0-1.0-479.0","0","0","31670","","null","","","null","53","","","","","","","","","","","","","","","",""
"","ISI","","html-keyboard-response","341","485357","0.0-1.0-480.0","0","0","31670","","null","","","null","53","NaN","","","","","","","","","","","","","","",""
"","S2","","html-keyboard-response","342","485611","0.0-1.0-481.0","0","0","31670","","252","","","75","53","","k","2","53","training","adjacent","FG","6","7","N.jpg","P.jpg","0","1","0","",""
"","feedback","","html-keyboard-response","343","486622","0.0-1.0-483.0-0.0","0","0","31670","","null","","","null","53","","","","","","","","","","","","","","","",""
"","time_out","","html-keyboard-response","344","488631","0.0-1.0-485.0-0.0","0","0","31670","","null","","","null","53","","","","","","","","","","","","","","","",""
"","ITI","","html-keyboard-response","345","489635","0.0-1.0-486.0","0","0","31670","","null","","","null","53","","","","","","","","","","","","","","","NaN",""
"","S1","","html-keyboard-response","346","489891","0.0-1.0-488.0","0","0","31670","","null","","","null","54","","","","","","","","","","","","","","","",""
"","ISI","","html-keyboard-response","347","490901","0.0-1.0-489.0","0","0","31670","","null","","","null","54","NaN","","","","","","","","","","","","","","",""
"","S2","","html-keyboard-response","348","491155","0.0-1.0-490.0","0","0","31670","","null","","","null","54","","NaN","","","","","","","","","","","","","",""
"","response","","html-keyboard-response","349","491161","0.0-1.0-491.0-0.0","0","0","31670","","4","","","68","54","","","2","54","training","adjacent","CD","3","4","L.jpg","R.jpg","1","1","1","",""
"","feedback","","html-keyboard-response","350","492171","0.0-1.0-492.0-0.0","0","0","31670","","null","","","null","54","","","","","","","","","","","","","","","",""
"","ITI","","html-keyboard-response","351","493182","0.0-1.0-495.0","0","0","31670","","null","","","null","54","","","","","","","","","","","","","","","NaN",""
"","S1","","html-keyboard-response","352","493438","0.0-1.0-497.0","0","0","31670","","null","","","null","55","","","","","","","","","","","","","","","",""
"","ISI","","html-keyboard-response","353","494448","0.0-1.0-498.0","0","0","31670","","null","","","null","55","NaN","","","","","","","","","","","","","","",""
"","S2","","html-keyboard-response","354","494671","0.0-1.0-499.0","0","0","31670","","222","","","68","55","","d","2","55","training","adjacent","FE","6","5","N.jpg","Q.jpg","1","0","0","",""
"","feedback","","html-keyboard-response","355","495678","0.0-1.0-501.0-0.0","0","0","31670","","null","","","null","55","","","","","","","","","","","","","","","",""
"","time_out","","html-keyboard-response","356","497687","0.0-1.0-503.0-0.0","0","0","31670","","null","","","null","55","","","","","","","","","","","","","","","",""
"","ITI","","html-keyboard-response","357","498691","0.0-1.0-504.0","0","0","31670","","null","","","null","55","","","","","","","","","","","","","","","NaN",""
"","S1","","html-keyboard-response","358","498947","0.0-1.0-506.0","0","0","31670","","null","","","null","56","","","","","","","","","","","","","","","",""
"","ISI","","html-keyboard-response","359","499957","0.0-1.0-507.0","0","0","31670","","null","","","null","56","NaN","","","","","","","","","","","","","","",""
"","S2","","html-keyboard-response","360","500212","0.0-1.0-508.0","0","0","31670","","null","","","null","56","","NaN","","","","","","","","","","","","","",""
"","response","","html-keyboard-response","361","500239","0.0-1.0-509.0-0.0","0","0","31670","","24","","","68","56","","","2","56","training","adjacent","CB","3","2","L.jpg","O.jpg","1","0","0","",""
"","feedback","","html-keyboard-response","362","501246","0.0-1.0-510.0-0.0","0","0","31670","","null","","","null","56","","","","","","","","","","","","","","","",""
"","time_out","","html-keyboard-response","363","503254","0.0-1.0-512.0-0.0","0","0","31670","","null","","","null","56","","","","","","","","","","","","","","","",""
"","ITI","","html-keyboard-response","364","504260","0.0-1.0-513.0","0","0","31670","","null","","","null","56","","","","","","","","","","","","","","","NaN",""
"","S1","","html-keyboard-response","365","504520","0.0-1.0-515.0","0","0","31670","","null","","","null","57","","","","","","","","","","","","","","","",""
"","ISI","","html-keyboard-response","366","505524","0.0-1.0-516.0","0","0","31670","","null","","","null","57","NaN","","","","","","","","","","","","","","",""
"","S2","","html-keyboard-response","367","505780","0.0-1.0-517.0","0","0","31670","","null","","","null","57","","NaN","","","","","","","","","","","","","",""
"","response","","html-keyboard-response","368","505818","0.0-1.0-518.0-0.0","0","0","31670","","37","","","75","57","","","2","57","training","adjacent","CD","3","4","L.jpg","R.jpg","0","1","0","",""
"","feedback","","html-keyboard-response","369","506830","0.0-1.0-519.0-0.0","0","0","31670","","null","","","null","57","","","","","","","","","","","","","","","",""
"","time_out","","html-keyboard-response","370","508839","0.0-1.0-521.0-0.0","0","0","31670","","null","","","null","57","","","","","","","","","","","","","","","",""
"","ITI","","html-keyboard-response","371","509844","0.0-1.0-522.0","0","0","31670","","null","","","null","57","","","","","","","","","","","","","","","NaN",""
"","S1","","html-keyboard-response","372","510104","0.0-1.0-524.0","0","0","31670","","null","","","null","58","","","","","","","","","","","","","","","",""
"","ISI","","html-keyboard-response","373","511110","0.0-1.0-525.0","0","0","31670","","null","","","null","58","NaN","","","","","","","","","","","","","","",""
"","S2","","html-keyboard-response","374","511364","0.0-1.0-526.0","0","0","31670","","null","","","null","58","","NaN","","","","","","","","","","","","","",""
"","response","","html-keyboard-response","375","511450","0.0-1.0-527.0-0.0","0","0","31670","","85","","","68","58","","","2","58","training","adjacent","FE","6","5","N.jpg","Q.jpg","1","0","0","",""
"","feedback","","html-keyboard-response","376","512461","0.0-1.0-528.0-0.0","0","0","31670","","null","","","null","58","","","","","","","","","","","","","","","",""
"","time_out","","html-keyboard-response","377","514470","0.0-1.0-530.0-0.0","0","0","31670","","null","","","null","58","","","","","","","","","","","","","","","",""
"","ITI","","html-keyboard-response","378","515479","0.0-1.0-531.0","0","0","31670","","null","","","null","58","","","","","","","","","","","","","","","NaN",""
"","S1","","html-keyboard-response","379","515741","0.0-1.0-533.0","0","0","31670","","null","","","null","59","","","","","","","","","","","","","","","",""
"","ISI","","html-keyboard-response","380","516752","0.0-1.0-534.0","0","0","31670","","null","","","null","59","NaN","","","","","","","","","","","","","","",""
"","S2","","html-keyboard-response","381","517013","0.0-1.0-535.0","0","0","31670","","null","","","null","59","","NaN","","","","","","","","","","","","","",""
"","response","","html-keyboard-response","382","517232","0.0-1.0-536.0-0.0","0","0","31670","","217","","","75","59","","","2","59","training","adjacent","FG","6","7","N.jpg","P.jpg","0","1","0","",""
"","feedback","","html-keyboard-response","383","518238","0.0-1.0-537.0-0.0","0","0","31670","","null","","","null","59","","","","","","","","","","","","","","","",""
"","time_out","","html-keyboard-response","384","520246","0.0-1.0-539.0-0.0","0","0","31670","","null","","","null","59","","","","","","","","","","","","","","","",""
"","ITI","","html-keyboard-response","385","521256","0.0-1.0-540.0","0","0","31670","","null","","","null","59","","","","","","","","","","","","","","","NaN",""
"","S1","","html-keyboard-response","386","521517","0.0-1.0-542.0","0","0","31670","","null","","","null","60","","","","","","","","","","","","","","","",""
"","ISI","","html-keyboard-response","387","522528","0.0-1.0-543.0","0","0","31670","","null","","","null","60","NaN","","","","","","","","","","","","","","",""
"","S2","","html-keyboard-response","388","522762","0.0-1.0-544.0","0","0","31670","","233","","","68","60","","d","2","60","training","adjacent","FG","6","7","N.jpg","P.jpg","1","1","1","",""
"","feedback","","html-keyboard-response","389","523776","0.0-1.0-546.0-0.0","0","0","31670","","null","","","null","60","","","","","","","","","","","","","","","",""
"","ITI","","html-keyboard-response","390","524780","0.0-1.0-549.0","0","0","31670","","null","","","null","60","","","","","","","","","","","","","","","NaN",""
"","S1","","html-keyboard-response","391","525037","0.0-1.0-551.0","0","0","31670","","null","","","null","61","","","","","","","","","","","","","","","",""
"","ISI","","html-keyboard-response","392","526045","0.0-1.0-552.0","0","0","31670","","null","","","null","61","NaN","","","","","","","","","","","","","","",""
"","S2","","html-keyboard-response","393","526301","0.0-1.0-553.0","0","0","31670","","null","","","null","61","","NaN","","","","","","","","","","","","","",""
"","response","","html-keyboard-response","394","526422","0.0-1.0-554.0-0.0","0","0","31670","","119","","","75","61","","","2","61","training","adjacent","CB","3","2","L.jpg","O.jpg","0","0","1","",""
"","feedback","","html-keyboard-response","395","527429","0.0-1.0-555.0-0.0","0","0","31670","","null","","","null","61","","","","","","","","","","","","","","","",""
"","ITI","","html-keyboard-response","396","528436","0.0-1.0-558.0","0","0","31670","","null","","","null","61","","","","","","","","","","","","","","","NaN",""
"","S1","","html-keyboard-response","397","528692","0.0-1.0-560.0","0","0","31670","","null","","","null","62","","","","","","","","","","","","","","","",""
"","ISI","","html-keyboard-response","398","529703","0.0-1.0-561.0","0","0","31670","","null","","","null","62","NaN","","","","","","","","","","","","","","",""
"","S2","","html-keyboard-response","399","529776","0.0-1.0-562.0","0","0","31670","","72","","","75","62","","k","2","62","training","adjacent","AB","1","2","M.jpg","O.jpg","0","1","0","",""
"","feedback","","html-keyboard-response","400","530782","0.0-1.0-564.0-0.0","0","0","31670","","null","","","null","62","","","","","","","","","","","","","","","",""
"","time_out","","html-keyboard-response","401","532791","0.0-1.0-566.0-0.0","0","0","31670","","null","","","null","62","","","","","","","","","","","","","","","",""
"","ITI","","html-keyboard-response","402","533801","0.0-1.0-567.0","0","0","31670","","null","","","null","62","","","","","","","","","","","","","","","NaN",""
"","S1","","html-keyboard-response","403","534062","0.0-1.0-569.0","0","0","31670","","null","","","null","63","","","","","","","","","","","","","","","",""
"","ISI","","html-keyboard-response","404","535071","0.0-1.0-570.0","0","0","31670","","null","","","null","63","NaN","","","","","","","","","","","","","","",""
"","S2","","html-keyboard-response","405","535074","0.0-1.0-571.0","0","0","31670","","1","","","68","63","","d","2","63","training","adjacent","BA","2","1","O.jpg","M.jpg","1","0","0","",""
"","feedback","","html-keyboard-response","406","536088","0.0-1.0-573.0-0.0","0","0","31670","","null","","","null","63","","","","","","","","","","","","","","","",""
"","time_out","","html-keyboard-response","407","538095","0.0-1.0-575.0-0.0","0","0","31670","","null","","","null","63","","","","","","","","","","","","","","","",""
"","ITI","","html-keyboard-response","408","539101","0.0-1.0-576.0","0","0","31670","","null","","","null","63","","","","","","","","","","","","","","","NaN",""
"","S1","","html-keyboard-response","409","539356","0.0-1.0-578.0","0","0","31670","","null","","","null","64","","","","","","","","","","","","","","","",""
"","ISI","","html-keyboard-response","410","540367","0.0-1.0-579.0","0","0","31670","","null","","","null","64","NaN","","","","","","","","","","","","","","",""
"","S2","","html-keyboard-response","411","540622","0.0-1.0-580.0","0","0","31670","","null","","","null","64","","NaN","","","","","","","","","","","","","",""
"","response","","html-keyboard-response","412","540826","0.0-1.0-581.0-0.0","0","0","31670","","202","","","75","64","","","2","64","training","adjacent","ED","5","4","Q.jpg","R.jpg","0","0","1","",""
"","feedback","","html-keyboard-response","413","541841","0.0-1.0-582.0-0.0","0","0","31670","","null","","","null","64","","","","","","","","","","","","","","","",""
"","ITI","","html-keyboard-response","414","542846","0.0-1.0-585.0","0","0","31670","","null","","","null","64","","","","","","","","","","","","","","","NaN",""
"","S1","","html-keyboard-response","415","543100","0.0-1.0-587.0","0","0","31670","","null","","","null","65","","","","","","","","","","","","","","","",""
"","ISI","","html-keyboard-response","416","544110","0.0-1.0-588.0","0","0","31670","","null","","","null","65","NaN","","","","","","","","","","","","","","",""
"","S2","","html-keyboard-response","417","544367","0.0-1.0-589.0","0","0","31670","","null","","","null","65","","NaN","","","","","","","","","","","","","",""
"","response","","html-keyboard-response","418","544425","0.0-1.0-590.0-0.0","0","0","31670","","57","","","75","65","","","2","65","training","adjacent","DC","4","3","R.jpg","L.jpg","0","0","1","",""
"","feedback","","html-keyboard-response","419","545429","0.0-1.0-591.0-0.0","0","0","31670","","null","","","null","65","","","","","","","","","","","","","","","",""
"","ITI","","html-keyboard-response","420","546439","0.0-1.0-594.0","0","0","31670","","null","","","null","65","","","","","","","","","","","","","","","NaN",""
"","S1","","html-keyboard-response","421","546695","0.0-1.0-596.0","0","0","31670","","null","","","null","66","","","","","","","","","","","","","","","",""
"","ISI","","html-keyboard-response","422","547705","0.0-1.0-597.0","0","0","31670","","null","","","null","66","NaN","","","","","","","","","","","","","","",""
"","S2","","html-keyboard-response","423","547965","0.0-1.0-598.0","0","0","31670","","null","","","null","66","","NaN","","","","","","","","","","","","","",""
"","response","","html-keyboard-response","424","548143","0.0-1.0-599.0-0.0","0","0","31670","","176","","","75","66","","","2","66","training","adjacent","GF","7","6","P.jpg","N.jpg","0","0","1","",""
"","feedback","","html-keyboard-response","425","549150","0.0-1.0-600.0-0.0","0","0","31670","","null","","","null","66","","","","","","","","","","","","","","","",""
"","ITI","","html-keyboard-response","426","550159","0.0-1.0-603.0","0","0","31670","","null","","","null","66","","","","","","","","","","","","","","","NaN",""
"","S1","","html-keyboard-response","427","550416","0.0-1.0-605.0","0","0","31670","","null","","","null","67","","","","","","","","","","","","","","","",""
"","ISI","","html-keyboard-response","428","551425","0.0-1.0-606.0","0","0","31670","","null","","","null","67","NaN","","","","","","","","","","","","","","",""
"","S2","","html-keyboard-response","429","551687","0.0-1.0-607.0","0","0","31670","","null","","","null","67","","NaN","","","","","","","","","","","","","",""
"","response","","html-keyboard-response","430","553446","0.0-1.0-608.0-0.0","0","0","31670","","null","","","null","67","","","2","67","training","adjacent","FE","6","5","N.jpg","Q.jpg","NaN","0","0","",""
"","too_slow_prompt","","html-keyboard-response","431","554456","0.0-1.0-610.0-0.0","1","0","31670","","null","","","null","","","","","","","","","","","","","","","","",""
"","time_out","","html-keyboard-response","432","556465","0.0-1.0-611.0-0.0","0","0","31670","","null","","","null","67","","","","","","","","","","","","","","","",""
"","ITI","","html-keyboard-response","433","557470","0.0-1.0-612.0","0","0","31670","","520","","","75","67","","","","","","","","","","","","","","","k",""
"","S1","","html-keyboard-response","434","557730","0.0-1.0-614.0","0","0","31670","","null","","","null","68","","","","","","","","","","","","","","","",""
"","ISI","","html-keyboard-response","435","558734","0.0-1.0-615.0","0","0","31670","","null","","","null","68","NaN","","","","","","","","","","","","","","",""
"","S2","","html-keyboard-response","436","558990","0.0-1.0-616.0","0","0","31670","","null","","","null","68","","NaN","","","","","","","","","","","","","",""
"","response","","html-keyboard-response","437","559065","0.0-1.0-617.0-0.0","0","0","31670","","73","","","75","68","","","2","68","training","adjacent","CD","3","4","L.jpg","R.jpg","0","1","0","",""
"","feedback","","html-keyboard-response","438","560074","0.0-1.0-618.0-0.0","0","0","31670","","null","","","null","68","","","","","","","","","","","","","","","",""
"","time_out","","html-keyboard-response","439","562078","0.0-1.0-620.0-0.0","0","0","31670","","null","","","null","68","","","","","","","","","","","","","","","",""
"","ITI","","html-keyboard-response","440","563088","0.0-1.0-621.0","0","0","31670","","null","","","null","68","","","","","","","","","","","","","","","NaN",""
"","S1","","html-keyboard-response","441","563344","0.0-1.0-623.0","0","0","31670","","null","","","null","69","","","","","","","","","","","","","","","",""
"","ISI","","html-keyboard-response","442","564353","0.0-1.0-624.0","0","0","31670","","null","","","null","69","NaN","","","","","","","","","","","","","","",""
"","S2","","html-keyboard-response","443","564617","0.0-1.0-625.0","0","0","31670","","null","","","null","69","","NaN","","","","","","","","","","","","","",""
"","response","","html-keyboard-response","444","564655","0.0-1.0-626.0-0.0","0","0","31670","","36","","","68","69","","","2","69","training","adjacent","DE","4","5","R.jpg","Q.jpg","1","1","1","",""
"","feedback","","html-keyboard-response","445","565666","0.0-1.0-627.0-0.0","0","0","31670","","null","","","null","69","","","","","","","","","","","","","","","",""
"","ITI","","html-keyboard-response","446","566670","0.0-1.0-630.0","0","0","31670","","null","","","null","69","","","","","","","","","","","","","","","NaN",""
"","S1","","html-keyboard-response","447","566926","0.0-1.0-632.0","0","0","31670","","null","","","null","70","","","","","","","","","","","","","","","",""
"","ISI","","html-keyboard-response","448","567936","0.0-1.0-633.0","0","0","31670","","null","","","null","70","NaN","","","","","","","","","","","","","","",""
"","S2","","html-keyboard-response","449","568191","0.0-1.0-634.0","0","0","31670","","null","","","null","70","","NaN","","","","","","","","","","","","","",""
"","response","","html-keyboard-response","450","568229","0.0-1.0-635.0-0.0","0","0","31670","","37","","","75","70","","","2","70","training","adjacent","DC","4","3","R.jpg","L.jpg","0","0","1","",""
"","feedback","","html-keyboard-response","451","569241","0.0-1.0-636.0-0.0","0","0","31670","","null","","","null","70","","","","","","","","","","","","","","","",""
"","ITI","","html-keyboard-response","452","570246","0.0-1.0-639.0","0","0","31670","","null","","","null","70","","","","","","","","","","","","","","","NaN",""
"","S1","","html-keyboard-response","453","570501","0.0-1.0-641.0","0","0","31670","","null","","","null","71","","","","","","","","","","","","","","","",""
"","ISI","","html-keyboard-response","454","571512","0.0-1.0-642.0","0","0","31670","","null","","","null","71","NaN","","","","","","","","","","","","","","",""
"","S2","","html-keyboard-response","455","571767","0.0-1.0-643.0","0","0","31670","","null","","","null","71","","NaN","","","","","","","","","","","","","",""
"","response","","html-keyboard-response","456","571850","0.0-1.0-644.0-0.0","0","0","31670","","81","","","75","71","","","2","71","training","adjacent","CB","3","2","L.jpg","O.jpg","0","0","1","",""
"","feedback","","html-keyboard-response","457","572857","0.0-1.0-645.0-0.0","0","0","31670","","null","","","null","71","","","","","","","","","","","","","","","",""
"","ITI","","html-keyboard-response","458","573863","0.0-1.0-648.0","0","0","31670","","null","","","null","71","","","","","","","","","","","","","","","NaN",""
"","S1","","html-keyboard-response","459","574118","0.0-1.0-650.0","0","0","31670","","null","","","null","72","","","","","","","","","","","","","","","",""
"","ISI","","html-keyboard-response","460","575127","0.0-1.0-651.0","0","0","31670","","null","","","null","72","NaN","","","","","","","","","","","","","","",""
"","S2","","html-keyboard-response","461","575142","0.0-1.0-652.0","0","0","31670","","11","","","75","72","","k","2","72","training","adjacent","ED","5","4","Q.jpg","R.jpg","0","0","1","",""
"","feedback","","html-keyboard-response","462","576153","0.0-1.0-654.0-0.0","0","0","31670","","null","","","null","72","","","","","","","","","","","","","","","",""
"","ITI","","html-keyboard-response","463","577159","0.0-1.0-657.0","0","0","31670","","null","","","null","72","","","","","","","","","","","","","","","NaN",""
"","S1","","html-keyboard-response","464","577415","0.0-1.0-659.0","0","0","31670","","null","","","null","73","","","","","","","","","","","","","","","",""
"","ISI","","html-keyboard-response","465","578425","0.0-1.0-660.0","0","0","31670","","null","","","null","73","NaN","","","","","","","","","","","","","","",""
"","S2","","html-keyboard-response","466","578503","0.0-1.0-661.0","0","0","31670","","76","","","75","73","","k","2","73","training","adjacent","CB","3","2","L.jpg","O.jpg","0","0","1","",""
"","feedback","","html-keyboard-response","467","579511","0.0-1.0-663.0-0.0","0","0","31670","","null","","","null","73","","","","","","","","","","","","","","","",""
"","ITI","","html-keyboard-response","468","580521","0.0-1.0-666.0","0","0","31670","","null","","","null","73","","","","","","","","","","","","","","","NaN",""
"","S1","","html-keyboard-response","469","580776","0.0-1.0-668.0","0","0","31670","","null","","","null","74","","","","","","","","","","","","","","","",""
"","ISI","","html-keyboard-response","470","581786","0.0-1.0-669.0","0","0","31670","","null","","","null","74","NaN","","","","","","","","","","","","","","",""
"","S2","","html-keyboard-response","471","581856","0.0-1.0-670.0","0","0","31670","","68","","","75","74","","k","2","74","training","adjacent","BC","2","3","O.jpg","L.jpg","0","1","0","",""
"","feedback","","html-keyboard-response","472","582865","0.0-1.0-672.0-0.0","0","0","31670","","null","","","null","74","","","","","","","","","","","","","","","",""
"","time_out","","html-keyboard-response","473","584874","0.0-1.0-674.0-0.0","0","0","31670","","null","","","null","74","","","","","","","","","","","","","","","",""
"","ITI","","html-keyboard-response","474","585879","0.0-1.0-675.0","0","0","31670","","null","","","null","74","","","","","","","","","","","","","","","NaN",""
"","S1","","html-keyboard-response","475","586134","0.0-1.0-677.0","0","0","31670","","null","","","null","75","","","","","","","","","","","","","","","",""
"","ISI","","html-keyboard-response","476","587145","0.0-1.0-678.0","0","0","31670","","null","","","null","75","NaN","","","","","","","","","","","","","","",""
"","S2","","html-keyboard-response","477","587406","0.0-1.0-679.0","0","0","31670","","null","","","null","75","","NaN","","","","","","","","","","","","","",""
"","response","","html-keyboard-response","478","587469","0.0-1.0-680.0-0.0","0","0","31670","","62","","","68","75","","","2","75","training","adjacent","DE","4","5","R.jpg","Q.jpg","1","1","1","",""
"","feedback","","html-keyboard-response","479","588479","0.0-1.0-681.0-0.0","0","0","31670","","null","","","null","75","","","","","","","","","","","","","","","",""
"","ITI","","html-keyboard-response","480","589490","0.0-1.0-684.0","0","0","31670","","null","","","null","75","","","","","","","","","","","","","","","NaN",""
"","S1","","html-keyboard-response","481","589751","0.0-1.0-686.0","0","0","31670","","null","","","null","76","","","","","","","","","","","","","","","",""
"","ISI","","html-keyboard-response","482","590762","0.0-1.0-687.0","0","0","31670","","null","","","null","76","NaN","","","","","","","","","","","","","","",""
"","S2","","html-keyboard-response","483","591022","0.0-1.0-688.0","0","0","31670","","null","","","null","76","","NaN","","","","","","","","","","","","","",""
"","response","","html-keyboard-response","484","591074","0.0-1.0-689.0-0.0","0","0","31670","","49","","","75","76","","","2","76","training","adjacent","AB","1","2","M.jpg","O.jpg","0","1","0","",""
"","feedback","","html-keyboard-response","485","592079","0.0-1.0-690.0-0.0","0","0","31670","","null","","","null","76","","","","","","","","","","","","","","","",""
"","time_out","","html-keyboard-response","486","594088","0.0-1.0-692.0-0.0","0","0","31670","","null","","","null","76","","","","","","","","","","","","","","","",""
"","ITI","","html-keyboard-response","487","595098","0.0-1.0-693.0","0","0","31670","","null","","","null","76","","","","","","","","","","","","","","","NaN",""
"","S1","","html-keyboard-response","488","595359","0.0-1.0-695.0","0","0","31670","","null","","","null","77","","","","","","","","","","","","","","","",""
"","ISI","","html-keyboard-response","489","596369","0.0-1.0-696.0","0","0","31670","","null","","","null","77","NaN","","","","","","","","","","","","","","",""
"","S2","","html-keyboard-response","490","596446","0.0-1.0-697.0","0","0","31670","","75","","","68","77","","d","2","77","training","adjacent","AB","1","2","M.jpg","O.jpg","1","1","1","",""
"","feedback","","html-keyboard-response","491","597455","0.0-1.0-699.0-0.0","0","0","31670","","null","","","null","77","","","","","","","","","","","","","","","",""
"","ITI","","html-keyboard-response","492","598465","0.0-1.0-702.0","0","0","31670","","null","","","null","77","","","","","","","","","","","","","","","NaN",""
"","S1","","html-keyboard-response","493","598719","0.0-1.0-704.0","0","0","31670","","null","","","null","78","","","","","","","","","","","","","","","",""
"","ISI","","html-keyboard-response","494","599730","0.0-1.0-705.0","0","0","31670","","null","","","null","78","NaN","","","","","","","","","","","","","","",""
"","S2","","html-keyboard-response","495","599892","0.0-1.0-706.0","0","0","31670","","160","","","75","78","","k","2","78","training","adjacent","DC","4","3","R.jpg","L.jpg","0","0","1","",""
"","feedback","","html-keyboard-response","496","600903","0.0-1.0-708.0-0.0","0","0","31670","","null","","","null","78","","","","","","","","","","","","","","","",""
"","ITI","","html-keyboard-response","497","601911","0.0-1.0-711.0","0","0","31670","","null","","","null","78","","","","","","","","","","","","","","","NaN",""
"","S1","","html-keyboard-response","498","602167","0.0-1.0-713.0","0","0","31670","","null","","","null","79","","","","","","","","","","","","","","","",""
"","ISI","","html-keyboard-response","499","603176","0.0-1.0-714.0","0","0","31670","","null","","","null","79","NaN","","","","","","","","","","","","","","",""
"","S2","","html-keyboard-response","500","603434","0.0-1.0-715.0","0","0","31670","","null","","","null","79","","NaN","","","","","","","","","","","","","",""
"","response","","html-keyboard-response","501","603590","0.0-1.0-716.0-0.0","0","0","31670","","154","","","75","79","","","2","79","training","adjacent","FG","6","7","N.jpg","P.jpg","0","1","0","",""
"","feedback","","html-keyboard-response","502","604600","0.0-1.0-717.0-0.0","0","0","31670","","null","","","null","79","","","","","","","","","","","","","","","",""
"","time_out","","html-keyboard-response","503","606608","0.0-1.0-719.0-0.0","0","0","31670","","null","","","null","79","","","","","","","","","","","","","","","",""
"","ITI","","html-keyboard-response","504","607619","0.0-1.0-720.0","0","0","31670","","null","","","null","79","","","","","","","","","","","","","","","NaN",""
"","S1","","html-keyboard-response","505","607880","0.0-1.0-722.0","0","0","31670","","null","","","null","80","","","","","","","","","","","","","","","",""
"","ISI","","html-keyboard-response","506","608890","0.0-1.0-723.0","0","0","31670","","null","","","null","80","NaN","","","","","","","","","","","","","","",""
"","S2","","html-keyboard-response","507","609151","0.0-1.0-724.0","0","0","31670","","null","","","null","80","","NaN","","","","","","","","","","","","","",""
"","response","","html-keyboard-response","508","609288","0.0-1.0-725.0-0.0","0","0","31670","","135","","","68","80","","","2","80","training","adjacent","DE","4","5","R.jpg","Q.jpg","1","1","1","",""
"","feedback","","html-keyboard-response","509","610294","0.0-1.0-726.0-0.0","0","0","31670","","null","","","null","80","","","","","","","","","","","","","","","",""
"","ITI","","html-keyboard-response","510","611305","0.0-1.0-729.0","0","0","31670","","null","","","null","80","","","","","","","","","","","","","","","NaN",""
"","S1","","html-keyboard-response","511","611561","0.0-1.0-731.0","0","0","31670","","null","","","null","81","","","","","","","","","","","","","","","",""
"","ISI","","html-keyboard-response","512","612571","0.0-1.0-732.0","0","0","31670","","906","","","68","81","d","","","","","","","","","","","","","","",""
"","S2","","html-keyboard-response","513","612832","0.0-1.0-733.0","0","0","31670","","null","","","null","81","","NaN","","","","","","","","","","","","","",""
"","response","","html-keyboard-response","514","613296","0.0-1.0-734.0-0.0","0","0","31670","","462","","","68","81","","","2","81","training","adjacent","CD","3","4","L.jpg","R.jpg","1","1","1","",""
"","feedback","","html-keyboard-response","515","614307","0.0-1.0-735.0-0.0","0","0","31670","","null","","","null","81","","","","","","","","","","","","","","","",""
"","ITI","","html-keyboard-response","516","615311","0.0-1.0-738.0","0","0","31670","","null","","","null","81","","","","","","","","","","","","","","","NaN",""
"","S1","","html-keyboard-response","517","615567","0.0-1.0-740.0","0","0","31670","","null","","","null","82","","","","","","","","","","","","","","","",""
"","ISI","","html-keyboard-response","518","616576","0.0-1.0-741.0","0","0","31670","","944","","","68","82","d","","","","","","","","","","","","","","",""
"","S2","","html-keyboard-response","519","616833","0.0-1.0-742.0","0","0","31670","","null","","","null","82","","NaN","","","","","","","","","","","","","",""
"","response","","html-keyboard-response","520","617343","0.0-1.0-743.0-0.0","0","0","31670","","508","","","75","82","","","2","82","training","adjacent","ED","5","4","Q.jpg","R.jpg","0","0","1","",""
"","feedback","","html-keyboard-response","521","618353","0.0-1.0-744.0-0.0","0","0","31670","","null","","","null","82","","","","","","","","","","","","","","","",""
"","ITI","","html-keyboard-response","522","619362","0.0-1.0-747.0","0","0","31670","","null","","","null","82","","","","","","","","","","","","","","","NaN",""
"","S1","","html-keyboard-response","523","619624","0.0-1.0-749.0","0","0","31670","","null","","","null","83","","","","","","","","","","","","","","","",""
"","ISI","","html-keyboard-response","524","620633","0.0-1.0-750.0","0","0","31670","","null","","","null","83","NaN","","","","","","","","","","","","","","",""
"","S2","","html-keyboard-response","525","620890","0.0-1.0-751.0","0","0","31670","","null","","","null","83","","NaN","","","","","","","","","","","","","",""
"","response","","html-keyboard-response","526","621063","0.0-1.0-752.0-0.0","0","0","31670","","171","","","75","83","","","2","83","training","adjacent","BA","2","1","O.jpg","M.jpg","0","0","1","",""
"","feedback","","html-keyboard-response","527","622074","0.0-1.0-753.0-0.0","0","0","31670","","null","","","null","83","","","","","","","","","","","","","","","",""
"","ITI","","html-keyboard-response","528","623079","0.0-1.0-756.0","0","0","31670","","null","","","null","83","","","","","","","","","","","","","","","NaN",""
"","S1","","html-keyboard-response","529","623340","0.0-1.0-758.0","0","0","31670","","null","","","null","84","","","","","","","","","","","","","","","",""
"","ISI","","html-keyboard-response","530","624344","0.0-1.0-759.0","0","0","31670","","null","","","null","84","NaN","","","","","","","","","","","","","","",""
"","S2","","html-keyboard-response","531","624599","0.0-1.0-760.0","0","0","31670","","null","","","null","84","","NaN","","","","","","","","","","","","","",""
"","response","","html-keyboard-response","532","624746","0.0-1.0-761.0-0.0","0","0","31670","","145","","","75","84","","","2","84","training","adjacent","BC","2","3","O.jpg","L.jpg","0","1","0","",""
"","feedback","","html-keyboard-response","533","625754","0.0-1.0-762.0-0.0","0","0","31670","","null","","","null","84","","","","","","","","","","","","","","","",""
"","time_out","","html-keyboard-response","534","627764","0.0-1.0-764.0-0.0","0","0","31670","","null","","","null","84","","","","","","","","","","","","","","","",""
"","ITI","","html-keyboard-response","535","628767","0.0-1.0-765.0","0","0","31670","","null","","","null","84","","","","","","","","","","","","","","","NaN",""
"","S1","","html-keyboard-response","536","629023","0.0-1.0-767.0","0","0","31670","","null","","","null","85","","","","","","","","","","","","","","","",""
"","ISI","","html-keyboard-response","537","630033","0.0-1.0-768.0","0","0","31670","","962","","","68","85","d","","","","","","","","","","","","","","",""
"","S2","","html-keyboard-response","538","630288","0.0-1.0-769.0","0","0","31670","","null","","","null","85","","NaN","","","","","","","","","","","","","",""
"","response","","html-keyboard-response","539","630365","0.0-1.0-770.0-0.0","0","0","31670","","74","","","68","85","","","2","85","training","adjacent","FE","6","5","N.jpg","Q.jpg","1","0","0","",""
"","feedback","","html-keyboard-response","540","631379","0.0-1.0-771.0-0.0","0","0","31670","","null","","","null","85","","","","","","","","","","","","","","","",""
"","time_out","","html-keyboard-response","541","633383","0.0-1.0-773.0-0.0","0","0","31670","","null","","","null","85","","","","","","","","","","","","","","","",""
"","ITI","","html-keyboard-response","542","634392","0.0-1.0-774.0","0","0","31670","","null","","","null","85","","","","","","","","","","","","","","","NaN",""
"","S1","","html-keyboard-response","543","634668","0.0-1.0-776.0","0","0","31670","","null","","","null","86","","","","","","","","","","","","","","","",""
"","ISI","","html-keyboard-response","544","635673","0.0-1.0-777.0","0","0","31670","","null","","","null","86","NaN","","","","","","","","","","","","","","",""
"","S2","","html-keyboard-response","545","635931","0.0-1.0-778.0","0","0","31670","","null","","","null","86","","NaN","","","","","","","","","","","","","",""
"","response","","html-keyboard-response","546","636003","0.0-1.0-779.0-0.0","0","0","31670","","70","","","75","86","","","2","86","training","adjacent","EF","5","6","Q.jpg","N.jpg","0","1","0","",""
"","feedback","","html-keyboard-response","547","637011","0.0-1.0-780.0-0.0","0","0","31670","","null","","","null","86","","","","","","","","","","","","","","","",""
"","time_out","","html-keyboard-response","548","639020","0.0-1.0-782.0-0.0","0","0","31670","","null","","","null","86","","","","","","","","","","","","","","","",""
"","ITI","","html-keyboard-response","549","640024","0.0-1.0-783.0","0","0","31670","","null","","","null","86","","","","","","","","","","","","","","","NaN",""
"","S1","","html-keyboard-response","550","640279","0.0-1.0-785.0","0","0","31670","","null","","","null","87","","","","","","","","","","","","","","","",""
"","ISI","","html-keyboard-response","551","641289","0.0-1.0-786.0","0","0","31670","","null","","","null","87","NaN","","","","","","","","","","","","","","",""
"","S2","","html-keyboard-response","552","641518","0.0-1.0-787.0","0","0","31670","","227","","","68","87","","d","2","87","training","adjacent","GF","7","6","P.jpg","N.jpg","1","0","0","",""
"","feedback","","html-keyboard-response","553","642531","0.0-1.0-789.0-0.0","0","0","31670","","null","","","null","87","","","","","","","","","","","","","","","",""
"","time_out","","html-keyboard-response","554","644540","0.0-1.0-791.0-0.0","0","0","31670","","null","","","null","87","","","","","","","","","","","","","","","",""
"","ITI","","html-keyboard-response","555","645544","0.0-1.0-792.0","0","0","31670","","null","","","null","87","","","","","","","","","","","","","","","NaN",""
"","S1","","html-keyboard-response","556","645800","0.0-1.0-794.0","0","0","31670","","null","","","null","88","","","","","","","","","","","","","","","",""
"","ISI","","html-keyboard-response","557","646810","0.0-1.0-795.0","0","0","31670","","null","","","null","88","NaN","","","","","","","","","","","","","","",""
"","S2","","html-keyboard-response","558","646967","0.0-1.0-796.0","0","0","31670","","155","","","75","88","","k","2","88","training","adjacent","GF","7","6","P.jpg","N.jpg","0","0","1","",""
"","feedback","","html-keyboard-response","559","647977","0.0-1.0-798.0-0.0","0","0","31670","","null","","","null","88","","","","","","","","","","","","","","","",""
"","ITI","","html-keyboard-response","560","648987","0.0-1.0-801.0","0","0","31670","","null","","","null","88","","","","","","","","","","","","","","","NaN",""
"","S1","","html-keyboard-response","561","649248","0.0-1.0-803.0","0","0","31670","","null","","","null","89","","","","","","","","","","","","","","","",""
"","ISI","","html-keyboard-response","562","650258","0.0-1.0-804.0","0","0","31670","","null","","","null","89","NaN","","","","","","","","","","","","","","",""
"","S2","","html-keyboard-response","563","650514","0.0-1.0-805.0","0","0","31670","","null","","","null","89","","NaN","","","","","","","","","","","","","",""
"","response","","html-keyboard-response","564","650705","0.0-1.0-806.0-0.0","0","0","31670","","189","","","75","89","","","2","89","training","adjacent","BC","2","3","O.jpg","L.jpg","0","1","0","",""
"","feedback","","html-keyboard-response","565","651715","0.0-1.0-807.0-0.0","0","0","31670","","null","","","null","89","","","","","","","","","","","","","","","",""
"","time_out","","html-keyboard-response","566","653724","0.0-1.0-809.0-0.0","0","0","31670","","null","","","null","89","","","","","","","","","","","","","","","",""
"","ITI","","html-keyboard-response","567","654728","0.0-1.0-810.0","0","0","31670","","null","","","null","89","","","","","","","","","","","","","","","NaN",""
"","S1","","html-keyboard-response","568","654985","0.0-1.0-812.0","0","0","31670","","null","","","null","90","","","","","","","","","","","","","","","",""
"","ISI","","html-keyboard-response","569","655994","0.0-1.0-813.0","0","0","31670","","178","","","68","90","d","","","","","","","","","","","","","","",""
"","S2","","html-keyboard-response","570","656250","0.0-1.0-814.0","0","0","31670","","null","","","null","90","","NaN","","","","","","","","","","","","","",""
"","response","","html-keyboard-response","571","656632","0.0-1.0-815.0-0.0","0","0","31670","","381","","","75","90","","","2","90","training","adjacent","DC","4","3","R.jpg","L.jpg","0","0","1","",""
"","feedback","","html-keyboard-response","572","657642","0.0-1.0-816.0-0.0","0","0","31670","","null","","","null","90","","","","","","","","","","","","","","","",""
"","ITI","","html-keyboard-response","573","658651","0.0-1.0-819.0","0","0","31670","","null","","","null","90","","","","","","","","","","","","","","","NaN",""
"","S1","","html-keyboard-response","574","658914","0.0-1.0-821.0","0","0","31670","","null","","","null","91","","","","","","","","","","","","","","","",""
"","ISI","","html-keyboard-response","575","659924","0.0-1.0-822.0","0","0","31670","","null","","","null","91","NaN","","","","","","","","","","","","","","",""
"","S2","","html-keyboard-response","576","660185","0.0-1.0-823.0","0","0","31670","","null","","","null","91","","NaN","","","","","","","","","","","","","",""
"","response","","html-keyboard-response","577","660595","0.0-1.0-824.0-0.0","0","0","31670","","408","","","75","91","","","2","91","training","adjacent","EF","5","6","Q.jpg","N.jpg","0","1","0","",""
"","feedback","","html-keyboard-response","578","661601","0.0-1.0-825.0-0.0","0","0","31670","","null","","","null","91","","","","","","","","","","","","","","","",""
"","time_out","","html-keyboard-response","579","663610","0.0-1.0-827.0-0.0","0","0","31670","","null","","","null","91","","","","","","","","","","","","","","","",""
"","ITI","","html-keyboard-response","580","664620","0.0-1.0-828.0","0","0","31670","","null","","","null","91","","","","","","","","","","","","","","","NaN",""
"","S1","","html-keyboard-response","581","664881","0.0-1.0-830.0","0","0","31670","","null","","","null","92","","","","","","","","","","","","","","","",""
"","ISI","","html-keyboard-response","582","665892","0.0-1.0-831.0","0","0","31670","","null","","","null","92","NaN","","","","","","","","","","","","","","",""
"","S2","","html-keyboard-response","583","666153","0.0-1.0-832.0","0","0","31670","","null","","","null","92","","NaN","","","","","","","","","","","","","",""
