"success","ttype","start_time","trial_type","trial_index","time_elapsed","internal_node_id","warning","missed_checkup","PID","view_history","rt","responses","repeat_instructions","key_press","index","keypress_isi","keypress_S2","block","trial_num","phase","group_type","pair_type","S1_stim","S2_stim","S1_img","S2_img","S1_chosen","S1_higher","accuracy","keypress_iti","total_bonus_tally"
"true","full_screen","d08012022hr1629","fullscreen","0","3037","0.0-0.0","0","0","86820","","","","","","","","","","","","","","","","","","","","","",""
"","instructions","","instructions","1","31309","0.0-1.0-0.0-0.0","0","0","86820","[{""page_index"":0,""viewing_time"":3183},{""page_index"":1,""viewing_time"":11152},{""page_index"":2,""viewing_time"":11080},{""page_index"":3,""viewing_time"":2854}]","28270","","","","","","","","","","","","","","","","","","","",""
"","comprehension_check","","survey-multi-choice","2","45095","0.0-1.0-0.0-1.0","0","0","86820","","13782","{""Q0"":""True"",""Q1"":""D"",""Q2"":""When you see the prompt 'MAKE A CHOICE' after the second image was presented"",""Q3"":""Green mark"",""Q4"":""either D or K""}","0","","","","","","","","","","","","","","","","","",""
"","start_exp","","html-keyboard-response","3","46480","0.0-1.0-1.0","0","0","86820","","1381","","","32","","","","","","","","","","","","","","","","",""
"","S1","","html-keyboard-response","4","46737","0.0-1.0-2.0","0","0","86820","","null","","","null","0","","","","","","","","","","","","","","","",""
"","ISI","","html-keyboard-response","5","48740","0.0-1.0-3.0","0","0","86820","","null","","","null","0","NaN","","","","","","","","","","","","","","",""
"","S2","","html-keyboard-response","6","48996","0.0-1.0-4.0","0","0","86820","","null","","","null","0","","NaN","","","","","","","","","","","","","",""
"","response","","html-keyboard-response","7","50879","0.0-1.0-5.0","0","0","86820","","1882","","","75","0","","","1","0","training","adjacent","FG","6","7","R.jpg","P.jpg","0","1","0","",""
"","feedback","","html-keyboard-response","8","51887","0.0-1.0-6.0-0.0","0","0","86820","","null","","","null","0","","","","","","","","","","","","","","","",""
"","time_out","","html-keyboard-response","9","53889","0.0-1.0-8.0-0.0","0","0","86820","","null","","","null","0","","","","","","","","","","","","","","","",""
"","ITI","","html-keyboard-response","10","54894","0.0-1.0-9.0","0","0","86820","","null","","","null","0","","","","","","","","","","","","","","","NaN",""
"","S1","","html-keyboard-response","11","55149","0.0-1.0-11.0","0","0","86820","","null","","","null","1","","","","","","","","","","","","","","","",""
"","ISI","","html-keyboard-response","12","57152","0.0-1.0-12.0","0","0","86820","","1427","","","68","1","d","","","","","","","","","","","","","","",""
"","S2","","html-keyboard-response","13","57407","0.0-1.0-13.0","0","0","86820","","null","","","null","1","","NaN","","","","","","","","","","","","","",""
"","response","","html-keyboard-response","14","59410","0.0-1.0-14.0","0","0","86820","","null","","","null","1","","","1","1","training","adjacent","DC","4","3","L.jpg","N.jpg","NaN","0","0","",""
"","too_slow_prompt","","html-keyboard-response","15","60414","0.0-1.0-16.0-0.0","1","0","86820","","null","","","null","","","","","","","","","","","","","","","","",""
"","time_out","","html-keyboard-response","16","62417","0.0-1.0-17.0-0.0","0","0","86820","","null","","","null","1","","","","","","","","","","","","","","","",""
"","ITI","","html-keyboard-response","17","63421","0.0-1.0-18.0","0","0","86820","","null","","","null","1","","","","","","","","","","","","","","","NaN",""
"","S1","","html-keyboard-response","18","63677","0.0-1.0-20.0","0","0","86820","","null","","","null","2","","","","","","","","","","","","","","","",""
"","ISI","","html-keyboard-response","19","65679","0.0-1.0-21.0","0","0","86820","","null","","","null","2","NaN","","","","","","","","","","","","","","",""
"","S2","","html-keyboard-response","20","65935","0.0-1.0-22.0","0","0","86820","","null","","","null","2","","NaN","","","","","","","","","","","","","",""
"","response","","html-keyboard-response","21","66485","0.0-1.0-23.0","0","0","86820","","549","","","68","2","","","1","2","training","adjacent","BA","2","1","M.jpg","Q.jpg","1","0","0","",""
"","feedback","","html-keyboard-response","22","67491","0.0-1.0-24.0-0.0","0","0","86820","","null","","","null","2","","","","","","","","","","","","","","","",""
"","time_out","","html-keyboard-response","23","69493","0.0-1.0-26.0-0.0","0","0","86820","","null","","","null","2","","","","","","","","","","","","","","","",""
"","ITI","","html-keyboard-response","24","70498","0.0-1.0-27.0","0","0","86820","","null","","","null","2","","","","","","","","","","","","","","","NaN",""
"","S1","","html-keyboard-response","25","70753","0.0-1.0-29.0","0","0","86820","","null","","","null","3","","","","","","","","","","","","","","","",""
"","ISI","","html-keyboard-response","26","72756","0.0-1.0-30.0","0","0","86820","","null","","","null","3","NaN","","","","","","","","","","","","","","",""
"","S2","","html-keyboard-response","27","73011","0.0-1.0-31.0","0","0","86820","","null","","","null","3","","NaN","","","","","","","","","","","","","",""
"","response","","html-keyboard-response","28","73443","0.0-1.0-32.0","0","0","86820","","429","","","68","3","","","1","3","training","adjacent","FG","6","7","R.jpg","P.jpg","1","1","1","",""
"","feedback","","html-keyboard-response","29","74445","0.0-1.0-33.0-0.0","0","0","86820","","null","","","null","3","","","","","","","","","","","","","","","",""
"","ITI","","html-keyboard-response","30","75449","0.0-1.0-36.0","0","0","86820","","null","","","null","3","","","","","","","","","","","","","","","NaN",""
"","S1","","html-keyboard-response","31","75704","0.0-1.0-38.0","0","0","86820","","null","","","null","4","","","","","","","","","","","","","","","",""
"","ISI","","html-keyboard-response","32","77707","0.0-1.0-39.0","0","0","86820","","null","","","null","4","NaN","","","","","","","","","","","","","","",""
"","S2","","html-keyboard-response","33","77963","0.0-1.0-40.0","0","0","86820","","null","","","null","4","","NaN","","","","","","","","","","","","","",""
"","response","","html-keyboard-response","34","78631","0.0-1.0-41.0","0","0","86820","","667","","","75","4","","","1","4","training","adjacent","FE","6","5","R.jpg","O.jpg","0","0","1","",""
"","feedback","","html-keyboard-response","35","79635","0.0-1.0-42.0-0.0","0","0","86820","","null","","","null","4","","","","","","","","","","","","","","","",""
"","ITI","","html-keyboard-response","36","80639","0.0-1.0-45.0","0","0","86820","","null","","","null","4","","","","","","","","","","","","","","","NaN",""
"","S1","","html-keyboard-response","37","80893","0.0-1.0-47.0","0","0","86820","","null","","","null","5","","","","","","","","","","","","","","","",""
"","ISI","","html-keyboard-response","38","82897","0.0-1.0-48.0","0","0","86820","","null","","","null","5","NaN","","","","","","","","","","","","","","",""
"","S2","","html-keyboard-response","39","83150","0.0-1.0-49.0","0","0","86820","","null","","","null","5","","NaN","","","","","","","","","","","","","",""
"","response","","html-keyboard-response","40","84618","0.0-1.0-50.0","0","0","86820","","1467","","","75","5","","","1","5","training","adjacent","BA","2","1","M.jpg","Q.jpg","0","0","1","",""
"","feedback","","html-keyboard-response","41","85625","0.0-1.0-51.0-0.0","0","0","86820","","null","","","null","5","","","","","","","","","","","","","","","",""
"","ITI","","html-keyboard-response","42","86630","0.0-1.0-54.0","0","0","86820","","null","","","null","5","","","","","","","","","","","","","","","NaN",""
"","S1","","html-keyboard-response","43","86885","0.0-1.0-56.0","0","0","86820","","null","","","null","6","","","","","","","","","","","","","","","",""
"","ISI","","html-keyboard-response","44","88890","0.0-1.0-57.0","0","0","86820","","null","","","null","6","NaN","","","","","","","","","","","","","","",""
"","S2","","html-keyboard-response","45","89143","0.0-1.0-58.0","0","0","86820","","null","","","null","6","","NaN","","","","","","","","","","","","","",""
"","response","","html-keyboard-response","46","90143","0.0-1.0-59.0","0","0","86820","","998","","","68","6","","","1","6","training","adjacent","CD","3","4","N.jpg","L.jpg","1","1","1","",""
"","feedback","","html-keyboard-response","47","91148","0.0-1.0-60.0-0.0","0","0","86820","","null","","","null","6","","","","","","","","","","","","","","","",""
"","ITI","","html-keyboard-response","48","92150","0.0-1.0-63.0","0","0","86820","","null","","","null","6","","","","","","","","","","","","","","","NaN",""
"","S1","","html-keyboard-response","49","92405","0.0-1.0-65.0","0","0","86820","","null","","","null","7","","","","","","","","","","","","","","","",""
"","ISI","","html-keyboard-response","50","94407","0.0-1.0-66.0","0","0","86820","","null","","","null","7","NaN","","","","","","","","","","","","","","",""
"","S2","","html-keyboard-response","51","94664","0.0-1.0-67.0","0","0","86820","","null","","","null","7","","NaN","","","","","","","","","","","","","",""
"","response","","html-keyboard-response","52","95415","0.0-1.0-68.0","0","0","86820","","750","","","68","7","","","1","7","training","adjacent","GF","7","6","P.jpg","R.jpg","1","0","0","",""
"","feedback","","html-keyboard-response","53","96417","0.0-1.0-69.0-0.0","0","0","86820","","null","","","null","7","","","","","","","","","","","","","","","",""
"","time_out","","html-keyboard-response","54","98419","0.0-1.0-71.0-0.0","0","0","86820","","null","","","null","7","","","","","","","","","","","","","","","",""
"","ITI","","html-keyboard-response","55","99424","0.0-1.0-72.0","0","0","86820","","null","","","null","7","","","","","","","","","","","","","","","NaN",""
"","S1","","html-keyboard-response","56","99679","0.0-1.0-74.0","0","0","86820","","null","","","null","8","","","","","","","","","","","","","","","",""
"","ISI","","html-keyboard-response","57","101682","0.0-1.0-75.0","0","0","86820","","1816","","","75","8","k","","","","","","","","","","","","","","",""
"","S2","","html-keyboard-response","58","101937","0.0-1.0-76.0","0","0","86820","","null","","","null","8","","NaN","","","","","","","","","","","","","",""
"","response","","html-keyboard-response","59","102058","0.0-1.0-77.0","0","0","86820","","119","","","75","8","","","1","8","training","adjacent","CB","3","2","N.jpg","M.jpg","0","0","1","",""
"","feedback","","html-keyboard-response","60","103063","0.0-1.0-78.0-0.0","0","0","86820","","null","","","null","8","","","","","","","","","","","","","","","",""
"","ITI","","html-keyboard-response","61","104070","0.0-1.0-81.0","0","0","86820","","null","","","null","8","","","","","","","","","","","","","","","NaN",""
"","S1","","html-keyboard-response","62","104323","0.0-1.0-83.0","0","0","86820","","null","","","null","9","","","","","","","","","","","","","","","",""
"","ISI","","html-keyboard-response","63","106326","0.0-1.0-84.0","0","0","86820","","null","","","null","9","NaN","","","","","","","","","","","","","","",""
"","S2","","html-keyboard-response","64","106581","0.0-1.0-85.0","0","0","86820","","null","","","null","9","","NaN","","","","","","","","","","","","","",""
"","response","","html-keyboard-response","65","108584","0.0-1.0-86.0","0","0","86820","","null","","","null","9","","","1","9","training","adjacent","AB","1","2","Q.jpg","M.jpg","NaN","1","0","",""
"","too_slow_prompt","","html-keyboard-response","66","109588","0.0-1.0-88.0-0.0","1","0","86820","","null","","","null","","","","","","","","","","","","","","","","",""
"","time_out","","html-keyboard-response","67","111591","0.0-1.0-89.0-0.0","0","0","86820","","null","","","null","9","","","","","","","","","","","","","","","",""
"","ITI","","html-keyboard-response","68","112595","0.0-1.0-90.0","0","0","86820","","null","","","null","9","","","","","","","","","","","","","","","NaN",""
"","S1","","html-keyboard-response","69","112851","0.0-1.0-92.0","0","0","86820","","null","","","null","10","","","","","","","","","","","","","","","",""
"","ISI","","html-keyboard-response","70","114853","0.0-1.0-93.0","0","0","86820","","null","","","null","10","NaN","","","","","","","","","","","","","","",""
"","S2","","html-keyboard-response","71","115109","0.0-1.0-94.0","0","0","86820","","null","","","null","10","","NaN","","","","","","","","","","","","","",""
"","response","","html-keyboard-response","72","115800","0.0-1.0-95.0","0","0","86820","","688","","","68","10","","","1","10","training","adjacent","GF","7","6","P.jpg","R.jpg","1","0","0","",""
"","feedback","","html-keyboard-response","73","116803","0.0-1.0-96.0-0.0","0","0","86820","","null","","","null","10","","","","","","","","","","","","","","","",""
"","time_out","","html-keyboard-response","74","118807","0.0-1.0-98.0-0.0","0","0","86820","","null","","","null","10","","","","","","","","","","","","","","","",""
"","ITI","","html-keyboard-response","75","119811","0.0-1.0-99.0","0","0","86820","","null","","","null","10","","","","","","","","","","","","","","","NaN",""
"","S1","","html-keyboard-response","76","120066","0.0-1.0-101.0","0","0","86820","","null","","","null","11","","","","","","","","","","","","","","","",""
"","ISI","","html-keyboard-response","77","122069","0.0-1.0-102.0","0","0","86820","","698","","","75","11","k","","","","","","","","","","","","","","",""
"","S2","","html-keyboard-response","78","122324","0.0-1.0-103.0","0","0","86820","","null","","","null","11","","NaN","","","","","","","","","","","","","",""
"","response","","html-keyboard-response","79","122350","0.0-1.0-104.0","0","0","86820","","25","","","75","11","","","1","11","training","adjacent","EF","5","6","O.jpg","R.jpg","0","1","0","",""
"","feedback","","html-keyboard-response","80","123355","0.0-1.0-105.0-0.0","0","0","86820","","null","","","null","11","","","","","","","","","","","","","","","",""
"","time_out","","html-keyboard-response","81","125361","0.0-1.0-107.0-0.0","0","0","86820","","null","","","null","11","","","","","","","","","","","","","","","",""
"","ITI","","html-keyboard-response","82","126365","0.0-1.0-108.0","0","0","86820","","null","","","null","11","","","","","","","","","","","","","","","NaN",""
"","S1","","html-keyboard-response","83","126620","0.0-1.0-110.0","0","0","86820","","null","","","null","12","","","","","","","","","","","","","","","",""
"","ISI","","html-keyboard-response","84","128623","0.0-1.0-111.0","0","0","86820","","1029","","","75","12","k","","","","","","","","","","","","","","",""
"","S2","","html-keyboard-response","85","128878","0.0-1.0-112.0","0","0","86820","","27","","","75","12","","k","","","","","","","","","","","","","",""
"","response","","html-keyboard-response","86","129441","0.0-1.0-113.0","0","0","86820","","561","","","75","12","","","1","12","training","adjacent","FE","6","5","R.jpg","O.jpg","0","0","1","",""
"","feedback","","html-keyboard-response","87","130446","0.0-1.0-114.0-0.0","0","0","86820","","null","","","null","12","","","","","","","","","","","","","","","",""
"","ITI","","html-keyboard-response","88","131450","0.0-1.0-117.0","0","0","86820","","null","","","null","12","","","","","","","","","","","","","","","NaN",""
"","S1","","html-keyboard-response","89","131705","0.0-1.0-119.0","0","0","86820","","null","","","null","13","","","","","","","","","","","","","","","",""
"","ISI","","html-keyboard-response","90","133709","0.0-1.0-120.0","0","0","86820","","null","","","null","13","NaN","","","","","","","","","","","","","","",""
"","S2","","html-keyboard-response","91","133964","0.0-1.0-121.0","0","0","86820","","null","","","null","13","","NaN","","","","","","","","","","","","","",""
"","response","","html-keyboard-response","92","135420","0.0-1.0-122.0","0","0","86820","","1454","","","75","13","","","1","13","training","adjacent","EF","5","6","O.jpg","R.jpg","0","1","0","",""
"","feedback","","html-keyboard-response","93","136425","0.0-1.0-123.0-0.0","0","0","86820","","null","","","null","13","","","","","","","","","","","","","","","",""
"","time_out","","html-keyboard-response","94","138428","0.0-1.0-125.0-0.0","0","0","86820","","null","","","null","13","","","","","","","","","","","","","","","",""
"","ITI","","html-keyboard-response","95","139432","0.0-1.0-126.0","0","0","86820","","null","","","null","13","","","","","","","","","","","","","","","NaN",""
"","S1","","html-keyboard-response","96","139687","0.0-1.0-128.0","0","0","86820","","null","","","null","14","","","","","","","","","","","","","","","",""
"","ISI","","html-keyboard-response","97","141689","0.0-1.0-129.0","0","0","86820","","null","","","null","14","NaN","","","","","","","","","","","","","","",""
"","S2","","html-keyboard-response","98","141945","0.0-1.0-130.0","0","0","86820","","null","","","null","14","","NaN","","","","","","","","","","","","","",""
"","response","","html-keyboard-response","99","142076","0.0-1.0-131.0","0","0","86820","","129","","","68","14","","","1","14","training","adjacent","BC","2","3","M.jpg","N.jpg","1","1","1","",""
"","feedback","","html-keyboard-response","100","143083","0.0-1.0-132.0-0.0","0","0","86820","","null","","","null","14","","","","","","","","","","","","","","","",""
"","ITI","","html-keyboard-response","101","144087","0.0-1.0-135.0","0","0","86820","","null","","","null","14","","","","","","","","","","","","","","","NaN",""
"","S1","","html-keyboard-response","102","144343","0.0-1.0-137.0","0","0","86820","","null","","","null","15","","","","","","","","","","","","","","","",""
"","ISI","","html-keyboard-response","103","146346","0.0-1.0-138.0","0","0","86820","","null","","","null","15","NaN","","","","","","","","","","","","","","",""
"","S2","","html-keyboard-response","104","146601","0.0-1.0-139.0","0","0","86820","","null","","","null","15","","NaN","","","","","","","","","","","","","",""
"","response","","html-keyboard-response","105","148165","0.0-1.0-140.0","0","0","86820","","1562","","","75","15","","","1","15","training","adjacent","BC","2","3","M.jpg","N.jpg","0","1","0","",""
"","feedback","","html-keyboard-response","106","149167","0.0-1.0-141.0-0.0","0","0","86820","","null","","","null","15","","","","","","","","","","","","","","","",""
"","time_out","","html-keyboard-response","107","151170","0.0-1.0-143.0-0.0","0","0","86820","","null","","","null","15","","","","","","","","","","","","","","","",""
"","ITI","","html-keyboard-response","108","152174","0.0-1.0-144.0","0","0","86820","","null","","","null","15","","","","","","","","","","","","","","","NaN",""
"","S1","","html-keyboard-response","109","152429","0.0-1.0-146.0","0","0","86820","","null","","","null","16","","","","","","","","","","","","","","","",""
"","ISI","","html-keyboard-response","110","154432","0.0-1.0-147.0","0","0","86820","","null","","","null","16","NaN","","","","","","","","","","","","","","",""
"","S2","","html-keyboard-response","111","154687","0.0-1.0-148.0","0","0","86820","","null","","","null","16","","NaN","","","","","","","","","","","","","",""
"","response","","html-keyboard-response","112","154798","0.0-1.0-149.0","0","0","86820","","109","","","75","16","","","1","16","training","adjacent","BA","2","1","M.jpg","Q.jpg","0","0","1","",""
"","feedback","","html-keyboard-response","113","155802","0.0-1.0-150.0-0.0","0","0","86820","","null","","","null","16","","","","","","","","","","","","","","","",""
"","ITI","","html-keyboard-response","114","156806","0.0-1.0-153.0","0","0","86820","","null","","","null","16","","","","","","","","","","","","","","","NaN",""
"","S1","","html-keyboard-response","115","157062","0.0-1.0-155.0","0","0","86820","","null","","","null","17","","","","","","","","","","","","","","","",""
"","ISI","","html-keyboard-response","116","159064","0.0-1.0-156.0","0","0","86820","","null","","","null","17","NaN","","","","","","","","","","","","","","",""
"","S2","","html-keyboard-response","117","159320","0.0-1.0-157.0","0","0","86820","","null","","","null","17","","NaN","","","","","","","","","","","","","",""
"","response","","html-keyboard-response","118","160105","0.0-1.0-158.0","0","0","86820","","783","","","68","17","","","1","17","training","adjacent","DE","4","5","L.jpg","O.jpg","1","1","1","",""
"","feedback","","html-keyboard-response","119","161108","0.0-1.0-159.0-0.0","0","0","86820","","null","","","null","17","","","","","","","","","","","","","","","",""
"","ITI","","html-keyboard-response","120","162112","0.0-1.0-162.0","0","0","86820","","null","","","null","17","","","","","","","","","","","","","","","NaN",""
"","S1","","html-keyboard-response","121","162368","0.0-1.0-164.0","0","0","86820","","null","","","null","18","","","","","","","","","","","","","","","",""
"","ISI","","html-keyboard-response","122","164370","0.0-1.0-165.0","0","0","86820","","null","","","null","18","NaN","","","","","","","","","","","","","","",""
"","S2","","html-keyboard-response","123","164626","0.0-1.0-166.0","0","0","86820","","null","","","null","18","","NaN","","","","","","","","","","","","","",""
"","response","","html-keyboard-response","124","165465","0.0-1.0-167.0","0","0","86820","","838","","","68","18","","","1","18","training","adjacent","EF","5","6","O.jpg","R.jpg","1","1","1","",""
"","feedback","","html-keyboard-response","125","166472","0.0-1.0-168.0-0.0","0","0","86820","","null","","","null","18","","","","","","","","","","","","","","","",""
"","ITI","","html-keyboard-response","126","167476","0.0-1.0-171.0","0","0","86820","","null","","","null","18","","","","","","","","","","","","","","","NaN",""
"","S1","","html-keyboard-response","127","167731","0.0-1.0-173.0","0","0","86820","","null","","","null","19","","","","","","","","","","","","","","","",""
"","ISI","","html-keyboard-response","128","169734","0.0-1.0-174.0","0","0","86820","","null","","","null","19","NaN","","","","","","","","","","","","","","",""
"","S2","","html-keyboard-response","129","169989","0.0-1.0-175.0","0","0","86820","","null","","","null","19","","NaN","","","","","","","","","","","","","",""
"","response","","html-keyboard-response","130","170045","0.0-1.0-176.0","0","0","86820","","53","","","68","19","","","1","19","training","adjacent","ED","5","4","O.jpg","L.jpg","1","0","0","",""
"","feedback","","html-keyboard-response","131","171052","0.0-1.0-177.0-0.0","0","0","86820","","null","","","null","19","","","","","","","","","","","","","","","",""
"","time_out","","html-keyboard-response","132","173055","0.0-1.0-179.0-0.0","0","0","86820","","null","","","null","19","","","","","","","","","","","","","","","",""
"","ITI","","html-keyboard-response","133","174059","0.0-1.0-180.0","0","0","86820","","null","","","null","19","","","","","","","","","","","","","","","NaN",""
"","S1","","html-keyboard-response","134","174314","0.0-1.0-182.0","0","0","86820","","null","","","null","20","","","","","","","","","","","","","","","",""
"","ISI","","html-keyboard-response","135","176317","0.0-1.0-183.0","0","0","86820","","null","","","null","20","NaN","","","","","","","","","","","","","","",""
"","S2","","html-keyboard-response","136","176572","0.0-1.0-184.0","0","0","86820","","null","","","null","20","","NaN","","","","","","","","","","","","","",""
"","response","","html-keyboard-response","137","177116","0.0-1.0-185.0","0","0","86820","","541","","","68","20","","","1","20","training","adjacent","ED","5","4","O.jpg","L.jpg","1","0","0","",""
"","feedback","","html-keyboard-response","138","178122","0.0-1.0-186.0-0.0","0","0","86820","","null","","","null","20","","","","","","","","","","","","","","","",""
"","time_out","","html-keyboard-response","139","180125","0.0-1.0-188.0-0.0","0","0","86820","","null","","","null","20","","","","","","","","","","","","","","","",""
"","ITI","","html-keyboard-response","140","181129","0.0-1.0-189.0","0","0","86820","","null","","","null","20","","","","","","","","","","","","","","","NaN",""
"","S1","","html-keyboard-response","141","181385","0.0-1.0-191.0","0","0","86820","","null","","","null","21","","","","","","","","","","","","","","","",""
"","ISI","","html-keyboard-response","142","183387","0.0-1.0-192.0","0","0","86820","","null","","","null","21","NaN","","","","","","","","","","","","","","",""
"","S2","","html-keyboard-response","143","183643","0.0-1.0-193.0","0","0","86820","","null","","","null","21","","NaN","","","","","","","","","","","","","",""
"","response","","html-keyboard-response","144","184125","0.0-1.0-194.0","0","0","86820","","480","","","75","21","","","1","21","training","adjacent","BA","2","1","M.jpg","Q.jpg","0","0","1","",""
"","feedback","","html-keyboard-response","145","185129","0.0-1.0-195.0-0.0","0","0","86820","","null","","","null","21","","","","","","","","","","","","","","","",""
"","ITI","","html-keyboard-response","146","186133","0.0-1.0-198.0","0","0","86820","","null","","","null","21","","","","","","","","","","","","","","","NaN",""
"","S1","","html-keyboard-response","147","186390","0.0-1.0-200.0","0","0","86820","","null","","","null","22","","","","","","","","","","","","","","","",""
"","ISI","","html-keyboard-response","148","188397","0.0-1.0-201.0","0","0","86820","","null","","","null","22","NaN","","","","","","","","","","","","","","",""
"","S2","","html-keyboard-response","149","188652","0.0-1.0-202.0","0","0","86820","","null","","","null","22","","NaN","","","","","","","","","","","","","",""
"","response","","html-keyboard-response","150","190659","0.0-1.0-203.0","0","0","86820","","null","","","null","22","","","1","22","training","adjacent","FE","6","5","R.jpg","O.jpg","NaN","0","0","",""
"","too_slow_prompt","","html-keyboard-response","151","191665","0.0-1.0-205.0-0.0","1","0","86820","","null","","","null","","","","","","","","","","","","","","","","",""
"","time_out","","html-keyboard-response","152","193668","0.0-1.0-206.0-0.0","0","0","86820","","null","","","null","22","","","","","","","","","","","","","","","",""
"","ITI","","html-keyboard-response","153","194672","0.0-1.0-207.0","0","0","86820","","null","","","null","22","","","","","","","","","","","","","","","NaN",""
"","S1","","html-keyboard-response","154","194928","0.0-1.0-209.0","0","0","86820","","null","","","null","23","","","","","","","","","","","","","","","",""
"","ISI","","html-keyboard-response","155","196931","0.0-1.0-210.0","0","0","86820","","null","","","null","23","NaN","","","","","","","","","","","","","","",""
"","S2","","html-keyboard-response","156","197186","0.0-1.0-211.0","0","0","86820","","null","","","null","23","","NaN","","","","","","","","","","","","","",""
"","response","","html-keyboard-response","157","198024","0.0-1.0-212.0","0","0","86820","","836","","","75","23","","","1","23","training","adjacent","CB","3","2","N.jpg","M.jpg","0","0","1","",""
"","feedback","","html-keyboard-response","158","199026","0.0-1.0-213.0-0.0","0","0","86820","","null","","","null","23","","","","","","","","","","","","","","","",""
"","ITI","","html-keyboard-response","159","200030","0.0-1.0-216.0","0","0","86820","","null","","","null","23","","","","","","","","","","","","","","","NaN",""
"","S1","","html-keyboard-response","160","200286","0.0-1.0-218.0","0","0","86820","","null","","","null","24","","","","","","","","","","","","","","","",""
"","ISI","","html-keyboard-response","161","202289","0.0-1.0-219.0","0","0","86820","","null","","","null","24","NaN","","","","","","","","","","","","","","",""
"","S2","","html-keyboard-response","162","202544","0.0-1.0-220.0","0","0","86820","","null","","","null","24","","NaN","","","","","","","","","","","","","",""
"","response","","html-keyboard-response","163","204009","0.0-1.0-221.0","0","0","86820","","1464","","","75","24","","","1","24","training","adjacent","BC","2","3","M.jpg","N.jpg","0","1","0","",""
"","feedback","","html-keyboard-response","164","205017","0.0-1.0-222.0-0.0","0","0","86820","","null","","","null","24","","","","","","","","","","","","","","","",""
"","time_out","","html-keyboard-response","165","207020","0.0-1.0-224.0-0.0","0","0","86820","","null","","","null","24","","","","","","","","","","","","","","","",""
"","ITI","","html-keyboard-response","166","208024","0.0-1.0-225.0","0","0","86820","","null","","","null","24","","","","","","","","","","","","","","","NaN",""
"","S1","","html-keyboard-response","167","208279","0.0-1.0-227.0","0","0","86820","","null","","","null","25","","","","","","","","","","","","","","","",""
"","ISI","","html-keyboard-response","168","210281","0.0-1.0-228.0","0","0","86820","","null","","","null","25","NaN","","","","","","","","","","","","","","",""
"","S2","","html-keyboard-response","169","210538","0.0-1.0-229.0","0","0","86820","","null","","","null","25","","NaN","","","","","","","","","","","","","",""
"","response","","html-keyboard-response","170","211079","0.0-1.0-230.0","0","0","86820","","540","","","75","25","","","1","25","training","adjacent","ED","5","4","O.jpg","L.jpg","0","0","1","",""
"","feedback","","html-keyboard-response","171","212082","0.0-1.0-231.0-0.0","0","0","86820","","null","","","null","25","","","","","","","","","","","","","","","",""
"","ITI","","html-keyboard-response","172","213086","0.0-1.0-234.0","0","0","86820","","null","","","null","25","","","","","","","","","","","","","","","NaN",""
"","S1","","html-keyboard-response","173","213341","0.0-1.0-236.0","0","0","86820","","null","","","null","26","","","","","","","","","","","","","","","",""
"","ISI","","html-keyboard-response","174","215344","0.0-1.0-237.0","0","0","86820","","null","","","null","26","NaN","","","","","","","","","","","","","","",""
"","S2","","html-keyboard-response","175","215599","0.0-1.0-238.0","0","0","86820","","null","","","null","26","","NaN","","","","","","","","","","","","","",""
"","response","","html-keyboard-response","176","217602","0.0-1.0-239.0","0","0","86820","","null","","","null","26","","","1","26","training","adjacent","DE","4","5","L.jpg","O.jpg","NaN","1","0","",""
"","too_slow_prompt","","html-keyboard-response","177","218607","0.0-1.0-241.0-0.0","1","0","86820","","null","","","null","","","","","","","","","","","","","","","","",""
"","time_out","","html-keyboard-response","178","220609","0.0-1.0-242.0-0.0","0","0","86820","","null","","","null","26","","","","","","","","","","","","","","","",""
"","ITI","","html-keyboard-response","179","221613","0.0-1.0-243.0","0","0","86820","","null","","","null","26","","","","","","","","","","","","","","","NaN",""
"","S1","","html-keyboard-response","180","221869","0.0-1.0-245.0","0","0","86820","","null","","","null","27","","","","","","","","","","","","","","","",""
"","ISI","","html-keyboard-response","181","223872","0.0-1.0-246.0","0","0","86820","","null","","","null","27","NaN","","","","","","","","","","","","","","",""
"","S2","","html-keyboard-response","182","224127","0.0-1.0-247.0","0","0","86820","","null","","","null","27","","NaN","","","","","","","","","","","","","",""
"","response","","html-keyboard-response","183","225224","0.0-1.0-248.0","0","0","86820","","1095","","","68","27","","","1","27","training","adjacent","CD","3","4","N.jpg","L.jpg","1","1","1","",""
"","feedback","","html-keyboard-response","184","226228","0.0-1.0-249.0-0.0","0","0","86820","","null","","","null","27","","","","","","","","","","","","","","","",""
"","ITI","","html-keyboard-response","185","227233","0.0-1.0-252.0","0","0","86820","","null","","","null","27","","","","","","","","","","","","","","","NaN",""
"","S1","","html-keyboard-response","186","227487","0.0-1.0-254.0","0","0","86820","","null","","","null","28","","","","","","","","","","","","","","","",""
"","ISI","","html-keyboard-response","187","229491","0.0-1.0-255.0","0","0","86820","","null","","","null","28","NaN","","","","","","","","","","","","","","",""
"","S2","","html-keyboard-response","188","229746","0.0-1.0-256.0","0","0","86820","","null","","","null","28","","NaN","","","","","","","","","","","","","",""
"","response","","html-keyboard-response","189","230458","0.0-1.0-257.0","0","0","86820","","710","","","68","28","","","1","28","training","adjacent","CD","3","4","N.jpg","L.jpg","1","1","1","",""
"","feedback","","html-keyboard-response","190","231465","0.0-1.0-258.0-0.0","0","0","86820","","null","","","null","28","","","","","","","","","","","","","","","",""
"","ITI","","html-keyboard-response","191","232469","0.0-1.0-261.0","0","0","86820","","null","","","null","28","","","","","","","","","","","","","","","NaN",""
"","S1","","html-keyboard-response","192","232724","0.0-1.0-263.0","0","0","86820","","null","","","null","29","","","","","","","","","","","","","","","",""
"","ISI","","html-keyboard-response","193","234727","0.0-1.0-264.0","0","0","86820","","null","","","null","29","NaN","","","","","","","","","","","","","","",""
"","S2","","html-keyboard-response","194","234983","0.0-1.0-265.0","0","0","86820","","null","","","null","29","","NaN","","","","","","","","","","","","","",""
"","response","","html-keyboard-response","195","235720","0.0-1.0-266.0","0","0","86820","","736","","","75","29","","","1","29","training","adjacent","AB","1","2","Q.jpg","M.jpg","0","1","0","",""
"","feedback","","html-keyboard-response","196","236724","0.0-1.0-267.0-0.0","0","0","86820","","null","","","null","29","","","","","","","","","","","","","","","",""
"","time_out","","html-keyboard-response","197","238727","0.0-1.0-269.0-0.0","0","0","86820","","null","","","null","29","","","","","","","","","","","","","","","",""
"","ITI","","html-keyboard-response","198","239731","0.0-1.0-270.0","0","0","86820","","null","","","null","29","","","","","","","","","","","","","","","NaN",""
"","S1","","html-keyboard-response","199","239986","0.0-1.0-272.0","0","0","86820","","null","","","null","30","","","","","","","","","","","","","","","",""
"","ISI","","html-keyboard-response","200","241989","0.0-1.0-273.0","0","0","86820","","null","","","null","30","NaN","","","","","","","","","","","","","","",""
"","S2","","html-keyboard-response","201","242246","0.0-1.0-274.0","0","0","86820","","null","","","null","30","","NaN","","","","","","","","","","","","","",""
"","response","","html-keyboard-response","202","243209","0.0-1.0-275.0","0","0","86820","","961","","","75","30","","","1","30","training","adjacent","DC","4","3","L.jpg","N.jpg","0","0","1","",""
"","feedback","","html-keyboard-response","203","244212","0.0-1.0-276.0-0.0","0","0","86820","","null","","","null","30","","","","","","","","","","","","","","","",""
"","ITI","","html-keyboard-response","204","245216","0.0-1.0-279.0","0","0","86820","","null","","","null","30","","","","","","","","","","","","","","","NaN",""
"","S1","","html-keyboard-response","205","245472","0.0-1.0-281.0","0","0","86820","","null","","","null","31","","","","","","","","","","","","","","","",""
"","ISI","","html-keyboard-response","206","247475","0.0-1.0-282.0","0","0","86820","","null","","","null","31","NaN","","","","","","","","","","","","","","",""
"","S2","","html-keyboard-response","207","247730","0.0-1.0-283.0","0","0","86820","","null","","","null","31","","NaN","","","","","","","","","","","","","",""
"","response","","html-keyboard-response","208","249249","0.0-1.0-284.0","0","0","86820","","1517","","","75","31","","","1","31","training","adjacent","DE","4","5","L.jpg","O.jpg","0","1","0","",""
"","feedback","","html-keyboard-response","209","250255","0.0-1.0-285.0-0.0","0","0","86820","","null","","","null","31","","","","","","","","","","","","","","","",""
"","time_out","","html-keyboard-response","210","252258","0.0-1.0-287.0-0.0","0","0","86820","","null","","","null","31","","","","","","","","","","","","","","","",""
"","ITI","","html-keyboard-response","211","253262","0.0-1.0-288.0","0","0","86820","","null","","","null","31","","","","","","","","","","","","","","","NaN",""
"","S1","","html-keyboard-response","212","253518","0.0-1.0-290.0","0","0","86820","","null","","","null","32","","","","","","","","","","","","","","","",""
"","ISI","","html-keyboard-response","213","255521","0.0-1.0-291.0","0","0","86820","","null","","","null","32","NaN","","","","","","","","","","","","","","",""
"","S2","","html-keyboard-response","214","255776","0.0-1.0-292.0","0","0","86820","","null","","","null","32","","NaN","","","","","","","","","","","","","",""
"","response","","html-keyboard-response","215","256677","0.0-1.0-293.0","0","0","86820","","899","","","68","32","","","1","32","training","adjacent","FG","6","7","R.jpg","P.jpg","1","1","1","",""
"","feedback","","html-keyboard-response","216","257680","0.0-1.0-294.0-0.0","0","0","86820","","null","","","null","32","","","","","","","","","","","","","","","",""
"","ITI","","html-keyboard-response","217","258684","0.0-1.0-297.0","0","0","86820","","null","","","null","32","","","","","","","","","","","","","","","NaN",""
"","S1","","html-keyboard-response","218","258940","0.0-1.0-299.0","0","0","86820","","null","","","null","33","","","","","","","","","","","","","","","",""
"","ISI","","html-keyboard-response","219","260942","0.0-1.0-300.0","0","0","86820","","null","","","null","33","NaN","","","","","","","","","","","","","","",""
"","S2","","html-keyboard-response","220","261198","0.0-1.0-301.0","0","0","86820","","null","","","null","33","","NaN","","","","","","","","","","","","","",""
"","response","","html-keyboard-response","221","261851","0.0-1.0-302.0","0","0","86820","","652","","","68","33","","","1","33","training","adjacent","BC","2","3","M.jpg","N.jpg","1","1","1","",""
"","feedback","","html-keyboard-response","222","262858","0.0-1.0-303.0-0.0","0","0","86820","","null","","","null","33","","","","","","","","","","","","","","","",""
"","ITI","","html-keyboard-response","223","263862","0.0-1.0-306.0","0","0","86820","","null","","","null","33","","","","","","","","","","","","","","","NaN",""
"","S1","","html-keyboard-response","224","264118","0.0-1.0-308.0","0","0","86820","","null","","","null","34","","","","","","","","","","","","","","","",""
"","ISI","","html-keyboard-response","225","266120","0.0-1.0-309.0","0","0","86820","","null","","","null","34","NaN","","","","","","","","","","","","","","",""
"","S2","","html-keyboard-response","226","266376","0.0-1.0-310.0","0","0","86820","","null","","","null","34","","NaN","","","","","","","","","","","","","",""
"","response","","html-keyboard-response","227","267027","0.0-1.0-311.0","0","0","86820","","649","","","68","34","","","1","34","training","adjacent","DC","4","3","L.jpg","N.jpg","1","0","0","",""
"","feedback","","html-keyboard-response","228","268030","0.0-1.0-312.0-0.0","0","0","86820","","null","","","null","34","","","","","","","","","","","","","","","",""
"","time_out","","html-keyboard-response","229","270033","0.0-1.0-314.0-0.0","0","0","86820","","null","","","null","34","","","","","","","","","","","","","","","",""
"","ITI","","html-keyboard-response","230","271037","0.0-1.0-315.0","0","0","86820","","null","","","null","34","","","","","","","","","","","","","","","NaN",""
"","S1","","html-keyboard-response","231","271293","0.0-1.0-317.0","0","0","86820","","null","","","null","35","","","","","","","","","","","","","","","",""
"","ISI","","html-keyboard-response","232","273296","0.0-1.0-318.0","0","0","86820","","null","","","null","35","NaN","","","","","","","","","","","","","","",""
"","S2","","html-keyboard-response","233","273551","0.0-1.0-319.0","0","0","86820","","null","","","null","35","","NaN","","","","","","","","","","","","","",""
"","response","","html-keyboard-response","234","273923","0.0-1.0-320.0","0","0","86820","","370","","","68","35","","","1","35","training","adjacent","GF","7","6","P.jpg","R.jpg","1","0","0","",""
"","feedback","","html-keyboard-response","235","274927","0.0-1.0-321.0-0.0","0","0","86820","","null","","","null","35","","","","","","","","","","","","","","","",""
"","time_out","","html-keyboard-response","236","276929","0.0-1.0-323.0-0.0","0","0","86820","","null","","","null","35","","","","","","","","","","","","","","","",""
"","ITI","","html-keyboard-response","237","277934","0.0-1.0-324.0","0","0","86820","","null","","","null","35","","","","","","","","","","","","","","","NaN",""
"","S1","","html-keyboard-response","238","278189","0.0-1.0-326.0","0","0","86820","","null","","","null","36","","","","","","","","","","","","","","","",""
"","ISI","","html-keyboard-response","239","280192","0.0-1.0-327.0","0","0","86820","","null","","","null","36","NaN","","","","","","","","","","","","","","",""
"","S2","","html-keyboard-response","240","280447","0.0-1.0-328.0","0","0","86820","","null","","","null","36","","NaN","","","","","","","","","","","","","",""
"","response","","html-keyboard-response","241","280839","0.0-1.0-329.0","0","0","86820","","389","","","75","36","","","1","36","training","adjacent","DC","4","3","L.jpg","N.jpg","0","0","1","",""
"","feedback","","html-keyboard-response","242","281846","0.0-1.0-330.0-0.0","0","0","86820","","null","","","null","36","","","","","","","","","","","","","","","",""
"","ITI","","html-keyboard-response","243","282851","0.0-1.0-333.0","0","0","86820","","null","","","null","36","","","","","","","","","","","","","","","NaN",""
"","S1","","html-keyboard-response","244","283106","0.0-1.0-335.0","0","0","86820","","null","","","null","37","","","","","","","","","","","","","","","",""
"","ISI","","html-keyboard-response","245","285109","0.0-1.0-336.0","0","0","86820","","null","","","null","37","NaN","","","","","","","","","","","","","","",""
"","S2","","html-keyboard-response","246","285364","0.0-1.0-337.0","0","0","86820","","null","","","null","37","","NaN","","","","","","","","","","","","","",""
"","response","","html-keyboard-response","247","286290","0.0-1.0-338.0","0","0","86820","","925","","","75","37","","","1","37","training","adjacent","DE","4","5","L.jpg","O.jpg","0","1","0","",""
"","feedback","","html-keyboard-response","248","287297","0.0-1.0-339.0-0.0","0","0","86820","","null","","","null","37","","","","","","","","","","","","","","","",""
"","time_out","","html-keyboard-response","249","289300","0.0-1.0-341.0-0.0","0","0","86820","","null","","","null","37","","","","","","","","","","","","","","","",""
"","ITI","","html-keyboard-response","250","290304","0.0-1.0-342.0","0","0","86820","","null","","","null","37","","","","","","","","","","","","","","","NaN",""
"","S1","","html-keyboard-response","251","290560","0.0-1.0-344.0","0","0","86820","","null","","","null","38","","","","","","","","","","","","","","","",""
"","ISI","","html-keyboard-response","252","292562","0.0-1.0-345.0","0","0","86820","","null","","","null","38","NaN","","","","","","","","","","","","","","",""
"","S2","","html-keyboard-response","253","292818","0.0-1.0-346.0","0","0","86820","","null","","","null","38","","NaN","","","","","","","","","","","","","",""
"","response","","html-keyboard-response","254","293335","0.0-1.0-347.0","0","0","86820","","515","","","68","38","","","1","38","training","adjacent","FG","6","7","R.jpg","P.jpg","1","1","1","",""
"","feedback","","html-keyboard-response","255","294339","0.0-1.0-348.0-0.0","0","0","86820","","null","","","null","38","","","","","","","","","","","","","","","",""
"","ITI","","html-keyboard-response","256","295343","0.0-1.0-351.0","0","0","86820","","null","","","null","38","","","","","","","","","","","","","","","NaN",""
"","S1","","html-keyboard-response","257","295598","0.0-1.0-353.0","0","0","86820","","null","","","null","39","","","","","","","","","","","","","","","",""
"","ISI","","html-keyboard-response","258","297601","0.0-1.0-354.0","0","0","86820","","null","","","null","39","NaN","","","","","","","","","","","","","","",""
"","S2","","html-keyboard-response","259","297856","0.0-1.0-355.0","0","0","86820","","null","","","null","39","","NaN","","","","","","","","","","","","","",""
"","response","","html-keyboard-response","260","298043","0.0-1.0-356.0","0","0","86820","","185","","","68","39","","","1","39","training","adjacent","FE","6","5","R.jpg","O.jpg","1","0","0","",""
"","feedback","","html-keyboard-response","261","299046","0.0-1.0-357.0-0.0","0","0","86820","","null","","","null","39","","","","","","","","","","","","","","","",""
"","time_out","","html-keyboard-response","262","301049","0.0-1.0-359.0-0.0","0","0","86820","","null","","","null","39","","","","","","","","","","","","","","","",""
"","ITI","","html-keyboard-response","263","302056","0.0-1.0-360.0","0","0","86820","","null","","","null","39","","","","","","","","","","","","","","","NaN",""
"","S1","","html-keyboard-response","264","302309","0.0-1.0-362.0","0","0","86820","","null","","","null","40","","","","","","","","","","","","","","","",""
"","ISI","","html-keyboard-response","265","304311","0.0-1.0-363.0","0","0","86820","","null","","","null","40","NaN","","","","","","","","","","","","","","",""
"","S2","","html-keyboard-response","266","304567","0.0-1.0-364.0","0","0","86820","","null","","","null","40","","NaN","","","","","","","","","","","","","",""
"","response","","html-keyboard-response","267","305192","0.0-1.0-365.0","0","0","86820","","623","","","68","40","","","1","40","training","adjacent","GF","7","6","P.jpg","R.jpg","1","0","0","",""
"","feedback","","html-keyboard-response","268","306198","0.0-1.0-366.0-0.0","0","0","86820","","null","","","null","40","","","","","","","","","","","","","","","",""
"","time_out","","html-keyboard-response","269","308201","0.0-1.0-368.0-0.0","0","0","86820","","null","","","null","40","","","","","","","","","","","","","","","",""
"","ITI","","html-keyboard-response","270","309205","0.0-1.0-369.0","0","0","86820","","null","","","null","40","","","","","","","","","","","","","","","NaN",""
"","S1","","html-keyboard-response","271","309461","0.0-1.0-371.0","0","0","86820","","null","","","null","41","","","","","","","","","","","","","","","",""
"","ISI","","html-keyboard-response","272","311463","0.0-1.0-372.0","0","0","86820","","null","","","null","41","NaN","","","","","","","","","","","","","","",""
"","S2","","html-keyboard-response","273","311719","0.0-1.0-373.0","0","0","86820","","null","","","null","41","","NaN","","","","","","","","","","","","","",""
"","response","","html-keyboard-response","274","312516","0.0-1.0-374.0","0","0","86820","","796","","","68","41","","","1","41","training","adjacent","ED","5","4","O.jpg","L.jpg","1","0","0","",""
"","feedback","","html-keyboard-response","275","313518","0.0-1.0-375.0-0.0","0","0","86820","","null","","","null","41","","","","","","","","","","","","","","","",""
"","time_out","","html-keyboard-response","276","315521","0.0-1.0-377.0-0.0","0","0","86820","","null","","","null","41","","","","","","","","","","","","","","","",""
"","ITI","","html-keyboard-response","277","316525","0.0-1.0-378.0","0","0","86820","","null","","","null","41","","","","","","","","","","","","","","","NaN",""
"","S1","","html-keyboard-response","278","316781","0.0-1.0-380.0","0","0","86820","","null","","","null","42","","","","","","","","","","","","","","","",""
"","ISI","","html-keyboard-response","279","318783","0.0-1.0-381.0","0","0","86820","","314","","","68","42","d","","","","","","","","","","","","","","",""
"","S2","","html-keyboard-response","280","319039","0.0-1.0-382.0","0","0","86820","","null","","","null","42","","NaN","","","","","","","","","","","","","",""
"","response","","html-keyboard-response","281","319617","0.0-1.0-383.0","0","0","86820","","577","","","68","42","","","1","42","training","adjacent","AB","1","2","Q.jpg","M.jpg","1","1","1","",""
"","feedback","","html-keyboard-response","282","320623","0.0-1.0-384.0-0.0","0","0","86820","","null","","","null","42","","","","","","","","","","","","","","","",""
"","ITI","","html-keyboard-response","283","321630","0.0-1.0-387.0","0","0","86820","","null","","","null","42","","","","","","","","","","","","","","","NaN",""
"","S1","","html-keyboard-response","284","321883","0.0-1.0-389.0","0","0","86820","","null","","","null","43","","","","","","","","","","","","","","","",""
"","ISI","","html-keyboard-response","285","323886","0.0-1.0-390.0","0","0","86820","","null","","","null","43","NaN","","","","","","","","","","","","","","",""
"","S2","","html-keyboard-response","286","324142","0.0-1.0-391.0","0","0","86820","","null","","","null","43","","NaN","","","","","","","","","","","","","",""
"","response","","html-keyboard-response","287","325402","0.0-1.0-392.0","0","0","86820","","1259","","","68","43","","","1","43","training","adjacent","EF","5","6","O.jpg","R.jpg","1","1","1","",""
"","feedback","","html-keyboard-response","288","326408","0.0-1.0-393.0-0.0","0","0","86820","","null","","","null","43","","","","","","","","","","","","","","","",""
"","ITI","","html-keyboard-response","289","327414","0.0-1.0-396.0","0","0","86820","","null","","","null","43","","","","","","","","","","","","","","","NaN",""
"","S1","","html-keyboard-response","290","327671","0.0-1.0-398.0","0","0","86820","","null","","","null","44","","","","","","","","","","","","","","","",""
"","ISI","","html-keyboard-response","291","329674","0.0-1.0-399.0","0","0","86820","","null","","","null","44","NaN","","","","","","","","","","","","","","",""
"","S2","","html-keyboard-response","292","329929","0.0-1.0-400.0","0","0","86820","","null","","","null","44","","NaN","","","","","","","","","","","","","",""
"","response","","html-keyboard-response","293","330571","0.0-1.0-401.0","0","0","86820","","640","","","68","44","","","1","44","training","adjacent","AB","1","2","Q.jpg","M.jpg","1","1","1","",""
"","feedback","","html-keyboard-response","294","331578","0.0-1.0-402.0-0.0","0","0","86820","","null","","","null","44","","","","","","","","","","","","","","","",""
"","ITI","","html-keyboard-response","295","332582","0.0-1.0-405.0","0","0","86820","","null","","","null","44","","","","","","","","","","","","","","","NaN",""
"","S1","","html-keyboard-response","296","332839","0.0-1.0-407.0","0","0","86820","","null","","","null","45","","","","","","","","","","","","","","","",""
"","ISI","","html-keyboard-response","297","334846","0.0-1.0-408.0","0","0","86820","","null","","","null","45","NaN","","","","","","","","","","","","","","",""
"","S2","","html-keyboard-response","298","335101","0.0-1.0-409.0","0","0","86820","","null","","","null","45","","NaN","","","","","","","","","","","","","",""
"","response","","html-keyboard-response","299","335749","0.0-1.0-410.0","0","0","86820","","646","","","75","45","","","1","45","training","adjacent","CD","3","4","N.jpg","L.jpg","0","1","0","",""
"","feedback","","html-keyboard-response","300","336756","0.0-1.0-411.0-0.0","0","0","86820","","null","","","null","45","","","","","","","","","","","","","","","",""
"","time_out","","html-keyboard-response","301","338758","0.0-1.0-413.0-0.0","0","0","86820","","null","","","null","45","","","","","","","","","","","","","","","",""
"","ITI","","html-keyboard-response","302","339763","0.0-1.0-414.0","0","0","86820","","null","","","null","45","","","","","","","","","","","","","","","NaN",""
"","S1","","html-keyboard-response","303","340018","0.0-1.0-416.0","0","0","86820","","null","","","null","46","","","","","","","","","","","","","","","",""
"","ISI","","html-keyboard-response","304","342021","0.0-1.0-417.0","0","0","86820","","null","","","null","46","NaN","","","","","","","","","","","","","","",""
"","S2","","html-keyboard-response","305","342276","0.0-1.0-418.0","0","0","86820","","null","","","null","46","","NaN","","","","","","","","","","","","","",""
"","response","","html-keyboard-response","306","342815","0.0-1.0-419.0","0","0","86820","","537","","","75","46","","","1","46","training","adjacent","CB","3","2","N.jpg","M.jpg","0","0","1","",""
"","feedback","","html-keyboard-response","307","343821","0.0-1.0-420.0-0.0","0","0","86820","","null","","","null","46","","","","","","","","","","","","","","","",""
"","ITI","","html-keyboard-response","308","344825","0.0-1.0-423.0","0","0","86820","","null","","","null","46","","","","","","","","","","","","","","","NaN",""
"","S1","","html-keyboard-response","309","345080","0.0-1.0-425.0","0","0","86820","","null","","","null","47","","","","","","","","","","","","","","","",""
"","ISI","","html-keyboard-response","310","347083","0.0-1.0-426.0","0","0","86820","","null","","","null","47","NaN","","","","","","","","","","","","","","",""
"","S2","","html-keyboard-response","311","347338","0.0-1.0-427.0","0","0","86820","","null","","","null","47","","NaN","","","","","","","","","","","","","",""
"","response","","html-keyboard-response","312","349341","0.0-1.0-428.0","0","0","86820","","null","","","null","47","","","1","47","training","adjacent","CB","3","2","N.jpg","M.jpg","NaN","0","0","",""
"","too_slow_prompt","","html-keyboard-response","313","350347","0.0-1.0-430.0-0.0","1","0","86820","","null","","","null","","","","","","","","","","","","","","","","",""
"","time_out","","html-keyboard-response","314","352354","0.0-1.0-431.0-0.0","0","0","86820","","null","","","null","47","","","","","","","","","","","","","","","",""
"","ITI","","html-keyboard-response","315","353358","0.0-1.0-432.0","0","0","86820","","null","","","null","47","","","","","","","","","","","","","","","NaN",""
"","block_over","","html-keyboard-response","316","453581","0.0-1.0-433.0-0.0","0","0","86820","","100221","","","32","47","","","","","","","","","","","","","","","",""
"","S1","","html-keyboard-response","317","453837","0.0-1.0-434.0","0","0","86820","","null","","","null","48","","","","","","","","","","","","","","","",""
"","ISI","","html-keyboard-response","318","455840","0.0-1.0-435.0","0","0","86820","","null","","","null","48","NaN","","","","","","","","","","","","","","",""
"","S2","","html-keyboard-response","319","456095","0.0-1.0-436.0","0","0","86820","","null","","","null","48","","NaN","","","","","","","","","","","","","",""
"","response","","html-keyboard-response","320","456635","0.0-1.0-437.0","0","0","86820","","537","","","75","48","","","2","48","training","adjacent","DE","4","5","L.jpg","O.jpg","0","1","0","",""
"","feedback","","html-keyboard-response","321","457641","0.0-1.0-438.0-0.0","0","0","86820","","null","","","null","48","","","","","","","","","","","","","","","",""
"","time_out","","html-keyboard-response","322","459648","0.0-1.0-440.0-0.0","0","0","86820","","null","","","null","48","","","","","","","","","","","","","","","",""
"","ITI","","html-keyboard-response","323","460652","0.0-1.0-441.0","0","0","86820","","null","","","null","48","","","","","","","","","","","","","","","NaN",""
"","S1","","html-keyboard-response","324","460907","0.0-1.0-443.0","0","0","86820","","null","","","null","49","","","","","","","","","","","","","","","",""
"","ISI","","html-keyboard-response","325","462910","0.0-1.0-444.0","0","0","86820","","null","","","null","49","NaN","","","","","","","","","","","","","","",""
"","S2","","html-keyboard-response","326","463167","0.0-1.0-445.0","0","0","86820","","null","","","null","49","","NaN","","","","","","","","","","","","","",""
"","response","","html-keyboard-response","327","464313","0.0-1.0-446.0","0","0","86820","","1144","","","75","49","","","2","49","training","adjacent","BA","2","1","M.jpg","Q.jpg","0","0","1","",""
"","feedback","","html-keyboard-response","328","465319","0.0-1.0-447.0-0.0","0","0","86820","","null","","","null","49","","","","","","","","","","","","","","","",""
"","ITI","","html-keyboard-response","329","466324","0.0-1.0-450.0","0","0","86820","","null","","","null","49","","","","","","","","","","","","","","","NaN",""
"","S1","","html-keyboard-response","330","466579","0.0-1.0-452.0","0","0","86820","","null","","","null","50","","","","","","","","","","","","","","","",""
"","ISI","","html-keyboard-response","331","468581","0.0-1.0-453.0","0","0","86820","","null","","","null","50","NaN","","","","","","","","","","","","","","",""
"","S2","","html-keyboard-response","332","468837","0.0-1.0-454.0","0","0","86820","","null","","","null","50","","NaN","","","","","","","","","","","","","",""
"","response","","html-keyboard-response","333","468939","0.0-1.0-455.0","0","0","86820","","100","","","75","50","","","2","50","training","adjacent","FG","6","7","R.jpg","P.jpg","0","1","0","",""
"","feedback","","html-keyboard-response","334","469945","0.0-1.0-456.0-0.0","0","0","86820","","null","","","null","50","","","","","","","","","","","","","","","",""
"","time_out","","html-keyboard-response","335","471949","0.0-1.0-458.0-0.0","0","0","86820","","null","","","null","50","","","","","","","","","","","","","","","",""
"","ITI","","html-keyboard-response","336","472953","0.0-1.0-459.0","0","0","86820","","null","","","null","50","","","","","","","","","","","","","","","NaN",""
"","S1","","html-keyboard-response","337","473208","0.0-1.0-461.0","0","0","86820","","null","","","null","51","","","","","","","","","","","","","","","",""
"","ISI","","html-keyboard-response","338","475211","0.0-1.0-462.0","0","0","86820","","null","","","null","51","NaN","","","","","","","","","","","","","","",""
"","S2","","html-keyboard-response","339","475466","0.0-1.0-463.0","0","0","86820","","null","","","null","51","","NaN","","","","","","","","","","","","","",""
"","response","","html-keyboard-response","340","475833","0.0-1.0-464.0","0","0","86820","","364","","","68","51","","","2","51","training","adjacent","FE","6","5","R.jpg","O.jpg","1","0","0","",""
"","feedback","","html-keyboard-response","341","476836","0.0-1.0-465.0-0.0","0","0","86820","","null","","","null","51","","","","","","","","","","","","","","","",""
"","time_out","","html-keyboard-response","342","478839","0.0-1.0-467.0-0.0","0","0","86820","","null","","","null","51","","","","","","","","","","","","","","","",""
"","ITI","","html-keyboard-response","343","479845","0.0-1.0-468.0","0","0","86820","","null","","","null","51","","","","","","","","","","","","","","","NaN",""
"","S1","","html-keyboard-response","344","480099","0.0-1.0-470.0","0","0","86820","","null","","","null","52","","","","","","","","","","","","","","","",""
"","ISI","","html-keyboard-response","345","482102","0.0-1.0-471.0","0","0","86820","","null","","","null","52","NaN","","","","","","","","","","","","","","",""
"","S2","","html-keyboard-response","346","482357","0.0-1.0-472.0","0","0","86820","","null","","","null","52","","NaN","","","","","","","","","","","","","",""
"","response","","html-keyboard-response","347","482797","0.0-1.0-473.0","0","0","86820","","438","","","68","52","","","2","52","training","adjacent","FG","6","7","R.jpg","P.jpg","1","1","1","",""
"","feedback","","html-keyboard-response","348","483802","0.0-1.0-474.0-0.0","0","0","86820","","null","","","null","52","","","","","","","","","","","","","","","",""
"","ITI","","html-keyboard-response","349","484807","0.0-1.0-477.0","0","0","86820","","null","","","null","52","","","","","","","","","","","","","","","NaN",""
"","S1","","html-keyboard-response","350","485062","0.0-1.0-479.0","0","0","86820","","null","","","null","53","","","","","","","","","","","","","","","",""
"","ISI","","html-keyboard-response","351","487065","0.0-1.0-480.0","0","0","86820","","null","","","null","53","NaN","","","","","","","","","","","","","","",""
"","S2","","html-keyboard-response","352","487320","0.0-1.0-481.0","0","0","86820","","null","","","null","53","","NaN","","","","","","","","","","","","","",""
"","response","","html-keyboard-response","353","487910","0.0-1.0-482.0","0","0","86820","","588","","","68","53","","","2","53","training","adjacent","DC","4","3","L.jpg","N.jpg","1","0","0","",""
"","feedback","","html-keyboard-response","354","488917","0.0-1.0-483.0-0.0","0","0","86820","","null","","","null","53","","","","","","","","","","","","","","","",""
"","time_out","","html-keyboard-response","355","490919","0.0-1.0-485.0-0.0","0","0","86820","","null","","","null","53","","","","","","","","","","","","","","","",""
"","ITI","","html-keyboard-response","356","491924","0.0-1.0-486.0","0","0","86820","","null","","","null","53","","","","","","","","","","","","","","","NaN",""
"","S1","","html-keyboard-response","357","492179","0.0-1.0-488.0","0","0","86820","","null","","","null","54","","","","","","","","","","","","","","","",""
"","ISI","","html-keyboard-response","358","494182","0.0-1.0-489.0","0","0","86820","","null","","","null","54","NaN","","","","","","","","","","","","","","",""
"","S2","","html-keyboard-response","359","494437","0.0-1.0-490.0","0","0","86820","","null","","","null","54","","NaN","","","","","","","","","","","","","",""
"","response","","html-keyboard-response","360","494544","0.0-1.0-491.0","0","0","86820","","105","","","75","54","","","2","54","training","adjacent","GF","7","6","P.jpg","R.jpg","0","0","1","",""
"","feedback","","html-keyboard-response","361","495552","0.0-1.0-492.0-0.0","0","0","86820","","null","","","null","54","","","","","","","","","","","","","","","",""
"","ITI","","html-keyboard-response","362","496556","0.0-1.0-495.0","0","0","86820","","null","","","null","54","","","","","","","","","","","","","","","NaN",""
"","S1","","html-keyboard-response","363","496811","0.0-1.0-497.0","0","0","86820","","null","","","null","55","","","","","","","","","","","","","","","",""
"","ISI","","html-keyboard-response","364","498817","0.0-1.0-498.0","0","0","86820","","null","","","null","55","NaN","","","","","","","","","","","","","","",""
"","S2","","html-keyboard-response","365","499070","0.0-1.0-499.0","0","0","86820","","null","","","null","55","","NaN","","","","","","","","","","","","","",""
"","response","","html-keyboard-response","366","499656","0.0-1.0-500.0","0","0","86820","","585","","","75","55","","","2","55","training","adjacent","CD","3","4","N.jpg","L.jpg","0","1","0","",""
"","feedback","","html-keyboard-response","367","500660","0.0-1.0-501.0-0.0","0","0","86820","","null","","","null","55","","","","","","","","","","","","","","","",""
"","time_out","","html-keyboard-response","368","502663","0.0-1.0-503.0-0.0","0","0","86820","","null","","","null","55","","","","","","","","","","","","","","","",""
"","ITI","","html-keyboard-response","369","503667","0.0-1.0-504.0","0","0","86820","","null","","","null","55","","","","","","","","","","","","","","","NaN",""
"","S1","","html-keyboard-response","370","503923","0.0-1.0-506.0","0","0","86820","","null","","","null","56","","","","","","","","","","","","","","","",""
"","ISI","","html-keyboard-response","371","505925","0.0-1.0-507.0","0","0","86820","","null","","","null","56","NaN","","","","","","","","","","","","","","",""
"","S2","","html-keyboard-response","372","506181","0.0-1.0-508.0","0","0","86820","","null","","","null","56","","NaN","","","","","","","","","","","","","",""
"","response","","html-keyboard-response","373","506349","0.0-1.0-509.0","0","0","86820","","167","","","68","56","","","2","56","training","adjacent","FE","6","5","R.jpg","O.jpg","1","0","0","",""
"","feedback","","html-keyboard-response","374","507353","0.0-1.0-510.0-0.0","0","0","86820","","null","","","null","56","","","","","","","","","","","","","","","",""
"","time_out","","html-keyboard-response","375","509356","0.0-1.0-512.0-0.0","0","0","86820","","null","","","null","56","","","","","","","","","","","","","","","",""
"","ITI","","html-keyboard-response","376","510360","0.0-1.0-513.0","0","0","86820","","null","","","null","56","","","","","","","","","","","","","","","NaN",""
"","S1","","html-keyboard-response","377","510616","0.0-1.0-515.0","0","0","86820","","null","","","null","57","","","","","","","","","","","","","","","",""
"","ISI","","html-keyboard-response","378","512618","0.0-1.0-516.0","0","0","86820","","null","","","null","57","NaN","","","","","","","","","","","","","","",""
"","S2","","html-keyboard-response","379","512874","0.0-1.0-517.0","0","0","86820","","null","","","null","57","","NaN","","","","","","","","","","","","","",""
"","response","","html-keyboard-response","380","512972","0.0-1.0-518.0","0","0","86820","","97","","","68","57","","","2","57","training","adjacent","ED","5","4","O.jpg","L.jpg","1","0","0","",""
"","feedback","","html-keyboard-response","381","513977","0.0-1.0-519.0-0.0","0","0","86820","","null","","","null","57","","","","","","","","","","","","","","","",""
"","time_out","","html-keyboard-response","382","515979","0.0-1.0-521.0-0.0","0","0","86820","","null","","","null","57","","","","","","","","","","","","","","","",""
"","ITI","","html-keyboard-response","383","516984","0.0-1.0-522.0","0","0","86820","","null","","","null","57","","","","","","","","","","","","","","","NaN",""
"","S1","","html-keyboard-response","384","517239","0.0-1.0-524.0","0","0","86820","","null","","","null","58","","","","","","","","","","","","","","","",""
"","ISI","","html-keyboard-response","385","519241","0.0-1.0-525.0","0","0","86820","","null","","","null","58","NaN","","","","","","","","","","","","","","",""
"","S2","","html-keyboard-response","386","519497","0.0-1.0-526.0","0","0","86820","","null","","","null","58","","NaN","","","","","","","","","","","","","",""
"","response","","html-keyboard-response","387","519729","0.0-1.0-527.0","0","0","86820","","229","","","75","58","","","2","58","training","adjacent","CB","3","2","N.jpg","M.jpg","0","0","1","",""
"","feedback","","html-keyboard-response","388","520734","0.0-1.0-528.0-0.0","0","0","86820","","null","","","null","58","","","","","","","","","","","","","","","",""
"","ITI","","html-keyboard-response","389","521738","0.0-1.0-531.0","0","0","86820","","null","","","null","58","","","","","","","","","","","","","","","NaN",""
"","S1","","html-keyboard-response","390","521994","0.0-1.0-533.0","0","0","86820","","null","","","null","59","","","","","","","","","","","","","","","",""
"","ISI","","html-keyboard-response","391","523996","0.0-1.0-534.0","0","0","86820","","null","","","null","59","NaN","","","","","","","","","","","","","","",""
"","S2","","html-keyboard-response","392","524249","0.0-1.0-535.0","0","0","86820","","null","","","null","59","","NaN","","","","","","","","","","","","","",""
"","response","","html-keyboard-response","393","524847","0.0-1.0-536.0","0","0","86820","","595","","","75","59","","","2","59","training","adjacent","BA","2","1","M.jpg","Q.jpg","0","0","1","",""
"","feedback","","html-keyboard-response","394","525854","0.0-1.0-537.0-0.0","0","0","86820","","null","","","null","59","","","","","","","","","","","","","","","",""
"","ITI","","html-keyboard-response","395","526858","0.0-1.0-540.0","0","0","86820","","null","","","null","59","","","","","","","","","","","","","","","NaN",""
"","S1","","html-keyboard-response","396","527113","0.0-1.0-542.0","0","0","86820","","null","","","null","60","","","","","","","","","","","","","","","",""
"","ISI","","html-keyboard-response","397","529116","0.0-1.0-543.0","0","0","86820","","null","","","null","60","NaN","","","","","","","","","","","","","","",""
"","S2","","html-keyboard-response","398","529372","0.0-1.0-544.0","0","0","86820","","null","","","null","60","","NaN","","","","","","","","","","","","","",""
"","response","","html-keyboard-response","399","530028","0.0-1.0-545.0","0","0","86820","","655","","","68","60","","","2","60","training","adjacent","BC","2","3","M.jpg","N.jpg","1","1","1","",""
"","feedback","","html-keyboard-response","400","531032","0.0-1.0-546.0-0.0","0","0","86820","","null","","","null","60","","","","","","","","","","","","","","","",""
"","ITI","","html-keyboard-response","401","532036","0.0-1.0-549.0","0","0","86820","","null","","","null","60","","","","","","","","","","","","","","","NaN",""
"","S1","","html-keyboard-response","402","532292","0.0-1.0-551.0","0","0","86820","","null","","","null","61","","","","","","","","","","","","","","","",""
"","ISI","","html-keyboard-response","403","534295","0.0-1.0-552.0","0","0","86820","","null","","","null","61","NaN","","","","","","","","","","","","","","",""
"","S2","","html-keyboard-response","404","534550","0.0-1.0-553.0","0","0","86820","","null","","","null","61","","NaN","","","","","","","","","","","","","",""
"","response","","html-keyboard-response","405","535266","0.0-1.0-554.0","0","0","86820","","715","","","75","61","","","2","61","training","adjacent","GF","7","6","P.jpg","R.jpg","0","0","1","",""
"","feedback","","html-keyboard-response","406","536274","0.0-1.0-555.0-0.0","0","0","86820","","null","","","null","61","","","","","","","","","","","","","","","",""
"","ITI","","html-keyboard-response","407","537278","0.0-1.0-558.0","0","0","86820","","null","","","null","61","","","","","","","","","","","","","","","NaN",""
"","S1","","html-keyboard-response","408","537533","0.0-1.0-560.0","0","0","86820","","null","","","null","62","","","","","","","","","","","","","","","",""
"","ISI","","html-keyboard-response","409","539537","0.0-1.0-561.0","0","0","86820","","null","","","null","62","NaN","","","","","","","","","","","","","","",""
"","S2","","html-keyboard-response","410","539792","0.0-1.0-562.0","0","0","86820","","null","","","null","62","","NaN","","","","","","","","","","","","","",""
"","response","","html-keyboard-response","411","540457","0.0-1.0-563.0","0","0","86820","","664","","","75","62","","","2","62","training","adjacent","AB","1","2","Q.jpg","M.jpg","0","1","0","",""
"","feedback","","html-keyboard-response","412","541464","0.0-1.0-564.0-0.0","0","0","86820","","null","","","null","62","","","","","","","","","","","","","","","",""
"","time_out","","html-keyboard-response","413","543466","0.0-1.0-566.0-0.0","0","0","86820","","null","","","null","62","","","","","","","","","","","","","","","",""
"","ITI","","html-keyboard-response","414","544470","0.0-1.0-567.0","0","0","86820","","null","","","null","62","","","","","","","","","","","","","","","NaN",""
"","S1","","html-keyboard-response","415","544726","0.0-1.0-569.0","0","0","86820","","null","","","null","63","","","","","","","","","","","","","","","",""
"","ISI","","html-keyboard-response","416","546729","0.0-1.0-570.0","0","0","86820","","null","","","null","63","NaN","","","","","","","","","","","","","","",""
"","S2","","html-keyboard-response","417","546982","0.0-1.0-571.0","0","0","86820","","252","","","75","63","","k","","","","","","","","","","","","","",""
"","response","","html-keyboard-response","418","547674","0.0-1.0-572.0","0","0","86820","","690","","","75","63","","","2","63","training","adjacent","EF","5","6","O.jpg","R.jpg","0","1","0","",""
"","feedback","","html-keyboard-response","419","548679","0.0-1.0-573.0-0.0","0","0","86820","","null","","","null","63","","","","","","","","","","","","","","","",""
"","time_out","","html-keyboard-response","420","550687","0.0-1.0-575.0-0.0","0","0","86820","","null","","","null","63","","","","","","","","","","","","","","","",""
"","ITI","","html-keyboard-response","421","551692","0.0-1.0-576.0","0","0","86820","","null","","","null","63","","","","","","","","","","","","","","","NaN",""
"","S1","","html-keyboard-response","422","551947","0.0-1.0-578.0","0","0","86820","","null","","","null","64","","","","","","","","","","","","","","","",""
"","ISI","","html-keyboard-response","423","553950","0.0-1.0-579.0","0","0","86820","","null","","","null","64","NaN","","","","","","","","","","","","","","",""
"","S2","","html-keyboard-response","424","554205","0.0-1.0-580.0","0","0","86820","","null","","","null","64","","NaN","","","","","","","","","","","","","",""
"","response","","html-keyboard-response","425","554544","0.0-1.0-581.0","0","0","86820","","337","","","75","64","","","2","64","training","adjacent","EF","5","6","O.jpg","R.jpg","0","1","0","",""
"","feedback","","html-keyboard-response","426","555552","0.0-1.0-582.0-0.0","0","0","86820","","null","","","null","64","","","","","","","","","","","","","","","",""
"","time_out","","html-keyboard-response","427","557555","0.0-1.0-584.0-0.0","0","0","86820","","null","","","null","64","","","","","","","","","","","","","","","",""
"","ITI","","html-keyboard-response","428","558559","0.0-1.0-585.0","0","0","86820","","null","","","null","64","","","","","","","","","","","","","","","NaN",""
"","S1","","html-keyboard-response","429","558815","0.0-1.0-587.0","0","0","86820","","null","","","null","65","","","","","","","","","","","","","","","",""
"","ISI","","html-keyboard-response","430","560817","0.0-1.0-588.0","0","0","86820","","null","","","null","65","NaN","","","","","","","","","","","","","","",""
"","S2","","html-keyboard-response","431","561073","0.0-1.0-589.0","0","0","86820","","null","","","null","65","","NaN","","","","","","","","","","","","","",""
"","response","","html-keyboard-response","432","561135","0.0-1.0-590.0","0","0","86820","","60","","","68","65","","","2","65","training","adjacent","GF","7","6","P.jpg","R.jpg","1","0","0","",""
"","feedback","","html-keyboard-response","433","562141","0.0-1.0-591.0-0.0","0","0","86820","","null","","","null","65","","","","","","","","","","","","","","","",""
"","time_out","","html-keyboard-response","434","564144","0.0-1.0-593.0-0.0","0","0","86820","","null","","","null","65","","","","","","","","","","","","","","","",""
"","ITI","","html-keyboard-response","435","565147","0.0-1.0-594.0","0","0","86820","","null","","","null","65","","","","","","","","","","","","","","","NaN",""
"","S1","","html-keyboard-response","436","565403","0.0-1.0-596.0","0","0","86820","","null","","","null","66","","","","","","","","","","","","","","","",""
"","ISI","","html-keyboard-response","437","567406","0.0-1.0-597.0","0","0","86820","","183","","","75","66","k","","","","","","","","","","","","","","",""
"","S2","","html-keyboard-response","438","567662","0.0-1.0-598.0","0","0","86820","","null","","","null","66","","NaN","","","","","","","","","","","","","",""
"","response","","html-keyboard-response","439","567754","0.0-1.0-599.0","0","0","86820","","91","","","75","66","","","2","66","training","adjacent","ED","5","4","O.jpg","L.jpg","0","0","1","",""
"","feedback","","html-keyboard-response","440","568759","0.0-1.0-600.0-0.0","0","0","86820","","null","","","null","66","","","","","","","","","","","","","","","",""
"","ITI","","html-keyboard-response","441","569765","0.0-1.0-603.0","0","0","86820","","null","","","null","66","","","","","","","","","","","","","","","NaN",""
"","S1","","html-keyboard-response","442","570018","0.0-1.0-605.0","0","0","86820","","null","","","null","67","","","","","","","","","","","","","","","",""
"","ISI","","html-keyboard-response","443","572025","0.0-1.0-606.0","0","0","86820","","null","","","null","67","NaN","","","","","","","","","","","","","","",""
"","S2","","html-keyboard-response","444","572277","0.0-1.0-607.0","0","0","86820","","null","","","null","67","","NaN","","","","","","","","","","","","","",""
"","response","","html-keyboard-response","445","572698","0.0-1.0-608.0","0","0","86820","","419","","","75","67","","","2","67","training","adjacent","BC","2","3","M.jpg","N.jpg","0","1","0","",""
"","feedback","","html-keyboard-response","446","573705","0.0-1.0-609.0-0.0","0","0","86820","","null","","","null","67","","","","","","","","","","","","","","","",""
"","time_out","","html-keyboard-response","447","575710","0.0-1.0-611.0-0.0","0","0","86820","","null","","","null","67","","","","","","","","","","","","","","","",""
"","ITI","","html-keyboard-response","448","576717","0.0-1.0-612.0","0","0","86820","","null","","","null","67","","","","","","","","","","","","","","","NaN",""
"","S1","","html-keyboard-response","449","576973","0.0-1.0-614.0","0","0","86820","","null","","","null","68","","","","","","","","","","","","","","","",""
"","ISI","","html-keyboard-response","450","578975","0.0-1.0-615.0","0","0","86820","","1335","","","68","68","d","","","","","","","","","","","","","","",""
"","S2","","html-keyboard-response","451","579231","0.0-1.0-616.0","0","0","86820","","null","","","null","68","","NaN","","","","","","","","","","","","","",""
"","response","","html-keyboard-response","452","579511","0.0-1.0-617.0","0","0","86820","","279","","","68","68","","","2","68","training","adjacent","FG","6","7","R.jpg","P.jpg","1","1","1","",""
"","feedback","","html-keyboard-response","453","580514","0.0-1.0-618.0-0.0","0","0","86820","","null","","","null","68","","","","","","","","","","","","","","","",""
"","ITI","","html-keyboard-response","454","581518","0.0-1.0-621.0","0","0","86820","","null","","","null","68","","","","","","","","","","","","","","","NaN",""
"","S1","","html-keyboard-response","455","581774","0.0-1.0-623.0","0","0","86820","","null","","","null","69","","","","","","","","","","","","","","","",""
"","ISI","","html-keyboard-response","456","583776","0.0-1.0-624.0","0","0","86820","","null","","","null","69","NaN","","","","","","","","","","","","","","",""
"","S2","","html-keyboard-response","457","584032","0.0-1.0-625.0","0","0","86820","","null","","","null","69","","NaN","","","","","","","","","","","","","",""
"","response","","html-keyboard-response","458","584624","0.0-1.0-626.0","0","0","86820","","591","","","75","69","","","2","69","training","adjacent","DE","4","5","L.jpg","O.jpg","0","1","0","",""
"","feedback","","html-keyboard-response","459","585628","0.0-1.0-627.0-0.0","0","0","86820","","null","","","null","69","","","","","","","","","","","","","","","",""
"","time_out","","html-keyboard-response","460","587632","0.0-1.0-629.0-0.0","0","0","86820","","null","","","null","69","","","","","","","","","","","","","","","",""
"","ITI","","html-keyboard-response","461","588635","0.0-1.0-630.0","0","0","86820","","null","","","null","69","","","","","","","","","","","","","","","NaN",""
"","S1","","html-keyboard-response","462","588891","0.0-1.0-632.0","0","0","86820","","null","","","null","70","","","","","","","","","","","","","","","",""
"","ISI","","html-keyboard-response","463","590893","0.0-1.0-633.0","0","0","86820","","330","","","68","70","d","","","","","","","","","","","","","","",""
"","S2","","html-keyboard-response","464","591149","0.0-1.0-634.0","0","0","86820","","null","","","null","70","","NaN","","","","","","","","","","","","","",""
"","response","","html-keyboard-response","465","591621","0.0-1.0-635.0","0","0","86820","","471","","","68","70","","","2","70","training","adjacent","AB","1","2","Q.jpg","M.jpg","1","1","1","",""
"","feedback","","html-keyboard-response","466","592628","0.0-1.0-636.0-0.0","0","0","86820","","null","","","null","70","","","","","","","","","","","","","","","",""
"","ITI","","html-keyboard-response","467","593633","0.0-1.0-639.0","0","0","86820","","null","","","null","70","","","","","","","","","","","","","","","NaN",""
"","S1","","html-keyboard-response","468","593889","0.0-1.0-641.0","0","0","86820","","null","","","null","71","","","","","","","","","","","","","","","",""
"","ISI","","html-keyboard-response","469","595891","0.0-1.0-642.0","0","0","86820","","null","","","null","71","NaN","","","","","","","","","","","","","","",""
"","S2","","html-keyboard-response","470","596147","0.0-1.0-643.0","0","0","86820","","null","","","null","71","","NaN","","","","","","","","","","","","","",""
"","response","","html-keyboard-response","471","596773","0.0-1.0-644.0","0","0","86820","","625","","","75","71","","","2","71","training","adjacent","CB","3","2","N.jpg","M.jpg","0","0","1","",""
"","feedback","","html-keyboard-response","472","597777","0.0-1.0-645.0-0.0","0","0","86820","","null","","","null","71","","","","","","","","","","","","","","","",""
"","ITI","","html-keyboard-response","473","598782","0.0-1.0-648.0","0","0","86820","","null","","","null","71","","","","","","","","","","","","","","","NaN",""
"","S1","","html-keyboard-response","474","599038","0.0-1.0-650.0","0","0","86820","","null","","","null","72","","","","","","","","","","","","","","","",""
"","ISI","","html-keyboard-response","475","601040","0.0-1.0-651.0","0","0","86820","","null","","","null","72","NaN","","","","","","","","","","","","","","",""
"","S2","","html-keyboard-response","476","601296","0.0-1.0-652.0","0","0","86820","","null","","","null","72","","NaN","","","","","","","","","","","","","",""
"","response","","html-keyboard-response","477","601838","0.0-1.0-653.0","0","0","86820","","541","","","75","72","","","2","72","training","adjacent","EF","5","6","O.jpg","R.jpg","0","1","0","",""
"","feedback","","html-keyboard-response","478","602843","0.0-1.0-654.0-0.0","0","0","86820","","null","","","null","72","","","","","","","","","","","","","","","",""
"","time_out","","html-keyboard-response","479","604848","0.0-1.0-656.0-0.0","0","0","86820","","null","","","null","72","","","","","","","","","","","","","","","",""
"","ITI","","html-keyboard-response","480","605853","0.0-1.0-657.0","0","0","86820","","null","","","null","72","","","","","","","","","","","","","","","NaN",""
"","S1","","html-keyboard-response","481","606108","0.0-1.0-659.0","0","0","86820","","null","","","null","73","","","","","","","","","","","","","","","",""
"","ISI","","html-keyboard-response","482","608111","0.0-1.0-660.0","0","0","86820","","83","","","68","73","d","","","","","","","","","","","","","","",""
"","S2","","html-keyboard-response","483","608366","0.0-1.0-661.0","0","0","86820","","null","","","null","73","","NaN","","","","","","","","","","","","","",""
"","response","","html-keyboard-response","484","608398","0.0-1.0-662.0","0","0","86820","","30","","","68","73","","","2","73","training","adjacent","DE","4","5","L.jpg","O.jpg","1","1","1","",""
"","feedback","","html-keyboard-response","485","609405","0.0-1.0-663.0-0.0","0","0","86820","","null","","","null","73","","","","","","","","","","","","","","","",""
"","ITI","","html-keyboard-response","486","610410","0.0-1.0-666.0","0","0","86820","","null","","","null","73","","","","","","","","","","","","","","","NaN",""
"","S1","","html-keyboard-response","487","610665","0.0-1.0-668.0","0","0","86820","","null","","","null","74","","","","","","","","","","","","","","","",""
"","ISI","","html-keyboard-response","488","612668","0.0-1.0-669.0","0","0","86820","","null","","","null","74","NaN","","","","","","","","","","","","","","",""
"","S2","","html-keyboard-response","489","612923","0.0-1.0-670.0","0","0","86820","","null","","","null","74","","NaN","","","","","","","","","","","","","",""
"","response","","html-keyboard-response","490","613575","0.0-1.0-671.0","0","0","86820","","650","","","68","74","","","2","74","training","adjacent","BA","2","1","M.jpg","Q.jpg","1","0","0","",""
"","feedback","","html-keyboard-response","491","614578","0.0-1.0-672.0-0.0","0","0","86820","","null","","","null","74","","","","","","","","","","","","","","","",""
"","time_out","","html-keyboard-response","492","616584","0.0-1.0-674.0-0.0","0","0","86820","","null","","","null","74","","","","","","","","","","","","","","","",""
"","ITI","","html-keyboard-response","493","617590","0.0-1.0-675.0","0","0","86820","","null","","","null","74","","","","","","","","","","","","","","","NaN",""
"","S1","","html-keyboard-response","494","617846","0.0-1.0-677.0","0","0","86820","","null","","","null","75","","","","","","","","","","","","","","","",""
"","ISI","","html-keyboard-response","495","619849","0.0-1.0-678.0","0","0","86820","","null","","","null","75","NaN","","","","","","","","","","","","","","",""
"","S2","","html-keyboard-response","496","620104","0.0-1.0-679.0","0","0","86820","","null","","","null","75","","NaN","","","","","","","","","","","","","",""
"","response","","html-keyboard-response","497","620156","0.0-1.0-680.0","0","0","86820","","49","","","75","75","","","2","75","training","adjacent","CD","3","4","N.jpg","L.jpg","0","1","0","",""
"","feedback","","html-keyboard-response","498","621160","0.0-1.0-681.0-0.0","0","0","86820","","null","","","null","75","","","","","","","","","","","","","","","",""
"","time_out","","html-keyboard-response","499","623163","0.0-1.0-683.0-0.0","0","0","86820","","null","","","null","75","","","","","","","","","","","","","","","",""
"","ITI","","html-keyboard-response","500","624168","0.0-1.0-684.0","0","0","86820","","null","","","null","75","","","","","","","","","","","","","","","NaN",""
"","S1","","html-keyboard-response","501","624423","0.0-1.0-686.0","0","0","86820","","null","","","null","76","","","","","","","","","","","","","","","",""
"","ISI","","html-keyboard-response","502","626426","0.0-1.0-687.0","0","0","86820","","290","","","68","76","d","","","","","","","","","","","","","","",""
"","S2","","html-keyboard-response","503","626681","0.0-1.0-688.0","0","0","86820","","null","","","null","76","","NaN","","","","","","","","","","","","","",""
"","response","","html-keyboard-response","504","627108","0.0-1.0-689.0","0","0","86820","","425","","","68","76","","","2","76","training","adjacent","GF","7","6","P.jpg","R.jpg","1","0","0","",""
"","feedback","","html-keyboard-response","505","628115","0.0-1.0-690.0-0.0","0","0","86820","","null","","","null","76","","","","","","","","","","","","","","","",""
"","time_out","","html-keyboard-response","506","630118","0.0-1.0-692.0-0.0","0","0","86820","","null","","","null","76","","","","","","","","","","","","","","","",""
"","ITI","","html-keyboard-response","507","631122","0.0-1.0-693.0","0","0","86820","","null","","","null","76","","","","","","","","","","","","","","","NaN",""
"","S1","","html-keyboard-response","508","631377","0.0-1.0-695.0","0","0","86820","","null","","","null","77","","","","","","","","","","","","","","","",""
"","ISI","","html-keyboard-response","509","633380","0.0-1.0-696.0","0","0","86820","","null","","","null","77","NaN","","","","","","","","","","","","","","",""
"","S2","","html-keyboard-response","510","633635","0.0-1.0-697.0","0","0","86820","","null","","","null","77","","NaN","","","","","","","","","","","","","",""
"","response","","html-keyboard-response","511","634067","0.0-1.0-698.0","0","0","86820","","430","","","75","77","","","2","77","training","adjacent","AB","1","2","Q.jpg","M.jpg","0","1","0","",""
"","feedback","","html-keyboard-response","512","635075","0.0-1.0-699.0-0.0","0","0","86820","","null","","","null","77","","","","","","","","","","","","","","","",""
"","time_out","","html-keyboard-response","513","637078","0.0-1.0-701.0-0.0","0","0","86820","","null","","","null","77","","","","","","","","","","","","","","","",""
"","ITI","","html-keyboard-response","514","638082","0.0-1.0-702.0","0","0","86820","","null","","","null","77","","","","","","","","","","","","","","","NaN",""
"","S1","","html-keyboard-response","515","638335","0.0-1.0-704.0","0","0","86820","","null","","","null","78","","","","","","","","","","","","","","","",""
"","ISI","","html-keyboard-response","516","640340","0.0-1.0-705.0","0","0","86820","","null","","","null","78","NaN","","","","","","","","","","","","","","",""
"","S2","","html-keyboard-response","517","640596","0.0-1.0-706.0","0","0","86820","","null","","","null","78","","NaN","","","","","","","","","","","","","",""
"","response","","html-keyboard-response","518","641063","0.0-1.0-707.0","0","0","86820","","466","","","75","78","","","2","78","training","adjacent","DC","4","3","L.jpg","N.jpg","0","0","1","",""
"","feedback","","html-keyboard-response","519","642070","0.0-1.0-708.0-0.0","0","0","86820","","null","","","null","78","","","","","","","","","","","","","","","",""
"","ITI","","html-keyboard-response","520","643074","0.0-1.0-711.0","0","0","86820","","null","","","null","78","","","","","","","","","","","","","","","NaN",""
"","S1","","html-keyboard-response","521","643330","0.0-1.0-713.0","0","0","86820","","null","","","null","79","","","","","","","","","","","","","","","",""
"","ISI","","html-keyboard-response","522","645333","0.0-1.0-714.0","0","0","86820","","null","","","null","79","NaN","","","","","","","","","","","","","","",""
"","S2","","html-keyboard-response","523","645588","0.0-1.0-715.0","0","0","86820","","null","","","null","79","","NaN","","","","","","","","","","","","","",""
"","response","","html-keyboard-response","524","646380","0.0-1.0-716.0","0","0","86820","","791","","","75","79","","","2","79","training","adjacent","CD","3","4","N.jpg","L.jpg","0","1","0","",""
"","feedback","","html-keyboard-response","525","647387","0.0-1.0-717.0-0.0","0","0","86820","","null","","","null","79","","","","","","","","","","","","","","","",""
"","time_out","","html-keyboard-response","526","649390","0.0-1.0-719.0-0.0","0","0","86820","","null","","","null","79","","","","","","","","","","","","","","","",""
"","ITI","","html-keyboard-response","527","650395","0.0-1.0-720.0","0","0","86820","","null","","","null","79","","","","","","","","","","","","","","","NaN",""
"","S1","","html-keyboard-response","528","650650","0.0-1.0-722.0","0","0","86820","","null","","","null","80","","","","","","","","","","","","","","","",""
"","ISI","","html-keyboard-response","529","652653","0.0-1.0-723.0","0","0","86820","","null","","","null","80","NaN","","","","","","","","","","","","","","",""
"","S2","","html-keyboard-response","530","652908","0.0-1.0-724.0","0","0","86820","","null","","","null","80","","NaN","","","","","","","","","","","","","",""
"","response","","html-keyboard-response","531","652964","0.0-1.0-725.0","0","0","86820","","54","","","68","80","","","2","80","training","adjacent","ED","5","4","O.jpg","L.jpg","1","0","0","",""
"","feedback","","html-keyboard-response","532","653970","0.0-1.0-726.0-0.0","0","0","86820","","null","","","null","80","","","","","","","","","","","","","","","",""
"","time_out","","html-keyboard-response","533","655973","0.0-1.0-728.0-0.0","0","0","86820","","null","","","null","80","","","","","","","","","","","","","","","",""
"","ITI","","html-keyboard-response","534","656977","0.0-1.0-729.0","0","0","86820","","null","","","null","80","","","","","","","","","","","","","","","NaN",""
"","S1","","html-keyboard-response","535","657233","0.0-1.0-731.0","0","0","86820","","null","","","null","81","","","","","","","","","","","","","","","",""
"","ISI","","html-keyboard-response","536","659236","0.0-1.0-732.0","0","0","86820","","null","","","null","81","NaN","","","","","","","","","","","","","","",""
"","S2","","html-keyboard-response","537","659491","0.0-1.0-733.0","0","0","86820","","null","","","null","81","","NaN","","","","","","","","","","","","","",""
"","response","","html-keyboard-response","538","660211","0.0-1.0-734.0","0","0","86820","","718","","","68","81","","","2","81","training","adjacent","CB","3","2","N.jpg","M.jpg","1","0","0","",""
"","feedback","","html-keyboard-response","539","661215","0.0-1.0-735.0-0.0","0","0","86820","","null","","","null","81","","","","","","","","","","","","","","","",""
"","time_out","","html-keyboard-response","540","663218","0.0-1.0-737.0-0.0","0","0","86820","","null","","","null","81","","","","","","","","","","","","","","","",""
"","ITI","","html-keyboard-response","541","664222","0.0-1.0-738.0","0","0","86820","","null","","","null","81","","","","","","","","","","","","","","","NaN",""
"","S1","","html-keyboard-response","542","664478","0.0-1.0-740.0","0","0","86820","","null","","","null","82","","","","","","","","","","","","","","","",""
"","ISI","","html-keyboard-response","543","666480","0.0-1.0-741.0","0","0","86820","","null","","","null","82","NaN","","","","","","","","","","","","","","",""
"","S2","","html-keyboard-response","544","666735","0.0-1.0-742.0","0","0","86820","","null","","","null","82","","NaN","","","","","","","","","","","","","",""
"","response","","html-keyboard-response","545","667261","0.0-1.0-743.0","0","0","86820","","525","","","68","82","","","2","82","training","adjacent","FG","6","7","R.jpg","P.jpg","1","1","1","",""
"","feedback","","html-keyboard-response","546","668268","0.0-1.0-744.0-0.0","0","0","86820","","null","","","null","82","","","","","","","","","","","","","","","",""
"","ITI","","html-keyboard-response","547","669272","0.0-1.0-747.0","0","0","86820","","null","","","null","82","","","","","","","","","","","","","","","NaN",""
"","S1","","html-keyboard-response","548","669528","0.0-1.0-749.0","0","0","86820","","null","","","null","83","","","","","","","","","","","","","","","",""
"","ISI","","html-keyboard-response","549","671531","0.0-1.0-750.0","0","0","86820","","null","","","null","83","NaN","","","","","","","","","","","","","","",""
"","S2","","html-keyboard-response","550","671786","0.0-1.0-751.0","0","0","86820","","null","","","null","83","","NaN","","","","","","","","","","","","","",""
"","response","","html-keyboard-response","551","672631","0.0-1.0-752.0","0","0","86820","","843","","","68","83","","","2","83","training","adjacent","EF","5","6","O.jpg","R.jpg","1","1","1","",""
"","feedback","","html-keyboard-response","552","673638","0.0-1.0-753.0-0.0","0","0","86820","","null","","","null","83","","","","","","","","","","","","","","","",""
"","ITI","","html-keyboard-response","553","674642","0.0-1.0-756.0","0","0","86820","","null","","","null","83","","","","","","","","","","","","","","","NaN",""
"","S1","","html-keyboard-response","554","674897","0.0-1.0-758.0","0","0","86820","","null","","","null","84","","","","","","","","","","","","","","","",""
"","ISI","","html-keyboard-response","555","676900","0.0-1.0-759.0","0","0","86820","","null","","","null","84","NaN","","","","","","","","","","","","","","",""
"","S2","","html-keyboard-response","556","677156","0.0-1.0-760.0","0","0","86820","","null","","","null","84","","NaN","","","","","","","","","","","","","",""
"","response","","html-keyboard-response","557","678241","0.0-1.0-761.0","0","0","86820","","1083","","","75","84","","","2","84","training","adjacent","ED","5","4","O.jpg","L.jpg","0","0","1","",""
"","feedback","","html-keyboard-response","558","679245","0.0-1.0-762.0-0.0","0","0","86820","","null","","","null","84","","","","","","","","","","","","","","","",""
"","ITI","","html-keyboard-response","559","680250","0.0-1.0-765.0","0","0","86820","","null","","","null","84","","","","","","","","","","","","","","","NaN",""
"","S1","","html-keyboard-response","560","680505","0.0-1.0-767.0","0","0","86820","","null","","","null","85","","","","","","","","","","","","","","","",""
"","ISI","","html-keyboard-response","561","682508","0.0-1.0-768.0","0","0","86820","","null","","","null","85","NaN","","","","","","","","","","","","","","",""
"","S2","","html-keyboard-response","562","682763","0.0-1.0-769.0","0","0","86820","","null","","","null","85","","NaN","","","","","","","","","","","","","",""
"","response","","html-keyboard-response","563","684108","0.0-1.0-770.0","0","0","86820","","1343","","","68","85","","","2","85","training","adjacent","CD","3","4","N.jpg","L.jpg","1","1","1","",""
"","feedback","","html-keyboard-response","564","685114","0.0-1.0-771.0-0.0","0","0","86820","","null","","","null","85","","","","","","","","","","","","","","","",""
"","ITI","","html-keyboard-response","565","686119","0.0-1.0-774.0","0","0","86820","","null","","","null","85","","","","","","","","","","","","","","","NaN",""
"","S1","","html-keyboard-response","566","686374","0.0-1.0-776.0","0","0","86820","","null","","","null","86","","","","","","","","","","","","","","","",""
"","ISI","","html-keyboard-response","567","688377","0.0-1.0-777.0","0","0","86820","","null","","","null","86","NaN","","","","","","","","","","","","","","",""
"","S2","","html-keyboard-response","568","688632","0.0-1.0-778.0","0","0","86820","","null","","","null","86","","NaN","","","","","","","","","","","","","",""
"","response","","html-keyboard-response","569","690635","0.0-1.0-779.0","0","0","86820","","null","","","null","86","","","2","86","training","adjacent","BA","2","1","M.jpg","Q.jpg","NaN","0","0","",""
"","too_slow_prompt","","html-keyboard-response","570","691639","0.0-1.0-781.0-0.0","1","0","86820","","null","","","null","","","","","","","","","","","","","","","","",""
"","time_out","","html-keyboard-response","571","693642","0.0-1.0-782.0-0.0","0","0","86820","","null","","","null","86","","","","","","","","","","","","","","","",""
"","ITI","","html-keyboard-response","572","694646","0.0-1.0-783.0","0","0","86820","","null","","","null","86","","","","","","","","","","","","","","","NaN",""
"","S1","","html-keyboard-response","573","694902","0.0-1.0-785.0","0","0","86820","","null","","","null","87","","","","","","","","","","","","","","","",""
"","ISI","","html-keyboard-response","574","696905","0.0-1.0-786.0","0","0","86820","","null","","","null","87","NaN","","","","","","","","","","","","","","",""
"","S2","","html-keyboard-response","575","697160","0.0-1.0-787.0","0","0","86820","","null","","","null","87","","NaN","","","","","","","","","","","","","",""
"","response","","html-keyboard-response","576","697730","0.0-1.0-788.0","0","0","86820","","569","","","68","87","","","2","87","training","adjacent","BC","2","3","M.jpg","N.jpg","1","1","1","",""
"","feedback","","html-keyboard-response","577","698733","0.0-1.0-789.0-0.0","0","0","86820","","null","","","null","87","","","","","","","","","","","","","","","",""
"","ITI","","html-keyboard-response","578","699737","0.0-1.0-792.0","0","0","86820","","null","","","null","87","","","","","","","","","","","","","","","NaN",""
"","S1","","html-keyboard-response","579","699992","0.0-1.0-794.0","0","0","86820","","null","","","null","88","","","","","","","","","","","","","","","",""
"","ISI","","html-keyboard-response","580","701995","0.0-1.0-795.0","0","0","86820","","1734","","","68","88","d","","","","","","","","","","","","","","",""
"","S2","","html-keyboard-response","581","702251","0.0-1.0-796.0","0","0","86820","","null","","","null","88","","NaN","","","","","","","","","","","","","",""
"","response","","html-keyboard-response","582","702742","0.0-1.0-797.0","0","0","86820","","490","","","68","88","","","2","88","training","adjacent","DE","4","5","L.jpg","O.jpg","1","1","1","",""
"","feedback","","html-keyboard-response","583","703748","0.0-1.0-798.0-0.0","0","0","86820","","null","","","null","88","","","","","","","","","","","","","","","",""
"","ITI","","html-keyboard-response","584","704752","0.0-1.0-801.0","0","0","86820","","null","","","null","88","","","","","","","","","","","","","","","NaN",""
"","S1","","html-keyboard-response","585","705008","0.0-1.0-803.0","0","0","86820","","null","","","null","89","","","","","","","","","","","","","","","",""
