"success","ttype","start_time","trial_type","trial_index","time_elapsed","internal_node_id","warning","missed_checkup","PID","view_history","rt","responses","repeat_instructions","key_press","index","keypress_isi","keypress_S2","block","trial_num","phase","group_type","pair_type","S1_stim","S2_stim","S1_img","S2_img","S1_chosen","S1_higher","accuracy","keypress_iti","total_bonus_tally"
"true","full_screen","d04062023hr2335","fullscreen","0","11147","0.0-0.0","0","0","59415","","","","","","","","","","","","","","","","","","","","","",""
"","instructions","","instructions","1","41501","0.0-1.0-0.0-0.0","0","0","59415","[{""page_index"":0,""viewing_time"":5772},{""page_index"":1,""viewing_time"":16465},{""page_index"":2,""viewing_time"":6692},{""page_index"":3,""viewing_time"":1417}]","30347","","","","","","","","","","","","","","","","","","","",""
"","comprehension_check","","survey-multi-choice","2","59440","0.0-1.0-0.0-1.0","0","0","59415","","17926","{""Q0"":""True"",""Q1"":""K"",""Q2"":""Once the second image appears and while the screen 'MAKE A CHOICE' is shown"",""Q3"":""Green mark"",""Q4"":""either D or K""}","0","","","","","","","","","","","","","","","","","",""
"","start_exp","","html-keyboard-response","3","60566","0.0-1.0-1.0","0","0","59415","","1118","","","32","","","","","","","","","","","","","","","","",""
"","S1","","html-keyboard-response","4","60723","0.0-1.0-2.0","0","0","59415","","null","","","null","0","","","","","","","","","","","","","","","",""
"","ISI","","html-keyboard-response","5","62728","0.0-1.0-3.0","0","0","59415","","null","","","null","0","NaN","","","","","","","","","","","","","","",""
"","S2","","html-keyboard-response","6","62884","0.0-1.0-4.0","0","0","59415","","null","","","null","0","","NaN","","","","","","","","","","","","","",""
"","response","","html-keyboard-response","7","63759","0.0-1.0-5.0-0.0","0","0","59415","","871","","","68","0","","","1","0","training","adjacent","DC","4","3","P.jpg","O.jpg","0","0","1","",""
"","feedback","","html-keyboard-response","8","64765","0.0-1.0-6.0-0.0","0","0","59415","","null","","","null","0","","","","","","","","","","","","","","","",""
"","ITI","","html-keyboard-response","9","65770","0.0-1.0-9.0","0","0","59415","","null","","","null","0","","","","","","","","","","","","","","","NaN",""
"","S1","","html-keyboard-response","10","65925","0.0-1.0-11.0","0","0","59415","","null","","","null","1","","","","","","","","","","","","","","","",""
"","ISI","","html-keyboard-response","11","67931","0.0-1.0-12.0","0","0","59415","","null","","","null","1","NaN","","","","","","","","","","","","","","",""
"","S2","","html-keyboard-response","12","68087","0.0-1.0-13.0","0","0","59415","","null","","","null","1","","NaN","","","","","","","","","","","","","",""
"","response","","html-keyboard-response","13","68583","0.0-1.0-14.0-0.0","0","0","59415","","491","","","68","1","","","1","1","training","adjacent","CD","3","4","O.jpg","P.jpg","0","1","0","",""
"","feedback","","html-keyboard-response","14","69587","0.0-1.0-15.0-0.0","0","0","59415","","null","","","null","1","","","","","","","","","","","","","","","",""
"","time_out","","html-keyboard-response","15","71591","0.0-1.0-17.0-0.0","0","0","59415","","null","","","null","1","","","","","","","","","","","","","","","",""
"","ITI","","html-keyboard-response","16","72596","0.0-1.0-18.0","0","0","59415","","null","","","null","1","","","","","","","","","","","","","","","NaN",""
"","S1","","html-keyboard-response","17","72750","0.0-1.0-20.0","0","0","59415","","null","","","null","2","","","","","","","","","","","","","","","",""
"","ISI","","html-keyboard-response","18","74756","0.0-1.0-21.0","0","0","59415","","null","","","null","2","NaN","","","","","","","","","","","","","","",""
"","S2","","html-keyboard-response","19","74910","0.0-1.0-22.0","0","0","59415","","null","","","null","2","","NaN","","","","","","","","","","","","","",""
"","response","","html-keyboard-response","20","75273","0.0-1.0-23.0-0.0","0","0","59415","","359","","","75","2","","","1","2","training","adjacent","AB","1","2","L.jpg","N.jpg","1","1","1","",""
"","feedback","","html-keyboard-response","21","76279","0.0-1.0-24.0-0.0","0","0","59415","","null","","","null","2","","","","","","","","","","","","","","","",""
"","ITI","","html-keyboard-response","22","77284","0.0-1.0-27.0","0","0","59415","","null","","","null","2","","","","","","","","","","","","","","","NaN",""
"","S1","","html-keyboard-response","23","77439","0.0-1.0-29.0","0","0","59415","","null","","","null","3","","","","","","","","","","","","","","","",""
"","ISI","","html-keyboard-response","24","79444","0.0-1.0-30.0","0","0","59415","","null","","","null","3","NaN","","","","","","","","","","","","","","",""
"","S2","","html-keyboard-response","25","79599","0.0-1.0-31.0","0","0","59415","","null","","","null","3","","NaN","","","","","","","","","","","","","",""
"","response","","html-keyboard-response","26","79797","0.0-1.0-32.0-0.0","0","0","59415","","194","","","68","3","","","1","3","training","adjacent","AB","1","2","L.jpg","N.jpg","0","1","0","",""
"","feedback","","html-keyboard-response","27","80802","0.0-1.0-33.0-0.0","0","0","59415","","null","","","null","3","","","","","","","","","","","","","","","",""
"","time_out","","html-keyboard-response","28","82807","0.0-1.0-35.0-0.0","0","0","59415","","null","","","null","3","","","","","","","","","","","","","","","",""
"","ITI","","html-keyboard-response","29","83812","0.0-1.0-36.0","0","0","59415","","null","","","null","3","","","","","","","","","","","","","","","NaN",""
"","S1","","html-keyboard-response","30","83968","0.0-1.0-38.0","0","0","59415","","null","","","null","4","","","","","","","","","","","","","","","",""
"","ISI","","html-keyboard-response","31","85972","0.0-1.0-39.0","0","0","59415","","null","","","null","4","NaN","","","","","","","","","","","","","","",""
"","S2","","html-keyboard-response","32","86129","0.0-1.0-40.0","0","0","59415","","null","","","null","4","","NaN","","","","","","","","","","","","","",""
"","response","","html-keyboard-response","33","86530","0.0-1.0-41.0-0.0","0","0","59415","","396","","","75","4","","","1","4","training","adjacent","EF","5","6","M.jpg","Q.jpg","1","1","1","",""
"","feedback","","html-keyboard-response","34","87536","0.0-1.0-42.0-0.0","0","0","59415","","null","","","null","4","","","","","","","","","","","","","","","",""
"","ITI","","html-keyboard-response","35","88540","0.0-1.0-45.0","0","0","59415","","null","","","null","4","","","","","","","","","","","","","","","NaN",""
"","S1","","html-keyboard-response","36","88696","0.0-1.0-47.0","0","0","59415","","null","","","null","5","","","","","","","","","","","","","","","",""
"","ISI","","html-keyboard-response","37","90701","0.0-1.0-48.0","0","0","59415","","null","","","null","5","NaN","","","","","","","","","","","","","","",""
"","S2","","html-keyboard-response","38","90856","0.0-1.0-49.0","0","0","59415","","null","","","null","5","","NaN","","","","","","","","","","","","","",""
"","response","","html-keyboard-response","39","91032","0.0-1.0-50.0-0.0","0","0","59415","","172","","","75","5","","","1","5","training","adjacent","EF","5","6","M.jpg","Q.jpg","1","1","1","",""
"","feedback","","html-keyboard-response","40","92037","0.0-1.0-51.0-0.0","0","0","59415","","null","","","null","5","","","","","","","","","","","","","","","",""
"","ITI","","html-keyboard-response","41","93042","0.0-1.0-54.0","0","0","59415","","null","","","null","5","","","","","","","","","","","","","","","NaN",""
"","S1","","html-keyboard-response","42","93197","0.0-1.0-56.0","0","0","59415","","null","","","null","6","","","","","","","","","","","","","","","",""
"","ISI","","html-keyboard-response","43","95202","0.0-1.0-57.0","0","0","59415","","null","","","null","6","NaN","","","","","","","","","","","","","","",""
"","S2","","html-keyboard-response","44","95357","0.0-1.0-58.0","0","0","59415","","null","","","null","6","","NaN","","","","","","","","","","","","","",""
"","response","","html-keyboard-response","45","95546","0.0-1.0-59.0-0.0","0","0","59415","","185","","","68","6","","","1","6","training","adjacent","CD","3","4","O.jpg","P.jpg","0","1","0","",""
"","feedback","","html-keyboard-response","46","96551","0.0-1.0-60.0-0.0","0","0","59415","","null","","","null","6","","","","","","","","","","","","","","","",""
"","time_out","","html-keyboard-response","47","98556","0.0-1.0-62.0-0.0","0","0","59415","","null","","","null","6","","","","","","","","","","","","","","","",""
"","ITI","","html-keyboard-response","48","99560","0.0-1.0-63.0","0","0","59415","","null","","","null","6","","","","","","","","","","","","","","","NaN",""
"","S1","","html-keyboard-response","49","99715","0.0-1.0-65.0","0","0","59415","","null","","","null","7","","","","","","","","","","","","","","","",""
"","ISI","","html-keyboard-response","50","101720","0.0-1.0-66.0","0","0","59415","","null","","","null","7","NaN","","","","","","","","","","","","","","",""
"","S2","","html-keyboard-response","51","101875","0.0-1.0-67.0","0","0","59415","","null","","","null","7","","NaN","","","","","","","","","","","","","",""
"","response","","html-keyboard-response","52","102282","0.0-1.0-68.0-0.0","0","0","59415","","403","","","75","7","","","1","7","training","adjacent","BA","2","1","N.jpg","L.jpg","1","0","0","",""
"","feedback","","html-keyboard-response","53","103288","0.0-1.0-69.0-0.0","0","0","59415","","null","","","null","7","","","","","","","","","","","","","","","",""
"","time_out","","html-keyboard-response","54","105292","0.0-1.0-71.0-0.0","0","0","59415","","null","","","null","7","","","","","","","","","","","","","","","",""
"","ITI","","html-keyboard-response","55","106298","0.0-1.0-72.0","0","0","59415","","null","","","null","7","","","","","","","","","","","","","","","NaN",""
"","S1","","html-keyboard-response","56","106452","0.0-1.0-74.0","0","0","59415","","null","","","null","8","","","","","","","","","","","","","","","",""
"","ISI","","html-keyboard-response","57","108457","0.0-1.0-75.0","0","0","59415","","null","","","null","8","NaN","","","","","","","","","","","","","","",""
"","S2","","html-keyboard-response","58","108613","0.0-1.0-76.0","0","0","59415","","null","","","null","8","","NaN","","","","","","","","","","","","","",""
"","response","","html-keyboard-response","59","109145","0.0-1.0-77.0-0.0","0","0","59415","","528","","","68","8","","","1","8","training","adjacent","DC","4","3","P.jpg","O.jpg","0","0","1","",""
"","feedback","","html-keyboard-response","60","110150","0.0-1.0-78.0-0.0","0","0","59415","","null","","","null","8","","","","","","","","","","","","","","","",""
"","ITI","","html-keyboard-response","61","111155","0.0-1.0-81.0","0","0","59415","","null","","","null","8","","","","","","","","","","","","","","","NaN",""
"","S1","","html-keyboard-response","62","111310","0.0-1.0-83.0","0","0","59415","","null","","","null","9","","","","","","","","","","","","","","","",""
"","ISI","","html-keyboard-response","63","113315","0.0-1.0-84.0","0","0","59415","","null","","","null","9","NaN","","","","","","","","","","","","","","",""
"","S2","","html-keyboard-response","64","113470","0.0-1.0-85.0","0","0","59415","","null","","","null","9","","NaN","","","","","","","","","","","","","",""
"","response","","html-keyboard-response","65","113639","0.0-1.0-86.0-0.0","0","0","59415","","164","","","68","9","","","1","9","training","adjacent","EF","5","6","M.jpg","Q.jpg","0","1","0","",""
"","feedback","","html-keyboard-response","66","114644","0.0-1.0-87.0-0.0","0","0","59415","","null","","","null","9","","","","","","","","","","","","","","","",""
"","time_out","","html-keyboard-response","67","116650","0.0-1.0-89.0-0.0","0","0","59415","","null","","","null","9","","","","","","","","","","","","","","","",""
"","ITI","","html-keyboard-response","68","117655","0.0-1.0-90.0","0","0","59415","","null","","","null","9","","","","","","","","","","","","","","","NaN",""
"","S1","","html-keyboard-response","69","117812","0.0-1.0-92.0","0","0","59415","","null","","","null","10","","","","","","","","","","","","","","","",""
"","ISI","","html-keyboard-response","70","119817","0.0-1.0-93.0","0","0","59415","","null","","","null","10","NaN","","","","","","","","","","","","","","",""
"","S2","","html-keyboard-response","71","119972","0.0-1.0-94.0","0","0","59415","","null","","","null","10","","NaN","","","","","","","","","","","","","",""
"","response","","html-keyboard-response","72","120352","0.0-1.0-95.0-0.0","0","0","59415","","377","","","75","10","","","1","10","training","adjacent","GF","7","6","R.jpg","Q.jpg","1","0","0","",""
"","feedback","","html-keyboard-response","73","121367","0.0-1.0-96.0-0.0","0","0","59415","","null","","","null","10","","","","","","","","","","","","","","","",""
"","time_out","","html-keyboard-response","74","123372","0.0-1.0-98.0-0.0","0","0","59415","","null","","","null","10","","","","","","","","","","","","","","","",""
"","ITI","","html-keyboard-response","75","124376","0.0-1.0-99.0","0","0","59415","","null","","","null","10","","","","","","","","","","","","","","","NaN",""
"","S1","","html-keyboard-response","76","124532","0.0-1.0-101.0","0","0","59415","","null","","","null","11","","","","","","","","","","","","","","","",""
"","ISI","","html-keyboard-response","77","126536","0.0-1.0-102.0","0","0","59415","","null","","","null","11","NaN","","","","","","","","","","","","","","",""
"","S2","","html-keyboard-response","78","126702","0.0-1.0-103.0","0","0","59415","","null","","","null","11","","NaN","","","","","","","","","","","","","",""
"","response","","html-keyboard-response","79","126975","0.0-1.0-104.0-0.0","0","0","59415","","269","","","75","11","","","1","11","training","adjacent","ED","5","4","M.jpg","P.jpg","1","0","0","",""
"","feedback","","html-keyboard-response","80","127981","0.0-1.0-105.0-0.0","0","0","59415","","null","","","null","11","","","","","","","","","","","","","","","",""
"","time_out","","html-keyboard-response","81","129985","0.0-1.0-107.0-0.0","0","0","59415","","null","","","null","11","","","","","","","","","","","","","","","",""
"","ITI","","html-keyboard-response","82","130990","0.0-1.0-108.0","0","0","59415","","null","","","null","11","","","","","","","","","","","","","","","NaN",""
"","S1","","html-keyboard-response","83","131144","0.0-1.0-110.0","0","0","59415","","null","","","null","12","","","","","","","","","","","","","","","",""
"","ISI","","html-keyboard-response","84","133148","0.0-1.0-111.0","0","0","59415","","null","","","null","12","NaN","","","","","","","","","","","","","","",""
"","S2","","html-keyboard-response","85","133303","0.0-1.0-112.0","0","0","59415","","null","","","null","12","","NaN","","","","","","","","","","","","","",""
"","response","","html-keyboard-response","86","133575","0.0-1.0-113.0-0.0","0","0","59415","","267","","","68","12","","","1","12","training","adjacent","FG","6","7","Q.jpg","R.jpg","0","1","0","",""
"","feedback","","html-keyboard-response","87","134580","0.0-1.0-114.0-0.0","0","0","59415","","null","","","null","12","","","","","","","","","","","","","","","",""
"","time_out","","html-keyboard-response","88","136584","0.0-1.0-116.0-0.0","0","0","59415","","null","","","null","12","","","","","","","","","","","","","","","",""
"","ITI","","html-keyboard-response","89","137590","0.0-1.0-117.0","0","0","59415","","null","","","null","12","","","","","","","","","","","","","","","NaN",""
"","S1","","html-keyboard-response","90","137746","0.0-1.0-119.0","0","0","59415","","null","","","null","13","","","","","","","","","","","","","","","",""
"","ISI","","html-keyboard-response","91","139751","0.0-1.0-120.0","0","0","59415","","null","","","null","13","NaN","","","","","","","","","","","","","","",""
"","S2","","html-keyboard-response","92","139906","0.0-1.0-121.0","0","0","59415","","null","","","null","13","","NaN","","","","","","","","","","","","","",""
"","response","","html-keyboard-response","93","139976","0.0-1.0-122.0-0.0","0","0","59415","","66","","","68","13","","","1","13","training","adjacent","DC","4","3","P.jpg","O.jpg","0","0","1","",""
"","feedback","","html-keyboard-response","94","140981","0.0-1.0-123.0-0.0","0","0","59415","","null","","","null","13","","","","","","","","","","","","","","","",""
"","ITI","","html-keyboard-response","95","141986","0.0-1.0-126.0","0","0","59415","","null","","","null","13","","","","","","","","","","","","","","","NaN",""
"","S1","","html-keyboard-response","96","142141","0.0-1.0-128.0","0","0","59415","","null","","","null","14","","","","","","","","","","","","","","","",""
"","ISI","","html-keyboard-response","97","144146","0.0-1.0-129.0","0","0","59415","","null","","","null","14","NaN","","","","","","","","","","","","","","",""
"","S2","","html-keyboard-response","98","144302","0.0-1.0-130.0","0","0","59415","","null","","","null","14","","NaN","","","","","","","","","","","","","",""
"","response","","html-keyboard-response","99","144426","0.0-1.0-131.0-0.0","0","0","59415","","120","","","68","14","","","1","14","training","adjacent","BC","2","3","N.jpg","O.jpg","0","1","0","",""
"","feedback","","html-keyboard-response","100","145432","0.0-1.0-132.0-0.0","0","0","59415","","null","","","null","14","","","","","","","","","","","","","","","",""
"","time_out","","html-keyboard-response","101","147437","0.0-1.0-134.0-0.0","0","0","59415","","null","","","null","14","","","","","","","","","","","","","","","",""
"","ITI","","html-keyboard-response","102","148442","0.0-1.0-135.0","0","0","59415","","null","","","null","14","","","","","","","","","","","","","","","NaN",""
"","S1","","html-keyboard-response","103","148598","0.0-1.0-137.0","0","0","59415","","null","","","null","15","","","","","","","","","","","","","","","",""
"","ISI","","html-keyboard-response","104","150604","0.0-1.0-138.0","0","0","59415","","266","","","75","15","k","","","","","","","","","","","","","","",""
"","S2","","html-keyboard-response","105","150760","0.0-1.0-139.0","0","0","59415","","null","","","null","15","","NaN","","","","","","","","","","","","","",""
"","response","","html-keyboard-response","106","150794","0.0-1.0-140.0-0.0","0","0","59415","","29","","","75","15","","","1","15","training","adjacent","FG","6","7","Q.jpg","R.jpg","1","1","1","",""
"","feedback","","html-keyboard-response","107","151799","0.0-1.0-141.0-0.0","0","0","59415","","null","","","null","15","","","","","","","","","","","","","","","",""
"","ITI","","html-keyboard-response","108","152803","0.0-1.0-144.0","0","0","59415","","null","","","null","15","","","","","","","","","","","","","","","NaN",""
"","S1","","html-keyboard-response","109","152959","0.0-1.0-146.0","0","0","59415","","null","","","null","16","","","","","","","","","","","","","","","",""
"","ISI","","html-keyboard-response","110","154964","0.0-1.0-147.0","0","0","59415","","null","","","null","16","NaN","","","","","","","","","","","","","","",""
"","S2","","html-keyboard-response","111","155122","0.0-1.0-148.0","0","0","59415","","null","","","null","16","","NaN","","","","","","","","","","","","","",""
"","response","","html-keyboard-response","112","155404","0.0-1.0-149.0-0.0","0","0","59415","","277","","","68","16","","","1","16","training","adjacent","AB","1","2","L.jpg","N.jpg","0","1","0","",""
"","feedback","","html-keyboard-response","113","156411","0.0-1.0-150.0-0.0","0","0","59415","","null","","","null","16","","","","","","","","","","","","","","","",""
"","time_out","","html-keyboard-response","114","158415","0.0-1.0-152.0-0.0","0","0","59415","","null","","","null","16","","","","","","","","","","","","","","","",""
"","ITI","","html-keyboard-response","115","159420","0.0-1.0-153.0","0","0","59415","","null","","","null","16","","","","","","","","","","","","","","","NaN",""
"","S1","","html-keyboard-response","116","159575","0.0-1.0-155.0","0","0","59415","","null","","","null","17","","","","","","","","","","","","","","","",""
"","ISI","","html-keyboard-response","117","161580","0.0-1.0-156.0","0","0","59415","","null","","","null","17","NaN","","","","","","","","","","","","","","",""
"","S2","","html-keyboard-response","118","161735","0.0-1.0-157.0","0","0","59415","","null","","","null","17","","NaN","","","","","","","","","","","","","",""
"","response","","html-keyboard-response","119","161894","0.0-1.0-158.0-0.0","0","0","59415","","156","","","75","17","","","1","17","training","adjacent","ED","5","4","M.jpg","P.jpg","1","0","0","",""
"","feedback","","html-keyboard-response","120","162899","0.0-1.0-159.0-0.0","0","0","59415","","null","","","null","17","","","","","","","","","","","","","","","",""
"","time_out","","html-keyboard-response","121","164903","0.0-1.0-161.0-0.0","0","0","59415","","null","","","null","17","","","","","","","","","","","","","","","",""
"","ITI","","html-keyboard-response","122","165908","0.0-1.0-162.0","0","0","59415","","null","","","null","17","","","","","","","","","","","","","","","NaN",""
"","S1","","html-keyboard-response","123","166064","0.0-1.0-164.0","0","0","59415","","null","","","null","18","","","","","","","","","","","","","","","",""
"","ISI","","html-keyboard-response","124","168069","0.0-1.0-165.0","0","0","59415","","null","","","null","18","NaN","","","","","","","","","","","","","","",""
"","S2","","html-keyboard-response","125","168224","0.0-1.0-166.0","0","0","59415","","null","","","null","18","","NaN","","","","","","","","","","","","","",""
"","response","","html-keyboard-response","126","168335","0.0-1.0-167.0-0.0","0","0","59415","","107","","","68","18","","","1","18","training","adjacent","BA","2","1","N.jpg","L.jpg","0","0","1","",""
"","feedback","","html-keyboard-response","127","169341","0.0-1.0-168.0-0.0","0","0","59415","","null","","","null","18","","","","","","","","","","","","","","","",""
"","ITI","","html-keyboard-response","128","170346","0.0-1.0-171.0","0","0","59415","","null","","","null","18","","","","","","","","","","","","","","","NaN",""
"","S1","","html-keyboard-response","129","170501","0.0-1.0-173.0","0","0","59415","","null","","","null","19","","","","","","","","","","","","","","","",""
"","ISI","","html-keyboard-response","130","172506","0.0-1.0-174.0","0","0","59415","","null","","","null","19","NaN","","","","","","","","","","","","","","",""
"","S2","","html-keyboard-response","131","172662","0.0-1.0-175.0","0","0","59415","","null","","","null","19","","NaN","","","","","","","","","","","","","",""
"","response","","html-keyboard-response","132","172834","0.0-1.0-176.0-0.0","0","0","59415","","167","","","75","19","","","1","19","training","adjacent","GF","7","6","R.jpg","Q.jpg","1","0","0","",""
"","feedback","","html-keyboard-response","133","173841","0.0-1.0-177.0-0.0","0","0","59415","","null","","","null","19","","","","","","","","","","","","","","","",""
"","time_out","","html-keyboard-response","134","175846","0.0-1.0-179.0-0.0","0","0","59415","","null","","","null","19","","","","","","","","","","","","","","","",""
"","ITI","","html-keyboard-response","135","176850","0.0-1.0-180.0","0","0","59415","","null","","","null","19","","","","","","","","","","","","","","","NaN",""
"","S1","","html-keyboard-response","136","177005","0.0-1.0-182.0","0","0","59415","","null","","","null","20","","","","","","","","","","","","","","","",""
"","ISI","","html-keyboard-response","137","179011","0.0-1.0-183.0","0","0","59415","","null","","","null","20","NaN","","","","","","","","","","","","","","",""
"","S2","","html-keyboard-response","138","179165","0.0-1.0-184.0","0","0","59415","","null","","","null","20","","NaN","","","","","","","","","","","","","",""
"","response","","html-keyboard-response","139","179408","0.0-1.0-185.0-0.0","0","0","59415","","239","","","68","20","","","1","20","training","adjacent","ED","5","4","M.jpg","P.jpg","0","0","1","",""
"","feedback","","html-keyboard-response","140","180413","0.0-1.0-186.0-0.0","0","0","59415","","null","","","null","20","","","","","","","","","","","","","","","",""
"","ITI","","html-keyboard-response","141","181418","0.0-1.0-189.0","0","0","59415","","null","","","null","20","","","","","","","","","","","","","","","NaN",""
"","S1","","html-keyboard-response","142","181573","0.0-1.0-191.0","0","0","59415","","null","","","null","21","","","","","","","","","","","","","","","",""
"","ISI","","html-keyboard-response","143","183578","0.0-1.0-192.0","0","0","59415","","null","","","null","21","NaN","","","","","","","","","","","","","","",""
"","S2","","html-keyboard-response","144","183733","0.0-1.0-193.0","0","0","59415","","null","","","null","21","","NaN","","","","","","","","","","","","","",""
"","response","","html-keyboard-response","145","183898","0.0-1.0-194.0-0.0","0","0","59415","","160","","","75","21","","","1","21","training","adjacent","AB","1","2","L.jpg","N.jpg","1","1","1","",""
"","feedback","","html-keyboard-response","146","184903","0.0-1.0-195.0-0.0","0","0","59415","","null","","","null","21","","","","","","","","","","","","","","","",""
"","ITI","","html-keyboard-response","147","185908","0.0-1.0-198.0","0","0","59415","","null","","","null","21","","","","","","","","","","","","","","","NaN",""
"","S1","","html-keyboard-response","148","186064","0.0-1.0-200.0","0","0","59415","","null","","","null","22","","","","","","","","","","","","","","","",""
"","ISI","","html-keyboard-response","149","188068","0.0-1.0-201.0","0","0","59415","","null","","","null","22","NaN","","","","","","","","","","","","","","",""
"","S2","","html-keyboard-response","150","188223","0.0-1.0-202.0","0","0","59415","","null","","","null","22","","NaN","","","","","","","","","","","","","",""
"","response","","html-keyboard-response","151","188482","0.0-1.0-203.0-0.0","0","0","59415","","255","","","68","22","","","1","22","training","adjacent","FG","6","7","Q.jpg","R.jpg","0","1","0","",""
"","feedback","","html-keyboard-response","152","189487","0.0-1.0-204.0-0.0","0","0","59415","","null","","","null","22","","","","","","","","","","","","","","","",""
"","time_out","","html-keyboard-response","153","191492","0.0-1.0-206.0-0.0","0","0","59415","","null","","","null","22","","","","","","","","","","","","","","","",""
"","ITI","","html-keyboard-response","154","192496","0.0-1.0-207.0","0","0","59415","","null","","","null","22","","","","","","","","","","","","","","","NaN",""
"","S1","","html-keyboard-response","155","192657","0.0-1.0-209.0","0","0","59415","","null","","","null","23","","","","","","","","","","","","","","","",""
"","ISI","","html-keyboard-response","156","194662","0.0-1.0-210.0","0","0","59415","","null","","","null","23","NaN","","","","","","","","","","","","","","",""
"","S2","","html-keyboard-response","157","194817","0.0-1.0-211.0","0","0","59415","","null","","","null","23","","NaN","","","","","","","","","","","","","",""
"","response","","html-keyboard-response","158","195091","0.0-1.0-212.0-0.0","0","0","59415","","270","","","75","23","","","1","23","training","adjacent","CB","3","2","O.jpg","N.jpg","1","0","0","",""
"","feedback","","html-keyboard-response","159","196097","0.0-1.0-213.0-0.0","0","0","59415","","null","","","null","23","","","","","","","","","","","","","","","",""
"","time_out","","html-keyboard-response","160","198102","0.0-1.0-215.0-0.0","0","0","59415","","null","","","null","23","","","","","","","","","","","","","","","",""
"","ITI","","html-keyboard-response","161","199106","0.0-1.0-216.0","0","0","59415","","null","","","null","23","","","","","","","","","","","","","","","NaN",""
"","S1","","html-keyboard-response","162","199271","0.0-1.0-218.0","0","0","59415","","null","","","null","24","","","","","","","","","","","","","","","",""
"","ISI","","html-keyboard-response","163","201276","0.0-1.0-219.0","0","0","59415","","null","","","null","24","NaN","","","","","","","","","","","","","","",""
"","S2","","html-keyboard-response","164","201431","0.0-1.0-220.0","0","0","59415","","null","","","null","24","","NaN","","","","","","","","","","","","","",""
"","response","","html-keyboard-response","165","201565","0.0-1.0-221.0-0.0","0","0","59415","","130","","","68","24","","","1","24","training","adjacent","GF","7","6","R.jpg","Q.jpg","0","0","1","",""
"","feedback","","html-keyboard-response","166","202583","0.0-1.0-222.0-0.0","0","0","59415","","null","","","null","24","","","","","","","","","","","","","","","",""
"","ITI","","html-keyboard-response","167","203587","0.0-1.0-225.0","0","0","59415","","null","","","null","24","","","","","","","","","","","","","","","NaN",""
"","S1","","html-keyboard-response","168","203742","0.0-1.0-227.0","0","0","59415","","null","","","null","25","","","","","","","","","","","","","","","",""
"","ISI","","html-keyboard-response","169","205746","0.0-1.0-228.0","0","0","59415","","null","","","null","25","NaN","","","","","","","","","","","","","","",""
"","S2","","html-keyboard-response","170","205902","0.0-1.0-229.0","0","0","59415","","null","","","null","25","","NaN","","","","","","","","","","","","","",""
"","response","","html-keyboard-response","171","206450","0.0-1.0-230.0-0.0","0","0","59415","","544","","","75","25","","","1","25","training","adjacent","DE","4","5","P.jpg","M.jpg","1","1","1","",""
"","feedback","","html-keyboard-response","172","207455","0.0-1.0-231.0-0.0","0","0","59415","","null","","","null","25","","","","","","","","","","","","","","","",""
"","ITI","","html-keyboard-response","173","208460","0.0-1.0-234.0","0","0","59415","","null","","","null","25","","","","","","","","","","","","","","","NaN",""
"","S1","","html-keyboard-response","174","208615","0.0-1.0-236.0","0","0","59415","","null","","","null","26","","","","","","","","","","","","","","","",""
"","ISI","","html-keyboard-response","175","210620","0.0-1.0-237.0","0","0","59415","","null","","","null","26","NaN","","","","","","","","","","","","","","",""
"","S2","","html-keyboard-response","176","210775","0.0-1.0-238.0","0","0","59415","","null","","","null","26","","NaN","","","","","","","","","","","","","",""
"","response","","html-keyboard-response","177","210960","0.0-1.0-239.0-0.0","0","0","59415","","181","","","68","26","","","1","26","training","adjacent","EF","5","6","M.jpg","Q.jpg","0","1","0","",""
"","feedback","","html-keyboard-response","178","211966","0.0-1.0-240.0-0.0","0","0","59415","","null","","","null","26","","","","","","","","","","","","","","","",""
"","time_out","","html-keyboard-response","179","213970","0.0-1.0-242.0-0.0","0","0","59415","","null","","","null","26","","","","","","","","","","","","","","","",""
"","ITI","","html-keyboard-response","180","214974","0.0-1.0-243.0","0","0","59415","","null","","","null","26","","","","","","","","","","","","","","","NaN",""
"","S1","","html-keyboard-response","181","215130","0.0-1.0-245.0","0","0","59415","","null","","","null","27","","","","","","","","","","","","","","","",""
"","ISI","","html-keyboard-response","182","217135","0.0-1.0-246.0","0","0","59415","","null","","","null","27","NaN","","","","","","","","","","","","","","",""
"","S2","","html-keyboard-response","183","217290","0.0-1.0-247.0","0","0","59415","","null","","","null","27","","NaN","","","","","","","","","","","","","",""
"","response","","html-keyboard-response","184","217379","0.0-1.0-248.0-0.0","0","0","59415","","84","","","75","27","","","1","27","training","adjacent","CB","3","2","O.jpg","N.jpg","1","0","0","",""
"","feedback","","html-keyboard-response","185","218384","0.0-1.0-249.0-0.0","0","0","59415","","null","","","null","27","","","","","","","","","","","","","","","",""
"","time_out","","html-keyboard-response","186","220388","0.0-1.0-251.0-0.0","0","0","59415","","null","","","null","27","","","","","","","","","","","","","","","",""
"","ITI","","html-keyboard-response","187","221393","0.0-1.0-252.0","0","0","59415","","null","","","null","27","","","","","","","","","","","","","","","NaN",""
"","S1","","html-keyboard-response","188","221548","0.0-1.0-254.0","0","0","59415","","null","","","null","28","","","","","","","","","","","","","","","",""
"","ISI","","html-keyboard-response","189","223552","0.0-1.0-255.0","0","0","59415","","null","","","null","28","NaN","","","","","","","","","","","","","","",""
"","S2","","html-keyboard-response","190","223707","0.0-1.0-256.0","0","0","59415","","null","","","null","28","","NaN","","","","","","","","","","","","","",""
"","response","","html-keyboard-response","191","223836","0.0-1.0-257.0-0.0","0","0","59415","","125","","","68","28","","","1","28","training","adjacent","FE","6","5","Q.jpg","M.jpg","0","0","1","",""
"","feedback","","html-keyboard-response","192","224841","0.0-1.0-258.0-0.0","0","0","59415","","null","","","null","28","","","","","","","","","","","","","","","",""
"","ITI","","html-keyboard-response","193","225853","0.0-1.0-261.0","0","0","59415","","null","","","null","28","","","","","","","","","","","","","","","NaN",""
"","S1","","html-keyboard-response","194","226008","0.0-1.0-263.0","0","0","59415","","null","","","null","29","","","","","","","","","","","","","","","",""
"","ISI","","html-keyboard-response","195","228013","0.0-1.0-264.0","0","0","59415","","null","","","null","29","NaN","","","","","","","","","","","","","","",""
"","S2","","html-keyboard-response","196","228168","0.0-1.0-265.0","0","0","59415","","null","","","null","29","","NaN","","","","","","","","","","","","","",""
"","response","","html-keyboard-response","197","228291","0.0-1.0-266.0-0.0","0","0","59415","","118","","","75","29","","","1","29","training","adjacent","FG","6","7","Q.jpg","R.jpg","1","1","1","",""
"","feedback","","html-keyboard-response","198","229296","0.0-1.0-267.0-0.0","0","0","59415","","null","","","null","29","","","","","","","","","","","","","","","",""
"","ITI","","html-keyboard-response","199","230315","0.0-1.0-270.0","0","0","59415","","null","","","null","29","","","","","","","","","","","","","","","NaN",""
"","S1","","html-keyboard-response","200","230470","0.0-1.0-272.0","0","0","59415","","null","","","null","30","","","","","","","","","","","","","","","",""
"","ISI","","html-keyboard-response","201","232475","0.0-1.0-273.0","0","0","59415","","null","","","null","30","NaN","","","","","","","","","","","","","","",""
"","S2","","html-keyboard-response","202","232631","0.0-1.0-274.0","0","0","59415","","null","","","null","30","","NaN","","","","","","","","","","","","","",""
"","response","","html-keyboard-response","203","232760","0.0-1.0-275.0-0.0","0","0","59415","","124","","","68","30","","","1","30","training","adjacent","BA","2","1","N.jpg","L.jpg","0","0","1","",""
"","feedback","","html-keyboard-response","204","233765","0.0-1.0-276.0-0.0","0","0","59415","","null","","","null","30","","","","","","","","","","","","","","","",""
"","ITI","","html-keyboard-response","205","234770","0.0-1.0-279.0","0","0","59415","","null","","","null","30","","","","","","","","","","","","","","","NaN",""
"","S1","","html-keyboard-response","206","234926","0.0-1.0-281.0","0","0","59415","","null","","","null","31","","","","","","","","","","","","","","","",""
"","ISI","","html-keyboard-response","207","236932","0.0-1.0-282.0","0","0","59415","","null","","","null","31","NaN","","","","","","","","","","","","","","",""
"","S2","","html-keyboard-response","208","237087","0.0-1.0-283.0","0","0","59415","","null","","","null","31","","NaN","","","","","","","","","","","","","",""
"","response","","html-keyboard-response","209","237503","0.0-1.0-284.0-0.0","0","0","59415","","412","","","75","31","","","1","31","training","adjacent","DE","4","5","P.jpg","M.jpg","1","1","1","",""
"","feedback","","html-keyboard-response","210","238509","0.0-1.0-285.0-0.0","0","0","59415","","null","","","null","31","","","","","","","","","","","","","","","",""
"","ITI","","html-keyboard-response","211","239515","0.0-1.0-288.0","0","0","59415","","null","","","null","31","","","","","","","","","","","","","","","NaN",""
"","S1","","html-keyboard-response","212","239671","0.0-1.0-290.0","0","0","59415","","null","","","null","32","","","","","","","","","","","","","","","",""
"","ISI","","html-keyboard-response","213","241676","0.0-1.0-291.0","0","0","59415","","null","","","null","32","NaN","","","","","","","","","","","","","","",""
"","S2","","html-keyboard-response","214","241831","0.0-1.0-292.0","0","0","59415","","null","","","null","32","","NaN","","","","","","","","","","","","","",""
"","response","","html-keyboard-response","215","242896","0.0-1.0-293.0-0.0","0","0","59415","","1060","","","68","32","","","1","32","training","adjacent","BC","2","3","N.jpg","O.jpg","0","1","0","",""
"","feedback","","html-keyboard-response","216","243902","0.0-1.0-294.0-0.0","0","0","59415","","null","","","null","32","","","","","","","","","","","","","","","",""
"","time_out","","html-keyboard-response","217","245906","0.0-1.0-296.0-0.0","0","0","59415","","null","","","null","32","","","","","","","","","","","","","","","",""
"","ITI","","html-keyboard-response","218","246910","0.0-1.0-297.0","0","0","59415","","null","","","null","32","","","","","","","","","","","","","","","NaN",""
"","S1","","html-keyboard-response","219","247066","0.0-1.0-299.0","0","0","59415","","null","","","null","33","","","","","","","","","","","","","","","",""
"","ISI","","html-keyboard-response","220","249071","0.0-1.0-300.0","0","0","59415","","null","","","null","33","NaN","","","","","","","","","","","","","","",""
"","S2","","html-keyboard-response","221","249226","0.0-1.0-301.0","0","0","59415","","null","","","null","33","","NaN","","","","","","","","","","","","","",""
"","response","","html-keyboard-response","222","249379","0.0-1.0-302.0-0.0","0","0","59415","","148","","","75","33","","","1","33","training","adjacent","CD","3","4","O.jpg","P.jpg","1","1","1","",""
"","feedback","","html-keyboard-response","223","250383","0.0-1.0-303.0-0.0","0","0","59415","","null","","","null","33","","","","","","","","","","","","","","","",""
"","ITI","","html-keyboard-response","224","251389","0.0-1.0-306.0","0","0","59415","","null","","","null","33","","","","","","","","","","","","","","","NaN",""
"","S1","","html-keyboard-response","225","251544","0.0-1.0-308.0","0","0","59415","","null","","","null","34","","","","","","","","","","","","","","","",""
"","ISI","","html-keyboard-response","226","253548","0.0-1.0-309.0","0","0","59415","","null","","","null","34","NaN","","","","","","","","","","","","","","",""
"","S2","","html-keyboard-response","227","253703","0.0-1.0-310.0","0","0","59415","","null","","","null","34","","NaN","","","","","","","","","","","","","",""
"","response","","html-keyboard-response","228","253904","0.0-1.0-311.0-0.0","0","0","59415","","197","","","68","34","","","1","34","training","adjacent","BC","2","3","N.jpg","O.jpg","0","1","0","",""
"","feedback","","html-keyboard-response","229","254911","0.0-1.0-312.0-0.0","0","0","59415","","null","","","null","34","","","","","","","","","","","","","","","",""
"","time_out","","html-keyboard-response","230","256915","0.0-1.0-314.0-0.0","0","0","59415","","null","","","null","34","","","","","","","","","","","","","","","",""
"","ITI","","html-keyboard-response","231","257923","0.0-1.0-315.0","0","0","59415","","null","","","null","34","","","","","","","","","","","","","","","NaN",""
"","S1","","html-keyboard-response","232","258077","0.0-1.0-317.0","0","0","59415","","null","","","null","35","","","","","","","","","","","","","","","",""
"","ISI","","html-keyboard-response","233","260082","0.0-1.0-318.0","0","0","59415","","null","","","null","35","NaN","","","","","","","","","","","","","","",""
"","S2","","html-keyboard-response","234","260237","0.0-1.0-319.0","0","0","59415","","null","","","null","35","","NaN","","","","","","","","","","","","","",""
"","response","","html-keyboard-response","235","260673","0.0-1.0-320.0-0.0","0","0","59415","","432","","","75","35","","","1","35","training","adjacent","FE","6","5","Q.jpg","M.jpg","1","0","0","",""
"","feedback","","html-keyboard-response","236","261680","0.0-1.0-321.0-0.0","0","0","59415","","null","","","null","35","","","","","","","","","","","","","","","",""
"","time_out","","html-keyboard-response","237","263684","0.0-1.0-323.0-0.0","0","0","59415","","null","","","null","35","","","","","","","","","","","","","","","",""
"","ITI","","html-keyboard-response","238","264689","0.0-1.0-324.0","0","0","59415","","null","","","null","35","","","","","","","","","","","","","","","NaN",""
"","S1","","html-keyboard-response","239","264845","0.0-1.0-326.0","0","0","59415","","null","","","null","36","","","","","","","","","","","","","","","",""
"","ISI","","html-keyboard-response","240","266850","0.0-1.0-327.0","0","0","59415","","null","","","null","36","NaN","","","","","","","","","","","","","","",""
"","S2","","html-keyboard-response","241","267006","0.0-1.0-328.0","0","0","59415","","null","","","null","36","","NaN","","","","","","","","","","","","","",""
"","response","","html-keyboard-response","242","267621","0.0-1.0-329.0-0.0","0","0","59415","","612","","","75","36","","","1","36","training","adjacent","FE","6","5","Q.jpg","M.jpg","1","0","0","",""
"","feedback","","html-keyboard-response","243","268626","0.0-1.0-330.0-0.0","0","0","59415","","null","","","null","36","","","","","","","","","","","","","","","",""
"","time_out","","html-keyboard-response","244","270631","0.0-1.0-332.0-0.0","0","0","59415","","null","","","null","36","","","","","","","","","","","","","","","",""
"","ITI","","html-keyboard-response","245","271636","0.0-1.0-333.0","0","0","59415","","null","","","null","36","","","","","","","","","","","","","","","NaN",""
"","S1","","html-keyboard-response","246","271791","0.0-1.0-335.0","0","0","59415","","null","","","null","37","","","","","","","","","","","","","","","",""
"","ISI","","html-keyboard-response","247","273795","0.0-1.0-336.0","0","0","59415","","null","","","null","37","NaN","","","","","","","","","","","","","","",""
"","S2","","html-keyboard-response","248","273951","0.0-1.0-337.0","0","0","59415","","null","","","null","37","","NaN","","","","","","","","","","","","","",""
"","response","","html-keyboard-response","249","274115","0.0-1.0-338.0-0.0","0","0","59415","","161","","","68","37","","","1","37","training","adjacent","CD","3","4","O.jpg","P.jpg","0","1","0","",""
"","feedback","","html-keyboard-response","250","275124","0.0-1.0-339.0-0.0","0","0","59415","","null","","","null","37","","","","","","","","","","","","","","","",""
"","time_out","","html-keyboard-response","251","277129","0.0-1.0-341.0-0.0","0","0","59415","","null","","","null","37","","","","","","","","","","","","","","","",""
"","ITI","","html-keyboard-response","252","278134","0.0-1.0-342.0","0","0","59415","","null","","","null","37","","","","","","","","","","","","","","","NaN",""
"","S1","","html-keyboard-response","253","278289","0.0-1.0-344.0","0","0","59415","","null","","","null","38","","","","","","","","","","","","","","","",""
"","ISI","","html-keyboard-response","254","280295","0.0-1.0-345.0","0","0","59415","","null","","","null","38","NaN","","","","","","","","","","","","","","",""
"","S2","","html-keyboard-response","255","280450","0.0-1.0-346.0","0","0","59415","","null","","","null","38","","NaN","","","","","","","","","","","","","",""
"","response","","html-keyboard-response","256","280642","0.0-1.0-347.0-0.0","0","0","59415","","187","","","75","38","","","1","38","training","adjacent","CB","3","2","O.jpg","N.jpg","1","0","0","",""
"","feedback","","html-keyboard-response","257","281650","0.0-1.0-348.0-0.0","0","0","59415","","null","","","null","38","","","","","","","","","","","","","","","",""
"","time_out","","html-keyboard-response","258","283655","0.0-1.0-350.0-0.0","0","0","59415","","null","","","null","38","","","","","","","","","","","","","","","",""
"","ITI","","html-keyboard-response","259","284661","0.0-1.0-351.0","0","0","59415","","null","","","null","38","","","","","","","","","","","","","","","NaN",""
"","S1","","html-keyboard-response","260","284815","0.0-1.0-353.0","0","0","59415","","null","","","null","39","","","","","","","","","","","","","","","",""
"","ISI","","html-keyboard-response","261","286820","0.0-1.0-354.0","0","0","59415","","null","","","null","39","NaN","","","","","","","","","","","","","","",""
"","S2","","html-keyboard-response","262","286975","0.0-1.0-355.0","0","0","59415","","null","","","null","39","","NaN","","","","","","","","","","","","","",""
"","response","","html-keyboard-response","263","287151","0.0-1.0-356.0-0.0","0","0","59415","","172","","","68","39","","","1","39","training","adjacent","BA","2","1","N.jpg","L.jpg","0","0","1","",""
"","feedback","","html-keyboard-response","264","288158","0.0-1.0-357.0-0.0","0","0","59415","","null","","","null","39","","","","","","","","","","","","","","","",""
"","ITI","","html-keyboard-response","265","289162","0.0-1.0-360.0","0","0","59415","","null","","","null","39","","","","","","","","","","","","","","","NaN",""
"","S1","","html-keyboard-response","266","289318","0.0-1.0-362.0","0","0","59415","","null","","","null","40","","","","","","","","","","","","","","","",""
"","ISI","","html-keyboard-response","267","291322","0.0-1.0-363.0","0","0","59415","","null","","","null","40","NaN","","","","","","","","","","","","","","",""
"","S2","","html-keyboard-response","268","291478","0.0-1.0-364.0","0","0","59415","","null","","","null","40","","NaN","","","","","","","","","","","","","",""
"","response","","html-keyboard-response","269","291946","0.0-1.0-365.0-0.0","0","0","59415","","464","","","68","40","","","1","40","training","adjacent","DC","4","3","P.jpg","O.jpg","0","0","1","",""
"","feedback","","html-keyboard-response","270","292951","0.0-1.0-366.0-0.0","0","0","59415","","null","","","null","40","","","","","","","","","","","","","","","",""
"","ITI","","html-keyboard-response","271","293957","0.0-1.0-369.0","0","0","59415","","null","","","null","40","","","","","","","","","","","","","","","NaN",""
"","S1","","html-keyboard-response","272","294112","0.0-1.0-371.0","0","0","59415","","null","","","null","41","","","","","","","","","","","","","","","",""
"","ISI","","html-keyboard-response","273","296117","0.0-1.0-372.0","0","0","59415","","null","","","null","41","NaN","","","","","","","","","","","","","","",""
"","S2","","html-keyboard-response","274","296273","0.0-1.0-373.0","0","0","59415","","null","","","null","41","","NaN","","","","","","","","","","","","","",""
"","response","","html-keyboard-response","275","296761","0.0-1.0-374.0-0.0","0","0","59415","","485","","","68","41","","","1","41","training","adjacent","BC","2","3","N.jpg","O.jpg","0","1","0","",""
"","feedback","","html-keyboard-response","276","297767","0.0-1.0-375.0-0.0","0","0","59415","","null","","","null","41","","","","","","","","","","","","","","","",""
"","time_out","","html-keyboard-response","277","299771","0.0-1.0-377.0-0.0","0","0","59415","","null","","","null","41","","","","","","","","","","","","","","","",""
"","ITI","","html-keyboard-response","278","300775","0.0-1.0-378.0","0","0","59415","","null","","","null","41","","","","","","","","","","","","","","","NaN",""
"","S1","","html-keyboard-response","279","300931","0.0-1.0-380.0","0","0","59415","","null","","","null","42","","","","","","","","","","","","","","","",""
"","ISI","","html-keyboard-response","280","302935","0.0-1.0-381.0","0","0","59415","","null","","","null","42","NaN","","","","","","","","","","","","","","",""
"","S2","","html-keyboard-response","281","303099","0.0-1.0-382.0","0","0","59415","","null","","","null","42","","NaN","","","","","","","","","","","","","",""
"","response","","html-keyboard-response","282","303378","0.0-1.0-383.0-0.0","0","0","59415","","275","","","75","42","","","1","42","training","adjacent","ED","5","4","M.jpg","P.jpg","1","0","0","",""
"","feedback","","html-keyboard-response","283","304383","0.0-1.0-384.0-0.0","0","0","59415","","null","","","null","42","","","","","","","","","","","","","","","",""
"","time_out","","html-keyboard-response","284","306387","0.0-1.0-386.0-0.0","0","0","59415","","null","","","null","42","","","","","","","","","","","","","","","",""
"","ITI","","html-keyboard-response","285","307393","0.0-1.0-387.0","0","0","59415","","null","","","null","42","","","","","","","","","","","","","","","NaN",""
"","S1","","html-keyboard-response","286","307548","0.0-1.0-389.0","0","0","59415","","null","","","null","43","","","","","","","","","","","","","","","",""
"","ISI","","html-keyboard-response","287","309553","0.0-1.0-390.0","0","0","59415","","null","","","null","43","NaN","","","","","","","","","","","","","","",""
"","S2","","html-keyboard-response","288","309707","0.0-1.0-391.0","0","0","59415","","null","","","null","43","","NaN","","","","","","","","","","","","","",""
"","response","","html-keyboard-response","289","310135","0.0-1.0-392.0-0.0","0","0","59415","","424","","","68","43","","","1","43","training","adjacent","GF","7","6","R.jpg","Q.jpg","0","0","1","",""
"","feedback","","html-keyboard-response","290","311140","0.0-1.0-393.0-0.0","0","0","59415","","null","","","null","43","","","","","","","","","","","","","","","",""
"","ITI","","html-keyboard-response","291","312145","0.0-1.0-396.0","0","0","59415","","null","","","null","43","","","","","","","","","","","","","","","NaN",""
"","S1","","html-keyboard-response","292","312300","0.0-1.0-398.0","0","0","59415","","null","","","null","44","","","","","","","","","","","","","","","",""
"","ISI","","html-keyboard-response","293","314304","0.0-1.0-399.0","0","0","59415","","null","","","null","44","NaN","","","","","","","","","","","","","","",""
"","S2","","html-keyboard-response","294","314460","0.0-1.0-400.0","0","0","59415","","null","","","null","44","","NaN","","","","","","","","","","","","","",""
"","response","","html-keyboard-response","295","314936","0.0-1.0-401.0-0.0","0","0","59415","","472","","","75","44","","","1","44","training","adjacent","DE","4","5","P.jpg","M.jpg","1","1","1","",""
"","feedback","","html-keyboard-response","296","315942","0.0-1.0-402.0-0.0","0","0","59415","","null","","","null","44","","","","","","","","","","","","","","","",""
"","ITI","","html-keyboard-response","297","316946","0.0-1.0-405.0","0","0","59415","","null","","","null","44","","","","","","","","","","","","","","","NaN",""
"","S1","","html-keyboard-response","298","317102","0.0-1.0-407.0","0","0","59415","","null","","","null","45","","","","","","","","","","","","","","","",""
"","ISI","","html-keyboard-response","299","319106","0.0-1.0-408.0","0","0","59415","","null","","","null","45","NaN","","","","","","","","","","","","","","",""
"","S2","","html-keyboard-response","300","319261","0.0-1.0-409.0","0","0","59415","","null","","","null","45","","NaN","","","","","","","","","","","","","",""
"","response","","html-keyboard-response","301","319377","0.0-1.0-410.0-0.0","0","0","59415","","111","","","68","45","","","1","45","training","adjacent","DE","4","5","P.jpg","M.jpg","0","1","0","",""
"","feedback","","html-keyboard-response","302","320382","0.0-1.0-411.0-0.0","0","0","59415","","null","","","null","45","","","","","","","","","","","","","","","",""
"","time_out","","html-keyboard-response","303","322388","0.0-1.0-413.0-0.0","0","0","59415","","null","","","null","45","","","","","","","","","","","","","","","",""
"","ITI","","html-keyboard-response","304","323393","0.0-1.0-414.0","0","0","59415","","null","","","null","45","","","","","","","","","","","","","","","NaN",""
"","S1","","html-keyboard-response","305","323548","0.0-1.0-416.0","0","0","59415","","null","","","null","46","","","","","","","","","","","","","","","",""
"","ISI","","html-keyboard-response","306","325553","0.0-1.0-417.0","0","0","59415","","18","","","75","46","k","","","","","","","","","","","","","","",""
"","S2","","html-keyboard-response","307","325708","0.0-1.0-418.0","0","0","59415","","null","","","null","46","","NaN","","","","","","","","","","","","","",""
"","response","","html-keyboard-response","308","325792","0.0-1.0-419.0-0.0","0","0","59415","","79","","","75","46","","","1","46","training","adjacent","CB","3","2","O.jpg","N.jpg","1","0","0","",""
"","feedback","","html-keyboard-response","309","326796","0.0-1.0-420.0-0.0","0","0","59415","","null","","","null","46","","","","","","","","","","","","","","","",""
"","time_out","","html-keyboard-response","310","328802","0.0-1.0-422.0-0.0","0","0","59415","","null","","","null","46","","","","","","","","","","","","","","","",""
"","ITI","","html-keyboard-response","311","329808","0.0-1.0-423.0","0","0","59415","","null","","","null","46","","","","","","","","","","","","","","","NaN",""
"","S1","","html-keyboard-response","312","329963","0.0-1.0-425.0","0","0","59415","","null","","","null","47","","","","","","","","","","","","","","","",""
"","ISI","","html-keyboard-response","313","331968","0.0-1.0-426.0","0","0","59415","","null","","","null","47","NaN","","","","","","","","","","","","","","",""
"","S2","","html-keyboard-response","314","332125","0.0-1.0-427.0","0","0","59415","","null","","","null","47","","NaN","","","","","","","","","","","","","",""
"","response","","html-keyboard-response","315","332709","0.0-1.0-428.0-0.0","0","0","59415","","578","","","68","47","","","1","47","training","adjacent","FE","6","5","Q.jpg","M.jpg","0","0","1","",""
"","feedback","","html-keyboard-response","316","333715","0.0-1.0-429.0-0.0","0","0","59415","","null","","","null","47","","","","","","","","","","","","","","","",""
"","ITI","","html-keyboard-response","317","334722","0.0-1.0-432.0","0","0","59415","","null","","","null","47","","","","","","","","","","","","","","","NaN",""
"","block_over","","html-keyboard-response","318","340816","0.0-1.0-433.0-0.0","0","0","59415","","6090","","","32","47","","","","","","","","","","","","","","","",""
"","S1","","html-keyboard-response","319","340971","0.0-1.0-434.0","0","0","59415","","null","","","null","48","","","","","","","","","","","","","","","",""
"","ISI","","html-keyboard-response","320","342976","0.0-1.0-435.0","0","0","59415","","null","","","null","48","NaN","","","","","","","","","","","","","","",""
"","S2","","html-keyboard-response","321","343132","0.0-1.0-436.0","0","0","59415","","null","","","null","48","","NaN","","","","","","","","","","","","","",""
"","response","","html-keyboard-response","322","343519","0.0-1.0-437.0-0.0","0","0","59415","","383","","","75","48","","","2","48","training","adjacent","BA","2","1","N.jpg","L.jpg","1","0","0","",""
"","feedback","","html-keyboard-response","323","344524","0.0-1.0-438.0-0.0","0","0","59415","","null","","","null","48","","","","","","","","","","","","","","","",""
"","time_out","","html-keyboard-response","324","346529","0.0-1.0-440.0-0.0","0","0","59415","","null","","","null","48","","","","","","","","","","","","","","","",""
"","ITI","","html-keyboard-response","325","347534","0.0-1.0-441.0","0","0","59415","","null","","","null","48","","","","","","","","","","","","","","","NaN",""
"","S1","","html-keyboard-response","326","347690","0.0-1.0-443.0","0","0","59415","","null","","","null","49","","","","","","","","","","","","","","","",""
"","ISI","","html-keyboard-response","327","349694","0.0-1.0-444.0","0","0","59415","","null","","","null","49","NaN","","","","","","","","","","","","","","",""
"","S2","","html-keyboard-response","328","349849","0.0-1.0-445.0","0","0","59415","","null","","","null","49","","NaN","","","","","","","","","","","","","",""
"","response","","html-keyboard-response","329","350249","0.0-1.0-446.0-0.0","0","0","59415","","395","","","68","49","","","2","49","training","adjacent","GF","7","6","R.jpg","Q.jpg","0","0","1","",""
"","feedback","","html-keyboard-response","330","351253","0.0-1.0-447.0-0.0","0","0","59415","","null","","","null","49","","","","","","","","","","","","","","","",""
"","ITI","","html-keyboard-response","331","352259","0.0-1.0-450.0","0","0","59415","","null","","","null","49","","","","","","","","","","","","","","","NaN",""
"","S1","","html-keyboard-response","332","352414","0.0-1.0-452.0","0","0","59415","","null","","","null","50","","","","","","","","","","","","","","","",""
"","ISI","","html-keyboard-response","333","354419","0.0-1.0-453.0","0","0","59415","","null","","","null","50","NaN","","","","","","","","","","","","","","",""
"","S2","","html-keyboard-response","334","354609","0.0-1.0-454.0","0","0","59415","","null","","","null","50","","NaN","","","","","","","","","","","","","",""
"","response","","html-keyboard-response","335","355171","0.0-1.0-455.0-0.0","0","0","59415","","558","","","75","50","","","2","50","training","adjacent","BC","2","3","N.jpg","O.jpg","1","1","1","",""
"","feedback","","html-keyboard-response","336","356176","0.0-1.0-456.0-0.0","0","0","59415","","null","","","null","50","","","","","","","","","","","","","","","",""
"","ITI","","html-keyboard-response","337","357185","0.0-1.0-459.0","0","0","59415","","null","","","null","50","","","","","","","","","","","","","","","NaN",""
"","S1","","html-keyboard-response","338","357342","0.0-1.0-461.0","0","0","59415","","null","","","null","51","","","","","","","","","","","","","","","",""
"","ISI","","html-keyboard-response","339","359348","0.0-1.0-462.0","0","0","59415","","null","","","null","51","NaN","","","","","","","","","","","","","","",""
"","S2","","html-keyboard-response","340","359503","0.0-1.0-463.0","0","0","59415","","null","","","null","51","","NaN","","","","","","","","","","","","","",""
"","response","","html-keyboard-response","341","359779","0.0-1.0-464.0-0.0","0","0","59415","","271","","","68","51","","","2","51","training","adjacent","DE","4","5","P.jpg","M.jpg","0","1","0","",""
"","feedback","","html-keyboard-response","342","360786","0.0-1.0-465.0-0.0","0","0","59415","","null","","","null","51","","","","","","","","","","","","","","","",""
"","time_out","","html-keyboard-response","343","362792","0.0-1.0-467.0-0.0","0","0","59415","","null","","","null","51","","","","","","","","","","","","","","","",""
"","ITI","","html-keyboard-response","344","363798","0.0-1.0-468.0","0","0","59415","","null","","","null","51","","","","","","","","","","","","","","","NaN",""
"","S1","","html-keyboard-response","345","363955","0.0-1.0-470.0","0","0","59415","","null","","","null","52","","","","","","","","","","","","","","","",""
"","ISI","","html-keyboard-response","346","365960","0.0-1.0-471.0","0","0","59415","","null","","","null","52","NaN","","","","","","","","","","","","","","",""
"","S2","","html-keyboard-response","347","366118","0.0-1.0-472.0","0","0","59415","","null","","","null","52","","NaN","","","","","","","","","","","","","",""
"","response","","html-keyboard-response","348","366807","0.0-1.0-473.0-0.0","0","0","59415","","685","","","75","52","","","2","52","training","adjacent","DE","4","5","P.jpg","M.jpg","1","1","1","",""
"","feedback","","html-keyboard-response","349","367812","0.0-1.0-474.0-0.0","0","0","59415","","null","","","null","52","","","","","","","","","","","","","","","",""
"","ITI","","html-keyboard-response","350","368816","0.0-1.0-477.0","0","0","59415","","null","","","null","52","","","","","","","","","","","","","","","NaN",""
"","S1","","html-keyboard-response","351","368972","0.0-1.0-479.0","0","0","59415","","null","","","null","53","","","","","","","","","","","","","","","",""
"","ISI","","html-keyboard-response","352","370976","0.0-1.0-480.0","0","0","59415","","null","","","null","53","NaN","","","","","","","","","","","","","","",""
"","S2","","html-keyboard-response","353","371131","0.0-1.0-481.0","0","0","59415","","null","","","null","53","","NaN","","","","","","","","","","","","","",""
"","response","","html-keyboard-response","354","371604","0.0-1.0-482.0-0.0","0","0","59415","","469","","","68","53","","","2","53","training","adjacent","ED","5","4","M.jpg","P.jpg","0","0","1","",""
"","feedback","","html-keyboard-response","355","372610","0.0-1.0-483.0-0.0","0","0","59415","","null","","","null","53","","","","","","","","","","","","","","","",""
"","ITI","","html-keyboard-response","356","373615","0.0-1.0-486.0","0","0","59415","","null","","","null","53","","","","","","","","","","","","","","","NaN",""
"","S1","","html-keyboard-response","357","373770","0.0-1.0-488.0","0","0","59415","","null","","","null","54","","","","","","","","","","","","","","","",""
"","ISI","","html-keyboard-response","358","375774","0.0-1.0-489.0","0","0","59415","","null","","","null","54","NaN","","","","","","","","","","","","","","",""
"","S2","","html-keyboard-response","359","375929","0.0-1.0-490.0","0","0","59415","","null","","","null","54","","NaN","","","","","","","","","","","","","",""
"","response","","html-keyboard-response","360","376490","0.0-1.0-491.0-0.0","0","0","59415","","557","","","75","54","","","2","54","training","adjacent","CD","3","4","O.jpg","P.jpg","1","1","1","",""
"","feedback","","html-keyboard-response","361","377496","0.0-1.0-492.0-0.0","0","0","59415","","null","","","null","54","","","","","","","","","","","","","","","",""
"","ITI","","html-keyboard-response","362","378500","0.0-1.0-495.0","0","0","59415","","null","","","null","54","","","","","","","","","","","","","","","NaN",""
"","S1","","html-keyboard-response","363","378655","0.0-1.0-497.0","0","0","59415","","null","","","null","55","","","","","","","","","","","","","","","",""
"","ISI","","html-keyboard-response","364","380659","0.0-1.0-498.0","0","0","59415","","null","","","null","55","NaN","","","","","","","","","","","","","","",""
"","S2","","html-keyboard-response","365","380815","0.0-1.0-499.0","0","0","59415","","null","","","null","55","","NaN","","","","","","","","","","","","","",""
"","response","","html-keyboard-response","366","381642","0.0-1.0-500.0-0.0","0","0","59415","","822","","","68","55","","","2","55","training","adjacent","EF","5","6","M.jpg","Q.jpg","0","1","0","",""
"","feedback","","html-keyboard-response","367","382652","0.0-1.0-501.0-0.0","0","0","59415","","null","","","null","55","","","","","","","","","","","","","","","",""
"","time_out","","html-keyboard-response","368","384659","0.0-1.0-503.0-0.0","0","0","59415","","null","","","null","55","","","","","","","","","","","","","","","",""
"","ITI","","html-keyboard-response","369","385664","0.0-1.0-504.0","0","0","59415","","null","","","null","55","","","","","","","","","","","","","","","NaN",""
"","S1","","html-keyboard-response","370","385820","0.0-1.0-506.0","0","0","59415","","null","","","null","56","","","","","","","","","","","","","","","",""
"","ISI","","html-keyboard-response","371","387825","0.0-1.0-507.0","0","0","59415","","null","","","null","56","NaN","","","","","","","","","","","","","","",""
"","S2","","html-keyboard-response","372","387980","0.0-1.0-508.0","0","0","59415","","null","","","null","56","","NaN","","","","","","","","","","","","","",""
"","response","","html-keyboard-response","373","388581","0.0-1.0-509.0-0.0","0","0","59415","","597","","","75","56","","","2","56","training","adjacent","BA","2","1","N.jpg","L.jpg","1","0","0","",""
"","feedback","","html-keyboard-response","374","389587","0.0-1.0-510.0-0.0","0","0","59415","","null","","","null","56","","","","","","","","","","","","","","","",""
"","time_out","","html-keyboard-response","375","391593","0.0-1.0-512.0-0.0","0","0","59415","","null","","","null","56","","","","","","","","","","","","","","","",""
"","ITI","","html-keyboard-response","376","392598","0.0-1.0-513.0","0","0","59415","","null","","","null","56","","","","","","","","","","","","","","","NaN",""
"","S1","","html-keyboard-response","377","392754","0.0-1.0-515.0","0","0","59415","","null","","","null","57","","","","","","","","","","","","","","","",""
"","ISI","","html-keyboard-response","378","394758","0.0-1.0-516.0","0","0","59415","","null","","","null","57","NaN","","","","","","","","","","","","","","",""
"","S2","","html-keyboard-response","379","394913","0.0-1.0-517.0","0","0","59415","","null","","","null","57","","NaN","","","","","","","","","","","","","",""
"","response","","html-keyboard-response","380","395411","0.0-1.0-518.0-0.0","0","0","59415","","494","","","68","57","","","2","57","training","adjacent","ED","5","4","M.jpg","P.jpg","0","0","1","",""
"","feedback","","html-keyboard-response","381","396417","0.0-1.0-519.0-0.0","0","0","59415","","null","","","null","57","","","","","","","","","","","","","","","",""
"","ITI","","html-keyboard-response","382","397422","0.0-1.0-522.0","0","0","59415","","null","","","null","57","","","","","","","","","","","","","","","NaN",""
"","S1","","html-keyboard-response","383","397577","0.0-1.0-524.0","0","0","59415","","null","","","null","58","","","","","","","","","","","","","","","",""
"","ISI","","html-keyboard-response","384","399582","0.0-1.0-525.0","0","0","59415","","null","","","null","58","NaN","","","","","","","","","","","","","","",""
"","S2","","html-keyboard-response","385","399739","0.0-1.0-526.0","0","0","59415","","null","","","null","58","","NaN","","","","","","","","","","","","","",""
"","response","","html-keyboard-response","386","400690","0.0-1.0-527.0-0.0","0","0","59415","","943","","","68","58","","","2","58","training","adjacent","FE","6","5","Q.jpg","M.jpg","0","0","1","",""
"","feedback","","html-keyboard-response","387","401703","0.0-1.0-528.0-0.0","0","0","59415","","null","","","null","58","","","","","","","","","","","","","","","",""
"","ITI","","html-keyboard-response","388","402715","0.0-1.0-531.0","0","0","59415","","null","","","null","58","","","","","","","","","","","","","","","NaN",""
"","S1","","html-keyboard-response","389","402875","0.0-1.0-533.0","0","0","59415","","null","","","null","59","","","","","","","","","","","","","","","",""
"","ISI","","html-keyboard-response","390","404890","0.0-1.0-534.0","0","0","59415","","null","","","null","59","NaN","","","","","","","","","","","","","","",""
"","S2","","html-keyboard-response","391","405055","0.0-1.0-535.0","0","0","59415","","null","","","null","59","","NaN","","","","","","","","","","","","","",""
"","response","","html-keyboard-response","392","405238","0.0-1.0-536.0-0.0","0","0","59415","","178","","","75","59","","","2","59","training","adjacent","CD","3","4","O.jpg","P.jpg","1","1","1","",""
"","feedback","","html-keyboard-response","393","406255","0.0-1.0-537.0-0.0","0","0","59415","","null","","","null","59","","","","","","","","","","","","","","","",""
"","ITI","","html-keyboard-response","394","407264","0.0-1.0-540.0","0","0","59415","","null","","","null","59","","","","","","","","","","","","","","","NaN",""
"","S1","","html-keyboard-response","395","407424","0.0-1.0-542.0","0","0","59415","","null","","","null","60","","","","","","","","","","","","","","","",""
"","ISI","","html-keyboard-response","396","409435","0.0-1.0-543.0","0","0","59415","","null","","","null","60","NaN","","","","","","","","","","","","","","",""
"","S2","","html-keyboard-response","397","409595","0.0-1.0-544.0","0","0","59415","","null","","","null","60","","NaN","","","","","","","","","","","","","",""
"","response","","html-keyboard-response","398","409657","0.0-1.0-545.0-0.0","0","0","59415","","56","","","68","60","","","2","60","training","adjacent","DC","4","3","P.jpg","O.jpg","0","0","1","",""
"","feedback","","html-keyboard-response","399","410675","0.0-1.0-546.0-0.0","0","0","59415","","null","","","null","60","","","","","","","","","","","","","","","",""
"","ITI","","html-keyboard-response","400","411690","0.0-1.0-549.0","0","0","59415","","null","","","null","60","","","","","","","","","","","","","","","NaN",""
"","S1","","html-keyboard-response","401","411854","0.0-1.0-551.0","0","0","59415","","null","","","null","61","","","","","","","","","","","","","","","",""
"","ISI","","html-keyboard-response","402","413864","0.0-1.0-552.0","0","0","59415","","null","","","null","61","NaN","","","","","","","","","","","","","","",""
"","S2","","html-keyboard-response","403","414025","0.0-1.0-553.0","0","0","59415","","null","","","null","61","","NaN","","","","","","","","","","","","","",""
"","response","","html-keyboard-response","404","414286","0.0-1.0-554.0-0.0","0","0","59415","","255","","","75","61","","","2","61","training","adjacent","DE","4","5","P.jpg","M.jpg","1","1","1","",""
"","feedback","","html-keyboard-response","405","415295","0.0-1.0-555.0-0.0","0","0","59415","","null","","","null","61","","","","","","","","","","","","","","","",""
"","ITI","","html-keyboard-response","406","416305","0.0-1.0-558.0","0","0","59415","","null","","","null","61","","","","","","","","","","","","","","","NaN",""
"","S1","","html-keyboard-response","407","416465","0.0-1.0-560.0","0","0","59415","","null","","","null","62","","","","","","","","","","","","","","","",""
"","ISI","","html-keyboard-response","408","418475","0.0-1.0-561.0","0","0","59415","","323","","","68","62","d","","","","","","","","","","","","","","",""
"","S2","","html-keyboard-response","409","418635","0.0-1.0-562.0","0","0","59415","","null","","","null","62","","NaN","","","","","","","","","","","","","",""
"","response","","html-keyboard-response","410","420491","0.0-1.0-563.0-0.0","0","0","59415","","null","","","null","62","","","2","62","training","adjacent","GF","7","6","R.jpg","Q.jpg","NaN","0","0","",""
"","too_slow_prompt","","html-keyboard-response","411","421501","0.0-1.0-565.0-0.0","1","0","59415","","null","","","null","","","","","","","","","","","","","","","","",""
"","time_out","","html-keyboard-response","412","423513","0.0-1.0-566.0-0.0","0","0","59415","","null","","","null","62","","","","","","","","","","","","","","","",""
"","ITI","","html-keyboard-response","413","424521","0.0-1.0-567.0","0","0","59415","","328","","","75","62","","","","","","","","","","","","","","","k",""
"","S1","","html-keyboard-response","414","424681","0.0-1.0-569.0","0","0","59415","","null","","","null","63","","","","","","","","","","","","","","","",""
"","ISI","","html-keyboard-response","415","426691","0.0-1.0-570.0","0","0","59415","","null","","","null","63","NaN","","","","","","","","","","","","","","",""
"","S2","","html-keyboard-response","416","426851","0.0-1.0-571.0","0","0","59415","","null","","","null","63","","NaN","","","","","","","","","","","","","",""
"","response","","html-keyboard-response","417","426976","0.0-1.0-572.0-0.0","0","0","59415","","118","","","75","63","","","2","63","training","adjacent","FE","6","5","Q.jpg","M.jpg","1","0","0","",""
"","feedback","","html-keyboard-response","418","427991","0.0-1.0-573.0-0.0","0","0","59415","","null","","","null","63","","","","","","","","","","","","","","","",""
"","time_out","","html-keyboard-response","419","430001","0.0-1.0-575.0-0.0","0","0","59415","","null","","","null","63","","","","","","","","","","","","","","","",""
"","ITI","","html-keyboard-response","420","431011","0.0-1.0-576.0","0","0","59415","","null","","","null","63","","","","","","","","","","","","","","","NaN",""
"","S1","","html-keyboard-response","421","431171","0.0-1.0-578.0","0","0","59415","","null","","","null","64","","","","","","","","","","","","","","","",""
"","ISI","","html-keyboard-response","422","433181","0.0-1.0-579.0","0","0","59415","","285","","","68","64","d","","","","","","","","","","","","","","",""
"","S2","","html-keyboard-response","423","433341","0.0-1.0-580.0","0","0","59415","","null","","","null","64","","NaN","","","","","","","","","","","","","",""
"","response","","html-keyboard-response","424","433617","0.0-1.0-581.0-0.0","0","0","59415","","270","","","68","64","","","2","64","training","adjacent","BA","2","1","N.jpg","L.jpg","0","0","1","",""
"","feedback","","html-keyboard-response","425","434638","0.0-1.0-582.0-0.0","0","0","59415","","null","","","null","64","","","","","","","","","","","","","","","",""
"","ITI","","html-keyboard-response","426","435651","0.0-1.0-585.0","0","0","59415","","null","","","null","64","","","","","","","","","","","","","","","NaN",""
"","S1","","html-keyboard-response","427","435811","0.0-1.0-587.0","0","0","59415","","null","","","null","65","","","","","","","","","","","","","","","",""
"","ISI","","html-keyboard-response","428","437821","0.0-1.0-588.0","0","0","59415","","null","","","null","65","NaN","","","","","","","","","","","","","","",""
"","S2","","html-keyboard-response","429","437981","0.0-1.0-589.0","0","0","59415","","null","","","null","65","","NaN","","","","","","","","","","","","","",""
"","response","","html-keyboard-response","430","438657","0.0-1.0-590.0-0.0","0","0","59415","","671","","","75","65","","","2","65","training","adjacent","AB","1","2","L.jpg","N.jpg","1","1","1","",""
"","feedback","","html-keyboard-response","431","439670","0.0-1.0-591.0-0.0","0","0","59415","","null","","","null","65","","","","","","","","","","","","","","","",""
"","ITI","","html-keyboard-response","432","440681","0.0-1.0-594.0","0","0","59415","","null","","","null","65","","","","","","","","","","","","","","","NaN",""
"","S1","","html-keyboard-response","433","440841","0.0-1.0-596.0","0","0","59415","","null","","","null","66","","","","","","","","","","","","","","","",""
"","ISI","","html-keyboard-response","434","442850","0.0-1.0-597.0","0","0","59415","","null","","","null","66","NaN","","","","","","","","","","","","","","",""
"","S2","","html-keyboard-response","435","443011","0.0-1.0-598.0","0","0","59415","","null","","","null","66","","NaN","","","","","","","","","","","","","",""
"","response","","html-keyboard-response","436","443855","0.0-1.0-599.0-0.0","0","0","59415","","838","","","68","66","","","2","66","training","adjacent","AB","1","2","L.jpg","N.jpg","0","1","0","",""
"","feedback","","html-keyboard-response","437","444871","0.0-1.0-600.0-0.0","0","0","59415","","null","","","null","66","","","","","","","","","","","","","","","",""
"","time_out","","html-keyboard-response","438","446880","0.0-1.0-602.0-0.0","0","0","59415","","null","","","null","66","","","","","","","","","","","","","","","",""
"","ITI","","html-keyboard-response","439","447891","0.0-1.0-603.0","0","0","59415","","null","","","null","66","","","","","","","","","","","","","","","NaN",""
"","S1","","html-keyboard-response","440","448050","0.0-1.0-605.0","0","0","59415","","null","","","null","67","","","","","","","","","","","","","","","",""
"","ISI","","html-keyboard-response","441","450062","0.0-1.0-606.0","0","0","59415","","null","","","null","67","NaN","","","","","","","","","","","","","","",""
"","S2","","html-keyboard-response","442","450221","0.0-1.0-607.0","0","0","59415","","null","","","null","67","","NaN","","","","","","","","","","","","","",""
"","response","","html-keyboard-response","443","450392","0.0-1.0-608.0-0.0","0","0","59415","","163","","","75","67","","","2","67","training","adjacent","FG","6","7","Q.jpg","R.jpg","1","1","1","",""
"","feedback","","html-keyboard-response","444","451401","0.0-1.0-609.0-0.0","0","0","59415","","null","","","null","67","","","","","","","","","","","","","","","",""
"","ITI","","html-keyboard-response","445","452411","0.0-1.0-612.0","0","0","59415","","null","","","null","67","","","","","","","","","","","","","","","NaN",""
"","S1","","html-keyboard-response","446","452571","0.0-1.0-614.0","0","0","59415","","null","","","null","68","","","","","","","","","","","","","","","",""
"","ISI","","html-keyboard-response","447","454581","0.0-1.0-615.0","0","0","59415","","null","","","null","68","NaN","","","","","","","","","","","","","","",""
"","S2","","html-keyboard-response","448","454751","0.0-1.0-616.0","0","0","59415","","null","","","null","68","","NaN","","","","","","","","","","","","","",""
"","response","","html-keyboard-response","449","455436","0.0-1.0-617.0-0.0","0","0","59415","","678","","","68","68","","","2","68","training","adjacent","ED","5","4","M.jpg","P.jpg","0","0","1","",""
"","feedback","","html-keyboard-response","450","456451","0.0-1.0-618.0-0.0","0","0","59415","","null","","","null","68","","","","","","","","","","","","","","","",""
"","ITI","","html-keyboard-response","451","457468","0.0-1.0-621.0","0","0","59415","","null","","","null","68","","","","","","","","","","","","","","","NaN",""
"","S1","","html-keyboard-response","452","457641","0.0-1.0-623.0","0","0","59415","","null","","","null","69","","","","","","","","","","","","","","","",""
"","ISI","","html-keyboard-response","453","459651","0.0-1.0-624.0","0","0","59415","","null","","","null","69","NaN","","","","","","","","","","","","","","",""
"","S2","","html-keyboard-response","454","459811","0.0-1.0-625.0","0","0","59415","","null","","","null","69","","NaN","","","","","","","","","","","","","",""
"","response","","html-keyboard-response","455","460235","0.0-1.0-626.0-0.0","0","0","59415","","418","","","75","69","","","2","69","training","adjacent","CD","3","4","O.jpg","P.jpg","1","1","1","",""
"","feedback","","html-keyboard-response","456","461251","0.0-1.0-627.0-0.0","0","0","59415","","null","","","null","69","","","","","","","","","","","","","","","",""
"","ITI","","html-keyboard-response","457","462261","0.0-1.0-630.0","0","0","59415","","null","","","null","69","","","","","","","","","","","","","","","NaN",""
"","S1","","html-keyboard-response","458","462421","0.0-1.0-632.0","0","0","59415","","null","","","null","70","","","","","","","","","","","","","","","",""
"","ISI","","html-keyboard-response","459","464431","0.0-1.0-633.0","0","0","59415","","1950","","","68","70","d","","","","","","","","","","","","","","",""
"","S2","","html-keyboard-response","460","464591","0.0-1.0-634.0","0","0","59415","","null","","","null","70","","NaN","","","","","","","","","","","","","",""
"","response","","html-keyboard-response","461","465042","0.0-1.0-635.0-0.0","0","0","59415","","445","","","68","70","","","2","70","training","adjacent","BA","2","1","N.jpg","L.jpg","0","0","1","",""
"","feedback","","html-keyboard-response","462","466051","0.0-1.0-636.0-0.0","0","0","59415","","null","","","null","70","","","","","","","","","","","","","","","",""
"","ITI","","html-keyboard-response","463","467071","0.0-1.0-639.0","0","0","59415","","null","","","null","70","","","","","","","","","","","","","","","NaN",""
"","S1","","html-keyboard-response","464","467231","0.0-1.0-641.0","0","0","59415","","null","","","null","71","","","","","","","","","","","","","","","",""
"","ISI","","html-keyboard-response","465","469241","0.0-1.0-642.0","0","0","59415","","null","","","null","71","NaN","","","","","","","","","","","","","","",""
"","S2","","html-keyboard-response","466","469401","0.0-1.0-643.0","0","0","59415","","null","","","null","71","","NaN","","","","","","","","","","","","","",""
"","response","","html-keyboard-response","467","469773","0.0-1.0-644.0-0.0","0","0","59415","","367","","","75","71","","","2","71","training","adjacent","FG","6","7","Q.jpg","R.jpg","1","1","1","",""
"","feedback","","html-keyboard-response","468","470781","0.0-1.0-645.0-0.0","0","0","59415","","null","","","null","71","","","","","","","","","","","","","","","",""
"","ITI","","html-keyboard-response","469","471790","0.0-1.0-648.0","0","0","59415","","null","","","null","71","","","","","","","","","","","","","","","NaN",""
"","S1","","html-keyboard-response","470","471951","0.0-1.0-650.0","0","0","59415","","null","","","null","72","","","","","","","","","","","","","","","",""
"","ISI","","html-keyboard-response","471","473960","0.0-1.0-651.0","0","0","59415","","null","","","null","72","NaN","","","","","","","","","","","","","","",""
"","S2","","html-keyboard-response","472","474131","0.0-1.0-652.0","0","0","59415","","null","","","null","72","","NaN","","","","","","","","","","","","","",""
"","response","","html-keyboard-response","473","474666","0.0-1.0-653.0-0.0","0","0","59415","","530","","","68","72","","","2","72","training","adjacent","BC","2","3","N.jpg","O.jpg","0","1","0","",""
"","feedback","","html-keyboard-response","474","475681","0.0-1.0-654.0-0.0","0","0","59415","","null","","","null","72","","","","","","","","","","","","","","","",""
"","time_out","","html-keyboard-response","475","477690","0.0-1.0-656.0-0.0","0","0","59415","","null","","","null","72","","","","","","","","","","","","","","","",""
"","ITI","","html-keyboard-response","476","478701","0.0-1.0-657.0","0","0","59415","","null","","","null","72","","","","","","","","","","","","","","","NaN",""
"","S1","","html-keyboard-response","477","478861","0.0-1.0-659.0","0","0","59415","","null","","","null","73","","","","","","","","","","","","","","","",""
"","ISI","","html-keyboard-response","478","480874","0.0-1.0-660.0","0","0","59415","","214","","","75","73","k","","","","","","","","","","","","","","",""
"","S2","","html-keyboard-response","479","480983","0.0-1.0-661.0","0","0","59415","","102","","","68","73","","d","2","73","training","adjacent","DE","4","5","P.jpg","M.jpg","0","1","0","",""
"","feedback","","html-keyboard-response","480","481994","0.0-1.0-663.0-0.0","0","0","59415","","null","","","null","73","","","","","","","","","","","","","","","",""
"","time_out","","html-keyboard-response","481","484004","0.0-1.0-665.0-0.0","0","0","59415","","null","","","null","73","","","","","","","","","","","","","","","",""
"","ITI","","html-keyboard-response","482","485014","0.0-1.0-666.0","0","0","59415","","null","","","null","73","","","","","","","","","","","","","","","NaN",""
"","S1","","html-keyboard-response","483","485175","0.0-1.0-668.0","0","0","59415","","null","","","null","74","","","","","","","","","","","","","","","",""
"","ISI","","html-keyboard-response","484","487184","0.0-1.0-669.0","0","0","59415","","172","","","75","74","k","","","","","","","","","","","","","","",""
"","S2","","html-keyboard-response","485","487344","0.0-1.0-670.0","0","0","59415","","null","","","null","74","","NaN","","","","","","","","","","","","","",""
"","response","","html-keyboard-response","486","487468","0.0-1.0-671.0-0.0","0","0","59415","","119","","","75","74","","","2","74","training","adjacent","EF","5","6","M.jpg","Q.jpg","1","1","1","",""
"","feedback","","html-keyboard-response","487","488484","0.0-1.0-672.0-0.0","0","0","59415","","null","","","null","74","","","","","","","","","","","","","","","",""
"","ITI","","html-keyboard-response","488","489494","0.0-1.0-675.0","0","0","59415","","null","","","null","74","","","","","","","","","","","","","","","NaN",""
"","S1","","html-keyboard-response","489","489654","0.0-1.0-677.0","0","0","59415","","null","","","null","75","","","","","","","","","","","","","","","",""
"","ISI","","html-keyboard-response","490","491664","0.0-1.0-678.0","0","0","59415","","null","","","null","75","NaN","","","","","","","","","","","","","","",""
"","S2","","html-keyboard-response","491","491824","0.0-1.0-679.0","0","0","59415","","null","","","null","75","","NaN","","","","","","","","","","","","","",""
"","response","","html-keyboard-response","492","491952","0.0-1.0-680.0-0.0","0","0","59415","","121","","","68","75","","","2","75","training","adjacent","DC","4","3","P.jpg","O.jpg","0","0","1","",""
"","feedback","","html-keyboard-response","493","492964","0.0-1.0-681.0-0.0","0","0","59415","","null","","","null","75","","","","","","","","","","","","","","","",""
"","ITI","","html-keyboard-response","494","493975","0.0-1.0-684.0","0","0","59415","","null","","","null","75","","","","","","","","","","","","","","","NaN",""
"","S1","","html-keyboard-response","495","494134","0.0-1.0-686.0","0","0","59415","","null","","","null","76","","","","","","","","","","","","","","","",""
"","ISI","","html-keyboard-response","496","496144","0.0-1.0-687.0","0","0","59415","","null","","","null","76","NaN","","","","","","","","","","","","","","",""
"","S2","","html-keyboard-response","497","496304","0.0-1.0-688.0","0","0","59415","","null","","","null","76","","NaN","","","","","","","","","","","","","",""
"","response","","html-keyboard-response","498","496580","0.0-1.0-689.0-0.0","0","0","59415","","271","","","75","76","","","2","76","training","adjacent","GF","7","6","R.jpg","Q.jpg","1","0","0","",""
"","feedback","","html-keyboard-response","499","497594","0.0-1.0-690.0-0.0","0","0","59415","","null","","","null","76","","","","","","","","","","","","","","","",""
"","time_out","","html-keyboard-response","500","499605","0.0-1.0-692.0-0.0","0","0","59415","","null","","","null","76","","","","","","","","","","","","","","","",""
"","ITI","","html-keyboard-response","501","500615","0.0-1.0-693.0","0","0","59415","","null","","","null","76","","","","","","","","","","","","","","","NaN",""
"","S1","","html-keyboard-response","502","500774","0.0-1.0-695.0","0","0","59415","","null","","","null","77","","","","","","","","","","","","","","","",""
"","ISI","","html-keyboard-response","503","502784","0.0-1.0-696.0","0","0","59415","","211","","","68","77","d","","","","","","","","","","","","","","",""
"","S2","","html-keyboard-response","504","502944","0.0-1.0-697.0","0","0","59415","","null","","","null","77","","NaN","","","","","","","","","","","","","",""
"","response","","html-keyboard-response","505","503002","0.0-1.0-698.0-0.0","0","0","59415","","51","","","68","77","","","2","77","training","adjacent","FG","6","7","Q.jpg","R.jpg","0","1","0","",""
"","feedback","","html-keyboard-response","506","504014","0.0-1.0-699.0-0.0","0","0","59415","","null","","","null","77","","","","","","","","","","","","","","","",""
"","time_out","","html-keyboard-response","507","506025","0.0-1.0-701.0-0.0","0","0","59415","","null","","","null","77","","","","","","","","","","","","","","","",""
"","ITI","","html-keyboard-response","508","507035","0.0-1.0-702.0","0","0","59415","","null","","","null","77","","","","","","","","","","","","","","","NaN",""
"","S1","","html-keyboard-response","509","507194","0.0-1.0-704.0","0","0","59415","","null","","","null","78","","","","","","","","","","","","","","","",""
"","ISI","","html-keyboard-response","510","509204","0.0-1.0-705.0","0","0","59415","","370","","","75","78","k","","","","","","","","","","","","","","",""
"","S2","","html-keyboard-response","511","509364","0.0-1.0-706.0","0","0","59415","","null","","","null","78","","NaN","","","","","","","","","","","","","",""
"","response","","html-keyboard-response","512","510297","0.0-1.0-707.0-0.0","0","0","59415","","926","","","75","78","","","2","78","training","adjacent","CD","3","4","O.jpg","P.jpg","1","1","1","",""
"","feedback","","html-keyboard-response","513","511303","0.0-1.0-708.0-0.0","0","0","59415","","null","","","null","78","","","","","","","","","","","","","","","",""
"","ITI","","html-keyboard-response","514","512310","0.0-1.0-711.0","0","0","59415","","null","","","null","78","","","","","","","","","","","","","","","NaN",""
"","S1","","html-keyboard-response","515","512471","0.0-1.0-713.0","0","0","59415","","null","","","null","79","","","","","","","","","","","","","","","",""
"","ISI","","html-keyboard-response","516","514486","0.0-1.0-714.0","0","0","59415","","1709","","","68","79","d","","","","","","","","","","","","","","",""
"","S2","","html-keyboard-response","517","514645","0.0-1.0-715.0","0","0","59415","","null","","","null","79","","NaN","","","","","","","","","","","","","",""
"","response","","html-keyboard-response","518","515180","0.0-1.0-716.0-0.0","0","0","59415","","528","","","68","79","","","2","79","training","adjacent","AB","1","2","L.jpg","N.jpg","0","1","0","",""
"","feedback","","html-keyboard-response","519","516189","0.0-1.0-717.0-0.0","0","0","59415","","null","","","null","79","","","","","","","","","","","","","","","",""
"","time_out","","html-keyboard-response","520","518204","0.0-1.0-719.0-0.0","0","0","59415","","null","","","null","79","","","","","","","","","","","","","","","",""
"","ITI","","html-keyboard-response","521","519214","0.0-1.0-720.0","0","0","59415","","null","","","null","79","","","","","","","","","","","","","","","NaN",""
"","S1","","html-keyboard-response","522","519374","0.0-1.0-722.0","0","0","59415","","null","","","null","80","","","","","","","","","","","","","","","",""
"","ISI","","html-keyboard-response","523","521384","0.0-1.0-723.0","0","0","59415","","null","","","null","80","NaN","","","","","","","","","","","","","","",""
"","S2","","html-keyboard-response","524","521544","0.0-1.0-724.0","0","0","59415","","null","","","null","80","","NaN","","","","","","","","","","","","","",""
"","response","","html-keyboard-response","525","522111","0.0-1.0-725.0-0.0","0","0","59415","","561","","","75","80","","","2","80","training","adjacent","CB","3","2","O.jpg","N.jpg","1","0","0","",""
"","feedback","","html-keyboard-response","526","523125","0.0-1.0-726.0-0.0","0","0","59415","","null","","","null","80","","","","","","","","","","","","","","","",""
"","time_out","","html-keyboard-response","527","525134","0.0-1.0-728.0-0.0","0","0","59415","","null","","","null","80","","","","","","","","","","","","","","","",""
"","ITI","","html-keyboard-response","528","526145","0.0-1.0-729.0","0","0","59415","","null","","","null","80","","","","","","","","","","","","","","","NaN",""
"","S1","","html-keyboard-response","529","526304","0.0-1.0-731.0","0","0","59415","","null","","","null","81","","","","","","","","","","","","","","","",""
"","ISI","","html-keyboard-response","530","528314","0.0-1.0-732.0","0","0","59415","","null","","","null","81","NaN","","","","","","","","","","","","","","",""
"","S2","","html-keyboard-response","531","528474","0.0-1.0-733.0","0","0","59415","","null","","","null","81","","NaN","","","","","","","","","","","","","",""
"","response","","html-keyboard-response","532","528874","0.0-1.0-734.0-0.0","0","0","59415","","395","","","75","81","","","2","81","training","adjacent","FE","6","5","Q.jpg","M.jpg","1","0","0","",""
"","feedback","","html-keyboard-response","533","529894","0.0-1.0-735.0-0.0","0","0","59415","","null","","","null","81","","","","","","","","","","","","","","","",""
"","time_out","","html-keyboard-response","534","531904","0.0-1.0-737.0-0.0","0","0","59415","","null","","","null","81","","","","","","","","","","","","","","","",""
"","ITI","","html-keyboard-response","535","532914","0.0-1.0-738.0","0","0","59415","","null","","","null","81","","","","","","","","","","","","","","","NaN",""
"","S1","","html-keyboard-response","536","533074","0.0-1.0-740.0","0","0","59415","","null","","","null","82","","","","","","","","","","","","","","","",""
"","ISI","","html-keyboard-response","537","535085","0.0-1.0-741.0","0","0","59415","","null","","","null","82","NaN","","","","","","","","","","","","","","",""
"","S2","","html-keyboard-response","538","535249","0.0-1.0-742.0","0","0","59415","","null","","","null","82","","NaN","","","","","","","","","","","","","",""
"","response","","html-keyboard-response","539","535553","0.0-1.0-743.0-0.0","0","0","59415","","298","","","68","82","","","2","82","training","adjacent","CB","3","2","O.jpg","N.jpg","0","0","1","",""
"","feedback","","html-keyboard-response","540","536574","0.0-1.0-744.0-0.0","0","0","59415","","null","","","null","82","","","","","","","","","","","","","","","",""
"","ITI","","html-keyboard-response","541","537584","0.0-1.0-747.0","0","0","59415","","null","","","null","82","","","","","","","","","","","","","","","NaN",""
"","S1","","html-keyboard-response","542","537749","0.0-1.0-749.0","0","0","59415","","null","","","null","83","","","","","","","","","","","","","","","",""
"","ISI","","html-keyboard-response","543","539764","0.0-1.0-750.0","0","0","59415","","914","","","68","83","d","","","","","","","","","","","","","","",""
"","S2","","html-keyboard-response","544","539925","0.0-1.0-751.0","0","0","59415","","null","","","null","83","","NaN","","","","","","","","","","","","","",""
"","response","","html-keyboard-response","545","541786","0.0-1.0-752.0-0.0","0","0","59415","","null","","","null","83","","","2","83","training","adjacent","DC","4","3","P.jpg","O.jpg","NaN","0","0","",""
"","too_slow_prompt","","html-keyboard-response","546","542794","0.0-1.0-754.0-0.0","1","0","59415","","null","","","null","","","","","","","","","","","","","","","","",""
"","time_out","","html-keyboard-response","547","544805","0.0-1.0-755.0-0.0","0","0","59415","","null","","","null","83","","","","","","","","","","","","","","","",""
"","ITI","","html-keyboard-response","548","545815","0.0-1.0-756.0","0","0","59415","","null","","","null","83","","","","","","","","","","","","","","","NaN",""
"","S1","","html-keyboard-response","549","545975","0.0-1.0-758.0","0","0","59415","","null","","","null","84","","","","","","","","","","","","","","","",""
"","ISI","","html-keyboard-response","550","547984","0.0-1.0-759.0","0","0","59415","","482","","","68","84","d","","","","","","","","","","","","","","",""
"","S2","","html-keyboard-response","551","548145","0.0-1.0-760.0","0","0","59415","","null","","","null","84","","NaN","","","","","","","","","","","","","",""
"","response","","html-keyboard-response","552","548203","0.0-1.0-761.0-0.0","0","0","59415","","53","","","68","84","","","2","84","training","adjacent","BC","2","3","N.jpg","O.jpg","0","1","0","",""
"","feedback","","html-keyboard-response","553","549214","0.0-1.0-762.0-0.0","0","0","59415","","null","","","null","84","","","","","","","","","","","","","","","",""
"","time_out","","html-keyboard-response","554","551224","0.0-1.0-764.0-0.0","0","0","59415","","null","","","null","84","","","","","","","","","","","","","","","",""
"","ITI","","html-keyboard-response","555","552234","0.0-1.0-765.0","0","0","59415","","null","","","null","84","","","","","","","","","","","","","","","NaN",""
"","S1","","html-keyboard-response","556","552395","0.0-1.0-767.0","0","0","59415","","null","","","null","85","","","","","","","","","","","","","","","",""
"","ISI","","html-keyboard-response","557","554404","0.0-1.0-768.0","0","0","59415","","103","","","68","85","d","","","","","","","","","","","","","","",""
"","S2","","html-keyboard-response","558","554565","0.0-1.0-769.0","0","0","59415","","null","","","null","85","","NaN","","","","","","","","","","","","","",""
"","response","","html-keyboard-response","559","554716","0.0-1.0-770.0-0.0","0","0","59415","","145","","","75","85","","","2","85","training","adjacent","ED","5","4","M.jpg","P.jpg","1","0","0","",""
"","feedback","","html-keyboard-response","560","555724","0.0-1.0-771.0-0.0","0","0","59415","","null","","","null","85","","","","","","","","","","","","","","","",""
"","time_out","","html-keyboard-response","561","557735","0.0-1.0-773.0-0.0","0","0","59415","","null","","","null","85","","","","","","","","","","","","","","","",""
"","ITI","","html-keyboard-response","562","558745","0.0-1.0-774.0","0","0","59415","","null","","","null","85","","","","","","","","","","","","","","","NaN",""
"","S1","","html-keyboard-response","563","558906","0.0-1.0-776.0","0","0","59415","","null","","","null","86","","","","","","","","","","","","","","","",""
"","ISI","","html-keyboard-response","564","560915","0.0-1.0-777.0","0","0","59415","","null","","","null","86","NaN","","","","","","","","","","","","","","",""
"","S2","","html-keyboard-response","565","561075","0.0-1.0-778.0","0","0","59415","","null","","","null","86","","NaN","","","","","","","","","","","","","",""
"","response","","html-keyboard-response","566","561185","0.0-1.0-779.0-0.0","0","0","59415","","105","","","68","86","","","2","86","training","adjacent","CB","3","2","O.jpg","N.jpg","0","0","1","",""
"","feedback","","html-keyboard-response","567","562195","0.0-1.0-780.0-0.0","0","0","59415","","null","","","null","86","","","","","","","","","","","","","","","",""
"","ITI","","html-keyboard-response","568","563205","0.0-1.0-783.0","0","0","59415","","null","","","null","86","","","","","","","","","","","","","","","NaN",""
"","S1","","html-keyboard-response","569","563365","0.0-1.0-785.0","0","0","59415","","null","","","null","87","","","","","","","","","","","","","","","",""
"","ISI","","html-keyboard-response","570","565375","0.0-1.0-786.0","0","0","59415","","null","","","null","87","NaN","","","","","","","","","","","","","","",""
"","S2","","html-keyboard-response","571","565534","0.0-1.0-787.0","0","0","59415","","null","","","null","87","","NaN","","","","","","","","","","","","","",""
"","response","","html-keyboard-response","572","565962","0.0-1.0-788.0-0.0","0","0","59415","","422","","","75","87","","","2","87","training","adjacent","AB","1","2","L.jpg","N.jpg","1","1","1","",""
"","feedback","","html-keyboard-response","573","566969","0.0-1.0-789.0-0.0","0","0","59415","","null","","","null","87","","","","","","","","","","","","","","","",""
"","ITI","","html-keyboard-response","574","567985","0.0-1.0-792.0","0","0","59415","","null","","","null","87","","","","","","","","","","","","","","","NaN",""
"","S1","","html-keyboard-response","575","568145","0.0-1.0-794.0","0","0","59415","","null","","","null","88","","","","","","","","","","","","","","","",""
"","ISI","","html-keyboard-response","576","570155","0.0-1.0-795.0","0","0","59415","","null","","","null","88","NaN","","","","","","","","","","","","","","",""
"","S2","","html-keyboard-response","577","570315","0.0-1.0-796.0","0","0","59415","","null","","","null","88","","NaN","","","","","","","","","","","","","",""
"","response","","html-keyboard-response","578","570643","0.0-1.0-797.0-0.0","0","0","59415","","323","","","68","88","","","2","88","training","adjacent","BC","2","3","N.jpg","O.jpg","0","1","0","",""
"","feedback","","html-keyboard-response","579","571654","0.0-1.0-798.0-0.0","0","0","59415","","null","","","null","88","","","","","","","","","","","","","","","",""
"","time_out","","html-keyboard-response","580","573665","0.0-1.0-800.0-0.0","0","0","59415","","null","","","null","88","","","","","","","","","","","","","","","",""
"","ITI","","html-keyboard-response","581","574674","0.0-1.0-801.0","0","0","59415","","null","","","null","88","","","","","","","","","","","","","","","NaN",""
"","S1","","html-keyboard-response","582","574832","0.0-1.0-803.0","0","0","59415","","null","","","null","89","","","","","","","","","","","","","","","",""
"","ISI","","html-keyboard-response","583","576845","0.0-1.0-804.0","0","0","59415","","null","","","null","89","NaN","","","","","","","","","","","","","","",""
