"success","ttype","start_time","trial_type","trial_index","time_elapsed","internal_node_id","warning","missed_checkup","PID","view_history","rt","responses","repeat_instructions","key_press","index","keypress_isi","keypress_S2","block","trial_num","phase","group_type","pair_type","S1_stim","S2_stim","S1_img","S2_img","S1_chosen","S1_higher","accuracy","keypress_iti","total_bonus_tally"
"true","full_screen","d04062023hr1836","fullscreen","0","17960","0.0-0.0","0","0","47691","","","","","","","","","","","","","","","","","","","","","",""
"","instructions","","instructions","1","62336","0.0-1.0-0.0-0.0","0","0","47691","[{""page_index"":0,""viewing_time"":5411},{""page_index"":1,""viewing_time"":25752},{""page_index"":2,""viewing_time"":10848},{""page_index"":3,""viewing_time"":2362}]","44374","","","","","","","","","","","","","","","","","","","",""
"","comprehension_check","","survey-multi-choice","2","79085","0.0-1.0-0.0-1.0","0","0","47691","","16746","{""Q0"":""True"",""Q1"":""K"",""Q2"":""Only when the screen 'MAKE A CHOICE' is shown"",""Q3"":""Green mark"",""Q4"":""either D or K""}","1","","","","","","","","","","","","","","","","","",""
"","missed_instruction_checkup","","html-keyboard-response","3","81295","0.0-1.0-0.0-2.0-0.0","0","1","47691","","2207","","","32","","","","","","","","","","","","","","","","",""
"","instructions","","instructions","4","98010","0.0-1.0-0.1-0.1","0","0","47691","[{""page_index"":0,""viewing_time"":2709},{""page_index"":1,""viewing_time"":9592},{""page_index"":2,""viewing_time"":3402},{""page_index"":3,""viewing_time"":1008}]","16712","","","","","","","","","","","","","","","","","","","",""
"","comprehension_check","","survey-multi-choice","5","117489","0.0-1.0-0.1-1.1","0","0","47691","","19463","{""Q0"":""True"",""Q1"":""K"",""Q2"":""Only when the screen 'MAKE A CHOICE' is shown"",""Q3"":""Green mark"",""Q4"":""either D or K""}","1","","","","","","","","","","","","","","","","","",""
"","missed_instruction_checkup","","html-keyboard-response","6","119067","0.0-1.0-0.1-2.1-0.1","0","1","47691","","1575","","","32","","","","","","","","","","","","","","","","",""
"","instructions","","instructions","7","135583","0.0-1.0-0.2-0.2","0","0","47691","[{""page_index"":0,""viewing_time"":2559},{""page_index"":1,""viewing_time"":11814},{""page_index"":2,""viewing_time"":1140},{""page_index"":3,""viewing_time"":999}]","16513","","","","","","","","","","","","","","","","","","","",""
"","comprehension_check","","survey-multi-choice","8","149662","0.0-1.0-0.2-1.2","0","0","47691","","14060","{""Q0"":""True"",""Q1"":""K"",""Q2"":""Once the second image appears and while the screen 'MAKE A CHOICE' is shown"",""Q3"":""Green mark"",""Q4"":""either D or K""}","0","","","","","","","","","","","","","","","","","",""
"","start_exp","","html-keyboard-response","9","154562","0.0-1.0-1.0","0","0","47691","","4895","","","32","","","","","","","","","","","","","","","","",""
"","S1","","html-keyboard-response","10","154715","0.0-1.0-2.0","0","0","47691","","null","","","null","0","","","","","","","","","","","","","","","",""
"","ISI","","html-keyboard-response","11","156717","0.0-1.0-3.0","0","0","47691","","null","","","null","0","NaN","","","","","","","","","","","","","","",""
"","S2","","html-keyboard-response","12","156869","0.0-1.0-4.0","0","0","47691","","null","","","null","0","","NaN","","","","","","","","","","","","","",""
"","response","","html-keyboard-response","13","157427","0.0-1.0-5.0-0.0","0","0","47691","","552","","","75","0","","","1","0","training","adjacent","GF","7","6","R.jpg","M.jpg","1","0","0","",""
"","feedback","","html-keyboard-response","14","158436","0.0-1.0-6.0-0.0","0","0","47691","","null","","","null","0","","","","","","","","","","","","","","","",""
"","time_out","","html-keyboard-response","15","160440","0.0-1.0-8.0-0.0","0","0","47691","","null","","","null","0","","","","","","","","","","","","","","","",""
"","ITI","","html-keyboard-response","16","161443","0.0-1.0-9.0","0","0","47691","","null","","","null","0","","","","","","","","","","","","","","","NaN",""
"","S1","","html-keyboard-response","17","161596","0.0-1.0-11.0","0","0","47691","","null","","","null","1","","","","","","","","","","","","","","","",""
"","ISI","","html-keyboard-response","18","163602","0.0-1.0-12.0","0","0","47691","","null","","","null","1","NaN","","","","","","","","","","","","","","",""
"","S2","","html-keyboard-response","19","163757","0.0-1.0-13.0","0","0","47691","","null","","","null","1","","NaN","","","","","","","","","","","","","",""
"","response","","html-keyboard-response","20","164376","0.0-1.0-14.0-0.0","0","0","47691","","618","","","75","1","","","1","1","training","adjacent","FG","6","7","M.jpg","R.jpg","1","1","1","",""
"","feedback","","html-keyboard-response","21","165379","0.0-1.0-15.0-0.0","0","0","47691","","null","","","null","1","","","","","","","","","","","","","","","",""
"","ITI","","html-keyboard-response","22","166382","0.0-1.0-18.0","0","0","47691","","null","","","null","1","","","","","","","","","","","","","","","NaN",""
"","S1","","html-keyboard-response","23","166535","0.0-1.0-20.0","0","0","47691","","null","","","null","2","","","","","","","","","","","","","","","",""
"","ISI","","html-keyboard-response","24","168539","0.0-1.0-21.0","0","0","47691","","null","","","null","2","NaN","","","","","","","","","","","","","","",""
"","S2","","html-keyboard-response","25","168693","0.0-1.0-22.0","0","0","47691","","null","","","null","2","","NaN","","","","","","","","","","","","","",""
"","response","","html-keyboard-response","26","169584","0.0-1.0-23.0-0.0","0","0","47691","","890","","","68","2","","","1","2","training","adjacent","FE","6","5","M.jpg","O.jpg","0","0","1","",""
"","feedback","","html-keyboard-response","27","170589","0.0-1.0-24.0-0.0","0","0","47691","","null","","","null","2","","","","","","","","","","","","","","","",""
"","ITI","","html-keyboard-response","28","171593","0.0-1.0-27.0","0","0","47691","","null","","","null","2","","","","","","","","","","","","","","","NaN",""
"","S1","","html-keyboard-response","29","171747","0.0-1.0-29.0","0","0","47691","","null","","","null","3","","","","","","","","","","","","","","","",""
"","ISI","","html-keyboard-response","30","173752","0.0-1.0-30.0","0","0","47691","","null","","","null","3","NaN","","","","","","","","","","","","","","",""
"","S2","","html-keyboard-response","31","173909","0.0-1.0-31.0","0","0","47691","","null","","","null","3","","NaN","","","","","","","","","","","","","",""
"","response","","html-keyboard-response","32","174640","0.0-1.0-32.0-0.0","0","0","47691","","728","","","75","3","","","1","3","training","adjacent","ED","5","4","O.jpg","Q.jpg","1","0","0","",""
"","feedback","","html-keyboard-response","33","175643","0.0-1.0-33.0-0.0","0","0","47691","","null","","","null","3","","","","","","","","","","","","","","","",""
"","time_out","","html-keyboard-response","34","177645","0.0-1.0-35.0-0.0","0","0","47691","","null","","","null","3","","","","","","","","","","","","","","","",""
"","ITI","","html-keyboard-response","35","178652","0.0-1.0-36.0","0","0","47691","","null","","","null","3","","","","","","","","","","","","","","","NaN",""
"","S1","","html-keyboard-response","36","178806","0.0-1.0-38.0","0","0","47691","","null","","","null","4","","","","","","","","","","","","","","","",""
"","ISI","","html-keyboard-response","37","180809","0.0-1.0-39.0","0","0","47691","","null","","","null","4","NaN","","","","","","","","","","","","","","",""
"","S2","","html-keyboard-response","38","180962","0.0-1.0-40.0","0","0","47691","","null","","","null","4","","NaN","","","","","","","","","","","","","",""
"","response","","html-keyboard-response","39","181429","0.0-1.0-41.0-0.0","0","0","47691","","463","","","75","4","","","1","4","training","adjacent","AB","1","2","L.jpg","P.jpg","1","1","1","",""
"","feedback","","html-keyboard-response","40","182438","0.0-1.0-42.0-0.0","0","0","47691","","null","","","null","4","","","","","","","","","","","","","","","",""
"","ITI","","html-keyboard-response","41","183444","0.0-1.0-45.0","0","0","47691","","null","","","null","4","","","","","","","","","","","","","","","NaN",""
"","S1","","html-keyboard-response","42","183598","0.0-1.0-47.0","0","0","47691","","null","","","null","5","","","","","","","","","","","","","","","",""
"","ISI","","html-keyboard-response","43","185600","0.0-1.0-48.0","0","0","47691","","null","","","null","5","NaN","","","","","","","","","","","","","","",""
"","S2","","html-keyboard-response","44","185756","0.0-1.0-49.0","0","0","47691","","null","","","null","5","","NaN","","","","","","","","","","","","","",""
"","response","","html-keyboard-response","45","186453","0.0-1.0-50.0-0.0","0","0","47691","","691","","","75","5","","","1","5","training","adjacent","BC","2","3","P.jpg","N.jpg","1","1","1","",""
"","feedback","","html-keyboard-response","46","187458","0.0-1.0-51.0-0.0","0","0","47691","","null","","","null","5","","","","","","","","","","","","","","","",""
"","ITI","","html-keyboard-response","47","188461","0.0-1.0-54.0","0","0","47691","","null","","","null","5","","","","","","","","","","","","","","","NaN",""
"","S1","","html-keyboard-response","48","188617","0.0-1.0-56.0","0","0","47691","","null","","","null","6","","","","","","","","","","","","","","","",""
"","ISI","","html-keyboard-response","49","190620","0.0-1.0-57.0","0","0","47691","","null","","","null","6","NaN","","","","","","","","","","","","","","",""
"","S2","","html-keyboard-response","50","190773","0.0-1.0-58.0","0","0","47691","","null","","","null","6","","NaN","","","","","","","","","","","","","",""
"","response","","html-keyboard-response","51","191296","0.0-1.0-59.0-0.0","0","0","47691","","519","","","68","6","","","1","6","training","adjacent","CB","3","2","N.jpg","P.jpg","0","0","1","",""
"","feedback","","html-keyboard-response","52","192301","0.0-1.0-60.0-0.0","0","0","47691","","null","","","null","6","","","","","","","","","","","","","","","",""
"","ITI","","html-keyboard-response","53","193308","0.0-1.0-63.0","0","0","47691","","null","","","null","6","","","","","","","","","","","","","","","NaN",""
"","S1","","html-keyboard-response","54","193462","0.0-1.0-65.0","0","0","47691","","null","","","null","7","","","","","","","","","","","","","","","",""
"","ISI","","html-keyboard-response","55","195465","0.0-1.0-66.0","0","0","47691","","null","","","null","7","NaN","","","","","","","","","","","","","","",""
"","S2","","html-keyboard-response","56","195619","0.0-1.0-67.0","0","0","47691","","null","","","null","7","","NaN","","","","","","","","","","","","","",""
"","response","","html-keyboard-response","57","195978","0.0-1.0-68.0-0.0","0","0","47691","","358","","","75","7","","","1","7","training","adjacent","CB","3","2","N.jpg","P.jpg","1","0","0","",""
"","feedback","","html-keyboard-response","58","196981","0.0-1.0-69.0-0.0","0","0","47691","","null","","","null","7","","","","","","","","","","","","","","","",""
"","time_out","","html-keyboard-response","59","198984","0.0-1.0-71.0-0.0","0","0","47691","","null","","","null","7","","","","","","","","","","","","","","","",""
"","ITI","","html-keyboard-response","60","199988","0.0-1.0-72.0","0","0","47691","","null","","","null","7","","","","","","","","","","","","","","","NaN",""
"","S1","","html-keyboard-response","61","200144","0.0-1.0-74.0","0","0","47691","","null","","","null","8","","","","","","","","","","","","","","","",""
"","ISI","","html-keyboard-response","62","202149","0.0-1.0-75.0","0","0","47691","","null","","","null","8","NaN","","","","","","","","","","","","","","",""
"","S2","","html-keyboard-response","63","202302","0.0-1.0-76.0","0","0","47691","","null","","","null","8","","NaN","","","","","","","","","","","","","",""
"","response","","html-keyboard-response","64","202860","0.0-1.0-77.0-0.0","0","0","47691","","556","","","68","8","","","1","8","training","adjacent","ED","5","4","O.jpg","Q.jpg","0","0","1","",""
"","feedback","","html-keyboard-response","65","203865","0.0-1.0-78.0-0.0","0","0","47691","","null","","","null","8","","","","","","","","","","","","","","","",""
"","ITI","","html-keyboard-response","66","204868","0.0-1.0-81.0","0","0","47691","","null","","","null","8","","","","","","","","","","","","","","","NaN",""
"","S1","","html-keyboard-response","67","205021","0.0-1.0-83.0","0","0","47691","","null","","","null","9","","","","","","","","","","","","","","","",""
"","ISI","","html-keyboard-response","68","207024","0.0-1.0-84.0","0","0","47691","","null","","","null","9","NaN","","","","","","","","","","","","","","",""
"","S2","","html-keyboard-response","69","207180","0.0-1.0-85.0","0","0","47691","","null","","","null","9","","NaN","","","","","","","","","","","","","",""
"","response","","html-keyboard-response","70","207880","0.0-1.0-86.0-0.0","0","0","47691","","695","","","75","9","","","1","9","training","adjacent","DE","4","5","Q.jpg","O.jpg","1","1","1","",""
"","feedback","","html-keyboard-response","71","208885","0.0-1.0-87.0-0.0","0","0","47691","","null","","","null","9","","","","","","","","","","","","","","","",""
"","ITI","","html-keyboard-response","72","209887","0.0-1.0-90.0","0","0","47691","","null","","","null","9","","","","","","","","","","","","","","","NaN",""
"","S1","","html-keyboard-response","73","210041","0.0-1.0-92.0","0","0","47691","","null","","","null","10","","","","","","","","","","","","","","","",""
"","ISI","","html-keyboard-response","74","212044","0.0-1.0-93.0","0","0","47691","","null","","","null","10","NaN","","","","","","","","","","","","","","",""
"","S2","","html-keyboard-response","75","212201","0.0-1.0-94.0","0","0","47691","","null","","","null","10","","NaN","","","","","","","","","","","","","",""
"","response","","html-keyboard-response","76","212684","0.0-1.0-95.0-0.0","0","0","47691","","482","","","75","10","","","1","10","training","adjacent","DE","4","5","Q.jpg","O.jpg","1","1","1","",""
"","feedback","","html-keyboard-response","77","213687","0.0-1.0-96.0-0.0","0","0","47691","","null","","","null","10","","","","","","","","","","","","","","","",""
"","ITI","","html-keyboard-response","78","214690","0.0-1.0-99.0","0","0","47691","","null","","","null","10","","","","","","","","","","","","","","","NaN",""
"","S1","","html-keyboard-response","79","214842","0.0-1.0-101.0","0","0","47691","","null","","","null","11","","","","","","","","","","","","","","","",""
"","ISI","","html-keyboard-response","80","216845","0.0-1.0-102.0","0","0","47691","","null","","","null","11","NaN","","","","","","","","","","","","","","",""
"","S2","","html-keyboard-response","81","216999","0.0-1.0-103.0","0","0","47691","","null","","","null","11","","NaN","","","","","","","","","","","","","",""
"","response","","html-keyboard-response","82","217512","0.0-1.0-104.0-0.0","0","0","47691","","512","","","68","11","","","1","11","training","adjacent","EF","5","6","O.jpg","M.jpg","0","1","0","",""
"","feedback","","html-keyboard-response","83","218515","0.0-1.0-105.0-0.0","0","0","47691","","null","","","null","11","","","","","","","","","","","","","","","",""
"","time_out","","html-keyboard-response","84","220518","0.0-1.0-107.0-0.0","0","0","47691","","null","","","null","11","","","","","","","","","","","","","","","",""
"","ITI","","html-keyboard-response","85","221521","0.0-1.0-108.0","0","0","47691","","null","","","null","11","","","","","","","","","","","","","","","NaN",""
"","S1","","html-keyboard-response","86","221673","0.0-1.0-110.0","0","0","47691","","null","","","null","12","","","","","","","","","","","","","","","",""
"","ISI","","html-keyboard-response","87","223677","0.0-1.0-111.0","0","0","47691","","null","","","null","12","NaN","","","","","","","","","","","","","","",""
"","S2","","html-keyboard-response","88","223830","0.0-1.0-112.0","0","0","47691","","null","","","null","12","","NaN","","","","","","","","","","","","","",""
"","response","","html-keyboard-response","89","224178","0.0-1.0-113.0-0.0","0","0","47691","","347","","","75","12","","","1","12","training","adjacent","DC","4","3","Q.jpg","N.jpg","1","0","0","",""
"","feedback","","html-keyboard-response","90","225184","0.0-1.0-114.0-0.0","0","0","47691","","null","","","null","12","","","","","","","","","","","","","","","",""
"","time_out","","html-keyboard-response","91","227188","0.0-1.0-116.0-0.0","0","0","47691","","null","","","null","12","","","","","","","","","","","","","","","",""
"","ITI","","html-keyboard-response","92","228193","0.0-1.0-117.0","0","0","47691","","null","","","null","12","","","","","","","","","","","","","","","NaN",""
"","S1","","html-keyboard-response","93","228347","0.0-1.0-119.0","0","0","47691","","null","","","null","13","","","","","","","","","","","","","","","",""
"","ISI","","html-keyboard-response","94","230356","0.0-1.0-120.0","0","0","47691","","null","","","null","13","NaN","","","","","","","","","","","","","","",""
"","S2","","html-keyboard-response","95","230514","0.0-1.0-121.0","0","0","47691","","null","","","null","13","","NaN","","","","","","","","","","","","","",""
"","response","","html-keyboard-response","96","231082","0.0-1.0-122.0-0.0","0","0","47691","","565","","","68","13","","","1","13","training","adjacent","FE","6","5","M.jpg","O.jpg","0","0","1","",""
"","feedback","","html-keyboard-response","97","232088","0.0-1.0-123.0-0.0","0","0","47691","","null","","","null","13","","","","","","","","","","","","","","","",""
"","ITI","","html-keyboard-response","98","233092","0.0-1.0-126.0","0","0","47691","","null","","","null","13","","","","","","","","","","","","","","","NaN",""
"","S1","","html-keyboard-response","99","233245","0.0-1.0-128.0","0","0","47691","","null","","","null","14","","","","","","","","","","","","","","","",""
"","ISI","","html-keyboard-response","100","235248","0.0-1.0-129.0","0","0","47691","","null","","","null","14","NaN","","","","","","","","","","","","","","",""
"","S2","","html-keyboard-response","101","235401","0.0-1.0-130.0","0","0","47691","","null","","","null","14","","NaN","","","","","","","","","","","","","",""
"","response","","html-keyboard-response","102","236230","0.0-1.0-131.0-0.0","0","0","47691","","826","","","75","14","","","1","14","training","adjacent","GF","7","6","R.jpg","M.jpg","1","0","0","",""
"","feedback","","html-keyboard-response","103","237232","0.0-1.0-132.0-0.0","0","0","47691","","null","","","null","14","","","","","","","","","","","","","","","",""
"","time_out","","html-keyboard-response","104","239236","0.0-1.0-134.0-0.0","0","0","47691","","null","","","null","14","","","","","","","","","","","","","","","",""
"","ITI","","html-keyboard-response","105","240239","0.0-1.0-135.0","0","0","47691","","null","","","null","14","","","","","","","","","","","","","","","NaN",""
"","S1","","html-keyboard-response","106","240392","0.0-1.0-137.0","0","0","47691","","null","","","null","15","","","","","","","","","","","","","","","",""
"","ISI","","html-keyboard-response","107","242394","0.0-1.0-138.0","0","0","47691","","null","","","null","15","NaN","","","","","","","","","","","","","","",""
"","S2","","html-keyboard-response","108","242547","0.0-1.0-139.0","0","0","47691","","null","","","null","15","","NaN","","","","","","","","","","","","","",""
"","response","","html-keyboard-response","109","243248","0.0-1.0-140.0-0.0","0","0","47691","","699","","","68","15","","","1","15","training","adjacent","GF","7","6","R.jpg","M.jpg","0","0","1","",""
"","feedback","","html-keyboard-response","110","244251","0.0-1.0-141.0-0.0","0","0","47691","","null","","","null","15","","","","","","","","","","","","","","","",""
"","ITI","","html-keyboard-response","111","245253","0.0-1.0-144.0","0","0","47691","","null","","","null","15","","","","","","","","","","","","","","","NaN",""
"","S1","","html-keyboard-response","112","245406","0.0-1.0-146.0","0","0","47691","","null","","","null","16","","","","","","","","","","","","","","","",""
"","ISI","","html-keyboard-response","113","247411","0.0-1.0-147.0","0","0","47691","","null","","","null","16","NaN","","","","","","","","","","","","","","",""
"","S2","","html-keyboard-response","114","247565","0.0-1.0-148.0","0","0","47691","","null","","","null","16","","NaN","","","","","","","","","","","","","",""
"","response","","html-keyboard-response","115","248152","0.0-1.0-149.0-0.0","0","0","47691","","586","","","68","16","","","1","16","training","adjacent","BC","2","3","P.jpg","N.jpg","0","1","0","",""
"","feedback","","html-keyboard-response","116","249155","0.0-1.0-150.0-0.0","0","0","47691","","null","","","null","16","","","","","","","","","","","","","","","",""
"","time_out","","html-keyboard-response","117","251157","0.0-1.0-152.0-0.0","0","0","47691","","null","","","null","16","","","","","","","","","","","","","","","",""
"","ITI","","html-keyboard-response","118","252161","0.0-1.0-153.0","0","0","47691","","null","","","null","16","","","","","","","","","","","","","","","NaN",""
"","S1","","html-keyboard-response","119","252314","0.0-1.0-155.0","0","0","47691","","null","","","null","17","","","","","","","","","","","","","","","",""
"","ISI","","html-keyboard-response","120","254317","0.0-1.0-156.0","0","0","47691","","null","","","null","17","NaN","","","","","","","","","","","","","","",""
"","S2","","html-keyboard-response","121","254469","0.0-1.0-157.0","0","0","47691","","null","","","null","17","","NaN","","","","","","","","","","","","","",""
"","response","","html-keyboard-response","122","254798","0.0-1.0-158.0-0.0","0","0","47691","","325","","","75","17","","","1","17","training","adjacent","DC","4","3","Q.jpg","N.jpg","1","0","0","",""
"","feedback","","html-keyboard-response","123","255803","0.0-1.0-159.0-0.0","0","0","47691","","null","","","null","17","","","","","","","","","","","","","","","",""
"","time_out","","html-keyboard-response","124","257806","0.0-1.0-161.0-0.0","0","0","47691","","null","","","null","17","","","","","","","","","","","","","","","",""
"","ITI","","html-keyboard-response","125","258809","0.0-1.0-162.0","0","0","47691","","null","","","null","17","","","","","","","","","","","","","","","NaN",""
"","S1","","html-keyboard-response","126","258962","0.0-1.0-164.0","0","0","47691","","null","","","null","18","","","","","","","","","","","","","","","",""
"","ISI","","html-keyboard-response","127","260964","0.0-1.0-165.0","0","0","47691","","null","","","null","18","NaN","","","","","","","","","","","","","","",""
"","S2","","html-keyboard-response","128","261122","0.0-1.0-166.0","0","0","47691","","null","","","null","18","","NaN","","","","","","","","","","","","","",""
"","response","","html-keyboard-response","129","262003","0.0-1.0-167.0-0.0","0","0","47691","","879","","","68","18","","","1","18","training","adjacent","DC","4","3","Q.jpg","N.jpg","0","0","1","",""
"","feedback","","html-keyboard-response","130","263008","0.0-1.0-168.0-0.0","0","0","47691","","null","","","null","18","","","","","","","","","","","","","","","",""
"","ITI","","html-keyboard-response","131","264012","0.0-1.0-171.0","0","0","47691","","null","","","null","18","","","","","","","","","","","","","","","NaN",""
"","S1","","html-keyboard-response","132","264165","0.0-1.0-173.0","0","0","47691","","null","","","null","19","","","","","","","","","","","","","","","",""
"","ISI","","html-keyboard-response","133","266167","0.0-1.0-174.0","0","0","47691","","null","","","null","19","NaN","","","","","","","","","","","","","","",""
"","S2","","html-keyboard-response","134","266320","0.0-1.0-175.0","0","0","47691","","null","","","null","19","","NaN","","","","","","","","","","","","","",""
"","response","","html-keyboard-response","135","266979","0.0-1.0-176.0-0.0","0","0","47691","","658","","","68","19","","","1","19","training","adjacent","BA","2","1","P.jpg","L.jpg","0","0","1","",""
"","feedback","","html-keyboard-response","136","267984","0.0-1.0-177.0-0.0","0","0","47691","","null","","","null","19","","","","","","","","","","","","","","","",""
"","ITI","","html-keyboard-response","137","268987","0.0-1.0-180.0","0","0","47691","","null","","","null","19","","","","","","","","","","","","","","","NaN",""
"","S1","","html-keyboard-response","138","269140","0.0-1.0-182.0","0","0","47691","","null","","","null","20","","","","","","","","","","","","","","","",""
"","ISI","","html-keyboard-response","139","271142","0.0-1.0-183.0","0","0","47691","","null","","","null","20","NaN","","","","","","","","","","","","","","",""
"","S2","","html-keyboard-response","140","271296","0.0-1.0-184.0","0","0","47691","","null","","","null","20","","NaN","","","","","","","","","","","","","",""
"","response","","html-keyboard-response","141","271912","0.0-1.0-185.0-0.0","0","0","47691","","614","","","75","20","","","1","20","training","adjacent","CD","3","4","N.jpg","Q.jpg","1","1","1","",""
"","feedback","","html-keyboard-response","142","272930","0.0-1.0-186.0-0.0","0","0","47691","","null","","","null","20","","","","","","","","","","","","","","","",""
"","ITI","","html-keyboard-response","143","273932","0.0-1.0-189.0","0","0","47691","","null","","","null","20","","","","","","","","","","","","","","","NaN",""
"","S1","","html-keyboard-response","144","274086","0.0-1.0-191.0","0","0","47691","","null","","","null","21","","","","","","","","","","","","","","","",""
"","ISI","","html-keyboard-response","145","276089","0.0-1.0-192.0","0","0","47691","","null","","","null","21","NaN","","","","","","","","","","","","","","",""
"","S2","","html-keyboard-response","146","276242","0.0-1.0-193.0","0","0","47691","","null","","","null","21","","NaN","","","","","","","","","","","","","",""
"","response","","html-keyboard-response","147","276856","0.0-1.0-194.0-0.0","0","0","47691","","613","","","75","21","","","1","21","training","adjacent","FE","6","5","M.jpg","O.jpg","1","0","0","",""
"","feedback","","html-keyboard-response","148","277859","0.0-1.0-195.0-0.0","0","0","47691","","null","","","null","21","","","","","","","","","","","","","","","",""
"","time_out","","html-keyboard-response","149","279862","0.0-1.0-197.0-0.0","0","0","47691","","null","","","null","21","","","","","","","","","","","","","","","",""
"","ITI","","html-keyboard-response","150","280864","0.0-1.0-198.0","0","0","47691","","null","","","null","21","","","","","","","","","","","","","","","NaN",""
"","S1","","html-keyboard-response","151","281017","0.0-1.0-200.0","0","0","47691","","null","","","null","22","","","","","","","","","","","","","","","",""
"","ISI","","html-keyboard-response","152","283019","0.0-1.0-201.0","0","0","47691","","null","","","null","22","NaN","","","","","","","","","","","","","","",""
"","S2","","html-keyboard-response","153","283172","0.0-1.0-202.0","0","0","47691","","null","","","null","22","","NaN","","","","","","","","","","","","","",""
"","response","","html-keyboard-response","154","283508","0.0-1.0-203.0-0.0","0","0","47691","","333","","","68","22","","","1","22","training","adjacent","FG","6","7","M.jpg","R.jpg","0","1","0","",""
"","feedback","","html-keyboard-response","155","284510","0.0-1.0-204.0-0.0","0","0","47691","","null","","","null","22","","","","","","","","","","","","","","","",""
"","time_out","","html-keyboard-response","156","286513","0.0-1.0-206.0-0.0","0","0","47691","","null","","","null","22","","","","","","","","","","","","","","","",""
"","ITI","","html-keyboard-response","157","287516","0.0-1.0-207.0","0","0","47691","","null","","","null","22","","","","","","","","","","","","","","","NaN",""
"","S1","","html-keyboard-response","158","287669","0.0-1.0-209.0","0","0","47691","","null","","","null","23","","","","","","","","","","","","","","","",""
"","ISI","","html-keyboard-response","159","289672","0.0-1.0-210.0","0","0","47691","","null","","","null","23","NaN","","","","","","","","","","","","","","",""
"","S2","","html-keyboard-response","160","289825","0.0-1.0-211.0","0","0","47691","","null","","","null","23","","NaN","","","","","","","","","","","","","",""
"","response","","html-keyboard-response","161","290176","0.0-1.0-212.0-0.0","0","0","47691","","350","","","68","23","","","1","23","training","adjacent","BC","2","3","P.jpg","N.jpg","0","1","0","",""
"","feedback","","html-keyboard-response","162","291179","0.0-1.0-213.0-0.0","0","0","47691","","null","","","null","23","","","","","","","","","","","","","","","",""
"","time_out","","html-keyboard-response","163","293183","0.0-1.0-215.0-0.0","0","0","47691","","null","","","null","23","","","","","","","","","","","","","","","",""
"","ITI","","html-keyboard-response","164","294185","0.0-1.0-216.0","0","0","47691","","null","","","null","23","","","","","","","","","","","","","","","NaN",""
"","S1","","html-keyboard-response","165","294339","0.0-1.0-218.0","0","0","47691","","null","","","null","24","","","","","","","","","","","","","","","",""
"","ISI","","html-keyboard-response","166","296342","0.0-1.0-219.0","0","0","47691","","null","","","null","24","NaN","","","","","","","","","","","","","","",""
"","S2","","html-keyboard-response","167","296495","0.0-1.0-220.0","0","0","47691","","null","","","null","24","","NaN","","","","","","","","","","","","","",""
"","response","","html-keyboard-response","168","296976","0.0-1.0-221.0-0.0","0","0","47691","","479","","","75","24","","","1","24","training","adjacent","CB","3","2","N.jpg","P.jpg","1","0","0","",""
"","feedback","","html-keyboard-response","169","297979","0.0-1.0-222.0-0.0","0","0","47691","","null","","","null","24","","","","","","","","","","","","","","","",""
"","time_out","","html-keyboard-response","170","299981","0.0-1.0-224.0-0.0","0","0","47691","","null","","","null","24","","","","","","","","","","","","","","","",""
"","ITI","","html-keyboard-response","171","300984","0.0-1.0-225.0","0","0","47691","","null","","","null","24","","","","","","","","","","","","","","","NaN",""
"","S1","","html-keyboard-response","172","301137","0.0-1.0-227.0","0","0","47691","","null","","","null","25","","","","","","","","","","","","","","","",""
"","ISI","","html-keyboard-response","173","303140","0.0-1.0-228.0","0","0","47691","","null","","","null","25","NaN","","","","","","","","","","","","","","",""
"","S2","","html-keyboard-response","174","303293","0.0-1.0-229.0","0","0","47691","","null","","","null","25","","NaN","","","","","","","","","","","","","",""
"","response","","html-keyboard-response","175","303658","0.0-1.0-230.0-0.0","0","0","47691","","364","","","75","25","","","1","25","training","adjacent","FG","6","7","M.jpg","R.jpg","1","1","1","",""
"","feedback","","html-keyboard-response","176","304662","0.0-1.0-231.0-0.0","0","0","47691","","null","","","null","25","","","","","","","","","","","","","","","",""
"","ITI","","html-keyboard-response","177","305665","0.0-1.0-234.0","0","0","47691","","null","","","null","25","","","","","","","","","","","","","","","NaN",""
"","S1","","html-keyboard-response","178","305832","0.0-1.0-236.0","0","0","47691","","null","","","null","26","","","","","","","","","","","","","","","",""
"","ISI","","html-keyboard-response","179","307835","0.0-1.0-237.0","0","0","47691","","null","","","null","26","NaN","","","","","","","","","","","","","","",""
"","S2","","html-keyboard-response","180","308002","0.0-1.0-238.0","0","0","47691","","null","","","null","26","","NaN","","","","","","","","","","","","","",""
"","response","","html-keyboard-response","181","308486","0.0-1.0-239.0-0.0","0","0","47691","","482","","","68","26","","","1","26","training","adjacent","CD","3","4","N.jpg","Q.jpg","0","1","0","",""
"","feedback","","html-keyboard-response","182","309493","0.0-1.0-240.0-0.0","0","0","47691","","null","","","null","26","","","","","","","","","","","","","","","",""
"","time_out","","html-keyboard-response","183","311495","0.0-1.0-242.0-0.0","0","0","47691","","null","","","null","26","","","","","","","","","","","","","","","",""
"","ITI","","html-keyboard-response","184","312499","0.0-1.0-243.0","0","0","47691","","null","","","null","26","","","","","","","","","","","","","","","NaN",""
"","S1","","html-keyboard-response","185","312652","0.0-1.0-245.0","0","0","47691","","null","","","null","27","","","","","","","","","","","","","","","",""
"","ISI","","html-keyboard-response","186","314654","0.0-1.0-246.0","0","0","47691","","null","","","null","27","NaN","","","","","","","","","","","","","","",""
"","S2","","html-keyboard-response","187","314812","0.0-1.0-247.0","0","0","47691","","null","","","null","27","","NaN","","","","","","","","","","","","","",""
"","response","","html-keyboard-response","188","315246","0.0-1.0-248.0-0.0","0","0","47691","","433","","","68","27","","","1","27","training","adjacent","CD","3","4","N.jpg","Q.jpg","0","1","0","",""
"","feedback","","html-keyboard-response","189","316259","0.0-1.0-249.0-0.0","0","0","47691","","null","","","null","27","","","","","","","","","","","","","","","",""
"","time_out","","html-keyboard-response","190","318261","0.0-1.0-251.0-0.0","0","0","47691","","null","","","null","27","","","","","","","","","","","","","","","",""
"","ITI","","html-keyboard-response","191","319264","0.0-1.0-252.0","0","0","47691","","null","","","null","27","","","","","","","","","","","","","","","NaN",""
"","S1","","html-keyboard-response","192","319417","0.0-1.0-254.0","0","0","47691","","null","","","null","28","","","","","","","","","","","","","","","",""
"","ISI","","html-keyboard-response","193","321420","0.0-1.0-255.0","0","0","47691","","null","","","null","28","NaN","","","","","","","","","","","","","","",""
"","S2","","html-keyboard-response","194","321573","0.0-1.0-256.0","0","0","47691","","null","","","null","28","","NaN","","","","","","","","","","","","","",""
"","response","","html-keyboard-response","195","322421","0.0-1.0-257.0-0.0","0","0","47691","","846","","","75","28","","","1","28","training","adjacent","AB","1","2","L.jpg","P.jpg","1","1","1","",""
"","feedback","","html-keyboard-response","196","323425","0.0-1.0-258.0-0.0","0","0","47691","","null","","","null","28","","","","","","","","","","","","","","","",""
"","ITI","","html-keyboard-response","197","324428","0.0-1.0-261.0","0","0","47691","","null","","","null","28","","","","","","","","","","","","","","","NaN",""
"","S1","","html-keyboard-response","198","324581","0.0-1.0-263.0","0","0","47691","","null","","","null","29","","","","","","","","","","","","","","","",""
"","ISI","","html-keyboard-response","199","326584","0.0-1.0-264.0","0","0","47691","","null","","","null","29","NaN","","","","","","","","","","","","","","",""
"","S2","","html-keyboard-response","200","326738","0.0-1.0-265.0","0","0","47691","","null","","","null","29","","NaN","","","","","","","","","","","","","",""
"","response","","html-keyboard-response","201","327459","0.0-1.0-266.0-0.0","0","0","47691","","720","","","75","29","","","1","29","training","adjacent","DE","4","5","Q.jpg","O.jpg","1","1","1","",""
"","feedback","","html-keyboard-response","202","328463","0.0-1.0-267.0-0.0","0","0","47691","","null","","","null","29","","","","","","","","","","","","","","","",""
"","ITI","","html-keyboard-response","203","329465","0.0-1.0-270.0","0","0","47691","","null","","","null","29","","","","","","","","","","","","","","","NaN",""
"","S1","","html-keyboard-response","204","329619","0.0-1.0-272.0","0","0","47691","","null","","","null","30","","","","","","","","","","","","","","","",""
"","ISI","","html-keyboard-response","205","331622","0.0-1.0-273.0","0","0","47691","","null","","","null","30","NaN","","","","","","","","","","","","","","",""
"","S2","","html-keyboard-response","206","331774","0.0-1.0-274.0","0","0","47691","","null","","","null","30","","NaN","","","","","","","","","","","","","",""
"","response","","html-keyboard-response","207","332376","0.0-1.0-275.0-0.0","0","0","47691","","601","","","75","30","","","1","30","training","adjacent","CB","3","2","N.jpg","P.jpg","1","0","0","",""
"","feedback","","html-keyboard-response","208","333379","0.0-1.0-276.0-0.0","0","0","47691","","null","","","null","30","","","","","","","","","","","","","","","",""
"","time_out","","html-keyboard-response","209","335382","0.0-1.0-278.0-0.0","0","0","47691","","null","","","null","30","","","","","","","","","","","","","","","",""
"","ITI","","html-keyboard-response","210","336384","0.0-1.0-279.0","0","0","47691","","null","","","null","30","","","","","","","","","","","","","","","NaN",""
"","S1","","html-keyboard-response","211","336537","0.0-1.0-281.0","0","0","47691","","null","","","null","31","","","","","","","","","","","","","","","",""
"","ISI","","html-keyboard-response","212","338539","0.0-1.0-282.0","0","0","47691","","null","","","null","31","NaN","","","","","","","","","","","","","","",""
"","S2","","html-keyboard-response","213","338692","0.0-1.0-283.0","0","0","47691","","null","","","null","31","","NaN","","","","","","","","","","","","","",""
"","response","","html-keyboard-response","214","339048","0.0-1.0-284.0-0.0","0","0","47691","","355","","","68","31","","","1","31","training","adjacent","ED","5","4","O.jpg","Q.jpg","0","0","1","",""
"","feedback","","html-keyboard-response","215","340052","0.0-1.0-285.0-0.0","0","0","47691","","null","","","null","31","","","","","","","","","","","","","","","",""
"","ITI","","html-keyboard-response","216","341062","0.0-1.0-288.0","0","0","47691","","null","","","null","31","","","","","","","","","","","","","","","NaN",""
"","S1","","html-keyboard-response","217","341215","0.0-1.0-290.0","0","0","47691","","null","","","null","32","","","","","","","","","","","","","","","",""
"","ISI","","html-keyboard-response","218","343218","0.0-1.0-291.0","0","0","47691","","null","","","null","32","NaN","","","","","","","","","","","","","","",""
"","S2","","html-keyboard-response","219","343371","0.0-1.0-292.0","0","0","47691","","null","","","null","32","","NaN","","","","","","","","","","","","","",""
"","response","","html-keyboard-response","220","343915","0.0-1.0-293.0-0.0","0","0","47691","","542","","","68","32","","","1","32","training","adjacent","CD","3","4","N.jpg","Q.jpg","0","1","0","",""
"","feedback","","html-keyboard-response","221","344918","0.0-1.0-294.0-0.0","0","0","47691","","null","","","null","32","","","","","","","","","","","","","","","",""
"","time_out","","html-keyboard-response","222","346921","0.0-1.0-296.0-0.0","0","0","47691","","null","","","null","32","","","","","","","","","","","","","","","",""
"","ITI","","html-keyboard-response","223","347924","0.0-1.0-297.0","0","0","47691","","null","","","null","32","","","","","","","","","","","","","","","NaN",""
"","S1","","html-keyboard-response","224","348078","0.0-1.0-299.0","0","0","47691","","null","","","null","33","","","","","","","","","","","","","","","",""
"","ISI","","html-keyboard-response","225","350080","0.0-1.0-300.0","0","0","47691","","null","","","null","33","NaN","","","","","","","","","","","","","","",""
"","S2","","html-keyboard-response","226","350233","0.0-1.0-301.0","0","0","47691","","null","","","null","33","","NaN","","","","","","","","","","","","","",""
"","response","","html-keyboard-response","227","350709","0.0-1.0-302.0-0.0","0","0","47691","","474","","","75","33","","","1","33","training","adjacent","BA","2","1","P.jpg","L.jpg","1","0","0","",""
"","feedback","","html-keyboard-response","228","351718","0.0-1.0-303.0-0.0","0","0","47691","","null","","","null","33","","","","","","","","","","","","","","","",""
"","time_out","","html-keyboard-response","229","353722","0.0-1.0-305.0-0.0","0","0","47691","","null","","","null","33","","","","","","","","","","","","","","","",""
"","ITI","","html-keyboard-response","230","354724","0.0-1.0-306.0","0","0","47691","","null","","","null","33","","","","","","","","","","","","","","","NaN",""
"","S1","","html-keyboard-response","231","354878","0.0-1.0-308.0","0","0","47691","","null","","","null","34","","","","","","","","","","","","","","","",""
"","ISI","","html-keyboard-response","232","356881","0.0-1.0-309.0","0","0","47691","","null","","","null","34","NaN","","","","","","","","","","","","","","",""
"","S2","","html-keyboard-response","233","357034","0.0-1.0-310.0","0","0","47691","","null","","","null","34","","NaN","","","","","","","","","","","","","",""
"","response","","html-keyboard-response","234","357429","0.0-1.0-311.0-0.0","0","0","47691","","393","","","68","34","","","1","34","training","adjacent","ED","5","4","O.jpg","Q.jpg","0","0","1","",""
"","feedback","","html-keyboard-response","235","358431","0.0-1.0-312.0-0.0","0","0","47691","","null","","","null","34","","","","","","","","","","","","","","","",""
"","ITI","","html-keyboard-response","236","359434","0.0-1.0-315.0","0","0","47691","","null","","","null","34","","","","","","","","","","","","","","","NaN",""
"","S1","","html-keyboard-response","237","359592","0.0-1.0-317.0","0","0","47691","","null","","","null","35","","","","","","","","","","","","","","","",""
"","ISI","","html-keyboard-response","238","361594","0.0-1.0-318.0","0","0","47691","","null","","","null","35","NaN","","","","","","","","","","","","","","",""
"","S2","","html-keyboard-response","239","361748","0.0-1.0-319.0","0","0","47691","","null","","","null","35","","NaN","","","","","","","","","","","","","",""
"","response","","html-keyboard-response","240","362073","0.0-1.0-320.0-0.0","0","0","47691","","325","","","68","35","","","1","35","training","adjacent","GF","7","6","R.jpg","M.jpg","0","0","1","",""
"","feedback","","html-keyboard-response","241","363077","0.0-1.0-321.0-0.0","0","0","47691","","null","","","null","35","","","","","","","","","","","","","","","",""
"","ITI","","html-keyboard-response","242","364080","0.0-1.0-324.0","0","0","47691","","null","","","null","35","","","","","","","","","","","","","","","NaN",""
"","S1","","html-keyboard-response","243","364233","0.0-1.0-326.0","0","0","47691","","null","","","null","36","","","","","","","","","","","","","","","",""
"","ISI","","html-keyboard-response","244","366235","0.0-1.0-327.0","0","0","47691","","null","","","null","36","NaN","","","","","","","","","","","","","","",""
"","S2","","html-keyboard-response","245","366389","0.0-1.0-328.0","0","0","47691","","null","","","null","36","","NaN","","","","","","","","","","","","","",""
"","response","","html-keyboard-response","246","366968","0.0-1.0-329.0-0.0","0","0","47691","","576","","","68","36","","","1","36","training","adjacent","FG","6","7","M.jpg","R.jpg","0","1","0","",""
"","feedback","","html-keyboard-response","247","367970","0.0-1.0-330.0-0.0","0","0","47691","","null","","","null","36","","","","","","","","","","","","","","","",""
"","time_out","","html-keyboard-response","248","369973","0.0-1.0-332.0-0.0","0","0","47691","","null","","","null","36","","","","","","","","","","","","","","","",""
"","ITI","","html-keyboard-response","249","370977","0.0-1.0-333.0","0","0","47691","","null","","","null","36","","","","","","","","","","","","","","","NaN",""
"","S1","","html-keyboard-response","250","371129","0.0-1.0-335.0","0","0","47691","","null","","","null","37","","","","","","","","","","","","","","","",""
"","ISI","","html-keyboard-response","251","373132","0.0-1.0-336.0","0","0","47691","","null","","","null","37","NaN","","","","","","","","","","","","","","",""
"","S2","","html-keyboard-response","252","373286","0.0-1.0-337.0","0","0","47691","","null","","","null","37","","NaN","","","","","","","","","","","","","",""
"","response","","html-keyboard-response","253","373670","0.0-1.0-338.0-0.0","0","0","47691","","383","","","75","37","","","1","37","training","adjacent","FE","6","5","M.jpg","O.jpg","1","0","0","",""
"","feedback","","html-keyboard-response","254","374673","0.0-1.0-339.0-0.0","0","0","47691","","null","","","null","37","","","","","","","","","","","","","","","",""
"","time_out","","html-keyboard-response","255","376675","0.0-1.0-341.0-0.0","0","0","47691","","null","","","null","37","","","","","","","","","","","","","","","",""
"","ITI","","html-keyboard-response","256","377678","0.0-1.0-342.0","0","0","47691","","null","","","null","37","","","","","","","","","","","","","","","NaN",""
"","S1","","html-keyboard-response","257","377831","0.0-1.0-344.0","0","0","47691","","null","","","null","38","","","","","","","","","","","","","","","",""
"","ISI","","html-keyboard-response","258","379834","0.0-1.0-345.0","0","0","47691","","null","","","null","38","NaN","","","","","","","","","","","","","","",""
"","S2","","html-keyboard-response","259","379996","0.0-1.0-346.0","0","0","47691","","null","","","null","38","","NaN","","","","","","","","","","","","","",""
"","response","","html-keyboard-response","260","380320","0.0-1.0-347.0-0.0","0","0","47691","","322","","","75","38","","","1","38","training","adjacent","DE","4","5","Q.jpg","O.jpg","1","1","1","",""
"","feedback","","html-keyboard-response","261","381322","0.0-1.0-348.0-0.0","0","0","47691","","null","","","null","38","","","","","","","","","","","","","","","",""
"","ITI","","html-keyboard-response","262","382325","0.0-1.0-351.0","0","0","47691","","null","","","null","38","","","","","","","","","","","","","","","NaN",""
"","S1","","html-keyboard-response","263","382479","0.0-1.0-353.0","0","0","47691","","null","","","null","39","","","","","","","","","","","","","","","",""
"","ISI","","html-keyboard-response","264","384481","0.0-1.0-354.0","0","0","47691","","null","","","null","39","NaN","","","","","","","","","","","","","","",""
"","S2","","html-keyboard-response","265","384634","0.0-1.0-355.0","0","0","47691","","null","","","null","39","","NaN","","","","","","","","","","","","","",""
"","response","","html-keyboard-response","266","385177","0.0-1.0-356.0-0.0","0","0","47691","","541","","","75","39","","","1","39","training","adjacent","AB","1","2","L.jpg","P.jpg","1","1","1","",""
"","feedback","","html-keyboard-response","267","386181","0.0-1.0-357.0-0.0","0","0","47691","","null","","","null","39","","","","","","","","","","","","","","","",""
"","ITI","","html-keyboard-response","268","387184","0.0-1.0-360.0","0","0","47691","","null","","","null","39","","","","","","","","","","","","","","","NaN",""
"","S1","","html-keyboard-response","269","387337","0.0-1.0-362.0","0","0","47691","","null","","","null","40","","","","","","","","","","","","","","","",""
"","ISI","","html-keyboard-response","270","389339","0.0-1.0-363.0","0","0","47691","","null","","","null","40","NaN","","","","","","","","","","","","","","",""
"","S2","","html-keyboard-response","271","389492","0.0-1.0-364.0","0","0","47691","","null","","","null","40","","NaN","","","","","","","","","","","","","",""
"","response","","html-keyboard-response","272","389949","0.0-1.0-365.0-0.0","0","0","47691","","456","","","68","40","","","1","40","training","adjacent","DC","4","3","Q.jpg","N.jpg","0","0","1","",""
"","feedback","","html-keyboard-response","273","390952","0.0-1.0-366.0-0.0","0","0","47691","","null","","","null","40","","","","","","","","","","","","","","","",""
"","ITI","","html-keyboard-response","274","391954","0.0-1.0-369.0","0","0","47691","","null","","","null","40","","","","","","","","","","","","","","","NaN",""
"","S1","","html-keyboard-response","275","392117","0.0-1.0-371.0","0","0","47691","","null","","","null","41","","","","","","","","","","","","","","","",""
"","ISI","","html-keyboard-response","276","394119","0.0-1.0-372.0","0","0","47691","","null","","","null","41","NaN","","","","","","","","","","","","","","",""
"","S2","","html-keyboard-response","277","394273","0.0-1.0-373.0","0","0","47691","","null","","","null","41","","NaN","","","","","","","","","","","","","",""
"","response","","html-keyboard-response","278","394746","0.0-1.0-374.0-0.0","0","0","47691","","471","","","68","41","","","1","41","training","adjacent","BA","2","1","P.jpg","L.jpg","0","0","1","",""
"","feedback","","html-keyboard-response","279","395749","0.0-1.0-375.0-0.0","0","0","47691","","null","","","null","41","","","","","","","","","","","","","","","",""
"","ITI","","html-keyboard-response","280","396752","0.0-1.0-378.0","0","0","47691","","null","","","null","41","","","","","","","","","","","","","","","NaN",""
"","S1","","html-keyboard-response","281","396906","0.0-1.0-380.0","0","0","47691","","null","","","null","42","","","","","","","","","","","","","","","",""
"","ISI","","html-keyboard-response","282","398912","0.0-1.0-381.0","0","0","47691","","null","","","null","42","NaN","","","","","","","","","","","","","","",""
"","S2","","html-keyboard-response","283","399065","0.0-1.0-382.0","0","0","47691","","null","","","null","42","","NaN","","","","","","","","","","","","","",""
"","response","","html-keyboard-response","284","399722","0.0-1.0-383.0-0.0","0","0","47691","","655","","","75","42","","","1","42","training","adjacent","BC","2","3","P.jpg","N.jpg","1","1","1","",""
"","feedback","","html-keyboard-response","285","400724","0.0-1.0-384.0-0.0","0","0","47691","","null","","","null","42","","","","","","","","","","","","","","","",""
"","ITI","","html-keyboard-response","286","401733","0.0-1.0-387.0","0","0","47691","","null","","","null","42","","","","","","","","","","","","","","","NaN",""
"","S1","","html-keyboard-response","287","401886","0.0-1.0-389.0","0","0","47691","","null","","","null","43","","","","","","","","","","","","","","","",""
"","ISI","","html-keyboard-response","288","403888","0.0-1.0-390.0","0","0","47691","","null","","","null","43","NaN","","","","","","","","","","","","","","",""
"","S2","","html-keyboard-response","289","404041","0.0-1.0-391.0","0","0","47691","","null","","","null","43","","NaN","","","","","","","","","","","","","",""
"","response","","html-keyboard-response","290","404661","0.0-1.0-392.0-0.0","0","0","47691","","618","","","68","43","","","1","43","training","adjacent","BA","2","1","P.jpg","L.jpg","0","0","1","",""
"","feedback","","html-keyboard-response","291","405664","0.0-1.0-393.0-0.0","0","0","47691","","null","","","null","43","","","","","","","","","","","","","","","",""
"","ITI","","html-keyboard-response","292","406667","0.0-1.0-396.0","0","0","47691","","null","","","null","43","","","","","","","","","","","","","","","NaN",""
"","S1","","html-keyboard-response","293","406820","0.0-1.0-398.0","0","0","47691","","null","","","null","44","","","","","","","","","","","","","","","",""
"","ISI","","html-keyboard-response","294","408822","0.0-1.0-399.0","0","0","47691","","null","","","null","44","NaN","","","","","","","","","","","","","","",""
"","S2","","html-keyboard-response","295","408975","0.0-1.0-400.0","0","0","47691","","null","","","null","44","","NaN","","","","","","","","","","","","","",""
"","response","","html-keyboard-response","296","409589","0.0-1.0-401.0-0.0","0","0","47691","","612","","","75","44","","","1","44","training","adjacent","AB","1","2","L.jpg","P.jpg","1","1","1","",""
"","feedback","","html-keyboard-response","297","410591","0.0-1.0-402.0-0.0","0","0","47691","","null","","","null","44","","","","","","","","","","","","","","","",""
"","ITI","","html-keyboard-response","298","411595","0.0-1.0-405.0","0","0","47691","","null","","","null","44","","","","","","","","","","","","","","","NaN",""
"","S1","","html-keyboard-response","299","411747","0.0-1.0-407.0","0","0","47691","","null","","","null","45","","","","","","","","","","","","","","","",""
"","ISI","","html-keyboard-response","300","413750","0.0-1.0-408.0","0","0","47691","","null","","","null","45","NaN","","","","","","","","","","","","","","",""
"","S2","","html-keyboard-response","301","413902","0.0-1.0-409.0","0","0","47691","","null","","","null","45","","NaN","","","","","","","","","","","","","",""
"","response","","html-keyboard-response","302","414624","0.0-1.0-410.0-0.0","0","0","47691","","721","","","68","45","","","1","45","training","adjacent","EF","5","6","O.jpg","M.jpg","0","1","0","",""
"","feedback","","html-keyboard-response","303","415627","0.0-1.0-411.0-0.0","0","0","47691","","null","","","null","45","","","","","","","","","","","","","","","",""
"","time_out","","html-keyboard-response","304","417629","0.0-1.0-413.0-0.0","0","0","47691","","null","","","null","45","","","","","","","","","","","","","","","",""
"","ITI","","html-keyboard-response","305","418632","0.0-1.0-414.0","0","0","47691","","null","","","null","45","","","","","","","","","","","","","","","NaN",""
"","S1","","html-keyboard-response","306","418785","0.0-1.0-416.0","0","0","47691","","null","","","null","46","","","","","","","","","","","","","","","",""
"","ISI","","html-keyboard-response","307","420789","0.0-1.0-417.0","0","0","47691","","null","","","null","46","NaN","","","","","","","","","","","","","","",""
"","S2","","html-keyboard-response","308","420942","0.0-1.0-418.0","0","0","47691","","null","","","null","46","","NaN","","","","","","","","","","","","","",""
"","response","","html-keyboard-response","309","421627","0.0-1.0-419.0-0.0","0","0","47691","","684","","","75","46","","","1","46","training","adjacent","EF","5","6","O.jpg","M.jpg","1","1","1","",""
"","feedback","","html-keyboard-response","310","422631","0.0-1.0-420.0-0.0","0","0","47691","","null","","","null","46","","","","","","","","","","","","","","","",""
"","ITI","","html-keyboard-response","311","423634","0.0-1.0-423.0","0","0","47691","","null","","","null","46","","","","","","","","","","","","","","","NaN",""
"","S1","","html-keyboard-response","312","423787","0.0-1.0-425.0","0","0","47691","","null","","","null","47","","","","","","","","","","","","","","","",""
"","ISI","","html-keyboard-response","313","425790","0.0-1.0-426.0","0","0","47691","","null","","","null","47","NaN","","","","","","","","","","","","","","",""
"","S2","","html-keyboard-response","314","425943","0.0-1.0-427.0","0","0","47691","","null","","","null","47","","NaN","","","","","","","","","","","","","",""
"","response","","html-keyboard-response","315","426479","0.0-1.0-428.0-0.0","0","0","47691","","534","","","75","47","","","1","47","training","adjacent","EF","5","6","O.jpg","M.jpg","1","1","1","",""
"","feedback","","html-keyboard-response","316","427486","0.0-1.0-429.0-0.0","0","0","47691","","null","","","null","47","","","","","","","","","","","","","","","",""
"","ITI","","html-keyboard-response","317","428489","0.0-1.0-432.0","0","0","47691","","null","","","null","47","","","","","","","","","","","","","","","NaN",""
"","block_over","","html-keyboard-response","318","433198","0.0-1.0-433.0-0.0","0","0","47691","","4708","","","32","47","","","","","","","","","","","","","","","",""
"","S1","","html-keyboard-response","319","433351","0.0-1.0-434.0","0","0","47691","","null","","","null","48","","","","","","","","","","","","","","","",""
"","ISI","","html-keyboard-response","320","435354","0.0-1.0-435.0","0","0","47691","","null","","","null","48","NaN","","","","","","","","","","","","","","",""
"","S2","","html-keyboard-response","321","435507","0.0-1.0-436.0","0","0","47691","","null","","","null","48","","NaN","","","","","","","","","","","","","",""
"","response","","html-keyboard-response","322","436413","0.0-1.0-437.0-0.0","0","0","47691","","905","","","68","48","","","2","48","training","adjacent","FE","6","5","M.jpg","O.jpg","0","0","1","",""
"","feedback","","html-keyboard-response","323","437416","0.0-1.0-438.0-0.0","0","0","47691","","null","","","null","48","","","","","","","","","","","","","","","",""
"","ITI","","html-keyboard-response","324","438418","0.0-1.0-441.0","0","0","47691","","null","","","null","48","","","","","","","","","","","","","","","NaN",""
"","S1","","html-keyboard-response","325","438571","0.0-1.0-443.0","0","0","47691","","null","","","null","49","","","","","","","","","","","","","","","",""
"","ISI","","html-keyboard-response","326","440574","0.0-1.0-444.0","0","0","47691","","null","","","null","49","NaN","","","","","","","","","","","","","","",""
"","S2","","html-keyboard-response","327","440727","0.0-1.0-445.0","0","0","47691","","null","","","null","49","","NaN","","","","","","","","","","","","","",""
"","response","","html-keyboard-response","328","441786","0.0-1.0-446.0-0.0","0","0","47691","","1058","","","75","49","","","2","49","training","adjacent","FG","6","7","M.jpg","R.jpg","1","1","1","",""
"","feedback","","html-keyboard-response","329","442789","0.0-1.0-447.0-0.0","0","0","47691","","null","","","null","49","","","","","","","","","","","","","","","",""
"","ITI","","html-keyboard-response","330","443792","0.0-1.0-450.0","0","0","47691","","null","","","null","49","","","","","","","","","","","","","","","NaN",""
"","S1","","html-keyboard-response","331","443945","0.0-1.0-452.0","0","0","47691","","null","","","null","50","","","","","","","","","","","","","","","",""
"","ISI","","html-keyboard-response","332","445950","0.0-1.0-453.0","0","0","47691","","null","","","null","50","NaN","","","","","","","","","","","","","","",""
"","S2","","html-keyboard-response","333","446103","0.0-1.0-454.0","0","0","47691","","null","","","null","50","","NaN","","","","","","","","","","","","","",""
"","response","","html-keyboard-response","334","446531","0.0-1.0-455.0-0.0","0","0","47691","","427","","","68","50","","","2","50","training","adjacent","DC","4","3","Q.jpg","N.jpg","0","0","1","",""
"","feedback","","html-keyboard-response","335","447534","0.0-1.0-456.0-0.0","0","0","47691","","null","","","null","50","","","","","","","","","","","","","","","",""
"","ITI","","html-keyboard-response","336","448537","0.0-1.0-459.0","0","0","47691","","null","","","null","50","","","","","","","","","","","","","","","NaN",""
"","S1","","html-keyboard-response","337","448690","0.0-1.0-461.0","0","0","47691","","null","","","null","51","","","","","","","","","","","","","","","",""
"","ISI","","html-keyboard-response","338","450692","0.0-1.0-462.0","0","0","47691","","null","","","null","51","NaN","","","","","","","","","","","","","","",""
"","S2","","html-keyboard-response","339","450846","0.0-1.0-463.0","0","0","47691","","null","","","null","51","","NaN","","","","","","","","","","","","","",""
"","response","","html-keyboard-response","340","451500","0.0-1.0-464.0-0.0","0","0","47691","","653","","","68","51","","","2","51","training","adjacent","FE","6","5","M.jpg","O.jpg","0","0","1","",""
"","feedback","","html-keyboard-response","341","452503","0.0-1.0-465.0-0.0","0","0","47691","","null","","","null","51","","","","","","","","","","","","","","","",""
"","ITI","","html-keyboard-response","342","453506","0.0-1.0-468.0","0","0","47691","","null","","","null","51","","","","","","","","","","","","","","","NaN",""
"","S1","","html-keyboard-response","343","453659","0.0-1.0-470.0","0","0","47691","","null","","","null","52","","","","","","","","","","","","","","","",""
"","ISI","","html-keyboard-response","344","455662","0.0-1.0-471.0","0","0","47691","","null","","","null","52","NaN","","","","","","","","","","","","","","",""
"","S2","","html-keyboard-response","345","455815","0.0-1.0-472.0","0","0","47691","","null","","","null","52","","NaN","","","","","","","","","","","","","",""
"","response","","html-keyboard-response","346","456108","0.0-1.0-473.0-0.0","0","0","47691","","292","","","68","52","","","2","52","training","adjacent","GF","7","6","R.jpg","M.jpg","0","0","1","",""
"","feedback","","html-keyboard-response","347","457111","0.0-1.0-474.0-0.0","0","0","47691","","null","","","null","52","","","","","","","","","","","","","","","",""
"","ITI","","html-keyboard-response","348","458114","0.0-1.0-477.0","0","0","47691","","null","","","null","52","","","","","","","","","","","","","","","NaN",""
"","S1","","html-keyboard-response","349","458274","0.0-1.0-479.0","0","0","47691","","null","","","null","53","","","","","","","","","","","","","","","",""
"","ISI","","html-keyboard-response","350","460277","0.0-1.0-480.0","0","0","47691","","null","","","null","53","NaN","","","","","","","","","","","","","","",""
"","S2","","html-keyboard-response","351","460431","0.0-1.0-481.0","0","0","47691","","null","","","null","53","","NaN","","","","","","","","","","","","","",""
"","response","","html-keyboard-response","352","461176","0.0-1.0-482.0-0.0","0","0","47691","","743","","","75","53","","","2","53","training","adjacent","ED","5","4","O.jpg","Q.jpg","1","0","0","",""
"","feedback","","html-keyboard-response","353","462184","0.0-1.0-483.0-0.0","0","0","47691","","null","","","null","53","","","","","","","","","","","","","","","",""
"","time_out","","html-keyboard-response","354","464197","0.0-1.0-485.0-0.0","0","0","47691","","null","","","null","53","","","","","","","","","","","","","","","",""
"","ITI","","html-keyboard-response","355","465202","0.0-1.0-486.0","0","0","47691","","null","","","null","53","","","","","","","","","","","","","","","NaN",""
"","S1","","html-keyboard-response","356","465355","0.0-1.0-488.0","0","0","47691","","null","","","null","54","","","","","","","","","","","","","","","",""
"","ISI","","html-keyboard-response","357","467357","0.0-1.0-489.0","0","0","47691","","null","","","null","54","NaN","","","","","","","","","","","","","","",""
"","S2","","html-keyboard-response","358","467510","0.0-1.0-490.0","0","0","47691","","null","","","null","54","","NaN","","","","","","","","","","","","","",""
"","response","","html-keyboard-response","359","467842","0.0-1.0-491.0-0.0","0","0","47691","","331","","","68","54","","","2","54","training","adjacent","GF","7","6","R.jpg","M.jpg","0","0","1","",""
"","feedback","","html-keyboard-response","360","468846","0.0-1.0-492.0-0.0","0","0","47691","","null","","","null","54","","","","","","","","","","","","","","","",""
"","ITI","","html-keyboard-response","361","469848","0.0-1.0-495.0","0","0","47691","","null","","","null","54","","","","","","","","","","","","","","","NaN",""
"","S1","","html-keyboard-response","362","470001","0.0-1.0-497.0","0","0","47691","","null","","","null","55","","","","","","","","","","","","","","","",""
"","ISI","","html-keyboard-response","363","472004","0.0-1.0-498.0","0","0","47691","","null","","","null","55","NaN","","","","","","","","","","","","","","",""
"","S2","","html-keyboard-response","364","472157","0.0-1.0-499.0","0","0","47691","","null","","","null","55","","NaN","","","","","","","","","","","","","",""
"","response","","html-keyboard-response","365","472686","0.0-1.0-500.0-0.0","0","0","47691","","527","","","75","55","","","2","55","training","adjacent","EF","5","6","O.jpg","M.jpg","1","1","1","",""
"","feedback","","html-keyboard-response","366","473689","0.0-1.0-501.0-0.0","0","0","47691","","null","","","null","55","","","","","","","","","","","","","","","",""
"","ITI","","html-keyboard-response","367","474692","0.0-1.0-504.0","0","0","47691","","null","","","null","55","","","","","","","","","","","","","","","NaN",""
"","S1","","html-keyboard-response","368","474845","0.0-1.0-506.0","0","0","47691","","null","","","null","56","","","","","","","","","","","","","","","",""
"","ISI","","html-keyboard-response","369","476849","0.0-1.0-507.0","0","0","47691","","null","","","null","56","NaN","","","","","","","","","","","","","","",""
"","S2","","html-keyboard-response","370","477002","0.0-1.0-508.0","0","0","47691","","null","","","null","56","","NaN","","","","","","","","","","","","","",""
"","response","","html-keyboard-response","371","477332","0.0-1.0-509.0-0.0","0","0","47691","","328","","","68","56","","","2","56","training","adjacent","FE","6","5","M.jpg","O.jpg","0","0","1","",""
"","feedback","","html-keyboard-response","372","478335","0.0-1.0-510.0-0.0","0","0","47691","","null","","","null","56","","","","","","","","","","","","","","","",""
"","ITI","","html-keyboard-response","373","479338","0.0-1.0-513.0","0","0","47691","","null","","","null","56","","","","","","","","","","","","","","","NaN",""
"","S1","","html-keyboard-response","374","479492","0.0-1.0-515.0","0","0","47691","","null","","","null","57","","","","","","","","","","","","","","","",""
"","ISI","","html-keyboard-response","375","481494","0.0-1.0-516.0","0","0","47691","","null","","","null","57","NaN","","","","","","","","","","","","","","",""
"","S2","","html-keyboard-response","376","481647","0.0-1.0-517.0","0","0","47691","","null","","","null","57","","NaN","","","","","","","","","","","","","",""
"","response","","html-keyboard-response","377","482666","0.0-1.0-518.0-0.0","0","0","47691","","1016","","","68","57","","","2","57","training","adjacent","FG","6","7","M.jpg","R.jpg","0","1","0","",""
"","feedback","","html-keyboard-response","378","483669","0.0-1.0-519.0-0.0","0","0","47691","","null","","","null","57","","","","","","","","","","","","","","","",""
"","time_out","","html-keyboard-response","379","485679","0.0-1.0-521.0-0.0","0","0","47691","","null","","","null","57","","","","","","","","","","","","","","","",""
"","ITI","","html-keyboard-response","380","486681","0.0-1.0-522.0","0","0","47691","","null","","","null","57","","","","","","","","","","","","","","","NaN",""
"","S1","","html-keyboard-response","381","486834","0.0-1.0-524.0","0","0","47691","","null","","","null","58","","","","","","","","","","","","","","","",""
"","ISI","","html-keyboard-response","382","488837","0.0-1.0-525.0","0","0","47691","","null","","","null","58","NaN","","","","","","","","","","","","","","",""
"","S2","","html-keyboard-response","383","488989","0.0-1.0-526.0","0","0","47691","","null","","","null","58","","NaN","","","","","","","","","","","","","",""
"","response","","html-keyboard-response","384","489839","0.0-1.0-527.0-0.0","0","0","47691","","847","","","68","58","","","2","58","training","adjacent","BA","2","1","P.jpg","L.jpg","0","0","1","",""
"","feedback","","html-keyboard-response","385","490843","0.0-1.0-528.0-0.0","0","0","47691","","null","","","null","58","","","","","","","","","","","","","","","",""
"","ITI","","html-keyboard-response","386","491846","0.0-1.0-531.0","0","0","47691","","null","","","null","58","","","","","","","","","","","","","","","NaN",""
"","S1","","html-keyboard-response","387","491998","0.0-1.0-533.0","0","0","47691","","null","","","null","59","","","","","","","","","","","","","","","",""
"","ISI","","html-keyboard-response","388","494002","0.0-1.0-534.0","0","0","47691","","null","","","null","59","NaN","","","","","","","","","","","","","","",""
"","S2","","html-keyboard-response","389","494155","0.0-1.0-535.0","0","0","47691","","null","","","null","59","","NaN","","","","","","","","","","","","","",""
"","response","","html-keyboard-response","390","494828","0.0-1.0-536.0-0.0","0","0","47691","","672","","","68","59","","","2","59","training","adjacent","CB","3","2","N.jpg","P.jpg","0","0","1","",""
"","feedback","","html-keyboard-response","391","495831","0.0-1.0-537.0-0.0","0","0","47691","","null","","","null","59","","","","","","","","","","","","","","","",""
"","ITI","","html-keyboard-response","392","496834","0.0-1.0-540.0","0","0","47691","","null","","","null","59","","","","","","","","","","","","","","","NaN",""
"","S1","","html-keyboard-response","393","496989","0.0-1.0-542.0","0","0","47691","","null","","","null","60","","","","","","","","","","","","","","","",""
"","ISI","","html-keyboard-response","394","498992","0.0-1.0-543.0","0","0","47691","","null","","","null","60","NaN","","","","","","","","","","","","","","",""
"","S2","","html-keyboard-response","395","499145","0.0-1.0-544.0","0","0","47691","","null","","","null","60","","NaN","","","","","","","","","","","","","",""
"","response","","html-keyboard-response","396","499458","0.0-1.0-545.0-0.0","0","0","47691","","311","","","68","60","","","2","60","training","adjacent","CB","3","2","N.jpg","P.jpg","0","0","1","",""
"","feedback","","html-keyboard-response","397","500462","0.0-1.0-546.0-0.0","0","0","47691","","null","","","null","60","","","","","","","","","","","","","","","",""
"","ITI","","html-keyboard-response","398","501464","0.0-1.0-549.0","0","0","47691","","null","","","null","60","","","","","","","","","","","","","","","NaN",""
"","S1","","html-keyboard-response","399","501617","0.0-1.0-551.0","0","0","47691","","null","","","null","61","","","","","","","","","","","","","","","",""
"","ISI","","html-keyboard-response","400","503619","0.0-1.0-552.0","0","0","47691","","null","","","null","61","NaN","","","","","","","","","","","","","","",""
"","S2","","html-keyboard-response","401","503773","0.0-1.0-553.0","0","0","47691","","null","","","null","61","","NaN","","","","","","","","","","","","","",""
"","response","","html-keyboard-response","402","504328","0.0-1.0-554.0-0.0","0","0","47691","","554","","","68","61","","","2","61","training","adjacent","DE","4","5","Q.jpg","O.jpg","0","1","0","",""
"","feedback","","html-keyboard-response","403","505331","0.0-1.0-555.0-0.0","0","0","47691","","null","","","null","61","","","","","","","","","","","","","","","",""
"","time_out","","html-keyboard-response","404","507335","0.0-1.0-557.0-0.0","0","0","47691","","null","","","null","61","","","","","","","","","","","","","","","",""
"","ITI","","html-keyboard-response","405","508339","0.0-1.0-558.0","0","0","47691","","null","","","null","61","","","","","","","","","","","","","","","NaN",""
"","S1","","html-keyboard-response","406","508492","0.0-1.0-560.0","0","0","47691","","null","","","null","62","","","","","","","","","","","","","","","",""
"","ISI","","html-keyboard-response","407","510495","0.0-1.0-561.0","0","0","47691","","null","","","null","62","NaN","","","","","","","","","","","","","","",""
"","S2","","html-keyboard-response","408","510649","0.0-1.0-562.0","0","0","47691","","null","","","null","62","","NaN","","","","","","","","","","","","","",""
"","response","","html-keyboard-response","409","511213","0.0-1.0-563.0-0.0","0","0","47691","","563","","","75","62","","","2","62","training","adjacent","AB","1","2","L.jpg","P.jpg","1","1","1","",""
"","feedback","","html-keyboard-response","410","512216","0.0-1.0-564.0-0.0","0","0","47691","","null","","","null","62","","","","","","","","","","","","","","","",""
"","ITI","","html-keyboard-response","411","513219","0.0-1.0-567.0","0","0","47691","","null","","","null","62","","","","","","","","","","","","","","","NaN",""
"","S1","","html-keyboard-response","412","513372","0.0-1.0-569.0","0","0","47691","","null","","","null","63","","","","","","","","","","","","","","","",""
"","ISI","","html-keyboard-response","413","515375","0.0-1.0-570.0","0","0","47691","","null","","","null","63","NaN","","","","","","","","","","","","","","",""
"","S2","","html-keyboard-response","414","515530","0.0-1.0-571.0","0","0","47691","","null","","","null","63","","NaN","","","","","","","","","","","","","",""
"","response","","html-keyboard-response","415","516728","0.0-1.0-572.0-0.0","0","0","47691","","1195","","","75","63","","","2","63","training","adjacent","FG","6","7","M.jpg","R.jpg","1","1","1","",""
"","feedback","","html-keyboard-response","416","517731","0.0-1.0-573.0-0.0","0","0","47691","","null","","","null","63","","","","","","","","","","","","","","","",""
"","ITI","","html-keyboard-response","417","518734","0.0-1.0-576.0","0","0","47691","","null","","","null","63","","","","","","","","","","","","","","","NaN",""
"","S1","","html-keyboard-response","418","518887","0.0-1.0-578.0","0","0","47691","","null","","","null","64","","","","","","","","","","","","","","","",""
"","ISI","","html-keyboard-response","419","520890","0.0-1.0-579.0","0","0","47691","","null","","","null","64","NaN","","","","","","","","","","","","","","",""
"","S2","","html-keyboard-response","420","521043","0.0-1.0-580.0","0","0","47691","","null","","","null","64","","NaN","","","","","","","","","","","","","",""
"","response","","html-keyboard-response","421","521501","0.0-1.0-581.0-0.0","0","0","47691","","456","","","68","64","","","2","64","training","adjacent","GF","7","6","R.jpg","M.jpg","0","0","1","",""
"","feedback","","html-keyboard-response","422","522503","0.0-1.0-582.0-0.0","0","0","47691","","null","","","null","64","","","","","","","","","","","","","","","",""
"","ITI","","html-keyboard-response","423","523513","0.0-1.0-585.0","0","0","47691","","null","","","null","64","","","","","","","","","","","","","","","NaN",""
"","S1","","html-keyboard-response","424","523666","0.0-1.0-587.0","0","0","47691","","null","","","null","65","","","","","","","","","","","","","","","",""
"","ISI","","html-keyboard-response","425","525669","0.0-1.0-588.0","0","0","47691","","null","","","null","65","NaN","","","","","","","","","","","","","","",""
"","S2","","html-keyboard-response","426","525822","0.0-1.0-589.0","0","0","47691","","null","","","null","65","","NaN","","","","","","","","","","","","","",""
"","response","","html-keyboard-response","427","527001","0.0-1.0-590.0-0.0","0","0","47691","","1177","","","75","65","","","2","65","training","adjacent","FG","6","7","M.jpg","R.jpg","1","1","1","",""
"","feedback","","html-keyboard-response","428","528003","0.0-1.0-591.0-0.0","0","0","47691","","null","","","null","65","","","","","","","","","","","","","","","",""
"","ITI","","html-keyboard-response","429","529007","0.0-1.0-594.0","0","0","47691","","null","","","null","65","","","","","","","","","","","","","","","NaN",""
"","S1","","html-keyboard-response","430","529159","0.0-1.0-596.0","0","0","47691","","null","","","null","66","","","","","","","","","","","","","","","",""
"","ISI","","html-keyboard-response","431","531161","0.0-1.0-597.0","0","0","47691","","null","","","null","66","NaN","","","","","","","","","","","","","","",""
"","S2","","html-keyboard-response","432","531314","0.0-1.0-598.0","0","0","47691","","null","","","null","66","","NaN","","","","","","","","","","","","","",""
"","response","","html-keyboard-response","433","531724","0.0-1.0-599.0-0.0","0","0","47691","","409","","","75","66","","","2","66","training","adjacent","AB","1","2","L.jpg","P.jpg","1","1","1","",""
"","feedback","","html-keyboard-response","434","532727","0.0-1.0-600.0-0.0","0","0","47691","","null","","","null","66","","","","","","","","","","","","","","","",""
"","ITI","","html-keyboard-response","435","533730","0.0-1.0-603.0","0","0","47691","","null","","","null","66","","","","","","","","","","","","","","","NaN",""
"","S1","","html-keyboard-response","436","533883","0.0-1.0-605.0","0","0","47691","","null","","","null","67","","","","","","","","","","","","","","","",""
"","ISI","","html-keyboard-response","437","535886","0.0-1.0-606.0","0","0","47691","","null","","","null","67","NaN","","","","","","","","","","","","","","",""
"","S2","","html-keyboard-response","438","536039","0.0-1.0-607.0","0","0","47691","","null","","","null","67","","NaN","","","","","","","","","","","","","",""
"","response","","html-keyboard-response","439","536716","0.0-1.0-608.0-0.0","0","0","47691","","675","","","68","67","","","2","67","training","adjacent","EF","5","6","O.jpg","M.jpg","0","1","0","",""
"","feedback","","html-keyboard-response","440","537724","0.0-1.0-609.0-0.0","0","0","47691","","null","","","null","67","","","","","","","","","","","","","","","",""
"","time_out","","html-keyboard-response","441","539729","0.0-1.0-611.0-0.0","0","0","47691","","null","","","null","67","","","","","","","","","","","","","","","",""
"","ITI","","html-keyboard-response","442","540732","0.0-1.0-612.0","0","0","47691","","null","","","null","67","","","","","","","","","","","","","","","NaN",""
"","S1","","html-keyboard-response","443","540885","0.0-1.0-614.0","0","0","47691","","null","","","null","68","","","","","","","","","","","","","","","",""
"","ISI","","html-keyboard-response","444","542888","0.0-1.0-615.0","0","0","47691","","null","","","null","68","NaN","","","","","","","","","","","","","","",""
"","S2","","html-keyboard-response","445","543041","0.0-1.0-616.0","0","0","47691","","null","","","null","68","","NaN","","","","","","","","","","","","","",""
"","response","","html-keyboard-response","446","543548","0.0-1.0-617.0-0.0","0","0","47691","","505","","","75","68","","","2","68","training","adjacent","ED","5","4","O.jpg","Q.jpg","1","0","0","",""
"","feedback","","html-keyboard-response","447","544550","0.0-1.0-618.0-0.0","0","0","47691","","null","","","null","68","","","","","","","","","","","","","","","",""
"","time_out","","html-keyboard-response","448","546553","0.0-1.0-620.0-0.0","0","0","47691","","null","","","null","68","","","","","","","","","","","","","","","",""
"","ITI","","html-keyboard-response","449","547556","0.0-1.0-621.0","0","0","47691","","null","","","null","68","","","","","","","","","","","","","","","NaN",""
"","S1","","html-keyboard-response","450","547709","0.0-1.0-623.0","0","0","47691","","null","","","null","69","","","","","","","","","","","","","","","",""
"","ISI","","html-keyboard-response","451","549712","0.0-1.0-624.0","0","0","47691","","null","","","null","69","NaN","","","","","","","","","","","","","","",""
"","S2","","html-keyboard-response","452","549865","0.0-1.0-625.0","0","0","47691","","null","","","null","69","","NaN","","","","","","","","","","","","","",""
"","response","","html-keyboard-response","453","550358","0.0-1.0-626.0-0.0","0","0","47691","","492","","","68","69","","","2","69","training","adjacent","BC","2","3","P.jpg","N.jpg","0","1","0","",""
"","feedback","","html-keyboard-response","454","551362","0.0-1.0-627.0-0.0","0","0","47691","","null","","","null","69","","","","","","","","","","","","","","","",""
"","time_out","","html-keyboard-response","455","553374","0.0-1.0-629.0-0.0","0","0","47691","","null","","","null","69","","","","","","","","","","","","","","","",""
"","ITI","","html-keyboard-response","456","554377","0.0-1.0-630.0","0","0","47691","","null","","","null","69","","","","","","","","","","","","","","","NaN",""
"","S1","","html-keyboard-response","457","554530","0.0-1.0-632.0","0","0","47691","","null","","","null","70","","","","","","","","","","","","","","","",""
"","ISI","","html-keyboard-response","458","556533","0.0-1.0-633.0","0","0","47691","","null","","","null","70","NaN","","","","","","","","","","","","","","",""
"","S2","","html-keyboard-response","459","556687","0.0-1.0-634.0","0","0","47691","","null","","","null","70","","NaN","","","","","","","","","","","","","",""
"","response","","html-keyboard-response","460","556988","0.0-1.0-635.0-0.0","0","0","47691","","300","","","68","70","","","2","70","training","adjacent","DE","4","5","Q.jpg","O.jpg","0","1","0","",""
"","feedback","","html-keyboard-response","461","557991","0.0-1.0-636.0-0.0","0","0","47691","","null","","","null","70","","","","","","","","","","","","","","","",""
"","time_out","","html-keyboard-response","462","559994","0.0-1.0-638.0-0.0","0","0","47691","","null","","","null","70","","","","","","","","","","","","","","","",""
"","ITI","","html-keyboard-response","463","560998","0.0-1.0-639.0","0","0","47691","","null","","","null","70","","","","","","","","","","","","","","","NaN",""
"","S1","","html-keyboard-response","464","561150","0.0-1.0-641.0","0","0","47691","","null","","","null","71","","","","","","","","","","","","","","","",""
"","ISI","","html-keyboard-response","465","563153","0.0-1.0-642.0","0","0","47691","","null","","","null","71","NaN","","","","","","","","","","","","","","",""
"","S2","","html-keyboard-response","466","563306","0.0-1.0-643.0","0","0","47691","","null","","","null","71","","NaN","","","","","","","","","","","","","",""
"","response","","html-keyboard-response","467","564197","0.0-1.0-644.0-0.0","0","0","47691","","890","","","68","71","","","2","71","training","adjacent","CD","3","4","N.jpg","Q.jpg","0","1","0","",""
"","feedback","","html-keyboard-response","468","565200","0.0-1.0-645.0-0.0","0","0","47691","","null","","","null","71","","","","","","","","","","","","","","","",""
"","time_out","","html-keyboard-response","469","567203","0.0-1.0-647.0-0.0","0","0","47691","","null","","","null","71","","","","","","","","","","","","","","","",""
"","ITI","","html-keyboard-response","470","568207","0.0-1.0-648.0","0","0","47691","","null","","","null","71","","","","","","","","","","","","","","","NaN",""
"","S1","","html-keyboard-response","471","568359","0.0-1.0-650.0","0","0","47691","","null","","","null","72","","","","","","","","","","","","","","","",""
"","ISI","","html-keyboard-response","472","570362","0.0-1.0-651.0","0","0","47691","","null","","","null","72","NaN","","","","","","","","","","","","","","",""
"","S2","","html-keyboard-response","473","570515","0.0-1.0-652.0","0","0","47691","","null","","","null","72","","NaN","","","","","","","","","","","","","",""
"","response","","html-keyboard-response","474","571093","0.0-1.0-653.0-0.0","0","0","47691","","575","","","68","72","","","2","72","training","adjacent","AB","1","2","L.jpg","P.jpg","0","1","0","",""
"","feedback","","html-keyboard-response","475","572096","0.0-1.0-654.0-0.0","0","0","47691","","null","","","null","72","","","","","","","","","","","","","","","",""
"","time_out","","html-keyboard-response","476","574101","0.0-1.0-656.0-0.0","0","0","47691","","null","","","null","72","","","","","","","","","","","","","","","",""
"","ITI","","html-keyboard-response","477","575103","0.0-1.0-657.0","0","0","47691","","null","","","null","72","","","","","","","","","","","","","","","NaN",""
"","S1","","html-keyboard-response","478","575260","0.0-1.0-659.0","0","0","47691","","null","","","null","73","","","","","","","","","","","","","","","",""
"","ISI","","html-keyboard-response","479","577263","0.0-1.0-660.0","0","0","47691","","null","","","null","73","NaN","","","","","","","","","","","","","","",""
"","S2","","html-keyboard-response","480","577416","0.0-1.0-661.0","0","0","47691","","null","","","null","73","","NaN","","","","","","","","","","","","","",""
"","response","","html-keyboard-response","481","577725","0.0-1.0-662.0-0.0","0","0","47691","","307","","","75","73","","","2","73","training","adjacent","DE","4","5","Q.jpg","O.jpg","1","1","1","",""
"","feedback","","html-keyboard-response","482","578728","0.0-1.0-663.0-0.0","0","0","47691","","null","","","null","73","","","","","","","","","","","","","","","",""
"","ITI","","html-keyboard-response","483","579731","0.0-1.0-666.0","0","0","47691","","null","","","null","73","","","","","","","","","","","","","","","NaN",""
"","S1","","html-keyboard-response","484","579884","0.0-1.0-668.0","0","0","47691","","null","","","null","74","","","","","","","","","","","","","","","",""
"","ISI","","html-keyboard-response","485","581887","0.0-1.0-669.0","0","0","47691","","null","","","null","74","NaN","","","","","","","","","","","","","","",""
"","S2","","html-keyboard-response","486","582040","0.0-1.0-670.0","0","0","47691","","null","","","null","74","","NaN","","","","","","","","","","","","","",""
"","response","","html-keyboard-response","487","582519","0.0-1.0-671.0-0.0","0","0","47691","","477","","","68","74","","","2","74","training","adjacent","BA","2","1","P.jpg","L.jpg","0","0","1","",""
"","feedback","","html-keyboard-response","488","583522","0.0-1.0-672.0-0.0","0","0","47691","","null","","","null","74","","","","","","","","","","","","","","","",""
"","ITI","","html-keyboard-response","489","584525","0.0-1.0-675.0","0","0","47691","","null","","","null","74","","","","","","","","","","","","","","","NaN",""
"","S1","","html-keyboard-response","490","584678","0.0-1.0-677.0","0","0","47691","","null","","","null","75","","","","","","","","","","","","","","","",""
"","ISI","","html-keyboard-response","491","586681","0.0-1.0-678.0","0","0","47691","","null","","","null","75","NaN","","","","","","","","","","","","","","",""
"","S2","","html-keyboard-response","492","586835","0.0-1.0-679.0","0","0","47691","","null","","","null","75","","NaN","","","","","","","","","","","","","",""
"","response","","html-keyboard-response","493","587181","0.0-1.0-680.0-0.0","0","0","47691","","345","","","75","75","","","2","75","training","adjacent","AB","1","2","L.jpg","P.jpg","1","1","1","",""
"","feedback","","html-keyboard-response","494","588184","0.0-1.0-681.0-0.0","0","0","47691","","null","","","null","75","","","","","","","","","","","","","","","",""
"","ITI","","html-keyboard-response","495","589188","0.0-1.0-684.0","0","0","47691","","null","","","null","75","","","","","","","","","","","","","","","NaN",""
"","S1","","html-keyboard-response","496","589340","0.0-1.0-686.0","0","0","47691","","null","","","null","76","","","","","","","","","","","","","","","",""
"","ISI","","html-keyboard-response","497","591344","0.0-1.0-687.0","0","0","47691","","null","","","null","76","NaN","","","","","","","","","","","","","","",""
"","S2","","html-keyboard-response","498","591504","0.0-1.0-688.0","0","0","47691","","null","","","null","76","","NaN","","","","","","","","","","","","","",""
"","response","","html-keyboard-response","499","591816","0.0-1.0-689.0-0.0","0","0","47691","","310","","","68","76","","","2","76","training","adjacent","GF","7","6","R.jpg","M.jpg","0","0","1","",""
"","feedback","","html-keyboard-response","500","592819","0.0-1.0-690.0-0.0","0","0","47691","","null","","","null","76","","","","","","","","","","","","","","","",""
"","ITI","","html-keyboard-response","501","593822","0.0-1.0-693.0","0","0","47691","","null","","","null","76","","","","","","","","","","","","","","","NaN",""
"","S1","","html-keyboard-response","502","593975","0.0-1.0-695.0","0","0","47691","","null","","","null","77","","","","","","","","","","","","","","","",""
"","ISI","","html-keyboard-response","503","595979","0.0-1.0-696.0","0","0","47691","","null","","","null","77","NaN","","","","","","","","","","","","","","",""
"","S2","","html-keyboard-response","504","596132","0.0-1.0-697.0","0","0","47691","","null","","","null","77","","NaN","","","","","","","","","","","","","",""
"","response","","html-keyboard-response","505","596800","0.0-1.0-698.0-0.0","0","0","47691","","667","","","75","77","","","2","77","training","adjacent","CB","3","2","N.jpg","P.jpg","1","0","0","",""
"","feedback","","html-keyboard-response","506","597802","0.0-1.0-699.0-0.0","0","0","47691","","null","","","null","77","","","","","","","","","","","","","","","",""
"","time_out","","html-keyboard-response","507","599806","0.0-1.0-701.0-0.0","0","0","47691","","null","","","null","77","","","","","","","","","","","","","","","",""
"","ITI","","html-keyboard-response","508","600809","0.0-1.0-702.0","0","0","47691","","null","","","null","77","","","","","","","","","","","","","","","NaN",""
"","S1","","html-keyboard-response","509","600962","0.0-1.0-704.0","0","0","47691","","null","","","null","78","","","","","","","","","","","","","","","",""
"","ISI","","html-keyboard-response","510","602966","0.0-1.0-705.0","0","0","47691","","null","","","null","78","NaN","","","","","","","","","","","","","","",""
"","S2","","html-keyboard-response","511","603119","0.0-1.0-706.0","0","0","47691","","null","","","null","78","","NaN","","","","","","","","","","","","","",""
"","response","","html-keyboard-response","512","603455","0.0-1.0-707.0-0.0","0","0","47691","","335","","","75","78","","","2","78","training","adjacent","FE","6","5","M.jpg","O.jpg","1","0","0","",""
"","feedback","","html-keyboard-response","513","604458","0.0-1.0-708.0-0.0","0","0","47691","","null","","","null","78","","","","","","","","","","","","","","","",""
"","time_out","","html-keyboard-response","514","606461","0.0-1.0-710.0-0.0","0","0","47691","","null","","","null","78","","","","","","","","","","","","","","","",""
"","ITI","","html-keyboard-response","515","607465","0.0-1.0-711.0","0","0","47691","","null","","","null","78","","","","","","","","","","","","","","","NaN",""
"","S1","","html-keyboard-response","516","607625","0.0-1.0-713.0","0","0","47691","","null","","","null","79","","","","","","","","","","","","","","","",""
"","ISI","","html-keyboard-response","517","609629","0.0-1.0-714.0","0","0","47691","","null","","","null","79","NaN","","","","","","","","","","","","","","",""
"","S2","","html-keyboard-response","518","609782","0.0-1.0-715.0","0","0","47691","","null","","","null","79","","NaN","","","","","","","","","","","","","",""
"","response","","html-keyboard-response","519","610168","0.0-1.0-716.0-0.0","0","0","47691","","385","","","68","79","","","2","79","training","adjacent","CB","3","2","N.jpg","P.jpg","0","0","1","",""
"","feedback","","html-keyboard-response","520","611173","0.0-1.0-717.0-0.0","0","0","47691","","null","","","null","79","","","","","","","","","","","","","","","",""
"","ITI","","html-keyboard-response","521","612176","0.0-1.0-720.0","0","0","47691","","null","","","null","79","","","","","","","","","","","","","","","NaN",""
"","S1","","html-keyboard-response","522","612329","0.0-1.0-722.0","0","0","47691","","null","","","null","80","","","","","","","","","","","","","","","",""
"","ISI","","html-keyboard-response","523","614333","0.0-1.0-723.0","0","0","47691","","null","","","null","80","NaN","","","","","","","","","","","","","","",""
"","S2","","html-keyboard-response","524","614487","0.0-1.0-724.0","0","0","47691","","null","","","null","80","","NaN","","","","","","","","","","","","","",""
"","response","","html-keyboard-response","525","615027","0.0-1.0-725.0-0.0","0","0","47691","","539","","","75","80","","","2","80","training","adjacent","BA","2","1","P.jpg","L.jpg","1","0","0","",""
"","feedback","","html-keyboard-response","526","616030","0.0-1.0-726.0-0.0","0","0","47691","","null","","","null","80","","","","","","","","","","","","","","","",""
"","time_out","","html-keyboard-response","527","618032","0.0-1.0-728.0-0.0","0","0","47691","","null","","","null","80","","","","","","","","","","","","","","","",""
"","ITI","","html-keyboard-response","528","619035","0.0-1.0-729.0","0","0","47691","","null","","","null","80","","","","","","","","","","","","","","","NaN",""
"","S1","","html-keyboard-response","529","619189","0.0-1.0-731.0","0","0","47691","","null","","","null","81","","","","","","","","","","","","","","","",""
"","ISI","","html-keyboard-response","530","621192","0.0-1.0-732.0","0","0","47691","","null","","","null","81","NaN","","","","","","","","","","","","","","",""
"","S2","","html-keyboard-response","531","621346","0.0-1.0-733.0","0","0","47691","","null","","","null","81","","NaN","","","","","","","","","","","","","",""
"","response","","html-keyboard-response","532","621707","0.0-1.0-734.0-0.0","0","0","47691","","360","","","75","81","","","2","81","training","adjacent","CD","3","4","N.jpg","Q.jpg","1","1","1","",""
"","feedback","","html-keyboard-response","533","622711","0.0-1.0-735.0-0.0","0","0","47691","","null","","","null","81","","","","","","","","","","","","","","","",""
"","ITI","","html-keyboard-response","534","623713","0.0-1.0-738.0","0","0","47691","","null","","","null","81","","","","","","","","","","","","","","","NaN",""
"","S1","","html-keyboard-response","535","623877","0.0-1.0-740.0","0","0","47691","","null","","","null","82","","","","","","","","","","","","","","","",""
"","ISI","","html-keyboard-response","536","625880","0.0-1.0-741.0","0","0","47691","","null","","","null","82","NaN","","","","","","","","","","","","","","",""
"","S2","","html-keyboard-response","537","626032","0.0-1.0-742.0","0","0","47691","","null","","","null","82","","NaN","","","","","","","","","","","","","",""
"","response","","html-keyboard-response","538","626477","0.0-1.0-743.0-0.0","0","0","47691","","442","","","68","82","","","2","82","training","adjacent","DC","4","3","Q.jpg","N.jpg","0","0","1","",""
"","feedback","","html-keyboard-response","539","627495","0.0-1.0-744.0-0.0","0","0","47691","","null","","","null","82","","","","","","","","","","","","","","","",""
"","ITI","","html-keyboard-response","540","628499","0.0-1.0-747.0","0","0","47691","","null","","","null","82","","","","","","","","","","","","","","","NaN",""
"","S1","","html-keyboard-response","541","628652","0.0-1.0-749.0","0","0","47691","","null","","","null","83","","","","","","","","","","","","","","","",""
"","ISI","","html-keyboard-response","542","630655","0.0-1.0-750.0","0","0","47691","","null","","","null","83","NaN","","","","","","","","","","","","","","",""
"","S2","","html-keyboard-response","543","630808","0.0-1.0-751.0","0","0","47691","","null","","","null","83","","NaN","","","","","","","","","","","","","",""
"","response","","html-keyboard-response","544","631938","0.0-1.0-752.0-0.0","0","0","47691","","1128","","","75","83","","","2","83","training","adjacent","DC","4","3","Q.jpg","N.jpg","1","0","0","",""
"","feedback","","html-keyboard-response","545","632946","0.0-1.0-753.0-0.0","0","0","47691","","null","","","null","83","","","","","","","","","","","","","","","",""
"","time_out","","html-keyboard-response","546","634948","0.0-1.0-755.0-0.0","0","0","47691","","null","","","null","83","","","","","","","","","","","","","","","",""
"","ITI","","html-keyboard-response","547","635951","0.0-1.0-756.0","0","0","47691","","null","","","null","83","","","","","","","","","","","","","","","NaN",""
"","S1","","html-keyboard-response","548","636104","0.0-1.0-758.0","0","0","47691","","null","","","null","84","","","","","","","","","","","","","","","",""
"","ISI","","html-keyboard-response","549","638106","0.0-1.0-759.0","0","0","47691","","null","","","null","84","NaN","","","","","","","","","","","","","","",""
"","S2","","html-keyboard-response","550","638259","0.0-1.0-760.0","0","0","47691","","null","","","null","84","","NaN","","","","","","","","","","","","","",""
"","response","","html-keyboard-response","551","639019","0.0-1.0-761.0-0.0","0","0","47691","","758","","","75","84","","","2","84","training","adjacent","BC","2","3","P.jpg","N.jpg","1","1","1","",""
"","feedback","","html-keyboard-response","552","640022","0.0-1.0-762.0-0.0","0","0","47691","","null","","","null","84","","","","","","","","","","","","","","","",""
"","ITI","","html-keyboard-response","553","641024","0.0-1.0-765.0","0","0","47691","","null","","","null","84","","","","","","","","","","","","","","","NaN",""
"","S1","","html-keyboard-response","554","641177","0.0-1.0-767.0","0","0","47691","","null","","","null","85","","","","","","","","","","","","","","","",""
"","ISI","","html-keyboard-response","555","643180","0.0-1.0-768.0","0","0","47691","","null","","","null","85","NaN","","","","","","","","","","","","","","",""
"","S2","","html-keyboard-response","556","643333","0.0-1.0-769.0","0","0","47691","","null","","","null","85","","NaN","","","","","","","","","","","","","",""
"","response","","html-keyboard-response","557","643838","0.0-1.0-770.0-0.0","0","0","47691","","503","","","68","85","","","2","85","training","adjacent","EF","5","6","O.jpg","M.jpg","0","1","0","",""
"","feedback","","html-keyboard-response","558","644842","0.0-1.0-771.0-0.0","0","0","47691","","null","","","null","85","","","","","","","","","","","","","","","",""
"","time_out","","html-keyboard-response","559","646845","0.0-1.0-773.0-0.0","0","0","47691","","null","","","null","85","","","","","","","","","","","","","","","",""
"","ITI","","html-keyboard-response","560","647847","0.0-1.0-774.0","0","0","47691","","null","","","null","85","","","","","","","","","","","","","","","NaN",""
"","S1","","html-keyboard-response","561","648001","0.0-1.0-776.0","0","0","47691","","null","","","null","86","","","","","","","","","","","","","","","",""
"","ISI","","html-keyboard-response","562","650011","0.0-1.0-777.0","0","0","47691","","null","","","null","86","NaN","","","","","","","","","","","","","","",""
"","S2","","html-keyboard-response","563","650163","0.0-1.0-778.0","0","0","47691","","null","","","null","86","","NaN","","","","","","","","","","","","","",""
"","response","","html-keyboard-response","564","651332","0.0-1.0-779.0-0.0","0","0","47691","","1167","","","75","86","","","2","86","training","adjacent","CD","3","4","N.jpg","Q.jpg","1","1","1","",""
"","feedback","","html-keyboard-response","565","652335","0.0-1.0-780.0-0.0","0","0","47691","","null","","","null","86","","","","","","","","","","","","","","","",""
"","ITI","","html-keyboard-response","566","653339","0.0-1.0-783.0","0","0","47691","","null","","","null","86","","","","","","","","","","","","","","","NaN",""
"","S1","","html-keyboard-response","567","653491","0.0-1.0-785.0","0","0","47691","","null","","","null","87","","","","","","","","","","","","","","","",""
"","ISI","","html-keyboard-response","568","655509","0.0-1.0-786.0","0","0","47691","","null","","","null","87","NaN","","","","","","","","","","","","","","",""
"","S2","","html-keyboard-response","569","655662","0.0-1.0-787.0","0","0","47691","","null","","","null","87","","NaN","","","","","","","","","","","","","",""
"","response","","html-keyboard-response","570","656500","0.0-1.0-788.0-0.0","0","0","47691","","837","","","75","87","","","2","87","training","adjacent","BC","2","3","P.jpg","N.jpg","1","1","1","",""
"","feedback","","html-keyboard-response","571","657503","0.0-1.0-789.0-0.0","0","0","47691","","null","","","null","87","","","","","","","","","","","","","","","",""
"","ITI","","html-keyboard-response","572","658506","0.0-1.0-792.0","0","0","47691","","null","","","null","87","","","","","","","","","","","","","","","NaN",""
"","S1","","html-keyboard-response","573","658659","0.0-1.0-794.0","0","0","47691","","null","","","null","88","","","","","","","","","","","","","","","",""
"","ISI","","html-keyboard-response","574","660662","0.0-1.0-795.0","0","0","47691","","null","","","null","88","NaN","","","","","","","","","","","","","","",""
"","S2","","html-keyboard-response","575","660815","0.0-1.0-796.0","0","0","47691","","null","","","null","88","","NaN","","","","","","","","","","","","","",""
"","response","","html-keyboard-response","576","661378","0.0-1.0-797.0-0.0","0","0","47691","","561","","","68","88","","","2","88","training","adjacent","ED","5","4","O.jpg","Q.jpg","0","0","1","",""
"","feedback","","html-keyboard-response","577","662382","0.0-1.0-798.0-0.0","0","0","47691","","null","","","null","88","","","","","","","","","","","","","","","",""
"","ITI","","html-keyboard-response","578","663384","0.0-1.0-801.0","0","0","47691","","null","","","null","88","","","","","","","","","","","","","","","NaN",""
"","S1","","html-keyboard-response","579","663540","0.0-1.0-803.0","0","0","47691","","null","","","null","89","","","","","","","","","","","","","","","",""
