"success","ttype","start_time","trial_type","trial_index","time_elapsed","internal_node_id","warning","missed_checkup","PID","view_history","rt","responses","repeat_instructions","key_press","index","keypress_isi","keypress_S2","block","trial_num","phase","group_type","pair_type","S1_stim","S2_stim","S1_img","S2_img","S1_chosen","S1_higher","accuracy","keypress_iti","total_bonus_tally"
"true","full_screen","d08052022hr1225","fullscreen","0","66027","0.0-0.0","0","0","17857","","","","","","","","","","","","","","","","","","","","","",""
"","instructions","","instructions","1","125511","0.0-1.0-0.0-0.0","0","0","17857","[{""page_index"":0,""viewing_time"":9079},{""page_index"":1,""viewing_time"":29263},{""page_index"":2,""viewing_time"":18504},{""page_index"":3,""viewing_time"":2632}]","59479","","","","","","","","","","","","","","","","","","","",""
"","comprehension_check","","survey-multi-choice","2","153879","0.0-1.0-0.0-1.0","0","0","17857","","28361","{""Q0"":""True"",""Q1"":""K"",""Q2"":""Only when the screen 'MAKE A CHOICE' is shown"",""Q3"":""Green mark"",""Q4"":""either D or K""}","1","","","","","","","","","","","","","","","","","",""
"","missed_instruction_checkup","","html-keyboard-response","3","157888","0.0-1.0-0.0-2.0-0.0","0","1","17857","","4001","","","32","","","","","","","","","","","","","","","","",""
"","instructions","","instructions","4","177911","0.0-1.0-0.1-0.1","0","0","17857","[{""page_index"":0,""viewing_time"":3923},{""page_index"":1,""viewing_time"":9641},{""page_index"":2,""viewing_time"":4672},{""page_index"":3,""viewing_time"":1784}]","20020","","","","","","","","","","","","","","","","","","","",""
"","comprehension_check","","survey-multi-choice","5","206960","0.0-1.0-0.1-1.1","0","0","17857","","29040","{""Q0"":""False"",""Q1"":""K"",""Q2"":""Only when the screen 'MAKE A CHOICE' is shown"",""Q3"":""Green mark"",""Q4"":""either D or K""}","1","","","","","","","","","","","","","","","","","",""
"","missed_instruction_checkup","","html-keyboard-response","6","210852","0.0-1.0-0.1-2.1-0.1","0","1","17857","","3888","","","32","","","","","","","","","","","","","","","","",""
"","instructions","","instructions","7","215584","0.0-1.0-0.2-0.2","0","0","17857","[{""page_index"":0,""viewing_time"":1441},{""page_index"":1,""viewing_time"":1312},{""page_index"":2,""viewing_time"":984},{""page_index"":3,""viewing_time"":992}]","4729","","","","","","","","","","","","","","","","","","","",""
"","comprehension_check","","survey-multi-choice","8","257551","0.0-1.0-0.2-1.2","0","0","17857","","41962","{""Q0"":""False"",""Q1"":""K"",""Q2"":""Once the second image appears and while the screen 'MAKE A CHOICE' is shown"",""Q3"":""Green mark"",""Q4"":""either D or K""}","1","","","","","","","","","","","","","","","","","",""
"","missed_instruction_checkup","","html-keyboard-response","9","261512","0.0-1.0-0.2-2.2-0.2","0","1","17857","","3957","","","32","","","","","","","","","","","","","","","","",""
"","instructions","","instructions","10","300767","0.0-1.0-0.3-0.3","0","0","17857","[{""page_index"":0,""viewing_time"":5421},{""page_index"":1,""viewing_time"":22512},{""page_index"":2,""viewing_time"":9944},{""page_index"":3,""viewing_time"":1376}]","39253","","","","","","","","","","","","","","","","","","","",""
"","comprehension_check","","survey-multi-choice","11","321832","0.0-1.0-0.3-1.3","0","0","17857","","21060","{""Q0"":""False"",""Q1"":""K"",""Q2"":""Once the second image appears and while the screen 'MAKE A CHOICE' is shown"",""Q3"":""Green mark"",""Q4"":""either D or K""}","1","","","","","","","","","","","","","","","","","",""
"","missed_instruction_checkup","","html-keyboard-response","12","324787","0.0-1.0-0.3-2.3-0.3","0","1","17857","","2950","","","32","","","","","","","","","","","","","","","","",""
"","instructions","","instructions","13","329671","0.0-1.0-0.4-0.4","0","0","17857","[{""page_index"":0,""viewing_time"":1290},{""page_index"":1,""viewing_time"":1344},{""page_index"":2,""viewing_time"":1191},{""page_index"":3,""viewing_time"":1057}]","4882","","","","","","","","","","","","","","","","","","","",""
"","comprehension_check","","survey-multi-choice","14","350599","0.0-1.0-0.4-1.4","0","0","17857","","20920","{""Q0"":""False"",""Q1"":""D"",""Q2"":""Once the second image appears and while the screen 'MAKE A CHOICE' is shown"",""Q3"":""Green mark"",""Q4"":""either D or K""}","1","","","","","","","","","","","","","","","","","",""
"","missed_instruction_checkup","","html-keyboard-response","15","353401","0.0-1.0-0.4-2.4-0.4","0","1","17857","","2798","","","32","","","","","","","","","","","","","","","","",""
"","instructions","","instructions","16","373310","0.0-1.0-0.5-0.5","0","0","17857","[{""page_index"":0,""viewing_time"":1635},{""page_index"":1,""viewing_time"":1056},{""page_index"":2,""viewing_time"":2336},{""page_index"":1,""viewing_time"":12432},{""page_index"":2,""viewing_time"":1256},{""page_index"":3,""viewing_time"":1191}]","19907","","","","","","","","","","","","","","","","","","","",""
"","comprehension_check","","survey-multi-choice","17","396319","0.0-1.0-0.5-1.5","0","0","17857","","23002","{""Q0"":""True"",""Q1"":""K"",""Q2"":""Once the second image appears and while the screen 'MAKE A CHOICE' is shown"",""Q3"":""Green mark"",""Q4"":""either D or K""}","0","","","","","","","","","","","","","","","","","",""
"","start_exp","","html-keyboard-response","18","399025","0.0-1.0-1.0","0","0","17857","","2701","","","32","","","","","","","","","","","","","","","","",""
"","S1","","html-keyboard-response","19","399287","0.0-1.0-2.0","0","0","17857","","null","","","null","0","","","","","","","","","","","","","","","",""
"","ISI","","html-keyboard-response","20","401297","0.0-1.0-3.0","0","0","17857","","null","","","null","0","NaN","","","","","","","","","","","","","","",""
"","S2","","html-keyboard-response","21","401562","0.0-1.0-4.0","0","0","17857","","null","","","null","0","","NaN","","","","","","","","","","","","","",""
"","response","","html-keyboard-response","22","402190","0.0-1.0-5.0-0.0","0","0","17857","","622","","","68","0","","","1","0","training","adjacent","AB","1","2","M.jpg","N.jpg","0","1","0","",""
"","feedback","","html-keyboard-response","23","403203","0.0-1.0-6.0-0.0","0","0","17857","","null","","","null","0","","","","","","","","","","","","","","","",""
"","time_out","","html-keyboard-response","24","405214","0.0-1.0-8.0-0.0","0","0","17857","","null","","","null","0","","","","","","","","","","","","","","","",""
"","ITI","","html-keyboard-response","25","406223","0.0-1.0-9.0","0","0","17857","","null","","","null","0","","","","","","","","","","","","","","","NaN",""
"","S1","","html-keyboard-response","26","406481","0.0-1.0-11.0","0","0","17857","","null","","","null","1","","","","","","","","","","","","","","","",""
"","ISI","","html-keyboard-response","27","408489","0.0-1.0-12.0","0","0","17857","","null","","","null","1","NaN","","","","","","","","","","","","","","",""
"","S2","","html-keyboard-response","28","408752","0.0-1.0-13.0","0","0","17857","","null","","","null","1","","NaN","","","","","","","","","","","","","",""
"","response","","html-keyboard-response","29","409151","0.0-1.0-14.0-0.0","0","0","17857","","394","","","75","1","","","1","1","training","adjacent","DC","4","3","O.jpg","R.jpg","1","0","0","",""
"","feedback","","html-keyboard-response","30","410164","0.0-1.0-15.0-0.0","0","0","17857","","null","","","null","1","","","","","","","","","","","","","","","",""
"","time_out","","html-keyboard-response","31","412173","0.0-1.0-17.0-0.0","0","0","17857","","null","","","null","1","","","","","","","","","","","","","","","",""
"","ITI","","html-keyboard-response","32","413180","0.0-1.0-18.0","0","0","17857","","null","","","null","1","","","","","","","","","","","","","","","NaN",""
"","S1","","html-keyboard-response","33","413441","0.0-1.0-20.0","0","0","17857","","null","","","null","2","","","","","","","","","","","","","","","",""
"","ISI","","html-keyboard-response","34","415451","0.0-1.0-21.0","0","0","17857","","null","","","null","2","NaN","","","","","","","","","","","","","","",""
"","S2","","html-keyboard-response","35","415713","0.0-1.0-22.0","0","0","17857","","null","","","null","2","","NaN","","","","","","","","","","","","","",""
"","response","","html-keyboard-response","36","416141","0.0-1.0-23.0-0.0","0","0","17857","","423","","","68","2","","","1","2","training","adjacent","CD","3","4","R.jpg","O.jpg","0","1","0","",""
"","feedback","","html-keyboard-response","37","417149","0.0-1.0-24.0-0.0","0","0","17857","","null","","","null","2","","","","","","","","","","","","","","","",""
"","time_out","","html-keyboard-response","38","419162","0.0-1.0-26.0-0.0","0","0","17857","","null","","","null","2","","","","","","","","","","","","","","","",""
"","ITI","","html-keyboard-response","39","420171","0.0-1.0-27.0","0","0","17857","","null","","","null","2","","","","","","","","","","","","","","","NaN",""
"","S1","","html-keyboard-response","40","420429","0.0-1.0-29.0","0","0","17857","","null","","","null","3","","","","","","","","","","","","","","","",""
"","ISI","","html-keyboard-response","41","422443","0.0-1.0-30.0","0","0","17857","","null","","","null","3","NaN","","","","","","","","","","","","","","",""
"","S2","","html-keyboard-response","42","422702","0.0-1.0-31.0","0","0","17857","","null","","","null","3","","NaN","","","","","","","","","","","","","",""
"","response","","html-keyboard-response","43","423045","0.0-1.0-32.0-0.0","0","0","17857","","337","","","75","3","","","1","3","training","adjacent","DE","4","5","O.jpg","P.jpg","1","1","1","",""
"","feedback","","html-keyboard-response","44","424060","0.0-1.0-33.0-0.0","0","0","17857","","null","","","null","3","","","","","","","","","","","","","","","",""
"","ITI","","html-keyboard-response","45","425073","0.0-1.0-36.0","0","0","17857","","null","","","null","3","","","","","","","","","","","","","","","NaN",""
"","S1","","html-keyboard-response","46","425333","0.0-1.0-38.0","0","0","17857","","null","","","null","4","","","","","","","","","","","","","","","",""
"","ISI","","html-keyboard-response","47","427346","0.0-1.0-39.0","0","0","17857","","null","","","null","4","NaN","","","","","","","","","","","","","","",""
"","S2","","html-keyboard-response","48","427607","0.0-1.0-40.0","0","0","17857","","null","","","null","4","","NaN","","","","","","","","","","","","","",""
"","response","","html-keyboard-response","49","427949","0.0-1.0-41.0-0.0","0","0","17857","","337","","","75","4","","","1","4","training","adjacent","FG","6","7","Q.jpg","L.jpg","1","1","1","",""
"","feedback","","html-keyboard-response","50","428963","0.0-1.0-42.0-0.0","0","0","17857","","null","","","null","4","","","","","","","","","","","","","","","",""
"","ITI","","html-keyboard-response","51","429974","0.0-1.0-45.0","0","0","17857","","null","","","null","4","","","","","","","","","","","","","","","NaN",""
"","S1","","html-keyboard-response","52","430233","0.0-1.0-47.0","0","0","17857","","null","","","null","5","","","","","","","","","","","","","","","",""
"","ISI","","html-keyboard-response","53","432245","0.0-1.0-48.0","0","0","17857","","null","","","null","5","NaN","","","","","","","","","","","","","","",""
"","S2","","html-keyboard-response","54","432512","0.0-1.0-49.0","0","0","17857","","null","","","null","5","","NaN","","","","","","","","","","","","","",""
"","response","","html-keyboard-response","55","432718","0.0-1.0-50.0-0.0","0","0","17857","","200","","","75","5","","","1","5","training","adjacent","CB","3","2","R.jpg","N.jpg","1","0","0","",""
"","feedback","","html-keyboard-response","56","433732","0.0-1.0-51.0-0.0","0","0","17857","","null","","","null","5","","","","","","","","","","","","","","","",""
"","time_out","","html-keyboard-response","57","435746","0.0-1.0-53.0-0.0","0","0","17857","","null","","","null","5","","","","","","","","","","","","","","","",""
"","ITI","","html-keyboard-response","58","436763","0.0-1.0-54.0","0","0","17857","","null","","","null","5","","","","","","","","","","","","","","","NaN",""
"","S1","","html-keyboard-response","59","437022","0.0-1.0-56.0","0","0","17857","","null","","","null","6","","","","","","","","","","","","","","","",""
"","ISI","","html-keyboard-response","60","439032","0.0-1.0-57.0","0","0","17857","","null","","","null","6","NaN","","","","","","","","","","","","","","",""
"","S2","","html-keyboard-response","61","439297","0.0-1.0-58.0","0","0","17857","","null","","","null","6","","NaN","","","","","","","","","","","","","",""
"","response","","html-keyboard-response","62","439382","0.0-1.0-59.0-0.0","0","0","17857","","79","","","75","6","","","1","6","training","adjacent","DE","4","5","O.jpg","P.jpg","1","1","1","",""
"","feedback","","html-keyboard-response","63","440393","0.0-1.0-60.0-0.0","0","0","17857","","null","","","null","6","","","","","","","","","","","","","","","",""
"","ITI","","html-keyboard-response","64","441407","0.0-1.0-63.0","0","0","17857","","null","","","null","6","","","","","","","","","","","","","","","NaN",""
"","S1","","html-keyboard-response","65","441664","0.0-1.0-65.0","0","0","17857","","null","","","null","7","","","","","","","","","","","","","","","",""
"","ISI","","html-keyboard-response","66","443674","0.0-1.0-66.0","0","0","17857","","null","","","null","7","NaN","","","","","","","","","","","","","","",""
"","S2","","html-keyboard-response","67","443938","0.0-1.0-67.0","0","0","17857","","null","","","null","7","","NaN","","","","","","","","","","","","","",""
"","response","","html-keyboard-response","68","444021","0.0-1.0-68.0-0.0","0","0","17857","","78","","","68","7","","","1","7","training","adjacent","ED","5","4","P.jpg","O.jpg","0","0","1","",""
"","feedback","","html-keyboard-response","69","445033","0.0-1.0-69.0-0.0","0","0","17857","","null","","","null","7","","","","","","","","","","","","","","","",""
"","ITI","","html-keyboard-response","70","446044","0.0-1.0-72.0","0","0","17857","","null","","","null","7","","","","","","","","","","","","","","","NaN",""
"","S1","","html-keyboard-response","71","446305","0.0-1.0-74.0","0","0","17857","","null","","","null","8","","","","","","","","","","","","","","","",""
"","ISI","","html-keyboard-response","72","448312","0.0-1.0-75.0","0","0","17857","","null","","","null","8","NaN","","","","","","","","","","","","","","",""
"","S2","","html-keyboard-response","73","448573","0.0-1.0-76.0","0","0","17857","","null","","","null","8","","NaN","","","","","","","","","","","","","",""
"","response","","html-keyboard-response","74","448627","0.0-1.0-77.0-0.0","0","0","17857","","48","","","75","8","","","1","8","training","adjacent","EF","5","6","P.jpg","Q.jpg","1","1","1","",""
"","feedback","","html-keyboard-response","75","449633","0.0-1.0-78.0-0.0","0","0","17857","","null","","","null","8","","","","","","","","","","","","","","","",""
"","ITI","","html-keyboard-response","76","450640","0.0-1.0-81.0","0","0","17857","","null","","","null","8","","","","","","","","","","","","","","","NaN",""
"","S1","","html-keyboard-response","77","450900","0.0-1.0-83.0","0","0","17857","","null","","","null","9","","","","","","","","","","","","","","","",""
"","ISI","","html-keyboard-response","78","452912","0.0-1.0-84.0","0","0","17857","","null","","","null","9","NaN","","","","","","","","","","","","","","",""
"","S2","","html-keyboard-response","79","453181","0.0-1.0-85.0","0","0","17857","","null","","","null","9","","NaN","","","","","","","","","","","","","",""
"","response","","html-keyboard-response","80","453274","0.0-1.0-86.0-0.0","0","0","17857","","87","","","75","9","","","1","9","training","adjacent","AB","1","2","M.jpg","N.jpg","1","1","1","",""
"","feedback","","html-keyboard-response","81","454283","0.0-1.0-87.0-0.0","0","0","17857","","null","","","null","9","","","","","","","","","","","","","","","",""
"","ITI","","html-keyboard-response","82","455295","0.0-1.0-90.0","0","0","17857","","null","","","null","9","","","","","","","","","","","","","","","NaN",""
"","S1","","html-keyboard-response","83","455559","0.0-1.0-92.0","0","0","17857","","null","","","null","10","","","","","","","","","","","","","","","",""
"","ISI","","html-keyboard-response","84","457567","0.0-1.0-93.0","0","0","17857","","null","","","null","10","NaN","","","","","","","","","","","","","","",""
"","S2","","html-keyboard-response","85","457832","0.0-1.0-94.0","0","0","17857","","null","","","null","10","","NaN","","","","","","","","","","","","","",""
"","response","","html-keyboard-response","86","457928","0.0-1.0-95.0-0.0","0","0","17857","","90","","","68","10","","","1","10","training","adjacent","FG","6","7","Q.jpg","L.jpg","0","1","0","",""
"","feedback","","html-keyboard-response","87","458941","0.0-1.0-96.0-0.0","0","0","17857","","null","","","null","10","","","","","","","","","","","","","","","",""
"","time_out","","html-keyboard-response","88","460953","0.0-1.0-98.0-0.0","0","0","17857","","null","","","null","10","","","","","","","","","","","","","","","",""
"","ITI","","html-keyboard-response","89","461963","0.0-1.0-99.0","0","0","17857","","null","","","null","10","","","","","","","","","","","","","","","NaN",""
"","S1","","html-keyboard-response","90","462221","0.0-1.0-101.0","0","0","17857","","null","","","null","11","","","","","","","","","","","","","","","",""
"","ISI","","html-keyboard-response","91","464234","0.0-1.0-102.0","0","0","17857","","null","","","null","11","NaN","","","","","","","","","","","","","","",""
"","S2","","html-keyboard-response","92","464491","0.0-1.0-103.0","0","0","17857","","null","","","null","11","","NaN","","","","","","","","","","","","","",""
"","response","","html-keyboard-response","93","464639","0.0-1.0-104.0-0.0","0","0","17857","","142","","","75","11","","","1","11","training","adjacent","CD","3","4","R.jpg","O.jpg","1","1","1","",""
"","feedback","","html-keyboard-response","94","465653","0.0-1.0-105.0-0.0","0","0","17857","","null","","","null","11","","","","","","","","","","","","","","","",""
"","ITI","","html-keyboard-response","95","466666","0.0-1.0-108.0","0","0","17857","","null","","","null","11","","","","","","","","","","","","","","","NaN",""
"","S1","","html-keyboard-response","96","466931","0.0-1.0-110.0","0","0","17857","","null","","","null","12","","","","","","","","","","","","","","","",""
"","ISI","","html-keyboard-response","97","468943","0.0-1.0-111.0","0","0","17857","","null","","","null","12","NaN","","","","","","","","","","","","","","",""
"","S2","","html-keyboard-response","98","469207","0.0-1.0-112.0","0","0","17857","","null","","","null","12","","NaN","","","","","","","","","","","","","",""
"","response","","html-keyboard-response","99","469243","0.0-1.0-113.0-0.0","0","0","17857","","31","","","75","12","","","1","12","training","adjacent","CD","3","4","R.jpg","O.jpg","1","1","1","",""
"","feedback","","html-keyboard-response","100","470257","0.0-1.0-114.0-0.0","0","0","17857","","null","","","null","12","","","","","","","","","","","","","","","",""
"","ITI","","html-keyboard-response","101","471266","0.0-1.0-117.0","0","0","17857","","null","","","null","12","","","","","","","","","","","","","","","NaN",""
"","S1","","html-keyboard-response","102","471527","0.0-1.0-119.0","0","0","17857","","null","","","null","13","","","","","","","","","","","","","","","",""
"","ISI","","html-keyboard-response","103","473538","0.0-1.0-120.0","0","0","17857","","null","","","null","13","NaN","","","","","","","","","","","","","","",""
"","S2","","html-keyboard-response","104","473800","0.0-1.0-121.0","0","0","17857","","null","","","null","13","","NaN","","","","","","","","","","","","","",""
"","response","","html-keyboard-response","105","473899","0.0-1.0-122.0-0.0","0","0","17857","","93","","","68","13","","","1","13","training","adjacent","EF","5","6","P.jpg","Q.jpg","0","1","0","",""
"","feedback","","html-keyboard-response","106","474907","0.0-1.0-123.0-0.0","0","0","17857","","null","","","null","13","","","","","","","","","","","","","","","",""
"","time_out","","html-keyboard-response","107","476915","0.0-1.0-125.0-0.0","0","0","17857","","null","","","null","13","","","","","","","","","","","","","","","",""
"","ITI","","html-keyboard-response","108","477924","0.0-1.0-126.0","0","0","17857","","null","","","null","13","","","","","","","","","","","","","","","NaN",""
"","S1","","html-keyboard-response","109","478188","0.0-1.0-128.0","0","0","17857","","null","","","null","14","","","","","","","","","","","","","","","",""
"","ISI","","html-keyboard-response","110","480199","0.0-1.0-129.0","0","0","17857","","null","","","null","14","NaN","","","","","","","","","","","","","","",""
"","S2","","html-keyboard-response","111","480461","0.0-1.0-130.0","0","0","17857","","null","","","null","14","","NaN","","","","","","","","","","","","","",""
"","response","","html-keyboard-response","112","480608","0.0-1.0-131.0-0.0","0","0","17857","","142","","","75","14","","","1","14","training","adjacent","DE","4","5","O.jpg","P.jpg","1","1","1","",""
"","feedback","","html-keyboard-response","113","481622","0.0-1.0-132.0-0.0","0","0","17857","","null","","","null","14","","","","","","","","","","","","","","","",""
"","ITI","","html-keyboard-response","114","482633","0.0-1.0-135.0","0","0","17857","","null","","","null","14","","","","","","","","","","","","","","","NaN",""
"","S1","","html-keyboard-response","115","482891","0.0-1.0-137.0","0","0","17857","","null","","","null","15","","","","","","","","","","","","","","","",""
"","ISI","","html-keyboard-response","116","484902","0.0-1.0-138.0","0","0","17857","","null","","","null","15","NaN","","","","","","","","","","","","","","",""
"","S2","","html-keyboard-response","117","485163","0.0-1.0-139.0","0","0","17857","","null","","","null","15","","NaN","","","","","","","","","","","","","",""
"","response","","html-keyboard-response","118","485422","0.0-1.0-140.0-0.0","0","0","17857","","254","","","75","15","","","1","15","training","adjacent","AB","1","2","M.jpg","N.jpg","1","1","1","",""
"","feedback","","html-keyboard-response","119","486432","0.0-1.0-141.0-0.0","0","0","17857","","null","","","null","15","","","","","","","","","","","","","","","",""
"","ITI","","html-keyboard-response","120","487438","0.0-1.0-144.0","0","0","17857","","null","","","null","15","","","","","","","","","","","","","","","NaN",""
"","S1","","html-keyboard-response","121","487695","0.0-1.0-146.0","0","0","17857","","null","","","null","16","","","","","","","","","","","","","","","",""
"","ISI","","html-keyboard-response","122","489706","0.0-1.0-147.0","0","0","17857","","null","","","null","16","NaN","","","","","","","","","","","","","","",""
"","S2","","html-keyboard-response","123","489972","0.0-1.0-148.0","0","0","17857","","null","","","null","16","","NaN","","","","","","","","","","","","","",""
"","response","","html-keyboard-response","124","490037","0.0-1.0-149.0-0.0","0","0","17857","","60","","","68","16","","","1","16","training","adjacent","GF","7","6","L.jpg","Q.jpg","0","0","1","",""
"","feedback","","html-keyboard-response","125","491052","0.0-1.0-150.0-0.0","0","0","17857","","null","","","null","16","","","","","","","","","","","","","","","",""
"","ITI","","html-keyboard-response","126","492061","0.0-1.0-153.0","0","0","17857","","null","","","null","16","","","","","","","","","","","","","","","NaN",""
"","S1","","html-keyboard-response","127","492332","0.0-1.0-155.0","0","0","17857","","null","","","null","17","","","","","","","","","","","","","","","",""
"","ISI","","html-keyboard-response","128","494346","0.0-1.0-156.0","0","0","17857","","null","","","null","17","NaN","","","","","","","","","","","","","","",""
"","S2","","html-keyboard-response","129","494612","0.0-1.0-157.0","0","0","17857","","null","","","null","17","","NaN","","","","","","","","","","","","","",""
"","response","","html-keyboard-response","130","494702","0.0-1.0-158.0-0.0","0","0","17857","","84","","","68","17","","","1","17","training","adjacent","BC","2","3","N.jpg","R.jpg","0","1","0","",""
"","feedback","","html-keyboard-response","131","495717","0.0-1.0-159.0-0.0","0","0","17857","","null","","","null","17","","","","","","","","","","","","","","","",""
"","time_out","","html-keyboard-response","132","497723","0.0-1.0-161.0-0.0","0","0","17857","","null","","","null","17","","","","","","","","","","","","","","","",""
"","ITI","","html-keyboard-response","133","498733","0.0-1.0-162.0","0","0","17857","","null","","","null","17","","","","","","","","","","","","","","","NaN",""
"","S1","","html-keyboard-response","134","498992","0.0-1.0-164.0","0","0","17857","","null","","","null","18","","","","","","","","","","","","","","","",""
"","ISI","","html-keyboard-response","135","501000","0.0-1.0-165.0","0","0","17857","","null","","","null","18","NaN","","","","","","","","","","","","","","",""
"","S2","","html-keyboard-response","136","501260","0.0-1.0-166.0","0","0","17857","","null","","","null","18","","NaN","","","","","","","","","","","","","",""
"","response","","html-keyboard-response","137","501283","0.0-1.0-167.0-0.0","0","0","17857","","16","","","75","18","","","1","18","training","adjacent","CB","3","2","R.jpg","N.jpg","1","0","0","",""
"","feedback","","html-keyboard-response","138","502292","0.0-1.0-168.0-0.0","0","0","17857","","null","","","null","18","","","","","","","","","","","","","","","",""
"","time_out","","html-keyboard-response","139","504298","0.0-1.0-170.0-0.0","0","0","17857","","null","","","null","18","","","","","","","","","","","","","","","",""
"","ITI","","html-keyboard-response","140","505312","0.0-1.0-171.0","0","0","17857","","null","","","null","18","","","","","","","","","","","","","","","NaN",""
"","S1","","html-keyboard-response","141","505576","0.0-1.0-173.0","0","0","17857","","null","","","null","19","","","","","","","","","","","","","","","",""
"","ISI","","html-keyboard-response","142","507589","0.0-1.0-174.0","0","0","17857","","null","","","null","19","NaN","","","","","","","","","","","","","","",""
"","S2","","html-keyboard-response","143","507852","0.0-1.0-175.0","0","0","17857","","null","","","null","19","","NaN","","","","","","","","","","","","","",""
"","response","","html-keyboard-response","144","507884","0.0-1.0-176.0-0.0","0","0","17857","","27","","","75","19","","","1","19","training","adjacent","ED","5","4","P.jpg","O.jpg","1","0","0","",""
"","feedback","","html-keyboard-response","145","508890","0.0-1.0-177.0-0.0","0","0","17857","","null","","","null","19","","","","","","","","","","","","","","","",""
"","time_out","","html-keyboard-response","146","510902","0.0-1.0-179.0-0.0","0","0","17857","","null","","","null","19","","","","","","","","","","","","","","","",""
"","ITI","","html-keyboard-response","147","511913","0.0-1.0-180.0","0","0","17857","","null","","","null","19","","","","","","","","","","","","","","","NaN",""
"","S1","","html-keyboard-response","148","512175","0.0-1.0-182.0","0","0","17857","","null","","","null","20","","","","","","","","","","","","","","","",""
"","ISI","","html-keyboard-response","149","514183","0.0-1.0-183.0","0","0","17857","","null","","","null","20","NaN","","","","","","","","","","","","","","",""
"","S2","","html-keyboard-response","150","514440","0.0-1.0-184.0","0","0","17857","","null","","","null","20","","NaN","","","","","","","","","","","","","",""
"","response","","html-keyboard-response","151","514488","0.0-1.0-185.0-0.0","0","0","17857","","42","","","75","20","","","1","20","training","adjacent","DC","4","3","O.jpg","R.jpg","1","0","0","",""
"","feedback","","html-keyboard-response","152","515500","0.0-1.0-186.0-0.0","0","0","17857","","null","","","null","20","","","","","","","","","","","","","","","",""
"","time_out","","html-keyboard-response","153","517511","0.0-1.0-188.0-0.0","0","0","17857","","null","","","null","20","","","","","","","","","","","","","","","",""
"","ITI","","html-keyboard-response","154","518519","0.0-1.0-189.0","0","0","17857","","null","","","null","20","","","","","","","","","","","","","","","NaN",""
"","S1","","html-keyboard-response","155","518777","0.0-1.0-191.0","0","0","17857","","null","","","null","21","","","","","","","","","","","","","","","",""
"","ISI","","html-keyboard-response","156","520790","0.0-1.0-192.0","0","0","17857","","null","","","null","21","NaN","","","","","","","","","","","","","","",""
"","S2","","html-keyboard-response","157","521052","0.0-1.0-193.0","0","0","17857","","null","","","null","21","","NaN","","","","","","","","","","","","","",""
"","response","","html-keyboard-response","158","521086","0.0-1.0-194.0-0.0","0","0","17857","","29","","","68","21","","","1","21","training","adjacent","FE","6","5","Q.jpg","P.jpg","0","0","1","",""
"","feedback","","html-keyboard-response","159","522094","0.0-1.0-195.0-0.0","0","0","17857","","null","","","null","21","","","","","","","","","","","","","","","",""
"","ITI","","html-keyboard-response","160","523103","0.0-1.0-198.0","0","0","17857","","null","","","null","21","","","","","","","","","","","","","","","NaN",""
"","S1","","html-keyboard-response","161","523366","0.0-1.0-200.0","0","0","17857","","null","","","null","22","","","","","","","","","","","","","","","",""
"","ISI","","html-keyboard-response","162","525372","0.0-1.0-201.0","0","0","17857","","null","","","null","22","NaN","","","","","","","","","","","","","","",""
"","S2","","html-keyboard-response","163","525632","0.0-1.0-202.0","0","0","17857","","null","","","null","22","","NaN","","","","","","","","","","","","","",""
"","response","","html-keyboard-response","164","525649","0.0-1.0-203.0-0.0","0","0","17857","","11","","","75","22","","","1","22","training","adjacent","BC","2","3","N.jpg","R.jpg","1","1","1","",""
"","feedback","","html-keyboard-response","165","526662","0.0-1.0-204.0-0.0","0","0","17857","","null","","","null","22","","","","","","","","","","","","","","","",""
"","ITI","","html-keyboard-response","166","527668","0.0-1.0-207.0","0","0","17857","","null","","","null","22","","","","","","","","","","","","","","","NaN",""
"","S1","","html-keyboard-response","167","527924","0.0-1.0-209.0","0","0","17857","","null","","","null","23","","","","","","","","","","","","","","","",""
"","ISI","","html-keyboard-response","168","529937","0.0-1.0-210.0","0","0","17857","","null","","","null","23","NaN","","","","","","","","","","","","","","",""
"","S2","","html-keyboard-response","169","530199","0.0-1.0-211.0","0","0","17857","","null","","","null","23","","NaN","","","","","","","","","","","","","",""
"","response","","html-keyboard-response","170","530349","0.0-1.0-212.0-0.0","0","0","17857","","146","","","68","23","","","1","23","training","adjacent","BA","2","1","N.jpg","M.jpg","0","0","1","",""
"","feedback","","html-keyboard-response","171","531359","0.0-1.0-213.0-0.0","0","0","17857","","null","","","null","23","","","","","","","","","","","","","","","",""
"","ITI","","html-keyboard-response","172","532367","0.0-1.0-216.0","0","0","17857","","null","","","null","23","","","","","","","","","","","","","","","NaN",""
"","S1","","html-keyboard-response","173","532624","0.0-1.0-218.0","0","0","17857","","null","","","null","24","","","","","","","","","","","","","","","",""
"","ISI","","html-keyboard-response","174","534638","0.0-1.0-219.0","0","0","17857","","1999","","","75","24","k","","","","","","","","","","","","","","",""
"","S2","","html-keyboard-response","175","534899","0.0-1.0-220.0","0","0","17857","","null","","","null","24","","NaN","","","","","","","","","","","","","",""
"","response","","html-keyboard-response","176","535341","0.0-1.0-221.0-0.0","0","0","17857","","436","","","75","24","","","1","24","training","adjacent","FG","6","7","Q.jpg","L.jpg","1","1","1","",""
"","feedback","","html-keyboard-response","177","536346","0.0-1.0-222.0-0.0","0","0","17857","","null","","","null","24","","","","","","","","","","","","","","","",""
"","ITI","","html-keyboard-response","178","537353","0.0-1.0-225.0","0","0","17857","","null","","","null","24","","","","","","","","","","","","","","","NaN",""
"","S1","","html-keyboard-response","179","537613","0.0-1.0-227.0","0","0","17857","","null","","","null","25","","","","","","","","","","","","","","","",""
"","ISI","","html-keyboard-response","180","539621","0.0-1.0-228.0","0","0","17857","","null","","","null","25","NaN","","","","","","","","","","","","","","",""
"","S2","","html-keyboard-response","181","539830","0.0-1.0-229.0","0","0","17857","","202","","","75","25","","k","1","25","training","adjacent","FG","6","7","Q.jpg","L.jpg","1","1","1","",""
"","feedback","","html-keyboard-response","182","540842","0.0-1.0-231.0-0.0","0","0","17857","","null","","","null","25","","","","","","","","","","","","","","","",""
"","ITI","","html-keyboard-response","183","541854","0.0-1.0-234.0","0","0","17857","","null","","","null","25","","","","","","","","","","","","","","","NaN",""
"","S1","","html-keyboard-response","184","542113","0.0-1.0-236.0","0","0","17857","","null","","","null","26","","","","","","","","","","","","","","","",""
"","ISI","","html-keyboard-response","185","544124","0.0-1.0-237.0","0","0","17857","","null","","","null","26","NaN","","","","","","","","","","","","","","",""
"","S2","","html-keyboard-response","186","544382","0.0-1.0-238.0","0","0","17857","","null","","","null","26","","NaN","","","","","","","","","","","","","",""
"","response","","html-keyboard-response","187","544423","0.0-1.0-239.0-0.0","0","0","17857","","34","","","68","26","","","1","26","training","adjacent","AB","1","2","M.jpg","N.jpg","0","1","0","",""
"","feedback","","html-keyboard-response","188","545435","0.0-1.0-240.0-0.0","0","0","17857","","null","","","null","26","","","","","","","","","","","","","","","",""
"","time_out","","html-keyboard-response","189","547440","0.0-1.0-242.0-0.0","0","0","17857","","null","","","null","26","","","","","","","","","","","","","","","",""
"","ITI","","html-keyboard-response","190","548454","0.0-1.0-243.0","0","0","17857","","null","","","null","26","","","","","","","","","","","","","","","NaN",""
"","S1","","html-keyboard-response","191","548713","0.0-1.0-245.0","0","0","17857","","null","","","null","27","","","","","","","","","","","","","","","",""
"","ISI","","html-keyboard-response","192","550724","0.0-1.0-246.0","0","0","17857","","null","","","null","27","NaN","","","","","","","","","","","","","","",""
"","S2","","html-keyboard-response","193","550990","0.0-1.0-247.0","0","0","17857","","null","","","null","27","","NaN","","","","","","","","","","","","","",""
"","response","","html-keyboard-response","194","551008","0.0-1.0-248.0-0.0","0","0","17857","","13","","","75","27","","","1","27","training","adjacent","FE","6","5","Q.jpg","P.jpg","1","0","0","",""
"","feedback","","html-keyboard-response","195","552021","0.0-1.0-249.0-0.0","0","0","17857","","null","","","null","27","","","","","","","","","","","","","","","",""
"","time_out","","html-keyboard-response","196","554034","0.0-1.0-251.0-0.0","0","0","17857","","null","","","null","27","","","","","","","","","","","","","","","",""
"","ITI","","html-keyboard-response","197","555043","0.0-1.0-252.0","0","0","17857","","null","","","null","27","","","","","","","","","","","","","","","NaN",""
"","S1","","html-keyboard-response","198","555303","0.0-1.0-254.0","0","0","17857","","null","","","null","28","","","","","","","","","","","","","","","",""
"","ISI","","html-keyboard-response","199","557313","0.0-1.0-255.0","0","0","17857","","null","","","null","28","NaN","","","","","","","","","","","","","","",""
"","S2","","html-keyboard-response","200","557573","0.0-1.0-256.0","0","0","17857","","null","","","null","28","","NaN","","","","","","","","","","","","","",""
"","response","","html-keyboard-response","201","557639","0.0-1.0-257.0-0.0","0","0","17857","","61","","","75","28","","","1","28","training","adjacent","ED","5","4","P.jpg","O.jpg","1","0","0","",""
"","feedback","","html-keyboard-response","202","558653","0.0-1.0-258.0-0.0","0","0","17857","","null","","","null","28","","","","","","","","","","","","","","","",""
"","time_out","","html-keyboard-response","203","560661","0.0-1.0-260.0-0.0","0","0","17857","","null","","","null","28","","","","","","","","","","","","","","","",""
"","ITI","","html-keyboard-response","204","561669","0.0-1.0-261.0","0","0","17857","","null","","","null","28","","","","","","","","","","","","","","","NaN",""
"","S1","","html-keyboard-response","205","561931","0.0-1.0-263.0","0","0","17857","","null","","","null","29","","","","","","","","","","","","","","","",""
"","ISI","","html-keyboard-response","206","563943","0.0-1.0-264.0","0","0","17857","","null","","","null","29","NaN","","","","","","","","","","","","","","",""
"","S2","","html-keyboard-response","207","564202","0.0-1.0-265.0","0","0","17857","","null","","","null","29","","NaN","","","","","","","","","","","","","",""
"","response","","html-keyboard-response","208","564289","0.0-1.0-266.0-0.0","0","0","17857","","80","","","68","29","","","1","29","training","adjacent","ED","5","4","P.jpg","O.jpg","0","0","1","",""
"","feedback","","html-keyboard-response","209","565301","0.0-1.0-267.0-0.0","0","0","17857","","null","","","null","29","","","","","","","","","","","","","","","",""
"","ITI","","html-keyboard-response","210","566316","0.0-1.0-270.0","0","0","17857","","null","","","null","29","","","","","","","","","","","","","","","NaN",""
"","S1","","html-keyboard-response","211","566576","0.0-1.0-272.0","0","0","17857","","null","","","null","30","","","","","","","","","","","","","","","",""
"","ISI","","html-keyboard-response","212","568591","0.0-1.0-273.0","0","0","17857","","null","","","null","30","NaN","","","","","","","","","","","","","","",""
"","S2","","html-keyboard-response","213","568853","0.0-1.0-274.0","0","0","17857","","null","","","null","30","","NaN","","","","","","","","","","","","","",""
"","response","","html-keyboard-response","214","569042","0.0-1.0-275.0-0.0","0","0","17857","","183","","","75","30","","","1","30","training","adjacent","CB","3","2","R.jpg","N.jpg","1","0","0","",""
"","feedback","","html-keyboard-response","215","570054","0.0-1.0-276.0-0.0","0","0","17857","","null","","","null","30","","","","","","","","","","","","","","","",""
"","time_out","","html-keyboard-response","216","572062","0.0-1.0-278.0-0.0","0","0","17857","","null","","","null","30","","","","","","","","","","","","","","","",""
"","ITI","","html-keyboard-response","217","573075","0.0-1.0-279.0","0","0","17857","","null","","","null","30","","","","","","","","","","","","","","","NaN",""
"","S1","","html-keyboard-response","218","573333","0.0-1.0-281.0","0","0","17857","","null","","","null","31","","","","","","","","","","","","","","","",""
"","ISI","","html-keyboard-response","219","575343","0.0-1.0-282.0","0","0","17857","","null","","","null","31","NaN","","","","","","","","","","","","","","",""
"","S2","","html-keyboard-response","220","575604","0.0-1.0-283.0","0","0","17857","","null","","","null","31","","NaN","","","","","","","","","","","","","",""
"","response","","html-keyboard-response","221","575688","0.0-1.0-284.0-0.0","0","0","17857","","78","","","75","31","","","1","31","training","adjacent","DE","4","5","O.jpg","P.jpg","1","1","1","",""
"","feedback","","html-keyboard-response","222","576703","0.0-1.0-285.0-0.0","0","0","17857","","null","","","null","31","","","","","","","","","","","","","","","",""
"","ITI","","html-keyboard-response","223","577718","0.0-1.0-288.0","0","0","17857","","null","","","null","31","","","","","","","","","","","","","","","NaN",""
"","S1","","html-keyboard-response","224","577984","0.0-1.0-290.0","0","0","17857","","null","","","null","32","","","","","","","","","","","","","","","",""
"","ISI","","html-keyboard-response","225","579989","0.0-1.0-291.0","0","0","17857","","null","","","null","32","NaN","","","","","","","","","","","","","","",""
"","S2","","html-keyboard-response","226","580254","0.0-1.0-292.0","0","0","17857","","null","","","null","32","","NaN","","","","","","","","","","","","","",""
"","response","","html-keyboard-response","227","580492","0.0-1.0-293.0-0.0","0","0","17857","","233","","","68","32","","","1","32","training","adjacent","BC","2","3","N.jpg","R.jpg","0","1","0","",""
"","feedback","","html-keyboard-response","228","581505","0.0-1.0-294.0-0.0","0","0","17857","","null","","","null","32","","","","","","","","","","","","","","","",""
"","time_out","","html-keyboard-response","229","583519","0.0-1.0-296.0-0.0","0","0","17857","","null","","","null","32","","","","","","","","","","","","","","","",""
"","ITI","","html-keyboard-response","230","584534","0.0-1.0-297.0","0","0","17857","","null","","","null","32","","","","","","","","","","","","","","","NaN",""
"","S1","","html-keyboard-response","231","584801","0.0-1.0-299.0","0","0","17857","","null","","","null","33","","","","","","","","","","","","","","","",""
"","ISI","","html-keyboard-response","232","586817","0.0-1.0-300.0","0","0","17857","","null","","","null","33","NaN","","","","","","","","","","","","","","",""
"","S2","","html-keyboard-response","233","587073","0.0-1.0-301.0","0","0","17857","","null","","","null","33","","NaN","","","","","","","","","","","","","",""
"","response","","html-keyboard-response","234","587143","0.0-1.0-302.0-0.0","0","0","17857","","63","","","75","33","","","1","33","training","adjacent","CB","3","2","R.jpg","N.jpg","1","0","0","",""
"","feedback","","html-keyboard-response","235","588152","0.0-1.0-303.0-0.0","0","0","17857","","null","","","null","33","","","","","","","","","","","","","","","",""
"","time_out","","html-keyboard-response","236","590161","0.0-1.0-305.0-0.0","0","0","17857","","null","","","null","33","","","","","","","","","","","","","","","",""
"","ITI","","html-keyboard-response","237","591167","0.0-1.0-306.0","0","0","17857","","null","","","null","33","","","","","","","","","","","","","","","NaN",""
"","S1","","html-keyboard-response","238","591432","0.0-1.0-308.0","0","0","17857","","null","","","null","34","","","","","","","","","","","","","","","",""
"","ISI","","html-keyboard-response","239","593439","0.0-1.0-309.0","0","0","17857","","492","","","75","34","k","","","","","","","","","","","","","","",""
"","S2","","html-keyboard-response","240","593702","0.0-1.0-310.0","0","0","17857","","null","","","null","34","","NaN","","","","","","","","","","","","","",""
"","response","","html-keyboard-response","241","593739","0.0-1.0-311.0-0.0","0","0","17857","","30","","","75","34","","","1","34","training","adjacent","EF","5","6","P.jpg","Q.jpg","1","1","1","",""
"","feedback","","html-keyboard-response","242","594749","0.0-1.0-312.0-0.0","0","0","17857","","null","","","null","34","","","","","","","","","","","","","","","",""
"","ITI","","html-keyboard-response","243","595764","0.0-1.0-315.0","0","0","17857","","null","","","null","34","","","","","","","","","","","","","","","NaN",""
"","S1","","html-keyboard-response","244","596023","0.0-1.0-317.0","0","0","17857","","null","","","null","35","","","","","","","","","","","","","","","",""
"","ISI","","html-keyboard-response","245","598029","0.0-1.0-318.0","0","0","17857","","null","","","null","35","NaN","","","","","","","","","","","","","","",""
"","S2","","html-keyboard-response","246","598288","0.0-1.0-319.0","0","0","17857","","null","","","null","35","","NaN","","","","","","","","","","","","","",""
"","response","","html-keyboard-response","247","598426","0.0-1.0-320.0-0.0","0","0","17857","","133","","","75","35","","","1","35","training","adjacent","GF","7","6","L.jpg","Q.jpg","1","0","0","",""
"","feedback","","html-keyboard-response","248","599434","0.0-1.0-321.0-0.0","0","0","17857","","null","","","null","35","","","","","","","","","","","","","","","",""
"","time_out","","html-keyboard-response","249","601441","0.0-1.0-323.0-0.0","0","0","17857","","null","","","null","35","","","","","","","","","","","","","","","",""
"","ITI","","html-keyboard-response","250","602452","0.0-1.0-324.0","0","0","17857","","null","","","null","35","","","","","","","","","","","","","","","NaN",""
"","S1","","html-keyboard-response","251","602711","0.0-1.0-326.0","0","0","17857","","null","","","null","36","","","","","","","","","","","","","","","",""
"","ISI","","html-keyboard-response","252","604722","0.0-1.0-327.0","0","0","17857","","null","","","null","36","NaN","","","","","","","","","","","","","","",""
"","S2","","html-keyboard-response","253","604983","0.0-1.0-328.0","0","0","17857","","null","","","null","36","","NaN","","","","","","","","","","","","","",""
"","response","","html-keyboard-response","254","605039","0.0-1.0-329.0-0.0","0","0","17857","","50","","","75","36","","","1","36","training","adjacent","EF","5","6","P.jpg","Q.jpg","1","1","1","",""
"","feedback","","html-keyboard-response","255","606053","0.0-1.0-330.0-0.0","0","0","17857","","null","","","null","36","","","","","","","","","","","","","","","",""
"","ITI","","html-keyboard-response","256","607060","0.0-1.0-333.0","0","0","17857","","null","","","null","36","","","","","","","","","","","","","","","NaN",""
"","S1","","html-keyboard-response","257","607317","0.0-1.0-335.0","0","0","17857","","null","","","null","37","","","","","","","","","","","","","","","",""
"","ISI","","html-keyboard-response","258","609328","0.0-1.0-336.0","0","0","17857","","null","","","null","37","NaN","","","","","","","","","","","","","","",""
"","S2","","html-keyboard-response","259","609595","0.0-1.0-337.0","0","0","17857","","null","","","null","37","","NaN","","","","","","","","","","","","","",""
"","response","","html-keyboard-response","260","609628","0.0-1.0-338.0-0.0","0","0","17857","","27","","","68","37","","","1","37","training","adjacent","BA","2","1","N.jpg","M.jpg","0","0","1","",""
"","feedback","","html-keyboard-response","261","610643","0.0-1.0-339.0-0.0","0","0","17857","","null","","","null","37","","","","","","","","","","","","","","","",""
"","ITI","","html-keyboard-response","262","611655","0.0-1.0-342.0","0","0","17857","","null","","","null","37","","","","","","","","","","","","","","","NaN",""
"","S1","","html-keyboard-response","263","611914","0.0-1.0-344.0","0","0","17857","","null","","","null","38","","","","","","","","","","","","","","","",""
"","ISI","","html-keyboard-response","264","613923","0.0-1.0-345.0","0","0","17857","","null","","","null","38","NaN","","","","","","","","","","","","","","",""
"","S2","","html-keyboard-response","265","614179","0.0-1.0-346.0","0","0","17857","","null","","","null","38","","NaN","","","","","","","","","","","","","",""
"","response","","html-keyboard-response","266","614410","0.0-1.0-347.0-0.0","0","0","17857","","226","","","75","38","","","1","38","training","adjacent","GF","7","6","L.jpg","Q.jpg","1","0","0","",""
"","feedback","","html-keyboard-response","267","615419","0.0-1.0-348.0-0.0","0","0","17857","","null","","","null","38","","","","","","","","","","","","","","","",""
"","time_out","","html-keyboard-response","268","617432","0.0-1.0-350.0-0.0","0","0","17857","","null","","","null","38","","","","","","","","","","","","","","","",""
"","ITI","","html-keyboard-response","269","618439","0.0-1.0-351.0","0","0","17857","","null","","","null","38","","","","","","","","","","","","","","","NaN",""
"","S1","","html-keyboard-response","270","618702","0.0-1.0-353.0","0","0","17857","","null","","","null","39","","","","","","","","","","","","","","","",""
"","ISI","","html-keyboard-response","271","620713","0.0-1.0-354.0","0","0","17857","","null","","","null","39","NaN","","","","","","","","","","","","","","",""
"","S2","","html-keyboard-response","272","620978","0.0-1.0-355.0","0","0","17857","","null","","","null","39","","NaN","","","","","","","","","","","","","",""
"","response","","html-keyboard-response","273","621031","0.0-1.0-356.0-0.0","0","0","17857","","47","","","68","39","","","1","39","training","adjacent","BA","2","1","N.jpg","M.jpg","0","0","1","",""
"","feedback","","html-keyboard-response","274","622041","0.0-1.0-357.0-0.0","0","0","17857","","null","","","null","39","","","","","","","","","","","","","","","",""
"","ITI","","html-keyboard-response","275","623054","0.0-1.0-360.0","0","0","17857","","null","","","null","39","","","","","","","","","","","","","","","NaN",""
"","S1","","html-keyboard-response","276","623313","0.0-1.0-362.0","0","0","17857","","null","","","null","40","","","","","","","","","","","","","","","",""
"","ISI","","html-keyboard-response","277","625322","0.0-1.0-363.0","0","0","17857","","null","","","null","40","NaN","","","","","","","","","","","","","","",""
"","S2","","html-keyboard-response","278","625591","0.0-1.0-364.0","0","0","17857","","null","","","null","40","","NaN","","","","","","","","","","","","","",""
"","response","","html-keyboard-response","279","626120","0.0-1.0-365.0-0.0","0","0","17857","","523","","","75","40","","","1","40","training","adjacent","FE","6","5","Q.jpg","P.jpg","1","0","0","",""
"","feedback","","html-keyboard-response","280","627129","0.0-1.0-366.0-0.0","0","0","17857","","null","","","null","40","","","","","","","","","","","","","","","",""
"","time_out","","html-keyboard-response","281","629142","0.0-1.0-368.0-0.0","0","0","17857","","null","","","null","40","","","","","","","","","","","","","","","",""
"","ITI","","html-keyboard-response","282","630148","0.0-1.0-369.0","0","0","17857","","null","","","null","40","","","","","","","","","","","","","","","NaN",""
"","S1","","html-keyboard-response","283","630412","0.0-1.0-371.0","0","0","17857","","null","","","null","41","","","","","","","","","","","","","","","",""
"","ISI","","html-keyboard-response","284","632424","0.0-1.0-372.0","0","0","17857","","null","","","null","41","NaN","","","","","","","","","","","","","","",""
"","S2","","html-keyboard-response","285","632683","0.0-1.0-373.0","0","0","17857","","null","","","null","41","","NaN","","","","","","","","","","","","","",""
"","response","","html-keyboard-response","286","632744","0.0-1.0-374.0-0.0","0","0","17857","","55","","","75","41","","","1","41","training","adjacent","DC","4","3","O.jpg","R.jpg","1","0","0","",""
"","feedback","","html-keyboard-response","287","633752","0.0-1.0-375.0-0.0","0","0","17857","","null","","","null","41","","","","","","","","","","","","","","","",""
"","time_out","","html-keyboard-response","288","635760","0.0-1.0-377.0-0.0","0","0","17857","","null","","","null","41","","","","","","","","","","","","","","","",""
"","ITI","","html-keyboard-response","289","636771","0.0-1.0-378.0","0","0","17857","","null","","","null","41","","","","","","","","","","","","","","","NaN",""
"","S1","","html-keyboard-response","290","637028","0.0-1.0-380.0","0","0","17857","","null","","","null","42","","","","","","","","","","","","","","","",""
"","ISI","","html-keyboard-response","291","639043","0.0-1.0-381.0","0","0","17857","","1111","","","75","42","k","","","","","","","","","","","","","","",""
"","S2","","html-keyboard-response","292","639307","0.0-1.0-382.0","0","0","17857","","null","","","null","42","","NaN","","","","","","","","","","","","","",""
"","response","","html-keyboard-response","293","639320","0.0-1.0-383.0-0.0","0","0","17857","","5","","","75","42","","","1","42","training","adjacent","DC","4","3","O.jpg","R.jpg","1","0","0","",""
"","feedback","","html-keyboard-response","294","640333","0.0-1.0-384.0-0.0","0","0","17857","","null","","","null","42","","","","","","","","","","","","","","","",""
"","time_out","","html-keyboard-response","295","642347","0.0-1.0-386.0-0.0","0","0","17857","","null","","","null","42","","","","","","","","","","","","","","","",""
"","ITI","","html-keyboard-response","296","643357","0.0-1.0-387.0","0","0","17857","","null","","","null","42","","","","","","","","","","","","","","","NaN",""
"","S1","","html-keyboard-response","297","643622","0.0-1.0-389.0","0","0","17857","","null","","","null","43","","","","","","","","","","","","","","","",""
"","ISI","","html-keyboard-response","298","645634","0.0-1.0-390.0","0","0","17857","","null","","","null","43","NaN","","","","","","","","","","","","","","",""
"","S2","","html-keyboard-response","299","645900","0.0-1.0-391.0","0","0","17857","","null","","","null","43","","NaN","","","","","","","","","","","","","",""
"","response","","html-keyboard-response","300","646029","0.0-1.0-392.0-0.0","0","0","17857","","124","","","75","43","","","1","43","training","adjacent","BC","2","3","N.jpg","R.jpg","1","1","1","",""
"","feedback","","html-keyboard-response","301","647043","0.0-1.0-393.0-0.0","0","0","17857","","null","","","null","43","","","","","","","","","","","","","","","",""
"","ITI","","html-keyboard-response","302","648052","0.0-1.0-396.0","0","0","17857","","null","","","null","43","","","","","","","","","","","","","","","NaN",""
"","S1","","html-keyboard-response","303","648314","0.0-1.0-398.0","0","0","17857","","null","","","null","44","","","","","","","","","","","","","","","",""
"","ISI","","html-keyboard-response","304","650328","0.0-1.0-399.0","0","0","17857","","null","","","null","44","NaN","","","","","","","","","","","","","","",""
"","S2","","html-keyboard-response","305","650593","0.0-1.0-400.0","0","0","17857","","null","","","null","44","","NaN","","","","","","","","","","","","","",""
"","response","","html-keyboard-response","306","650688","0.0-1.0-401.0-0.0","0","0","17857","","90","","","68","44","","","1","44","training","adjacent","BA","2","1","N.jpg","M.jpg","0","0","1","",""
"","feedback","","html-keyboard-response","307","651697","0.0-1.0-402.0-0.0","0","0","17857","","null","","","null","44","","","","","","","","","","","","","","","",""
"","ITI","","html-keyboard-response","308","652711","0.0-1.0-405.0","0","0","17857","","null","","","null","44","","","","","","","","","","","","","","","NaN",""
"","S1","","html-keyboard-response","309","652968","0.0-1.0-407.0","0","0","17857","","null","","","null","45","","","","","","","","","","","","","","","",""
"","ISI","","html-keyboard-response","310","654982","0.0-1.0-408.0","0","0","17857","","null","","","null","45","NaN","","","","","","","","","","","","","","",""
"","S2","","html-keyboard-response","311","655243","0.0-1.0-409.0","0","0","17857","","null","","","null","45","","NaN","","","","","","","","","","","","","",""
"","response","","html-keyboard-response","312","655279","0.0-1.0-410.0-0.0","0","0","17857","","31","","","75","45","","","1","45","training","adjacent","FE","6","5","Q.jpg","P.jpg","1","0","0","",""
"","feedback","","html-keyboard-response","313","656293","0.0-1.0-411.0-0.0","0","0","17857","","null","","","null","45","","","","","","","","","","","","","","","",""
"","time_out","","html-keyboard-response","314","658302","0.0-1.0-413.0-0.0","0","0","17857","","null","","","null","45","","","","","","","","","","","","","","","",""
"","ITI","","html-keyboard-response","315","659309","0.0-1.0-414.0","0","0","17857","","null","","","null","45","","","","","","","","","","","","","","","NaN",""
"","S1","","html-keyboard-response","316","659571","0.0-1.0-416.0","0","0","17857","","null","","","null","46","","","","","","","","","","","","","","","",""
"","ISI","","html-keyboard-response","317","661582","0.0-1.0-417.0","0","0","17857","","null","","","null","46","NaN","","","","","","","","","","","","","","",""
"","S2","","html-keyboard-response","318","661840","0.0-1.0-418.0","0","0","17857","","null","","","null","46","","NaN","","","","","","","","","","","","","",""
"","response","","html-keyboard-response","319","662145","0.0-1.0-419.0-0.0","0","0","17857","","300","","","68","46","","","1","46","training","adjacent","GF","7","6","L.jpg","Q.jpg","0","0","1","",""
"","feedback","","html-keyboard-response","320","663157","0.0-1.0-420.0-0.0","0","0","17857","","null","","","null","46","","","","","","","","","","","","","","","",""
"","ITI","","html-keyboard-response","321","664171","0.0-1.0-423.0","0","0","17857","","null","","","null","46","","","","","","","","","","","","","","","NaN",""
"","S1","","html-keyboard-response","322","664431","0.0-1.0-425.0","0","0","17857","","null","","","null","47","","","","","","","","","","","","","","","",""
"","ISI","","html-keyboard-response","323","666435","0.0-1.0-426.0","0","0","17857","","null","","","null","47","NaN","","","","","","","","","","","","","","",""
"","S2","","html-keyboard-response","324","666692","0.0-1.0-427.0","0","0","17857","","null","","","null","47","","NaN","","","","","","","","","","","","","",""
"","response","","html-keyboard-response","325","666752","0.0-1.0-428.0-0.0","0","0","17857","","55","","","75","47","","","1","47","training","adjacent","CD","3","4","R.jpg","O.jpg","1","1","1","",""
"","feedback","","html-keyboard-response","326","667759","0.0-1.0-429.0-0.0","0","0","17857","","null","","","null","47","","","","","","","","","","","","","","","",""
"","ITI","","html-keyboard-response","327","668768","0.0-1.0-432.0","0","0","17857","","null","","","null","47","","","","","","","","","","","","","","","NaN",""
"","block_over","","html-keyboard-response","328","685786","0.0-1.0-433.0-0.0","0","0","17857","","17009","","","32","47","","","","","","","","","","","","","","","",""
"","S1","","html-keyboard-response","329","686050","0.0-1.0-434.0","0","0","17857","","null","","","null","48","","","","","","","","","","","","","","","",""
"","ISI","","html-keyboard-response","330","688062","0.0-1.0-435.0","0","0","17857","","null","","","null","48","NaN","","","","","","","","","","","","","","",""
"","S2","","html-keyboard-response","331","688324","0.0-1.0-436.0","0","0","17857","","null","","","null","48","","NaN","","","","","","","","","","","","","",""
"","response","","html-keyboard-response","332","688344","0.0-1.0-437.0-0.0","0","0","17857","","16","","","75","48","","","2","48","training","adjacent","GF","7","6","L.jpg","Q.jpg","1","0","0","",""
"","feedback","","html-keyboard-response","333","689355","0.0-1.0-438.0-0.0","0","0","17857","","null","","","null","48","","","","","","","","","","","","","","","",""
"","time_out","","html-keyboard-response","334","691364","0.0-1.0-440.0-0.0","0","0","17857","","null","","","null","48","","","","","","","","","","","","","","","",""
"","ITI","","html-keyboard-response","335","692373","0.0-1.0-441.0","0","0","17857","","null","","","null","48","","","","","","","","","","","","","","","NaN",""
"","S1","","html-keyboard-response","336","692639","0.0-1.0-443.0","0","0","17857","","null","","","null","49","","","","","","","","","","","","","","","",""
"","ISI","","html-keyboard-response","337","694644","0.0-1.0-444.0","0","0","17857","","null","","","null","49","NaN","","","","","","","","","","","","","","",""
"","S2","","html-keyboard-response","338","694903","0.0-1.0-445.0","0","0","17857","","null","","","null","49","","NaN","","","","","","","","","","","","","",""
"","response","","html-keyboard-response","339","695006","0.0-1.0-446.0-0.0","0","0","17857","","101","","","68","49","","","2","49","training","adjacent","BC","2","3","N.jpg","R.jpg","0","1","0","",""
"","feedback","","html-keyboard-response","340","696018","0.0-1.0-447.0-0.0","0","0","17857","","null","","","null","49","","","","","","","","","","","","","","","",""
"","time_out","","html-keyboard-response","341","698031","0.0-1.0-449.0-0.0","0","0","17857","","null","","","null","49","","","","","","","","","","","","","","","",""
"","ITI","","html-keyboard-response","342","699039","0.0-1.0-450.0","0","0","17857","","null","","","null","49","","","","","","","","","","","","","","","NaN",""
"","S1","","html-keyboard-response","343","699298","0.0-1.0-452.0","0","0","17857","","null","","","null","50","","","","","","","","","","","","","","","",""
"","ISI","","html-keyboard-response","344","701305","0.0-1.0-453.0","0","0","17857","","null","","","null","50","NaN","","","","","","","","","","","","","","",""
"","S2","","html-keyboard-response","345","701568","0.0-1.0-454.0","0","0","17857","","null","","","null","50","","NaN","","","","","","","","","","","","","",""
"","response","","html-keyboard-response","346","701636","0.0-1.0-455.0-0.0","0","0","17857","","63","","","75","50","","","2","50","training","adjacent","FE","6","5","Q.jpg","P.jpg","1","0","0","",""
"","feedback","","html-keyboard-response","347","702648","0.0-1.0-456.0-0.0","0","0","17857","","null","","","null","50","","","","","","","","","","","","","","","",""
"","time_out","","html-keyboard-response","348","704657","0.0-1.0-458.0-0.0","0","0","17857","","null","","","null","50","","","","","","","","","","","","","","","",""
"","ITI","","html-keyboard-response","349","705667","0.0-1.0-459.0","0","0","17857","","null","","","null","50","","","","","","","","","","","","","","","NaN",""
"","S1","","html-keyboard-response","350","705931","0.0-1.0-461.0","0","0","17857","","null","","","null","51","","","","","","","","","","","","","","","",""
"","ISI","","html-keyboard-response","351","707937","0.0-1.0-462.0","0","0","17857","","null","","","null","51","NaN","","","","","","","","","","","","","","",""
"","S2","","html-keyboard-response","352","708199","0.0-1.0-463.0","0","0","17857","","null","","","null","51","","NaN","","","","","","","","","","","","","",""
"","response","","html-keyboard-response","353","708235","0.0-1.0-464.0-0.0","0","0","17857","","31","","","75","51","","","2","51","training","adjacent","ED","5","4","P.jpg","O.jpg","1","0","0","",""
"","feedback","","html-keyboard-response","354","709251","0.0-1.0-465.0-0.0","0","0","17857","","null","","","null","51","","","","","","","","","","","","","","","",""
"","time_out","","html-keyboard-response","355","711262","0.0-1.0-467.0-0.0","0","0","17857","","null","","","null","51","","","","","","","","","","","","","","","",""
"","ITI","","html-keyboard-response","356","712276","0.0-1.0-468.0","0","0","17857","","null","","","null","51","","","","","","","","","","","","","","","NaN",""
"","S1","","html-keyboard-response","357","712542","0.0-1.0-470.0","0","0","17857","","null","","","null","52","","","","","","","","","","","","","","","",""
"","ISI","","html-keyboard-response","358","714551","0.0-1.0-471.0","0","0","17857","","null","","","null","52","NaN","","","","","","","","","","","","","","",""
"","S2","","html-keyboard-response","359","714811","0.0-1.0-472.0","0","0","17857","","null","","","null","52","","NaN","","","","","","","","","","","","","",""
"","response","","html-keyboard-response","360","715064","0.0-1.0-473.0-0.0","0","0","17857","","248","","","68","52","","","2","52","training","adjacent","CB","3","2","R.jpg","N.jpg","0","0","1","",""
"","feedback","","html-keyboard-response","361","716075","0.0-1.0-474.0-0.0","0","0","17857","","null","","","null","52","","","","","","","","","","","","","","","",""
"","ITI","","html-keyboard-response","362","717085","0.0-1.0-477.0","0","0","17857","","null","","","null","52","","","","","","","","","","","","","","","NaN",""
"","S1","","html-keyboard-response","363","717341","0.0-1.0-479.0","0","0","17857","","null","","","null","53","","","","","","","","","","","","","","","",""
"","ISI","","html-keyboard-response","364","719353","0.0-1.0-480.0","0","0","17857","","null","","","null","53","NaN","","","","","","","","","","","","","","",""
"","S2","","html-keyboard-response","365","719609","0.0-1.0-481.0","0","0","17857","","null","","","null","53","","NaN","","","","","","","","","","","","","",""
"","response","","html-keyboard-response","366","719667","0.0-1.0-482.0-0.0","0","0","17857","","52","","","75","53","","","2","53","training","adjacent","FE","6","5","Q.jpg","P.jpg","1","0","0","",""
"","feedback","","html-keyboard-response","367","720677","0.0-1.0-483.0-0.0","0","0","17857","","null","","","null","53","","","","","","","","","","","","","","","",""
"","time_out","","html-keyboard-response","368","722690","0.0-1.0-485.0-0.0","0","0","17857","","null","","","null","53","","","","","","","","","","","","","","","",""
"","ITI","","html-keyboard-response","369","723701","0.0-1.0-486.0","0","0","17857","","null","","","null","53","","","","","","","","","","","","","","","NaN",""
"","S1","","html-keyboard-response","370","723958","0.0-1.0-488.0","0","0","17857","","null","","","null","54","","","","","","","","","","","","","","","",""
"","ISI","","html-keyboard-response","371","725970","0.0-1.0-489.0","0","0","17857","","null","","","null","54","NaN","","","","","","","","","","","","","","",""
"","S2","","html-keyboard-response","372","726231","0.0-1.0-490.0","0","0","17857","","null","","","null","54","","NaN","","","","","","","","","","","","","",""
"","response","","html-keyboard-response","373","726318","0.0-1.0-491.0-0.0","0","0","17857","","82","","","75","54","","","2","54","training","adjacent","ED","5","4","P.jpg","O.jpg","1","0","0","",""
"","feedback","","html-keyboard-response","374","727331","0.0-1.0-492.0-0.0","0","0","17857","","null","","","null","54","","","","","","","","","","","","","","","",""
"","time_out","","html-keyboard-response","375","729342","0.0-1.0-494.0-0.0","0","0","17857","","null","","","null","54","","","","","","","","","","","","","","","",""
"","ITI","","html-keyboard-response","376","730349","0.0-1.0-495.0","0","0","17857","","null","","","null","54","","","","","","","","","","","","","","","NaN",""
"","S1","","html-keyboard-response","377","730608","0.0-1.0-497.0","0","0","17857","","null","","","null","55","","","","","","","","","","","","","","","",""
"","ISI","","html-keyboard-response","378","732616","0.0-1.0-498.0","0","0","17857","","null","","","null","55","NaN","","","","","","","","","","","","","","",""
"","S2","","html-keyboard-response","379","732876","0.0-1.0-499.0","0","0","17857","","null","","","null","55","","NaN","","","","","","","","","","","","","",""
"","response","","html-keyboard-response","380","732998","0.0-1.0-500.0-0.0","0","0","17857","","117","","","68","55","","","2","55","training","adjacent","BA","2","1","N.jpg","M.jpg","0","0","1","",""
"","feedback","","html-keyboard-response","381","734005","0.0-1.0-501.0-0.0","0","0","17857","","null","","","null","55","","","","","","","","","","","","","","","",""
"","ITI","","html-keyboard-response","382","735012","0.0-1.0-504.0","0","0","17857","","null","","","null","55","","","","","","","","","","","","","","","NaN",""
"","S1","","html-keyboard-response","383","735272","0.0-1.0-506.0","0","0","17857","","null","","","null","56","","","","","","","","","","","","","","","",""
"","ISI","","html-keyboard-response","384","737281","0.0-1.0-507.0","0","0","17857","","null","","","null","56","NaN","","","","","","","","","","","","","","",""
"","S2","","html-keyboard-response","385","737538","0.0-1.0-508.0","0","0","17857","","null","","","null","56","","NaN","","","","","","","","","","","","","",""
"","response","","html-keyboard-response","386","737579","0.0-1.0-509.0-0.0","0","0","17857","","36","","","75","56","","","2","56","training","adjacent","DC","4","3","O.jpg","R.jpg","1","0","0","",""
"","feedback","","html-keyboard-response","387","738592","0.0-1.0-510.0-0.0","0","0","17857","","null","","","null","56","","","","","","","","","","","","","","","",""
"","time_out","","html-keyboard-response","388","740602","0.0-1.0-512.0-0.0","0","0","17857","","null","","","null","56","","","","","","","","","","","","","","","",""
"","ITI","","html-keyboard-response","389","741606","0.0-1.0-513.0","0","0","17857","","null","","","null","56","","","","","","","","","","","","","","","NaN",""
"","S1","","html-keyboard-response","390","741862","0.0-1.0-515.0","0","0","17857","","null","","","null","57","","","","","","","","","","","","","","","",""
"","ISI","","html-keyboard-response","391","743871","0.0-1.0-516.0","0","0","17857","","null","","","null","57","NaN","","","","","","","","","","","","","","",""
"","S2","","html-keyboard-response","392","744131","0.0-1.0-517.0","0","0","17857","","null","","","null","57","","NaN","","","","","","","","","","","","","",""
"","response","","html-keyboard-response","393","744157","0.0-1.0-518.0-0.0","0","0","17857","","20","","","75","57","","","2","57","training","adjacent","EF","5","6","P.jpg","Q.jpg","1","1","1","",""
"","feedback","","html-keyboard-response","394","745170","0.0-1.0-519.0-0.0","0","0","17857","","null","","","null","57","","","","","","","","","","","","","","","",""
"","ITI","","html-keyboard-response","395","746180","0.0-1.0-522.0","0","0","17857","","null","","","null","57","","","","","","","","","","","","","","","NaN",""
"","S1","","html-keyboard-response","396","746439","0.0-1.0-524.0","0","0","17857","","null","","","null","58","","","","","","","","","","","","","","","",""
"","ISI","","html-keyboard-response","397","748445","0.0-1.0-525.0","0","0","17857","","null","","","null","58","NaN","","","","","","","","","","","","","","",""
"","S2","","html-keyboard-response","398","748705","0.0-1.0-526.0","0","0","17857","","null","","","null","58","","NaN","","","","","","","","","","","","","",""
"","response","","html-keyboard-response","399","748921","0.0-1.0-527.0-0.0","0","0","17857","","210","","","75","58","","","2","58","training","adjacent","EF","5","6","P.jpg","Q.jpg","1","1","1","",""
"","feedback","","html-keyboard-response","400","749934","0.0-1.0-528.0-0.0","0","0","17857","","null","","","null","58","","","","","","","","","","","","","","","",""
"","ITI","","html-keyboard-response","401","750940","0.0-1.0-531.0","0","0","17857","","null","","","null","58","","","","","","","","","","","","","","","NaN",""
"","S1","","html-keyboard-response","402","751197","0.0-1.0-533.0","0","0","17857","","null","","","null","59","","","","","","","","","","","","","","","",""
"","ISI","","html-keyboard-response","403","753208","0.0-1.0-534.0","0","0","17857","","null","","","null","59","NaN","","","","","","","","","","","","","","",""
"","S2","","html-keyboard-response","404","753469","0.0-1.0-535.0","0","0","17857","","null","","","null","59","","NaN","","","","","","","","","","","","","",""
"","response","","html-keyboard-response","405","753511","0.0-1.0-536.0-0.0","0","0","17857","","38","","","68","59","","","2","59","training","adjacent","FG","6","7","Q.jpg","L.jpg","0","1","0","",""
"","feedback","","html-keyboard-response","406","754522","0.0-1.0-537.0-0.0","0","0","17857","","null","","","null","59","","","","","","","","","","","","","","","",""
"","time_out","","html-keyboard-response","407","756537","0.0-1.0-539.0-0.0","0","0","17857","","null","","","null","59","","","","","","","","","","","","","","","",""
"","ITI","","html-keyboard-response","408","757551","0.0-1.0-540.0","0","0","17857","","null","","","null","59","","","","","","","","","","","","","","","NaN",""
"","S1","","html-keyboard-response","409","757813","0.0-1.0-542.0","0","0","17857","","null","","","null","60","","","","","","","","","","","","","","","",""
"","ISI","","html-keyboard-response","410","759824","0.0-1.0-543.0","0","0","17857","","null","","","null","60","NaN","","","","","","","","","","","","","","",""
"","S2","","html-keyboard-response","411","760082","0.0-1.0-544.0","0","0","17857","","null","","","null","60","","NaN","","","","","","","","","","","","","",""
"","response","","html-keyboard-response","412","760127","0.0-1.0-545.0-0.0","0","0","17857","","39","","","75","60","","","2","60","training","adjacent","DE","4","5","O.jpg","P.jpg","1","1","1","",""
"","feedback","","html-keyboard-response","413","761135","0.0-1.0-546.0-0.0","0","0","17857","","null","","","null","60","","","","","","","","","","","","","","","",""
"","ITI","","html-keyboard-response","414","762150","0.0-1.0-549.0","0","0","17857","","null","","","null","60","","","","","","","","","","","","","","","NaN",""
"","S1","","html-keyboard-response","415","762411","0.0-1.0-551.0","0","0","17857","","null","","","null","61","","","","","","","","","","","","","","","",""
"","ISI","","html-keyboard-response","416","764422","0.0-1.0-552.0","0","0","17857","","null","","","null","61","NaN","","","","","","","","","","","","","","",""
"","S2","","html-keyboard-response","417","764682","0.0-1.0-553.0","0","0","17857","","null","","","null","61","","NaN","","","","","","","","","","","","","",""
"","response","","html-keyboard-response","418","764733","0.0-1.0-554.0-0.0","0","0","17857","","45","","","75","61","","","2","61","training","adjacent","DC","4","3","O.jpg","R.jpg","1","0","0","",""
"","feedback","","html-keyboard-response","419","765744","0.0-1.0-555.0-0.0","0","0","17857","","null","","","null","61","","","","","","","","","","","","","","","",""
"","time_out","","html-keyboard-response","420","767751","0.0-1.0-557.0-0.0","0","0","17857","","null","","","null","61","","","","","","","","","","","","","","","",""
"","ITI","","html-keyboard-response","421","768765","0.0-1.0-558.0","0","0","17857","","null","","","null","61","","","","","","","","","","","","","","","NaN",""
"","S1","","html-keyboard-response","422","769025","0.0-1.0-560.0","0","0","17857","","null","","","null","62","","","","","","","","","","","","","","","",""
"","ISI","","html-keyboard-response","423","771039","0.0-1.0-561.0","0","0","17857","","null","","","null","62","NaN","","","","","","","","","","","","","","",""
"","S2","","html-keyboard-response","424","771302","0.0-1.0-562.0","0","0","17857","","null","","","null","62","","NaN","","","","","","","","","","","","","",""
"","response","","html-keyboard-response","425","771365","0.0-1.0-563.0-0.0","0","0","17857","","58","","","75","62","","","2","62","training","adjacent","BC","2","3","N.jpg","R.jpg","1","1","1","",""
"","feedback","","html-keyboard-response","426","772381","0.0-1.0-564.0-0.0","0","0","17857","","null","","","null","62","","","","","","","","","","","","","","","",""
"","ITI","","html-keyboard-response","427","773394","0.0-1.0-567.0","0","0","17857","","null","","","null","62","","","","","","","","","","","","","","","NaN",""
"","S1","","html-keyboard-response","428","773652","0.0-1.0-569.0","0","0","17857","","null","","","null","63","","","","","","","","","","","","","","","",""
"","ISI","","html-keyboard-response","429","775661","0.0-1.0-570.0","0","0","17857","","null","","","null","63","NaN","","","","","","","","","","","","","","",""
"","S2","","html-keyboard-response","430","775932","0.0-1.0-571.0","0","0","17857","","null","","","null","63","","NaN","","","","","","","","","","","","","",""
"","response","","html-keyboard-response","431","776002","0.0-1.0-572.0-0.0","0","0","17857","","65","","","75","63","","","2","63","training","adjacent","CB","3","2","R.jpg","N.jpg","1","0","0","",""
"","feedback","","html-keyboard-response","432","777011","0.0-1.0-573.0-0.0","0","0","17857","","null","","","null","63","","","","","","","","","","","","","","","",""
"","time_out","","html-keyboard-response","433","779018","0.0-1.0-575.0-0.0","0","0","17857","","null","","","null","63","","","","","","","","","","","","","","","",""
"","ITI","","html-keyboard-response","434","780025","0.0-1.0-576.0","0","0","17857","","null","","","null","63","","","","","","","","","","","","","","","NaN",""
"","S1","","html-keyboard-response","435","780281","0.0-1.0-578.0","0","0","17857","","null","","","null","64","","","","","","","","","","","","","","","",""
"","ISI","","html-keyboard-response","436","782291","0.0-1.0-579.0","0","0","17857","","null","","","null","64","NaN","","","","","","","","","","","","","","",""
"","S2","","html-keyboard-response","437","782548","0.0-1.0-580.0","0","0","17857","","null","","","null","64","","NaN","","","","","","","","","","","","","",""
"","response","","html-keyboard-response","438","782741","0.0-1.0-581.0-0.0","0","0","17857","","187","","","75","64","","","2","64","training","adjacent","GF","7","6","L.jpg","Q.jpg","1","0","0","",""
"","feedback","","html-keyboard-response","439","783756","0.0-1.0-582.0-0.0","0","0","17857","","null","","","null","64","","","","","","","","","","","","","","","",""
"","time_out","","html-keyboard-response","440","785771","0.0-1.0-584.0-0.0","0","0","17857","","null","","","null","64","","","","","","","","","","","","","","","",""
"","ITI","","html-keyboard-response","441","786777","0.0-1.0-585.0","0","0","17857","","null","","","null","64","","","","","","","","","","","","","","","NaN",""
"","S1","","html-keyboard-response","442","787034","0.0-1.0-587.0","0","0","17857","","null","","","null","65","","","","","","","","","","","","","","","",""
"","ISI","","html-keyboard-response","443","789042","0.0-1.0-588.0","0","0","17857","","null","","","null","65","NaN","","","","","","","","","","","","","","",""
"","S2","","html-keyboard-response","444","789302","0.0-1.0-589.0","0","0","17857","","null","","","null","65","","NaN","","","","","","","","","","","","","",""
"","response","","html-keyboard-response","445","789363","0.0-1.0-590.0-0.0","0","0","17857","","56","","","68","65","","","2","65","training","adjacent","AB","1","2","M.jpg","N.jpg","0","1","0","",""
"","feedback","","html-keyboard-response","446","790370","0.0-1.0-591.0-0.0","0","0","17857","","null","","","null","65","","","","","","","","","","","","","","","",""
"","time_out","","html-keyboard-response","447","792385","0.0-1.0-593.0-0.0","0","0","17857","","null","","","null","65","","","","","","","","","","","","","","","",""
"","ITI","","html-keyboard-response","448","793398","0.0-1.0-594.0","0","0","17857","","null","","","null","65","","","","","","","","","","","","","","","NaN",""
"","S1","","html-keyboard-response","449","793664","0.0-1.0-596.0","0","0","17857","","null","","","null","66","","","","","","","","","","","","","","","",""
"","ISI","","html-keyboard-response","450","795674","0.0-1.0-597.0","0","0","17857","","null","","","null","66","NaN","","","","","","","","","","","","","","",""
"","S2","","html-keyboard-response","451","795931","0.0-1.0-598.0","0","0","17857","","null","","","null","66","","NaN","","","","","","","","","","","","","",""
"","response","","html-keyboard-response","452","795965","0.0-1.0-599.0-0.0","0","0","17857","","29","","","75","66","","","2","66","training","adjacent","BA","2","1","N.jpg","M.jpg","1","0","0","",""
"","feedback","","html-keyboard-response","453","796977","0.0-1.0-600.0-0.0","0","0","17857","","null","","","null","66","","","","","","","","","","","","","","","",""
"","time_out","","html-keyboard-response","454","798984","0.0-1.0-602.0-0.0","0","0","17857","","null","","","null","66","","","","","","","","","","","","","","","",""
"","ITI","","html-keyboard-response","455","800003","0.0-1.0-603.0","0","0","17857","","null","","","null","66","","","","","","","","","","","","","","","NaN",""
"","S1","","html-keyboard-response","456","800261","0.0-1.0-605.0","0","0","17857","","null","","","null","67","","","","","","","","","","","","","","","",""
"","ISI","","html-keyboard-response","457","802271","0.0-1.0-606.0","0","0","17857","","null","","","null","67","NaN","","","","","","","","","","","","","","",""
"","S2","","html-keyboard-response","458","802511","0.0-1.0-607.0","0","0","17857","","234","","","75","67","","k","2","67","training","adjacent","AB","1","2","M.jpg","N.jpg","1","1","1","",""
"","feedback","","html-keyboard-response","459","803524","0.0-1.0-609.0-0.0","0","0","17857","","null","","","null","67","","","","","","","","","","","","","","","",""
"","ITI","","html-keyboard-response","460","804532","0.0-1.0-612.0","0","0","17857","","null","","","null","67","","","","","","","","","","","","","","","NaN",""
"","S1","","html-keyboard-response","461","804792","0.0-1.0-614.0","0","0","17857","","null","","","null","68","","","","","","","","","","","","","","","",""
"","ISI","","html-keyboard-response","462","806802","0.0-1.0-615.0","0","0","17857","","null","","","null","68","NaN","","","","","","","","","","","","","","",""
"","S2","","html-keyboard-response","463","807059","0.0-1.0-616.0","0","0","17857","","null","","","null","68","","NaN","","","","","","","","","","","","","",""
"","response","","html-keyboard-response","464","807139","0.0-1.0-617.0-0.0","0","0","17857","","74","","","68","68","","","2","68","training","adjacent","FE","6","5","Q.jpg","P.jpg","0","0","1","",""
"","feedback","","html-keyboard-response","465","808149","0.0-1.0-618.0-0.0","0","0","17857","","null","","","null","68","","","","","","","","","","","","","","","",""
"","ITI","","html-keyboard-response","466","809163","0.0-1.0-621.0","0","0","17857","","null","","","null","68","","","","","","","","","","","","","","","NaN",""
"","S1","","html-keyboard-response","467","809422","0.0-1.0-623.0","0","0","17857","","null","","","null","69","","","","","","","","","","","","","","","",""
"","ISI","","html-keyboard-response","468","811432","0.0-1.0-624.0","0","0","17857","","null","","","null","69","NaN","","","","","","","","","","","","","","",""
"","S2","","html-keyboard-response","469","811698","0.0-1.0-625.0","0","0","17857","","null","","","null","69","","NaN","","","","","","","","","","","","","",""
"","response","","html-keyboard-response","470","811728","0.0-1.0-626.0-0.0","0","0","17857","","26","","","75","69","","","2","69","training","adjacent","BC","2","3","N.jpg","R.jpg","1","1","1","",""
"","feedback","","html-keyboard-response","471","812743","0.0-1.0-627.0-0.0","0","0","17857","","null","","","null","69","","","","","","","","","","","","","","","",""
"","ITI","","html-keyboard-response","472","813758","0.0-1.0-630.0","0","0","17857","","null","","","null","69","","","","","","","","","","","","","","","NaN",""
"","S1","","html-keyboard-response","473","814019","0.0-1.0-632.0","0","0","17857","","null","","","null","70","","","","","","","","","","","","","","","",""
"","ISI","","html-keyboard-response","474","816030","0.0-1.0-633.0","0","0","17857","","null","","","null","70","NaN","","","","","","","","","","","","","","",""
"","S2","","html-keyboard-response","475","816291","0.0-1.0-634.0","0","0","17857","","null","","","null","70","","NaN","","","","","","","","","","","","","",""
"","response","","html-keyboard-response","476","816319","0.0-1.0-635.0-0.0","0","0","17857","","21","","","75","70","","","2","70","training","adjacent","DC","4","3","O.jpg","R.jpg","1","0","0","",""
"","feedback","","html-keyboard-response","477","817332","0.0-1.0-636.0-0.0","0","0","17857","","null","","","null","70","","","","","","","","","","","","","","","",""
"","time_out","","html-keyboard-response","478","819343","0.0-1.0-638.0-0.0","0","0","17857","","null","","","null","70","","","","","","","","","","","","","","","",""
"","ITI","","html-keyboard-response","479","820350","0.0-1.0-639.0","0","0","17857","","null","","","null","70","","","","","","","","","","","","","","","NaN",""
"","S1","","html-keyboard-response","480","820611","0.0-1.0-641.0","0","0","17857","","null","","","null","71","","","","","","","","","","","","","","","",""
"","ISI","","html-keyboard-response","481","822622","0.0-1.0-642.0","0","0","17857","","116","","","68","71","d","","","","","","","","","","","","","","",""
"","S2","","html-keyboard-response","482","822882","0.0-1.0-643.0","0","0","17857","","null","","","null","71","","NaN","","","","","","","","","","","","","",""
"","response","","html-keyboard-response","483","823391","0.0-1.0-644.0-0.0","0","0","17857","","504","","","75","71","","","2","71","training","adjacent","GF","7","6","L.jpg","Q.jpg","1","0","0","",""
"","feedback","","html-keyboard-response","484","824399","0.0-1.0-645.0-0.0","0","0","17857","","null","","","null","71","","","","","","","","","","","","","","","",""
"","time_out","","html-keyboard-response","485","826411","0.0-1.0-647.0-0.0","0","0","17857","","null","","","null","71","","","","","","","","","","","","","","","",""
"","ITI","","html-keyboard-response","486","827421","0.0-1.0-648.0","0","0","17857","","null","","","null","71","","","","","","","","","","","","","","","NaN",""
"","S1","","html-keyboard-response","487","827677","0.0-1.0-650.0","0","0","17857","","null","","","null","72","","","","","","","","","","","","","","","",""
"","ISI","","html-keyboard-response","488","829686","0.0-1.0-651.0","0","0","17857","","null","","","null","72","NaN","","","","","","","","","","","","","","",""
"","S2","","html-keyboard-response","489","829942","0.0-1.0-652.0","0","0","17857","","null","","","null","72","","NaN","","","","","","","","","","","","","",""
"","response","","html-keyboard-response","490","830320","0.0-1.0-653.0-0.0","0","0","17857","","372","","","75","72","","","2","72","training","adjacent","BA","2","1","N.jpg","M.jpg","1","0","0","",""
"","feedback","","html-keyboard-response","491","831334","0.0-1.0-654.0-0.0","0","0","17857","","null","","","null","72","","","","","","","","","","","","","","","",""
"","time_out","","html-keyboard-response","492","833340","0.0-1.0-656.0-0.0","0","0","17857","","null","","","null","72","","","","","","","","","","","","","","","",""
"","ITI","","html-keyboard-response","493","834350","0.0-1.0-657.0","0","0","17857","","null","","","null","72","","","","","","","","","","","","","","","NaN",""
"","S1","","html-keyboard-response","494","834612","0.0-1.0-659.0","0","0","17857","","null","","","null","73","","","","","","","","","","","","","","","",""
"","ISI","","html-keyboard-response","495","836618","0.0-1.0-660.0","0","0","17857","","null","","","null","73","NaN","","","","","","","","","","","","","","",""
"","S2","","html-keyboard-response","496","836880","0.0-1.0-661.0","0","0","17857","","null","","","null","73","","NaN","","","","","","","","","","","","","",""
"","response","","html-keyboard-response","497","837219","0.0-1.0-662.0-0.0","0","0","17857","","333","","","68","73","","","2","73","training","adjacent","CD","3","4","R.jpg","O.jpg","0","1","0","",""
"","feedback","","html-keyboard-response","498","838229","0.0-1.0-663.0-0.0","0","0","17857","","null","","","null","73","","","","","","","","","","","","","","","",""
"","time_out","","html-keyboard-response","499","840243","0.0-1.0-665.0-0.0","0","0","17857","","null","","","null","73","","","","","","","","","","","","","","","",""
"","ITI","","html-keyboard-response","500","841250","0.0-1.0-666.0","0","0","17857","","null","","","null","73","","","","","","","","","","","","","","","NaN",""
"","S1","","html-keyboard-response","501","841510","0.0-1.0-668.0","0","0","17857","","null","","","null","74","","","","","","","","","","","","","","","",""
"","ISI","","html-keyboard-response","502","843526","0.0-1.0-669.0","0","0","17857","","null","","","null","74","NaN","","","","","","","","","","","","","","",""
"","S2","","html-keyboard-response","503","843791","0.0-1.0-670.0","0","0","17857","","null","","","null","74","","NaN","","","","","","","","","","","","","",""
"","response","","html-keyboard-response","504","844292","0.0-1.0-671.0-0.0","0","0","17857","","495","","","75","74","","","2","74","training","adjacent","AB","1","2","M.jpg","N.jpg","1","1","1","",""
"","feedback","","html-keyboard-response","505","845299","0.0-1.0-672.0-0.0","0","0","17857","","null","","","null","74","","","","","","","","","","","","","","","",""
"","ITI","","html-keyboard-response","506","846312","0.0-1.0-675.0","0","0","17857","","null","","","null","74","","","","","","","","","","","","","","","NaN",""
"","S1","","html-keyboard-response","507","846571","0.0-1.0-677.0","0","0","17857","","null","","","null","75","","","","","","","","","","","","","","","",""
"","ISI","","html-keyboard-response","508","848581","0.0-1.0-678.0","0","0","17857","","null","","","null","75","NaN","","","","","","","","","","","","","","",""
"","S2","","html-keyboard-response","509","848841","0.0-1.0-679.0","0","0","17857","","null","","","null","75","","NaN","","","","","","","","","","","","","",""
"","response","","html-keyboard-response","510","848917","0.0-1.0-680.0-0.0","0","0","17857","","71","","","75","75","","","2","75","training","adjacent","CB","3","2","R.jpg","N.jpg","1","0","0","",""
"","feedback","","html-keyboard-response","511","849932","0.0-1.0-681.0-0.0","0","0","17857","","null","","","null","75","","","","","","","","","","","","","","","",""
"","time_out","","html-keyboard-response","512","851946","0.0-1.0-683.0-0.0","0","0","17857","","null","","","null","75","","","","","","","","","","","","","","","",""
"","ITI","","html-keyboard-response","513","852952","0.0-1.0-684.0","0","0","17857","","null","","","null","75","","","","","","","","","","","","","","","NaN",""
"","S1","","html-keyboard-response","514","853214","0.0-1.0-686.0","0","0","17857","","null","","","null","76","","","","","","","","","","","","","","","",""
"","ISI","","html-keyboard-response","515","855222","0.0-1.0-687.0","0","0","17857","","null","","","null","76","NaN","","","","","","","","","","","","","","",""
"","S2","","html-keyboard-response","516","855481","0.0-1.0-688.0","0","0","17857","","null","","","null","76","","NaN","","","","","","","","","","","","","",""
"","response","","html-keyboard-response","517","855534","0.0-1.0-689.0-0.0","0","0","17857","","48","","","75","76","","","2","76","training","adjacent","DE","4","5","O.jpg","P.jpg","1","1","1","",""
"","feedback","","html-keyboard-response","518","856543","0.0-1.0-690.0-0.0","0","0","17857","","null","","","null","76","","","","","","","","","","","","","","","",""
"","ITI","","html-keyboard-response","519","857552","0.0-1.0-693.0","0","0","17857","","null","","","null","76","","","","","","","","","","","","","","","NaN",""
"","S1","","html-keyboard-response","520","857809","0.0-1.0-695.0","0","0","17857","","null","","","null","77","","","","","","","","","","","","","","","",""
"","ISI","","html-keyboard-response","521","859821","0.0-1.0-696.0","0","0","17857","","null","","","null","77","NaN","","","","","","","","","","","","","","",""
"","S2","","html-keyboard-response","522","860081","0.0-1.0-697.0","0","0","17857","","null","","","null","77","","NaN","","","","","","","","","","","","","",""
"","response","","html-keyboard-response","523","860115","0.0-1.0-698.0-0.0","0","0","17857","","28","","","75","77","","","2","77","training","adjacent","AB","1","2","M.jpg","N.jpg","1","1","1","",""
"","feedback","","html-keyboard-response","524","861131","0.0-1.0-699.0-0.0","0","0","17857","","null","","","null","77","","","","","","","","","","","","","","","",""
"","ITI","","html-keyboard-response","525","862142","0.0-1.0-702.0","0","0","17857","","null","","","null","77","","","","","","","","","","","","","","","NaN",""
"","S1","","html-keyboard-response","526","862398","0.0-1.0-704.0","0","0","17857","","null","","","null","78","","","","","","","","","","","","","","","",""
"","ISI","","html-keyboard-response","527","864404","0.0-1.0-705.0","0","0","17857","","null","","","null","78","NaN","","","","","","","","","","","","","","",""
"","S2","","html-keyboard-response","528","864667","0.0-1.0-706.0","0","0","17857","","null","","","null","78","","NaN","","","","","","","","","","","","","",""
"","response","","html-keyboard-response","529","864704","0.0-1.0-707.0-0.0","0","0","17857","","32","","","75","78","","","2","78","training","adjacent","ED","5","4","P.jpg","O.jpg","1","0","0","",""
"","feedback","","html-keyboard-response","530","865711","0.0-1.0-708.0-0.0","0","0","17857","","null","","","null","78","","","","","","","","","","","","","","","",""
"","time_out","","html-keyboard-response","531","867723","0.0-1.0-710.0-0.0","0","0","17857","","null","","","null","78","","","","","","","","","","","","","","","",""
"","ITI","","html-keyboard-response","532","868732","0.0-1.0-711.0","0","0","17857","","null","","","null","78","","","","","","","","","","","","","","","NaN",""
"","S1","","html-keyboard-response","533","868988","0.0-1.0-713.0","0","0","17857","","null","","","null","79","","","","","","","","","","","","","","","",""
"","ISI","","html-keyboard-response","534","870997","0.0-1.0-714.0","0","0","17857","","null","","","null","79","NaN","","","","","","","","","","","","","","",""
"","S2","","html-keyboard-response","535","871257","0.0-1.0-715.0","0","0","17857","","null","","","null","79","","NaN","","","","","","","","","","","","","",""
"","response","","html-keyboard-response","536","871330","0.0-1.0-716.0-0.0","0","0","17857","","68","","","75","79","","","2","79","training","adjacent","CD","3","4","R.jpg","O.jpg","1","1","1","",""
"","feedback","","html-keyboard-response","537","872338","0.0-1.0-717.0-0.0","0","0","17857","","null","","","null","79","","","","","","","","","","","","","","","",""
"","ITI","","html-keyboard-response","538","873348","0.0-1.0-720.0","0","0","17857","","null","","","null","79","","","","","","","","","","","","","","","NaN",""
"","S1","","html-keyboard-response","539","873608","0.0-1.0-722.0","0","0","17857","","null","","","null","80","","","","","","","","","","","","","","","",""
"","ISI","","html-keyboard-response","540","875622","0.0-1.0-723.0","0","0","17857","","1928","","","68","80","d","","","","","","","","","","","","","","",""
"","S2","","html-keyboard-response","541","875887","0.0-1.0-724.0","0","0","17857","","null","","","null","80","","NaN","","","","","","","","","","","","","",""
"","response","","html-keyboard-response","542","876123","0.0-1.0-725.0-0.0","0","0","17857","","231","","","68","80","","","2","80","training","adjacent","CB","3","2","R.jpg","N.jpg","0","0","1","",""
"","feedback","","html-keyboard-response","543","877135","0.0-1.0-726.0-0.0","0","0","17857","","null","","","null","80","","","","","","","","","","","","","","","",""
"","ITI","","html-keyboard-response","544","878151","0.0-1.0-729.0","0","0","17857","","null","","","null","80","","","","","","","","","","","","","","","NaN",""
"","S1","","html-keyboard-response","545","878412","0.0-1.0-731.0","0","0","17857","","null","","","null","81","","","","","","","","","","","","","","","",""
"","ISI","","html-keyboard-response","546","880425","0.0-1.0-732.0","0","0","17857","","null","","","null","81","NaN","","","","","","","","","","","","","","",""
"","S2","","html-keyboard-response","547","880681","0.0-1.0-733.0","0","0","17857","","null","","","null","81","","NaN","","","","","","","","","","","","","",""
"","response","","html-keyboard-response","548","881130","0.0-1.0-734.0-0.0","0","0","17857","","445","","","68","81","","","2","81","training","adjacent","FG","6","7","Q.jpg","L.jpg","0","1","0","",""
"","feedback","","html-keyboard-response","549","882144","0.0-1.0-735.0-0.0","0","0","17857","","null","","","null","81","","","","","","","","","","","","","","","",""
"","time_out","","html-keyboard-response","550","884160","0.0-1.0-737.0-0.0","0","0","17857","","null","","","null","81","","","","","","","","","","","","","","","",""
"","ITI","","html-keyboard-response","551","885167","0.0-1.0-738.0","0","0","17857","","null","","","null","81","","","","","","","","","","","","","","","NaN",""
"","S1","","html-keyboard-response","552","885431","0.0-1.0-740.0","0","0","17857","","null","","","null","82","","","","","","","","","","","","","","","",""
"","ISI","","html-keyboard-response","553","887441","0.0-1.0-741.0","0","0","17857","","null","","","null","82","NaN","","","","","","","","","","","","","","",""
"","S2","","html-keyboard-response","554","887700","0.0-1.0-742.0","0","0","17857","","null","","","null","82","","NaN","","","","","","","","","","","","","",""
"","response","","html-keyboard-response","555","887735","0.0-1.0-743.0-0.0","0","0","17857","","29","","","75","82","","","2","82","training","adjacent","ED","5","4","P.jpg","O.jpg","1","0","0","",""
"","feedback","","html-keyboard-response","556","888748","0.0-1.0-744.0-0.0","0","0","17857","","null","","","null","82","","","","","","","","","","","","","","","",""
"","time_out","","html-keyboard-response","557","890762","0.0-1.0-746.0-0.0","0","0","17857","","null","","","null","82","","","","","","","","","","","","","","","",""
"","ITI","","html-keyboard-response","558","891773","0.0-1.0-747.0","0","0","17857","","null","","","null","82","","","","","","","","","","","","","","","NaN",""
"","S1","","html-keyboard-response","559","892032","0.0-1.0-749.0","0","0","17857","","null","","","null","83","","","","","","","","","","","","","","","",""
"","ISI","","html-keyboard-response","560","894043","0.0-1.0-750.0","0","0","17857","","null","","","null","83","NaN","","","","","","","","","","","","","","",""
"","S2","","html-keyboard-response","561","894307","0.0-1.0-751.0","0","0","17857","","null","","","null","83","","NaN","","","","","","","","","","","","","",""
"","response","","html-keyboard-response","562","894390","0.0-1.0-752.0-0.0","0","0","17857","","76","","","75","83","","","2","83","training","adjacent","DE","4","5","O.jpg","P.jpg","1","1","1","",""
"","feedback","","html-keyboard-response","563","895401","0.0-1.0-753.0-0.0","0","0","17857","","null","","","null","83","","","","","","","","","","","","","","","",""
"","ITI","","html-keyboard-response","564","896422","0.0-1.0-756.0","0","0","17857","","null","","","null","83","","","","","","","","","","","","","","","NaN",""
"","S1","","html-keyboard-response","565","896681","0.0-1.0-758.0","0","0","17857","","null","","","null","84","","","","","","","","","","","","","","","",""
"","ISI","","html-keyboard-response","566","898696","0.0-1.0-759.0","0","0","17857","","null","","","null","84","NaN","","","","","","","","","","","","","","",""
"","S2","","html-keyboard-response","567","898953","0.0-1.0-760.0","0","0","17857","","null","","","null","84","","NaN","","","","","","","","","","","","","",""
"","response","","html-keyboard-response","568","898996","0.0-1.0-761.0-0.0","0","0","17857","","38","","","75","84","","","2","84","training","adjacent","CD","3","4","R.jpg","O.jpg","1","1","1","",""
"","feedback","","html-keyboard-response","569","900013","0.0-1.0-762.0-0.0","0","0","17857","","null","","","null","84","","","","","","","","","","","","","","","",""
"","ITI","","html-keyboard-response","570","901021","0.0-1.0-765.0","0","0","17857","","null","","","null","84","","","","","","","","","","","","","","","NaN",""
"","S1","","html-keyboard-response","571","901283","0.0-1.0-767.0","0","0","17857","","null","","","null","85","","","","","","","","","","","","","","","",""
"","ISI","","html-keyboard-response","572","903292","0.0-1.0-768.0","0","0","17857","","null","","","null","85","NaN","","","","","","","","","","","","","","",""
"","S2","","html-keyboard-response","573","903553","0.0-1.0-769.0","0","0","17857","","null","","","null","85","","NaN","","","","","","","","","","","","","",""
