"success","ttype","start_time","trial_type","trial_index","time_elapsed","internal_node_id","warning","missed_checkup","PID","view_history","rt","responses","repeat_instructions","key_press","index","keypress_isi","keypress_S2","block","trial_num","phase","group_type","pair_type","S1_stim","S2_stim","S1_img","S2_img","S1_chosen","S1_higher","accuracy","keypress_iti","total_bonus_tally"
"true","full_screen","d04062023hr2346","fullscreen","0","10563","0.0-0.0","0","0","54705","","","","","","","","","","","","","","","","","","","","","",""
"","instructions","","instructions","1","37623","0.0-1.0-0.0-0.0","0","0","54705","[{""page_index"":0,""viewing_time"":2986},{""page_index"":1,""viewing_time"":16974},{""page_index"":2,""viewing_time"":4868},{""page_index"":3,""viewing_time"":2226}]","27055","","","","","","","","","","","","","","","","","","","",""
"","comprehension_check","","survey-multi-choice","2","62896","0.0-1.0-0.0-1.0","0","0","54705","","25267","{""Q0"":""True"",""Q1"":""K"",""Q2"":""Once the second image appears and while the screen 'MAKE A CHOICE' is shown"",""Q3"":""Green mark"",""Q4"":""either D or K""}","0","","","","","","","","","","","","","","","","","",""
"","start_exp","","html-keyboard-response","3","64756","0.0-1.0-1.0","0","0","54705","","1855","","","32","","","","","","","","","","","","","","","","",""
"","S1","","html-keyboard-response","4","64909","0.0-1.0-2.0","0","0","54705","","null","","","null","0","","","","","","","","","","","","","","","",""
"","ISI","","html-keyboard-response","5","66912","0.0-1.0-3.0","0","0","54705","","null","","","null","0","NaN","","","","","","","","","","","","","","",""
"","S2","","html-keyboard-response","6","67064","0.0-1.0-4.0","0","0","54705","","null","","","null","0","","NaN","","","","","","","","","","","","","",""
"","response","","html-keyboard-response","7","68917","0.0-1.0-5.0-0.0","0","0","54705","","null","","","null","0","","","1","0","training","adjacent","FG","6","7","M.jpg","O.jpg","NaN","1","0","",""
"","too_slow_prompt","","html-keyboard-response","8","69933","0.0-1.0-7.0-0.0","1","0","54705","","null","","","null","","","","","","","","","","","","","","","","",""
"","time_out","","html-keyboard-response","9","71937","0.0-1.0-8.0-0.0","0","0","54705","","null","","","null","0","","","","","","","","","","","","","","","",""
"","ITI","","html-keyboard-response","10","72939","0.0-1.0-9.0","0","0","54705","","null","","","null","0","","","","","","","","","","","","","","","NaN",""
"","S1","","html-keyboard-response","11","73091","0.0-1.0-11.0","0","0","54705","","null","","","null","1","","","","","","","","","","","","","","","",""
"","ISI","","html-keyboard-response","12","75093","0.0-1.0-12.0","0","0","54705","","null","","","null","1","NaN","","","","","","","","","","","","","","",""
"","S2","","html-keyboard-response","13","75247","0.0-1.0-13.0","0","0","54705","","null","","","null","1","","NaN","","","","","","","","","","","","","",""
"","response","","html-keyboard-response","14","75893","0.0-1.0-14.0-0.0","0","0","54705","","644","","","75","1","","","1","1","training","adjacent","ED","5","4","L.jpg","P.jpg","1","0","0","",""
"","feedback","","html-keyboard-response","15","76896","0.0-1.0-15.0-0.0","0","0","54705","","null","","","null","1","","","","","","","","","","","","","","","",""
"","time_out","","html-keyboard-response","16","78899","0.0-1.0-17.0-0.0","0","0","54705","","null","","","null","1","","","","","","","","","","","","","","","",""
"","ITI","","html-keyboard-response","17","79902","0.0-1.0-18.0","0","0","54705","","null","","","null","1","","","","","","","","","","","","","","","NaN",""
"","S1","","html-keyboard-response","18","80055","0.0-1.0-20.0","0","0","54705","","null","","","null","2","","","","","","","","","","","","","","","",""
"","ISI","","html-keyboard-response","19","82059","0.0-1.0-21.0","0","0","54705","","null","","","null","2","NaN","","","","","","","","","","","","","","",""
"","S2","","html-keyboard-response","20","82212","0.0-1.0-22.0","0","0","54705","","null","","","null","2","","NaN","","","","","","","","","","","","","",""
"","response","","html-keyboard-response","21","82627","0.0-1.0-23.0-0.0","0","0","54705","","413","","","68","2","","","1","2","training","adjacent","BA","2","1","R.jpg","Q.jpg","0","0","1","",""
"","feedback","","html-keyboard-response","22","83631","0.0-1.0-24.0-0.0","0","0","54705","","null","","","null","2","","","","","","","","","","","","","","","",""
"","ITI","","html-keyboard-response","23","84634","0.0-1.0-27.0","0","0","54705","","null","","","null","2","","","","","","","","","","","","","","","NaN",""
"","S1","","html-keyboard-response","24","84786","0.0-1.0-29.0","0","0","54705","","null","","","null","3","","","","","","","","","","","","","","","",""
"","ISI","","html-keyboard-response","25","86788","0.0-1.0-30.0","0","0","54705","","null","","","null","3","NaN","","","","","","","","","","","","","","",""
"","S2","","html-keyboard-response","26","86941","0.0-1.0-31.0","0","0","54705","","null","","","null","3","","NaN","","","","","","","","","","","","","",""
"","response","","html-keyboard-response","27","87291","0.0-1.0-32.0-0.0","0","0","54705","","348","","","68","3","","","1","3","training","adjacent","CD","3","4","N.jpg","P.jpg","0","1","0","",""
"","feedback","","html-keyboard-response","28","88293","0.0-1.0-33.0-0.0","0","0","54705","","null","","","null","3","","","","","","","","","","","","","","","",""
"","time_out","","html-keyboard-response","29","90297","0.0-1.0-35.0-0.0","0","0","54705","","null","","","null","3","","","","","","","","","","","","","","","",""
"","ITI","","html-keyboard-response","30","91299","0.0-1.0-36.0","0","0","54705","","null","","","null","3","","","","","","","","","","","","","","","NaN",""
"","S1","","html-keyboard-response","31","91452","0.0-1.0-38.0","0","0","54705","","null","","","null","4","","","","","","","","","","","","","","","",""
"","ISI","","html-keyboard-response","32","93456","0.0-1.0-39.0","0","0","54705","","null","","","null","4","NaN","","","","","","","","","","","","","","",""
"","S2","","html-keyboard-response","33","93609","0.0-1.0-40.0","0","0","54705","","null","","","null","4","","NaN","","","","","","","","","","","","","",""
"","response","","html-keyboard-response","34","94016","0.0-1.0-41.0-0.0","0","0","54705","","405","","","68","4","","","1","4","training","adjacent","AB","1","2","Q.jpg","R.jpg","0","1","0","",""
"","feedback","","html-keyboard-response","35","95019","0.0-1.0-42.0-0.0","0","0","54705","","null","","","null","4","","","","","","","","","","","","","","","",""
"","time_out","","html-keyboard-response","36","97022","0.0-1.0-44.0-0.0","0","0","54705","","null","","","null","4","","","","","","","","","","","","","","","",""
"","ITI","","html-keyboard-response","37","98026","0.0-1.0-45.0","0","0","54705","","null","","","null","4","","","","","","","","","","","","","","","NaN",""
"","S1","","html-keyboard-response","38","98178","0.0-1.0-47.0","0","0","54705","","null","","","null","5","","","","","","","","","","","","","","","",""
"","ISI","","html-keyboard-response","39","100180","0.0-1.0-48.0","0","0","54705","","null","","","null","5","NaN","","","","","","","","","","","","","","",""
"","S2","","html-keyboard-response","40","100334","0.0-1.0-49.0","0","0","54705","","null","","","null","5","","NaN","","","","","","","","","","","","","",""
"","response","","html-keyboard-response","41","100579","0.0-1.0-50.0-0.0","0","0","54705","","243","","","75","5","","","1","5","training","adjacent","DC","4","3","P.jpg","N.jpg","1","0","0","",""
"","feedback","","html-keyboard-response","42","101594","0.0-1.0-51.0-0.0","0","0","54705","","null","","","null","5","","","","","","","","","","","","","","","",""
"","time_out","","html-keyboard-response","43","103596","0.0-1.0-53.0-0.0","0","0","54705","","null","","","null","5","","","","","","","","","","","","","","","",""
"","ITI","","html-keyboard-response","44","104598","0.0-1.0-54.0","0","0","54705","","null","","","null","5","","","","","","","","","","","","","","","NaN",""
"","S1","","html-keyboard-response","45","104751","0.0-1.0-56.0","0","0","54705","","null","","","null","6","","","","","","","","","","","","","","","",""
"","ISI","","html-keyboard-response","46","106755","0.0-1.0-57.0","0","0","54705","","null","","","null","6","NaN","","","","","","","","","","","","","","",""
"","S2","","html-keyboard-response","47","106908","0.0-1.0-58.0","0","0","54705","","null","","","null","6","","NaN","","","","","","","","","","","","","",""
"","response","","html-keyboard-response","48","107088","0.0-1.0-59.0-0.0","0","0","54705","","178","","","75","6","","","1","6","training","adjacent","FE","6","5","M.jpg","L.jpg","1","0","0","",""
"","feedback","","html-keyboard-response","49","108092","0.0-1.0-60.0-0.0","0","0","54705","","null","","","null","6","","","","","","","","","","","","","","","",""
"","time_out","","html-keyboard-response","50","110096","0.0-1.0-62.0-0.0","0","0","54705","","null","","","null","6","","","","","","","","","","","","","","","",""
"","ITI","","html-keyboard-response","51","111098","0.0-1.0-63.0","0","0","54705","","null","","","null","6","","","","","","","","","","","","","","","NaN",""
"","S1","","html-keyboard-response","52","111252","0.0-1.0-65.0","0","0","54705","","null","","","null","7","","","","","","","","","","","","","","","",""
"","ISI","","html-keyboard-response","53","113255","0.0-1.0-66.0","0","0","54705","","null","","","null","7","NaN","","","","","","","","","","","","","","",""
"","S2","","html-keyboard-response","54","113407","0.0-1.0-67.0","0","0","54705","","null","","","null","7","","NaN","","","","","","","","","","","","","",""
"","response","","html-keyboard-response","55","113897","0.0-1.0-68.0-0.0","0","0","54705","","488","","","68","7","","","1","7","training","adjacent","EF","5","6","L.jpg","M.jpg","0","1","0","",""
"","feedback","","html-keyboard-response","56","114900","0.0-1.0-69.0-0.0","0","0","54705","","null","","","null","7","","","","","","","","","","","","","","","",""
"","time_out","","html-keyboard-response","57","116904","0.0-1.0-71.0-0.0","0","0","54705","","null","","","null","7","","","","","","","","","","","","","","","",""
"","ITI","","html-keyboard-response","58","117907","0.0-1.0-72.0","0","0","54705","","null","","","null","7","","","","","","","","","","","","","","","NaN",""
"","S1","","html-keyboard-response","59","118061","0.0-1.0-74.0","0","0","54705","","null","","","null","8","","","","","","","","","","","","","","","",""
"","ISI","","html-keyboard-response","60","120065","0.0-1.0-75.0","0","0","54705","","null","","","null","8","NaN","","","","","","","","","","","","","","",""
"","S2","","html-keyboard-response","61","120218","0.0-1.0-76.0","0","0","54705","","null","","","null","8","","NaN","","","","","","","","","","","","","",""
"","response","","html-keyboard-response","62","120701","0.0-1.0-77.0-0.0","0","0","54705","","482","","","75","8","","","1","8","training","adjacent","CB","3","2","N.jpg","R.jpg","1","0","0","",""
"","feedback","","html-keyboard-response","63","121703","0.0-1.0-78.0-0.0","0","0","54705","","null","","","null","8","","","","","","","","","","","","","","","",""
"","time_out","","html-keyboard-response","64","123706","0.0-1.0-80.0-0.0","0","0","54705","","null","","","null","8","","","","","","","","","","","","","","","",""
"","ITI","","html-keyboard-response","65","124709","0.0-1.0-81.0","0","0","54705","","null","","","null","8","","","","","","","","","","","","","","","NaN",""
"","S1","","html-keyboard-response","66","124862","0.0-1.0-83.0","0","0","54705","","null","","","null","9","","","","","","","","","","","","","","","",""
"","ISI","","html-keyboard-response","67","126864","0.0-1.0-84.0","0","0","54705","","null","","","null","9","NaN","","","","","","","","","","","","","","",""
"","S2","","html-keyboard-response","68","127017","0.0-1.0-85.0","0","0","54705","","null","","","null","9","","NaN","","","","","","","","","","","","","",""
"","response","","html-keyboard-response","69","127436","0.0-1.0-86.0-0.0","0","0","54705","","417","","","75","9","","","1","9","training","adjacent","FG","6","7","M.jpg","O.jpg","1","1","1","",""
"","feedback","","html-keyboard-response","70","128440","0.0-1.0-87.0-0.0","0","0","54705","","null","","","null","9","","","","","","","","","","","","","","","",""
"","ITI","","html-keyboard-response","71","129443","0.0-1.0-90.0","0","0","54705","","null","","","null","9","","","","","","","","","","","","","","","NaN",""
"","S1","","html-keyboard-response","72","129597","0.0-1.0-92.0","0","0","54705","","null","","","null","10","","","","","","","","","","","","","","","",""
"","ISI","","html-keyboard-response","73","131601","0.0-1.0-93.0","0","0","54705","","null","","","null","10","NaN","","","","","","","","","","","","","","",""
"","S2","","html-keyboard-response","74","131754","0.0-1.0-94.0","0","0","54705","","null","","","null","10","","NaN","","","","","","","","","","","","","",""
"","response","","html-keyboard-response","75","132291","0.0-1.0-95.0-0.0","0","0","54705","","536","","","75","10","","","1","10","training","adjacent","FG","6","7","M.jpg","O.jpg","1","1","1","",""
"","feedback","","html-keyboard-response","76","133294","0.0-1.0-96.0-0.0","0","0","54705","","null","","","null","10","","","","","","","","","","","","","","","",""
"","ITI","","html-keyboard-response","77","134298","0.0-1.0-99.0","0","0","54705","","null","","","null","10","","","","","","","","","","","","","","","NaN",""
"","S1","","html-keyboard-response","78","134452","0.0-1.0-101.0","0","0","54705","","null","","","null","11","","","","","","","","","","","","","","","",""
"","ISI","","html-keyboard-response","79","136454","0.0-1.0-102.0","0","0","54705","","null","","","null","11","NaN","","","","","","","","","","","","","","",""
"","S2","","html-keyboard-response","80","136606","0.0-1.0-103.0","0","0","54705","","null","","","null","11","","NaN","","","","","","","","","","","","","",""
"","response","","html-keyboard-response","81","137261","0.0-1.0-104.0-0.0","0","0","54705","","654","","","75","11","","","1","11","training","adjacent","EF","5","6","L.jpg","M.jpg","1","1","1","",""
"","feedback","","html-keyboard-response","82","138263","0.0-1.0-105.0-0.0","0","0","54705","","null","","","null","11","","","","","","","","","","","","","","","",""
"","ITI","","html-keyboard-response","83","139275","0.0-1.0-108.0","0","0","54705","","null","","","null","11","","","","","","","","","","","","","","","NaN",""
"","S1","","html-keyboard-response","84","139427","0.0-1.0-110.0","0","0","54705","","null","","","null","12","","","","","","","","","","","","","","","",""
"","ISI","","html-keyboard-response","85","141430","0.0-1.0-111.0","0","0","54705","","null","","","null","12","NaN","","","","","","","","","","","","","","",""
"","S2","","html-keyboard-response","86","141583","0.0-1.0-112.0","0","0","54705","","null","","","null","12","","NaN","","","","","","","","","","","","","",""
"","response","","html-keyboard-response","87","142166","0.0-1.0-113.0-0.0","0","0","54705","","580","","","75","12","","","1","12","training","adjacent","GF","7","6","O.jpg","M.jpg","1","0","0","",""
"","feedback","","html-keyboard-response","88","143169","0.0-1.0-114.0-0.0","0","0","54705","","null","","","null","12","","","","","","","","","","","","","","","",""
"","time_out","","html-keyboard-response","89","145172","0.0-1.0-116.0-0.0","0","0","54705","","null","","","null","12","","","","","","","","","","","","","","","",""
"","ITI","","html-keyboard-response","90","146174","0.0-1.0-117.0","0","0","54705","","null","","","null","12","","","","","","","","","","","","","","","NaN",""
"","S1","","html-keyboard-response","91","146328","0.0-1.0-119.0","0","0","54705","","null","","","null","13","","","","","","","","","","","","","","","",""
"","ISI","","html-keyboard-response","92","148330","0.0-1.0-120.0","0","0","54705","","null","","","null","13","NaN","","","","","","","","","","","","","","",""
"","S2","","html-keyboard-response","93","148484","0.0-1.0-121.0","0","0","54705","","null","","","null","13","","NaN","","","","","","","","","","","","","",""
"","response","","html-keyboard-response","94","148794","0.0-1.0-122.0-0.0","0","0","54705","","309","","","75","13","","","1","13","training","adjacent","GF","7","6","O.jpg","M.jpg","1","0","0","",""
"","feedback","","html-keyboard-response","95","149796","0.0-1.0-123.0-0.0","0","0","54705","","null","","","null","13","","","","","","","","","","","","","","","",""
"","time_out","","html-keyboard-response","96","151800","0.0-1.0-125.0-0.0","0","0","54705","","null","","","null","13","","","","","","","","","","","","","","","",""
"","ITI","","html-keyboard-response","97","152803","0.0-1.0-126.0","0","0","54705","","null","","","null","13","","","","","","","","","","","","","","","NaN",""
"","S1","","html-keyboard-response","98","152956","0.0-1.0-128.0","0","0","54705","","null","","","null","14","","","","","","","","","","","","","","","",""
"","ISI","","html-keyboard-response","99","154960","0.0-1.0-129.0","0","0","54705","","null","","","null","14","NaN","","","","","","","","","","","","","","",""
"","S2","","html-keyboard-response","100","155114","0.0-1.0-130.0","0","0","54705","","null","","","null","14","","NaN","","","","","","","","","","","","","",""
"","response","","html-keyboard-response","101","155318","0.0-1.0-131.0-0.0","0","0","54705","","202","","","68","14","","","1","14","training","adjacent","BC","2","3","R.jpg","N.jpg","0","1","0","",""
"","feedback","","html-keyboard-response","102","156322","0.0-1.0-132.0-0.0","0","0","54705","","null","","","null","14","","","","","","","","","","","","","","","",""
"","time_out","","html-keyboard-response","103","158326","0.0-1.0-134.0-0.0","0","0","54705","","null","","","null","14","","","","","","","","","","","","","","","",""
"","ITI","","html-keyboard-response","104","159329","0.0-1.0-135.0","0","0","54705","","null","","","null","14","","","","","","","","","","","","","","","NaN",""
"","S1","","html-keyboard-response","105","159483","0.0-1.0-137.0","0","0","54705","","null","","","null","15","","","","","","","","","","","","","","","",""
"","ISI","","html-keyboard-response","106","161485","0.0-1.0-138.0","0","0","54705","","null","","","null","15","NaN","","","","","","","","","","","","","","",""
"","S2","","html-keyboard-response","107","161637","0.0-1.0-139.0","0","0","54705","","null","","","null","15","","NaN","","","","","","","","","","","","","",""
"","response","","html-keyboard-response","108","161746","0.0-1.0-140.0-0.0","0","0","54705","","106","","","75","15","","","1","15","training","adjacent","CB","3","2","N.jpg","R.jpg","1","0","0","",""
"","feedback","","html-keyboard-response","109","162750","0.0-1.0-141.0-0.0","0","0","54705","","null","","","null","15","","","","","","","","","","","","","","","",""
"","time_out","","html-keyboard-response","110","164754","0.0-1.0-143.0-0.0","0","0","54705","","null","","","null","15","","","","","","","","","","","","","","","",""
"","ITI","","html-keyboard-response","111","165756","0.0-1.0-144.0","0","0","54705","","null","","","null","15","","","","","","","","","","","","","","","NaN",""
"","S1","","html-keyboard-response","112","165909","0.0-1.0-146.0","0","0","54705","","null","","","null","16","","","","","","","","","","","","","","","",""
"","ISI","","html-keyboard-response","113","167912","0.0-1.0-147.0","0","0","54705","","null","","","null","16","NaN","","","","","","","","","","","","","","",""
"","S2","","html-keyboard-response","114","168065","0.0-1.0-148.0","0","0","54705","","null","","","null","16","","NaN","","","","","","","","","","","","","",""
"","response","","html-keyboard-response","115","168185","0.0-1.0-149.0-0.0","0","0","54705","","116","","","68","16","","","1","16","training","adjacent","AB","1","2","Q.jpg","R.jpg","0","1","0","",""
"","feedback","","html-keyboard-response","116","169188","0.0-1.0-150.0-0.0","0","0","54705","","null","","","null","16","","","","","","","","","","","","","","","",""
"","time_out","","html-keyboard-response","117","171191","0.0-1.0-152.0-0.0","0","0","54705","","null","","","null","16","","","","","","","","","","","","","","","",""
"","ITI","","html-keyboard-response","118","172194","0.0-1.0-153.0","0","0","54705","","null","","","null","16","","","","","","","","","","","","","","","NaN",""
"","S1","","html-keyboard-response","119","172347","0.0-1.0-155.0","0","0","54705","","null","","","null","17","","","","","","","","","","","","","","","",""
"","ISI","","html-keyboard-response","120","174350","0.0-1.0-156.0","0","0","54705","","null","","","null","17","NaN","","","","","","","","","","","","","","",""
"","S2","","html-keyboard-response","121","174503","0.0-1.0-157.0","0","0","54705","","null","","","null","17","","NaN","","","","","","","","","","","","","",""
"","response","","html-keyboard-response","122","174659","0.0-1.0-158.0-0.0","0","0","54705","","153","","","75","17","","","1","17","training","adjacent","BC","2","3","R.jpg","N.jpg","1","1","1","",""
"","feedback","","html-keyboard-response","123","175662","0.0-1.0-159.0-0.0","0","0","54705","","null","","","null","17","","","","","","","","","","","","","","","",""
"","ITI","","html-keyboard-response","124","176670","0.0-1.0-162.0","0","0","54705","","null","","","null","17","","","","","","","","","","","","","","","NaN",""
"","S1","","html-keyboard-response","125","176822","0.0-1.0-164.0","0","0","54705","","null","","","null","18","","","","","","","","","","","","","","","",""
"","ISI","","html-keyboard-response","126","178825","0.0-1.0-165.0","0","0","54705","","null","","","null","18","NaN","","","","","","","","","","","","","","",""
"","S2","","html-keyboard-response","127","178979","0.0-1.0-166.0","0","0","54705","","null","","","null","18","","NaN","","","","","","","","","","","","","",""
"","response","","html-keyboard-response","128","179483","0.0-1.0-167.0-0.0","0","0","54705","","503","","","75","18","","","1","18","training","adjacent","FG","6","7","M.jpg","O.jpg","1","1","1","",""
"","feedback","","html-keyboard-response","129","180487","0.0-1.0-168.0-0.0","0","0","54705","","null","","","null","18","","","","","","","","","","","","","","","",""
"","ITI","","html-keyboard-response","130","181490","0.0-1.0-171.0","0","0","54705","","null","","","null","18","","","","","","","","","","","","","","","NaN",""
"","S1","","html-keyboard-response","131","181644","0.0-1.0-173.0","0","0","54705","","null","","","null","19","","","","","","","","","","","","","","","",""
"","ISI","","html-keyboard-response","132","183647","0.0-1.0-174.0","0","0","54705","","null","","","null","19","NaN","","","","","","","","","","","","","","",""
"","S2","","html-keyboard-response","133","183800","0.0-1.0-175.0","0","0","54705","","null","","","null","19","","NaN","","","","","","","","","","","","","",""
"","response","","html-keyboard-response","134","184082","0.0-1.0-176.0-0.0","0","0","54705","","280","","","75","19","","","1","19","training","adjacent","BC","2","3","R.jpg","N.jpg","1","1","1","",""
"","feedback","","html-keyboard-response","135","185087","0.0-1.0-177.0-0.0","0","0","54705","","null","","","null","19","","","","","","","","","","","","","","","",""
"","ITI","","html-keyboard-response","136","186090","0.0-1.0-180.0","0","0","54705","","null","","","null","19","","","","","","","","","","","","","","","NaN",""
"","S1","","html-keyboard-response","137","186242","0.0-1.0-182.0","0","0","54705","","null","","","null","20","","","","","","","","","","","","","","","",""
"","ISI","","html-keyboard-response","138","188245","0.0-1.0-183.0","0","0","54705","","null","","","null","20","NaN","","","","","","","","","","","","","","",""
"","S2","","html-keyboard-response","139","188399","0.0-1.0-184.0","0","0","54705","","null","","","null","20","","NaN","","","","","","","","","","","","","",""
"","response","","html-keyboard-response","140","188663","0.0-1.0-185.0-0.0","0","0","54705","","263","","","68","20","","","1","20","training","adjacent","ED","5","4","L.jpg","P.jpg","0","0","1","",""
"","feedback","","html-keyboard-response","141","189667","0.0-1.0-186.0-0.0","0","0","54705","","null","","","null","20","","","","","","","","","","","","","","","",""
"","ITI","","html-keyboard-response","142","190670","0.0-1.0-189.0","0","0","54705","","null","","","null","20","","","","","","","","","","","","","","","NaN",""
"","S1","","html-keyboard-response","143","190823","0.0-1.0-191.0","0","0","54705","","null","","","null","21","","","","","","","","","","","","","","","",""
"","ISI","","html-keyboard-response","144","192825","0.0-1.0-192.0","0","0","54705","","null","","","null","21","NaN","","","","","","","","","","","","","","",""
"","S2","","html-keyboard-response","145","192979","0.0-1.0-193.0","0","0","54705","","null","","","null","21","","NaN","","","","","","","","","","","","","",""
"","response","","html-keyboard-response","146","193478","0.0-1.0-194.0-0.0","0","0","54705","","498","","","75","21","","","1","21","training","adjacent","ED","5","4","L.jpg","P.jpg","1","0","0","",""
"","feedback","","html-keyboard-response","147","194482","0.0-1.0-195.0-0.0","0","0","54705","","null","","","null","21","","","","","","","","","","","","","","","",""
"","time_out","","html-keyboard-response","148","196484","0.0-1.0-197.0-0.0","0","0","54705","","null","","","null","21","","","","","","","","","","","","","","","",""
"","ITI","","html-keyboard-response","149","197487","0.0-1.0-198.0","0","0","54705","","null","","","null","21","","","","","","","","","","","","","","","NaN",""
"","S1","","html-keyboard-response","150","197639","0.0-1.0-200.0","0","0","54705","","null","","","null","22","","","","","","","","","","","","","","","",""
"","ISI","","html-keyboard-response","151","199642","0.0-1.0-201.0","0","0","54705","","null","","","null","22","NaN","","","","","","","","","","","","","","",""
"","S2","","html-keyboard-response","152","199795","0.0-1.0-202.0","0","0","54705","","null","","","null","22","","NaN","","","","","","","","","","","","","",""
"","response","","html-keyboard-response","153","199977","0.0-1.0-203.0-0.0","0","0","54705","","180","","","75","22","","","1","22","training","adjacent","AB","1","2","Q.jpg","R.jpg","1","1","1","",""
"","feedback","","html-keyboard-response","154","200979","0.0-1.0-204.0-0.0","0","0","54705","","null","","","null","22","","","","","","","","","","","","","","","",""
"","ITI","","html-keyboard-response","155","201982","0.0-1.0-207.0","0","0","54705","","null","","","null","22","","","","","","","","","","","","","","","NaN",""
"","S1","","html-keyboard-response","156","202136","0.0-1.0-209.0","0","0","54705","","null","","","null","23","","","","","","","","","","","","","","","",""
"","ISI","","html-keyboard-response","157","204139","0.0-1.0-210.0","0","0","54705","","null","","","null","23","NaN","","","","","","","","","","","","","","",""
"","S2","","html-keyboard-response","158","204292","0.0-1.0-211.0","0","0","54705","","null","","","null","23","","NaN","","","","","","","","","","","","","",""
"","response","","html-keyboard-response","159","204826","0.0-1.0-212.0-0.0","0","0","54705","","532","","","68","23","","","1","23","training","adjacent","BC","2","3","R.jpg","N.jpg","0","1","0","",""
"","feedback","","html-keyboard-response","160","205829","0.0-1.0-213.0-0.0","0","0","54705","","null","","","null","23","","","","","","","","","","","","","","","",""
"","time_out","","html-keyboard-response","161","207833","0.0-1.0-215.0-0.0","0","0","54705","","null","","","null","23","","","","","","","","","","","","","","","",""
"","ITI","","html-keyboard-response","162","208835","0.0-1.0-216.0","0","0","54705","","null","","","null","23","","","","","","","","","","","","","","","NaN",""
"","S1","","html-keyboard-response","163","208988","0.0-1.0-218.0","0","0","54705","","null","","","null","24","","","","","","","","","","","","","","","",""
"","ISI","","html-keyboard-response","164","210991","0.0-1.0-219.0","0","0","54705","","null","","","null","24","NaN","","","","","","","","","","","","","","",""
"","S2","","html-keyboard-response","165","211144","0.0-1.0-220.0","0","0","54705","","null","","","null","24","","NaN","","","","","","","","","","","","","",""
"","response","","html-keyboard-response","166","211589","0.0-1.0-221.0-0.0","0","0","54705","","442","","","75","24","","","1","24","training","adjacent","CD","3","4","N.jpg","P.jpg","1","1","1","",""
"","feedback","","html-keyboard-response","167","212592","0.0-1.0-222.0-0.0","0","0","54705","","null","","","null","24","","","","","","","","","","","","","","","",""
"","ITI","","html-keyboard-response","168","213595","0.0-1.0-225.0","0","0","54705","","null","","","null","24","","","","","","","","","","","","","","","NaN",""
"","S1","","html-keyboard-response","169","213748","0.0-1.0-227.0","0","0","54705","","null","","","null","25","","","","","","","","","","","","","","","",""
"","ISI","","html-keyboard-response","170","215751","0.0-1.0-228.0","0","0","54705","","null","","","null","25","NaN","","","","","","","","","","","","","","",""
"","S2","","html-keyboard-response","171","215904","0.0-1.0-229.0","0","0","54705","","null","","","null","25","","NaN","","","","","","","","","","","","","",""
"","response","","html-keyboard-response","172","216233","0.0-1.0-230.0-0.0","0","0","54705","","328","","","75","25","","","1","25","training","adjacent","ED","5","4","L.jpg","P.jpg","1","0","0","",""
"","feedback","","html-keyboard-response","173","217237","0.0-1.0-231.0-0.0","0","0","54705","","null","","","null","25","","","","","","","","","","","","","","","",""
"","time_out","","html-keyboard-response","174","219240","0.0-1.0-233.0-0.0","0","0","54705","","null","","","null","25","","","","","","","","","","","","","","","",""
"","ITI","","html-keyboard-response","175","220243","0.0-1.0-234.0","0","0","54705","","null","","","null","25","","","","","","","","","","","","","","","NaN",""
"","S1","","html-keyboard-response","176","220396","0.0-1.0-236.0","0","0","54705","","null","","","null","26","","","","","","","","","","","","","","","",""
"","ISI","","html-keyboard-response","177","222399","0.0-1.0-237.0","0","0","54705","","null","","","null","26","NaN","","","","","","","","","","","","","","",""
"","S2","","html-keyboard-response","178","222552","0.0-1.0-238.0","0","0","54705","","null","","","null","26","","NaN","","","","","","","","","","","","","",""
"","response","","html-keyboard-response","179","223072","0.0-1.0-239.0-0.0","0","0","54705","","518","","","75","26","","","1","26","training","adjacent","GF","7","6","O.jpg","M.jpg","1","0","0","",""
"","feedback","","html-keyboard-response","180","224075","0.0-1.0-240.0-0.0","0","0","54705","","null","","","null","26","","","","","","","","","","","","","","","",""
"","time_out","","html-keyboard-response","181","226078","0.0-1.0-242.0-0.0","0","0","54705","","null","","","null","26","","","","","","","","","","","","","","","",""
"","ITI","","html-keyboard-response","182","227081","0.0-1.0-243.0","0","0","54705","","null","","","null","26","","","","","","","","","","","","","","","NaN",""
"","S1","","html-keyboard-response","183","227234","0.0-1.0-245.0","0","0","54705","","null","","","null","27","","","","","","","","","","","","","","","",""
"","ISI","","html-keyboard-response","184","229236","0.0-1.0-246.0","0","0","54705","","null","","","null","27","NaN","","","","","","","","","","","","","","",""
"","S2","","html-keyboard-response","185","229389","0.0-1.0-247.0","0","0","54705","","null","","","null","27","","NaN","","","","","","","","","","","","","",""
"","response","","html-keyboard-response","186","229741","0.0-1.0-248.0-0.0","0","0","54705","","350","","","75","27","","","1","27","training","adjacent","AB","1","2","Q.jpg","R.jpg","1","1","1","",""
"","feedback","","html-keyboard-response","187","230744","0.0-1.0-249.0-0.0","0","0","54705","","null","","","null","27","","","","","","","","","","","","","","","",""
"","ITI","","html-keyboard-response","188","231747","0.0-1.0-252.0","0","0","54705","","null","","","null","27","","","","","","","","","","","","","","","NaN",""
"","S1","","html-keyboard-response","189","231900","0.0-1.0-254.0","0","0","54705","","null","","","null","28","","","","","","","","","","","","","","","",""
"","ISI","","html-keyboard-response","190","233903","0.0-1.0-255.0","0","0","54705","","null","","","null","28","NaN","","","","","","","","","","","","","","",""
"","S2","","html-keyboard-response","191","234056","0.0-1.0-256.0","0","0","54705","","null","","","null","28","","NaN","","","","","","","","","","","","","",""
"","response","","html-keyboard-response","192","234927","0.0-1.0-257.0-0.0","0","0","54705","","868","","","68","28","","","1","28","training","adjacent","BA","2","1","R.jpg","Q.jpg","0","0","1","",""
"","feedback","","html-keyboard-response","193","235931","0.0-1.0-258.0-0.0","0","0","54705","","null","","","null","28","","","","","","","","","","","","","","","",""
"","ITI","","html-keyboard-response","194","236934","0.0-1.0-261.0","0","0","54705","","null","","","null","28","","","","","","","","","","","","","","","NaN",""
"","S1","","html-keyboard-response","195","237087","0.0-1.0-263.0","0","0","54705","","null","","","null","29","","","","","","","","","","","","","","","",""
"","ISI","","html-keyboard-response","196","239090","0.0-1.0-264.0","0","0","54705","","null","","","null","29","NaN","","","","","","","","","","","","","","",""
"","S2","","html-keyboard-response","197","239243","0.0-1.0-265.0","0","0","54705","","null","","","null","29","","NaN","","","","","","","","","","","","","",""
"","response","","html-keyboard-response","198","240063","0.0-1.0-266.0-0.0","0","0","54705","","817","","","75","29","","","1","29","training","adjacent","DC","4","3","P.jpg","N.jpg","1","0","0","",""
"","feedback","","html-keyboard-response","199","241067","0.0-1.0-267.0-0.0","0","0","54705","","null","","","null","29","","","","","","","","","","","","","","","",""
"","time_out","","html-keyboard-response","200","243069","0.0-1.0-269.0-0.0","0","0","54705","","null","","","null","29","","","","","","","","","","","","","","","",""
"","ITI","","html-keyboard-response","201","244078","0.0-1.0-270.0","0","0","54705","","null","","","null","29","","","","","","","","","","","","","","","NaN",""
"","S1","","html-keyboard-response","202","244230","0.0-1.0-272.0","0","0","54705","","null","","","null","30","","","","","","","","","","","","","","","",""
"","ISI","","html-keyboard-response","203","246232","0.0-1.0-273.0","0","0","54705","","null","","","null","30","NaN","","","","","","","","","","","","","","",""
"","S2","","html-keyboard-response","204","246386","0.0-1.0-274.0","0","0","54705","","null","","","null","30","","NaN","","","","","","","","","","","","","",""
"","response","","html-keyboard-response","205","246941","0.0-1.0-275.0-0.0","0","0","54705","","552","","","75","30","","","1","30","training","adjacent","EF","5","6","L.jpg","M.jpg","1","1","1","",""
"","feedback","","html-keyboard-response","206","247945","0.0-1.0-276.0-0.0","0","0","54705","","null","","","null","30","","","","","","","","","","","","","","","",""
"","ITI","","html-keyboard-response","207","248948","0.0-1.0-279.0","0","0","54705","","null","","","null","30","","","","","","","","","","","","","","","NaN",""
"","S1","","html-keyboard-response","208","249101","0.0-1.0-281.0","0","0","54705","","null","","","null","31","","","","","","","","","","","","","","","",""
"","ISI","","html-keyboard-response","209","251104","0.0-1.0-282.0","0","0","54705","","null","","","null","31","NaN","","","","","","","","","","","","","","",""
"","S2","","html-keyboard-response","210","251257","0.0-1.0-283.0","0","0","54705","","null","","","null","31","","NaN","","","","","","","","","","","","","",""
"","response","","html-keyboard-response","211","251611","0.0-1.0-284.0-0.0","0","0","54705","","351","","","75","31","","","1","31","training","adjacent","DE","4","5","P.jpg","L.jpg","1","1","1","",""
"","feedback","","html-keyboard-response","212","252615","0.0-1.0-285.0-0.0","0","0","54705","","null","","","null","31","","","","","","","","","","","","","","","",""
"","ITI","","html-keyboard-response","213","253617","0.0-1.0-288.0","0","0","54705","","null","","","null","31","","","","","","","","","","","","","","","NaN",""
"","S1","","html-keyboard-response","214","253771","0.0-1.0-290.0","0","0","54705","","null","","","null","32","","","","","","","","","","","","","","","",""
"","ISI","","html-keyboard-response","215","255773","0.0-1.0-291.0","0","0","54705","","null","","","null","32","NaN","","","","","","","","","","","","","","",""
"","S2","","html-keyboard-response","216","255927","0.0-1.0-292.0","0","0","54705","","null","","","null","32","","NaN","","","","","","","","","","","","","",""
"","response","","html-keyboard-response","217","256818","0.0-1.0-293.0-0.0","0","0","54705","","890","","","75","32","","","1","32","training","adjacent","FE","6","5","M.jpg","L.jpg","1","0","0","",""
"","feedback","","html-keyboard-response","218","257821","0.0-1.0-294.0-0.0","0","0","54705","","null","","","null","32","","","","","","","","","","","","","","","",""
"","time_out","","html-keyboard-response","219","259824","0.0-1.0-296.0-0.0","0","0","54705","","null","","","null","32","","","","","","","","","","","","","","","",""
"","ITI","","html-keyboard-response","220","260827","0.0-1.0-297.0","0","0","54705","","null","","","null","32","","","","","","","","","","","","","","","NaN",""
"","S1","","html-keyboard-response","221","260980","0.0-1.0-299.0","0","0","54705","","null","","","null","33","","","","","","","","","","","","","","","",""
"","ISI","","html-keyboard-response","222","262984","0.0-1.0-300.0","0","0","54705","","null","","","null","33","NaN","","","","","","","","","","","","","","",""
"","S2","","html-keyboard-response","223","263137","0.0-1.0-301.0","0","0","54705","","null","","","null","33","","NaN","","","","","","","","","","","","","",""
"","response","","html-keyboard-response","224","263641","0.0-1.0-302.0-0.0","0","0","54705","","502","","","75","33","","","1","33","training","adjacent","EF","5","6","L.jpg","M.jpg","1","1","1","",""
"","feedback","","html-keyboard-response","225","264645","0.0-1.0-303.0-0.0","0","0","54705","","null","","","null","33","","","","","","","","","","","","","","","",""
"","ITI","","html-keyboard-response","226","265648","0.0-1.0-306.0","0","0","54705","","null","","","null","33","","","","","","","","","","","","","","","NaN",""
"","S1","","html-keyboard-response","227","265802","0.0-1.0-308.0","0","0","54705","","null","","","null","34","","","","","","","","","","","","","","","",""
"","ISI","","html-keyboard-response","228","267805","0.0-1.0-309.0","0","0","54705","","null","","","null","34","NaN","","","","","","","","","","","","","","",""
"","S2","","html-keyboard-response","229","267959","0.0-1.0-310.0","0","0","54705","","null","","","null","34","","NaN","","","","","","","","","","","","","",""
"","response","","html-keyboard-response","230","268445","0.0-1.0-311.0-0.0","0","0","54705","","484","","","75","34","","","1","34","training","adjacent","DE","4","5","P.jpg","L.jpg","1","1","1","",""
"","feedback","","html-keyboard-response","231","269450","0.0-1.0-312.0-0.0","0","0","54705","","null","","","null","34","","","","","","","","","","","","","","","",""
"","ITI","","html-keyboard-response","232","270453","0.0-1.0-315.0","0","0","54705","","null","","","null","34","","","","","","","","","","","","","","","NaN",""
"","S1","","html-keyboard-response","233","270606","0.0-1.0-317.0","0","0","54705","","null","","","null","35","","","","","","","","","","","","","","","",""
"","ISI","","html-keyboard-response","234","272609","0.0-1.0-318.0","0","0","54705","","null","","","null","35","NaN","","","","","","","","","","","","","","",""
"","S2","","html-keyboard-response","235","272762","0.0-1.0-319.0","0","0","54705","","null","","","null","35","","NaN","","","","","","","","","","","","","",""
"","response","","html-keyboard-response","236","272924","0.0-1.0-320.0-0.0","0","0","54705","","159","","","75","35","","","1","35","training","adjacent","CB","3","2","N.jpg","R.jpg","1","0","0","",""
"","feedback","","html-keyboard-response","237","273927","0.0-1.0-321.0-0.0","0","0","54705","","null","","","null","35","","","","","","","","","","","","","","","",""
"","time_out","","html-keyboard-response","238","275930","0.0-1.0-323.0-0.0","0","0","54705","","null","","","null","35","","","","","","","","","","","","","","","",""
"","ITI","","html-keyboard-response","239","276933","0.0-1.0-324.0","0","0","54705","","null","","","null","35","","","","","","","","","","","","","","","NaN",""
"","S1","","html-keyboard-response","240","277087","0.0-1.0-326.0","0","0","54705","","null","","","null","36","","","","","","","","","","","","","","","",""
"","ISI","","html-keyboard-response","241","279089","0.0-1.0-327.0","0","0","54705","","null","","","null","36","NaN","","","","","","","","","","","","","","",""
"","S2","","html-keyboard-response","242","279241","0.0-1.0-328.0","0","0","54705","","null","","","null","36","","NaN","","","","","","","","","","","","","",""
"","response","","html-keyboard-response","243","279620","0.0-1.0-329.0-0.0","0","0","54705","","377","","","68","36","","","1","36","training","adjacent","FE","6","5","M.jpg","L.jpg","0","0","1","",""
"","feedback","","html-keyboard-response","244","280623","0.0-1.0-330.0-0.0","0","0","54705","","null","","","null","36","","","","","","","","","","","","","","","",""
"","ITI","","html-keyboard-response","245","281626","0.0-1.0-333.0","0","0","54705","","null","","","null","36","","","","","","","","","","","","","","","NaN",""
"","S1","","html-keyboard-response","246","281778","0.0-1.0-335.0","0","0","54705","","null","","","null","37","","","","","","","","","","","","","","","",""
"","ISI","","html-keyboard-response","247","283781","0.0-1.0-336.0","0","0","54705","","null","","","null","37","NaN","","","","","","","","","","","","","","",""
"","S2","","html-keyboard-response","248","283934","0.0-1.0-337.0","0","0","54705","","null","","","null","37","","NaN","","","","","","","","","","","","","",""
"","response","","html-keyboard-response","249","284411","0.0-1.0-338.0-0.0","0","0","54705","","475","","","68","37","","","1","37","training","adjacent","BA","2","1","R.jpg","Q.jpg","0","0","1","",""
"","feedback","","html-keyboard-response","250","285414","0.0-1.0-339.0-0.0","0","0","54705","","null","","","null","37","","","","","","","","","","","","","","","",""
"","ITI","","html-keyboard-response","251","286417","0.0-1.0-342.0","0","0","54705","","null","","","null","37","","","","","","","","","","","","","","","NaN",""
"","S1","","html-keyboard-response","252","286571","0.0-1.0-344.0","0","0","54705","","null","","","null","38","","","","","","","","","","","","","","","",""
"","ISI","","html-keyboard-response","253","288574","0.0-1.0-345.0","0","0","54705","","null","","","null","38","NaN","","","","","","","","","","","","","","",""
"","S2","","html-keyboard-response","254","288727","0.0-1.0-346.0","0","0","54705","","null","","","null","38","","NaN","","","","","","","","","","","","","",""
"","response","","html-keyboard-response","255","288864","0.0-1.0-347.0-0.0","0","0","54705","","134","","","75","38","","","1","38","training","adjacent","CB","3","2","N.jpg","R.jpg","1","0","0","",""
"","feedback","","html-keyboard-response","256","289867","0.0-1.0-348.0-0.0","0","0","54705","","null","","","null","38","","","","","","","","","","","","","","","",""
"","time_out","","html-keyboard-response","257","291871","0.0-1.0-350.0-0.0","0","0","54705","","null","","","null","38","","","","","","","","","","","","","","","",""
"","ITI","","html-keyboard-response","258","292873","0.0-1.0-351.0","0","0","54705","","null","","","null","38","","","","","","","","","","","","","","","NaN",""
"","S1","","html-keyboard-response","259","293026","0.0-1.0-353.0","0","0","54705","","null","","","null","39","","","","","","","","","","","","","","","",""
"","ISI","","html-keyboard-response","260","295030","0.0-1.0-354.0","0","0","54705","","null","","","null","39","NaN","","","","","","","","","","","","","","",""
"","S2","","html-keyboard-response","261","295182","0.0-1.0-355.0","0","0","54705","","null","","","null","39","","NaN","","","","","","","","","","","","","",""
"","response","","html-keyboard-response","262","295519","0.0-1.0-356.0-0.0","0","0","54705","","334","","","75","39","","","1","39","training","adjacent","DE","4","5","P.jpg","L.jpg","1","1","1","",""
"","feedback","","html-keyboard-response","263","296522","0.0-1.0-357.0-0.0","0","0","54705","","null","","","null","39","","","","","","","","","","","","","","","",""
"","ITI","","html-keyboard-response","264","297526","0.0-1.0-360.0","0","0","54705","","null","","","null","39","","","","","","","","","","","","","","","NaN",""
"","S1","","html-keyboard-response","265","297679","0.0-1.0-362.0","0","0","54705","","null","","","null","40","","","","","","","","","","","","","","","",""
"","ISI","","html-keyboard-response","266","299682","0.0-1.0-363.0","0","0","54705","","null","","","null","40","NaN","","","","","","","","","","","","","","",""
"","S2","","html-keyboard-response","267","299835","0.0-1.0-364.0","0","0","54705","","null","","","null","40","","NaN","","","","","","","","","","","","","",""
"","response","","html-keyboard-response","268","300062","0.0-1.0-365.0-0.0","0","0","54705","","225","","","68","40","","","1","40","training","adjacent","CD","3","4","N.jpg","P.jpg","0","1","0","",""
"","feedback","","html-keyboard-response","269","301065","0.0-1.0-366.0-0.0","0","0","54705","","null","","","null","40","","","","","","","","","","","","","","","",""
"","time_out","","html-keyboard-response","270","303067","0.0-1.0-368.0-0.0","0","0","54705","","null","","","null","40","","","","","","","","","","","","","","","",""
"","ITI","","html-keyboard-response","271","304070","0.0-1.0-369.0","0","0","54705","","null","","","null","40","","","","","","","","","","","","","","","NaN",""
"","S1","","html-keyboard-response","272","304223","0.0-1.0-371.0","0","0","54705","","null","","","null","41","","","","","","","","","","","","","","","",""
"","ISI","","html-keyboard-response","273","306226","0.0-1.0-372.0","0","0","54705","","null","","","null","41","NaN","","","","","","","","","","","","","","",""
"","S2","","html-keyboard-response","274","306379","0.0-1.0-373.0","0","0","54705","","null","","","null","41","","NaN","","","","","","","","","","","","","",""
"","response","","html-keyboard-response","275","306695","0.0-1.0-374.0-0.0","0","0","54705","","314","","","75","41","","","1","41","training","adjacent","DC","4","3","P.jpg","N.jpg","1","0","0","",""
"","feedback","","html-keyboard-response","276","307698","0.0-1.0-375.0-0.0","0","0","54705","","null","","","null","41","","","","","","","","","","","","","","","",""
"","time_out","","html-keyboard-response","277","309701","0.0-1.0-377.0-0.0","0","0","54705","","null","","","null","41","","","","","","","","","","","","","","","",""
"","ITI","","html-keyboard-response","278","310704","0.0-1.0-378.0","0","0","54705","","null","","","null","41","","","","","","","","","","","","","","","NaN",""
"","S1","","html-keyboard-response","279","310857","0.0-1.0-380.0","0","0","54705","","null","","","null","42","","","","","","","","","","","","","","","",""
"","ISI","","html-keyboard-response","280","312860","0.0-1.0-381.0","0","0","54705","","null","","","null","42","NaN","","","","","","","","","","","","","","",""
"","S2","","html-keyboard-response","281","313014","0.0-1.0-382.0","0","0","54705","","null","","","null","42","","NaN","","","","","","","","","","","","","",""
"","response","","html-keyboard-response","282","313377","0.0-1.0-383.0-0.0","0","0","54705","","362","","","68","42","","","1","42","training","adjacent","FE","6","5","M.jpg","L.jpg","0","0","1","",""
"","feedback","","html-keyboard-response","283","314381","0.0-1.0-384.0-0.0","0","0","54705","","null","","","null","42","","","","","","","","","","","","","","","",""
"","ITI","","html-keyboard-response","284","315384","0.0-1.0-387.0","0","0","54705","","null","","","null","42","","","","","","","","","","","","","","","NaN",""
"","S1","","html-keyboard-response","285","315537","0.0-1.0-389.0","0","0","54705","","null","","","null","43","","","","","","","","","","","","","","","",""
"","ISI","","html-keyboard-response","286","317540","0.0-1.0-390.0","0","0","54705","","null","","","null","43","NaN","","","","","","","","","","","","","","",""
"","S2","","html-keyboard-response","287","317693","0.0-1.0-391.0","0","0","54705","","null","","","null","43","","NaN","","","","","","","","","","","","","",""
"","response","","html-keyboard-response","288","317971","0.0-1.0-392.0-0.0","0","0","54705","","277","","","75","43","","","1","43","training","adjacent","DE","4","5","P.jpg","L.jpg","1","1","1","",""
"","feedback","","html-keyboard-response","289","318975","0.0-1.0-393.0-0.0","0","0","54705","","null","","","null","43","","","","","","","","","","","","","","","",""
"","ITI","","html-keyboard-response","290","319977","0.0-1.0-396.0","0","0","54705","","null","","","null","43","","","","","","","","","","","","","","","NaN",""
"","S1","","html-keyboard-response","291","320130","0.0-1.0-398.0","0","0","54705","","null","","","null","44","","","","","","","","","","","","","","","",""
"","ISI","","html-keyboard-response","292","322134","0.0-1.0-399.0","0","0","54705","","null","","","null","44","NaN","","","","","","","","","","","","","","",""
"","S2","","html-keyboard-response","293","322287","0.0-1.0-400.0","0","0","54705","","null","","","null","44","","NaN","","","","","","","","","","","","","",""
"","response","","html-keyboard-response","294","322724","0.0-1.0-401.0-0.0","0","0","54705","","434","","","75","44","","","1","44","training","adjacent","CD","3","4","N.jpg","P.jpg","1","1","1","",""
"","feedback","","html-keyboard-response","295","323727","0.0-1.0-402.0-0.0","0","0","54705","","null","","","null","44","","","","","","","","","","","","","","","",""
"","ITI","","html-keyboard-response","296","324731","0.0-1.0-405.0","0","0","54705","","null","","","null","44","","","","","","","","","","","","","","","NaN",""
"","S1","","html-keyboard-response","297","324884","0.0-1.0-407.0","0","0","54705","","null","","","null","45","","","","","","","","","","","","","","","",""
"","ISI","","html-keyboard-response","298","326887","0.0-1.0-408.0","0","0","54705","","null","","","null","45","NaN","","","","","","","","","","","","","","",""
"","S2","","html-keyboard-response","299","327040","0.0-1.0-409.0","0","0","54705","","null","","","null","45","","NaN","","","","","","","","","","","","","",""
"","response","","html-keyboard-response","300","327485","0.0-1.0-410.0-0.0","0","0","54705","","443","","","68","45","","","1","45","training","adjacent","DC","4","3","P.jpg","N.jpg","0","0","1","",""
"","feedback","","html-keyboard-response","301","328488","0.0-1.0-411.0-0.0","0","0","54705","","null","","","null","45","","","","","","","","","","","","","","","",""
"","ITI","","html-keyboard-response","302","329491","0.0-1.0-414.0","0","0","54705","","null","","","null","45","","","","","","","","","","","","","","","NaN",""
"","S1","","html-keyboard-response","303","329652","0.0-1.0-416.0","0","0","54705","","null","","","null","46","","","","","","","","","","","","","","","",""
"","ISI","","html-keyboard-response","304","331656","0.0-1.0-417.0","0","0","54705","","null","","","null","46","NaN","","","","","","","","","","","","","","",""
"","S2","","html-keyboard-response","305","331809","0.0-1.0-418.0","0","0","54705","","null","","","null","46","","NaN","","","","","","","","","","","","","",""
"","response","","html-keyboard-response","306","332084","0.0-1.0-419.0-0.0","0","0","54705","","272","","","75","46","","","1","46","training","adjacent","GF","7","6","O.jpg","M.jpg","1","0","0","",""
"","feedback","","html-keyboard-response","307","333088","0.0-1.0-420.0-0.0","0","0","54705","","null","","","null","46","","","","","","","","","","","","","","","",""
"","time_out","","html-keyboard-response","308","335091","0.0-1.0-422.0-0.0","0","0","54705","","null","","","null","46","","","","","","","","","","","","","","","",""
"","ITI","","html-keyboard-response","309","336093","0.0-1.0-423.0","0","0","54705","","null","","","null","46","","","","","","","","","","","","","","","NaN",""
"","S1","","html-keyboard-response","310","336247","0.0-1.0-425.0","0","0","54705","","null","","","null","47","","","","","","","","","","","","","","","",""
"","ISI","","html-keyboard-response","311","338249","0.0-1.0-426.0","0","0","54705","","null","","","null","47","NaN","","","","","","","","","","","","","","",""
"","S2","","html-keyboard-response","312","338403","0.0-1.0-427.0","0","0","54705","","null","","","null","47","","NaN","","","","","","","","","","","","","",""
"","response","","html-keyboard-response","313","338857","0.0-1.0-428.0-0.0","0","0","54705","","452","","","68","47","","","1","47","training","adjacent","BA","2","1","R.jpg","Q.jpg","0","0","1","",""
"","feedback","","html-keyboard-response","314","339860","0.0-1.0-429.0-0.0","0","0","54705","","null","","","null","47","","","","","","","","","","","","","","","",""
"","ITI","","html-keyboard-response","315","340864","0.0-1.0-432.0","0","0","54705","","null","","","null","47","","","","","","","","","","","","","","","NaN",""
"","block_over","","html-keyboard-response","316","362239","0.0-1.0-433.0-0.0","0","0","54705","","21372","","","32","47","","","","","","","","","","","","","","","",""
"","S1","","html-keyboard-response","317","362391","0.0-1.0-434.0","0","0","54705","","null","","","null","48","","","","","","","","","","","","","","","",""
"","ISI","","html-keyboard-response","318","364394","0.0-1.0-435.0","0","0","54705","","null","","","null","48","NaN","","","","","","","","","","","","","","",""
"","S2","","html-keyboard-response","319","364548","0.0-1.0-436.0","0","0","54705","","null","","","null","48","","NaN","","","","","","","","","","","","","",""
"","response","","html-keyboard-response","320","365019","0.0-1.0-437.0-0.0","0","0","54705","","469","","","75","48","","","2","48","training","adjacent","FE","6","5","M.jpg","L.jpg","1","0","0","",""
"","feedback","","html-keyboard-response","321","366022","0.0-1.0-438.0-0.0","0","0","54705","","null","","","null","48","","","","","","","","","","","","","","","",""
"","time_out","","html-keyboard-response","322","368025","0.0-1.0-440.0-0.0","0","0","54705","","null","","","null","48","","","","","","","","","","","","","","","",""
"","ITI","","html-keyboard-response","323","369027","0.0-1.0-441.0","0","0","54705","","null","","","null","48","","","","","","","","","","","","","","","NaN",""
"","S1","","html-keyboard-response","324","369181","0.0-1.0-443.0","0","0","54705","","null","","","null","49","","","","","","","","","","","","","","","",""
"","ISI","","html-keyboard-response","325","371184","0.0-1.0-444.0","0","0","54705","","null","","","null","49","NaN","","","","","","","","","","","","","","",""
"","S2","","html-keyboard-response","326","371337","0.0-1.0-445.0","0","0","54705","","null","","","null","49","","NaN","","","","","","","","","","","","","",""
"","response","","html-keyboard-response","327","371522","0.0-1.0-446.0-0.0","0","0","54705","","182","","","68","49","","","2","49","training","adjacent","BA","2","1","R.jpg","Q.jpg","0","0","1","",""
"","feedback","","html-keyboard-response","328","372526","0.0-1.0-447.0-0.0","0","0","54705","","null","","","null","49","","","","","","","","","","","","","","","",""
"","ITI","","html-keyboard-response","329","373529","0.0-1.0-450.0","0","0","54705","","null","","","null","49","","","","","","","","","","","","","","","NaN",""
"","S1","","html-keyboard-response","330","373683","0.0-1.0-452.0","0","0","54705","","null","","","null","50","","","","","","","","","","","","","","","",""
"","ISI","","html-keyboard-response","331","375686","0.0-1.0-453.0","0","0","54705","","null","","","null","50","NaN","","","","","","","","","","","","","","",""
"","S2","","html-keyboard-response","332","375839","0.0-1.0-454.0","0","0","54705","","null","","","null","50","","NaN","","","","","","","","","","","","","",""
"","response","","html-keyboard-response","333","376562","0.0-1.0-455.0-0.0","0","0","54705","","720","","","68","50","","","2","50","training","adjacent","BC","2","3","R.jpg","N.jpg","0","1","0","",""
"","feedback","","html-keyboard-response","334","377567","0.0-1.0-456.0-0.0","0","0","54705","","null","","","null","50","","","","","","","","","","","","","","","",""
"","time_out","","html-keyboard-response","335","379569","0.0-1.0-458.0-0.0","0","0","54705","","null","","","null","50","","","","","","","","","","","","","","","",""
"","ITI","","html-keyboard-response","336","380572","0.0-1.0-459.0","0","0","54705","","null","","","null","50","","","","","","","","","","","","","","","NaN",""
"","S1","","html-keyboard-response","337","380726","0.0-1.0-461.0","0","0","54705","","null","","","null","51","","","","","","","","","","","","","","","",""
"","ISI","","html-keyboard-response","338","382729","0.0-1.0-462.0","0","0","54705","","678","","","75","51","k","","","","","","","","","","","","","","",""
"","S2","","html-keyboard-response","339","382883","0.0-1.0-463.0","0","0","54705","","null","","","null","51","","NaN","","","","","","","","","","","","","",""
"","response","","html-keyboard-response","340","383330","0.0-1.0-464.0-0.0","0","0","54705","","444","","","75","51","","","2","51","training","adjacent","CB","3","2","N.jpg","R.jpg","1","0","0","",""
"","feedback","","html-keyboard-response","341","384333","0.0-1.0-465.0-0.0","0","0","54705","","null","","","null","51","","","","","","","","","","","","","","","",""
"","time_out","","html-keyboard-response","342","386336","0.0-1.0-467.0-0.0","0","0","54705","","null","","","null","51","","","","","","","","","","","","","","","",""
"","ITI","","html-keyboard-response","343","387339","0.0-1.0-468.0","0","0","54705","","null","","","null","51","","","","","","","","","","","","","","","NaN",""
"","S1","","html-keyboard-response","344","387492","0.0-1.0-470.0","0","0","54705","","null","","","null","52","","","","","","","","","","","","","","","",""
"","ISI","","html-keyboard-response","345","389496","0.0-1.0-471.0","0","0","54705","","null","","","null","52","NaN","","","","","","","","","","","","","","",""
"","S2","","html-keyboard-response","346","389649","0.0-1.0-472.0","0","0","54705","","null","","","null","52","","NaN","","","","","","","","","","","","","",""
"","response","","html-keyboard-response","347","390013","0.0-1.0-473.0-0.0","0","0","54705","","361","","","75","52","","","2","52","training","adjacent","FG","6","7","M.jpg","O.jpg","1","1","1","",""
"","feedback","","html-keyboard-response","348","391016","0.0-1.0-474.0-0.0","0","0","54705","","null","","","null","52","","","","","","","","","","","","","","","",""
"","ITI","","html-keyboard-response","349","392019","0.0-1.0-477.0","0","0","54705","","null","","","null","52","","","","","","","","","","","","","","","NaN",""
"","S1","","html-keyboard-response","350","392173","0.0-1.0-479.0","0","0","54705","","null","","","null","53","","","","","","","","","","","","","","","",""
"","ISI","","html-keyboard-response","351","394176","0.0-1.0-480.0","0","0","54705","","null","","","null","53","NaN","","","","","","","","","","","","","","",""
"","S2","","html-keyboard-response","352","394329","0.0-1.0-481.0","0","0","54705","","null","","","null","53","","NaN","","","","","","","","","","","","","",""
"","response","","html-keyboard-response","353","395223","0.0-1.0-482.0-0.0","0","0","54705","","891","","","68","53","","","2","53","training","adjacent","BC","2","3","R.jpg","N.jpg","0","1","0","",""
"","feedback","","html-keyboard-response","354","396227","0.0-1.0-483.0-0.0","0","0","54705","","null","","","null","53","","","","","","","","","","","","","","","",""
"","time_out","","html-keyboard-response","355","398229","0.0-1.0-485.0-0.0","0","0","54705","","null","","","null","53","","","","","","","","","","","","","","","",""
"","ITI","","html-keyboard-response","356","399232","0.0-1.0-486.0","0","0","54705","","null","","","null","53","","","","","","","","","","","","","","","NaN",""
"","S1","","html-keyboard-response","357","399385","0.0-1.0-488.0","0","0","54705","","null","","","null","54","","","","","","","","","","","","","","","",""
"","ISI","","html-keyboard-response","358","401388","0.0-1.0-489.0","0","0","54705","","null","","","null","54","NaN","","","","","","","","","","","","","","",""
"","S2","","html-keyboard-response","359","401540","0.0-1.0-490.0","0","0","54705","","null","","","null","54","","NaN","","","","","","","","","","","","","",""
"","response","","html-keyboard-response","360","401837","0.0-1.0-491.0-0.0","0","0","54705","","294","","","75","54","","","2","54","training","adjacent","GF","7","6","O.jpg","M.jpg","1","0","0","",""
"","feedback","","html-keyboard-response","361","402841","0.0-1.0-492.0-0.0","0","0","54705","","null","","","null","54","","","","","","","","","","","","","","","",""
"","time_out","","html-keyboard-response","362","404844","0.0-1.0-494.0-0.0","0","0","54705","","null","","","null","54","","","","","","","","","","","","","","","",""
"","ITI","","html-keyboard-response","363","405848","0.0-1.0-495.0","0","0","54705","","null","","","null","54","","","","","","","","","","","","","","","NaN",""
"","S1","","html-keyboard-response","364","406001","0.0-1.0-497.0","0","0","54705","","null","","","null","55","","","","","","","","","","","","","","","",""
"","ISI","","html-keyboard-response","365","408004","0.0-1.0-498.0","0","0","54705","","null","","","null","55","NaN","","","","","","","","","","","","","","",""
"","S2","","html-keyboard-response","366","408157","0.0-1.0-499.0","0","0","54705","","null","","","null","55","","NaN","","","","","","","","","","","","","",""
"","response","","html-keyboard-response","367","408463","0.0-1.0-500.0-0.0","0","0","54705","","304","","","68","55","","","2","55","training","adjacent","CD","3","4","N.jpg","P.jpg","0","1","0","",""
"","feedback","","html-keyboard-response","368","409467","0.0-1.0-501.0-0.0","0","0","54705","","null","","","null","55","","","","","","","","","","","","","","","",""
"","time_out","","html-keyboard-response","369","411470","0.0-1.0-503.0-0.0","0","0","54705","","null","","","null","55","","","","","","","","","","","","","","","",""
"","ITI","","html-keyboard-response","370","412473","0.0-1.0-504.0","0","0","54705","","null","","","null","55","","","","","","","","","","","","","","","NaN",""
"","S1","","html-keyboard-response","371","412627","0.0-1.0-506.0","0","0","54705","","null","","","null","56","","","","","","","","","","","","","","","",""
"","ISI","","html-keyboard-response","372","414630","0.0-1.0-507.0","0","0","54705","","null","","","null","56","NaN","","","","","","","","","","","","","","",""
"","S2","","html-keyboard-response","373","414783","0.0-1.0-508.0","0","0","54705","","null","","","null","56","","NaN","","","","","","","","","","","","","",""
"","response","","html-keyboard-response","374","415477","0.0-1.0-509.0-0.0","0","0","54705","","692","","","68","56","","","2","56","training","adjacent","DE","4","5","P.jpg","L.jpg","0","1","0","",""
"","feedback","","html-keyboard-response","375","416481","0.0-1.0-510.0-0.0","0","0","54705","","null","","","null","56","","","","","","","","","","","","","","","",""
"","time_out","","html-keyboard-response","376","418484","0.0-1.0-512.0-0.0","0","0","54705","","null","","","null","56","","","","","","","","","","","","","","","",""
"","ITI","","html-keyboard-response","377","419488","0.0-1.0-513.0","0","0","54705","","null","","","null","56","","","","","","","","","","","","","","","NaN",""
"","S1","","html-keyboard-response","378","419641","0.0-1.0-515.0","0","0","54705","","null","","","null","57","","","","","","","","","","","","","","","",""
"","ISI","","html-keyboard-response","379","421644","0.0-1.0-516.0","0","0","54705","","null","","","null","57","NaN","","","","","","","","","","","","","","",""
"","S2","","html-keyboard-response","380","421797","0.0-1.0-517.0","0","0","54705","","null","","","null","57","","NaN","","","","","","","","","","","","","",""
"","response","","html-keyboard-response","381","422320","0.0-1.0-518.0-0.0","0","0","54705","","521","","","68","57","","","2","57","training","adjacent","FE","6","5","M.jpg","L.jpg","0","0","1","",""
"","feedback","","html-keyboard-response","382","423323","0.0-1.0-519.0-0.0","0","0","54705","","null","","","null","57","","","","","","","","","","","","","","","",""
"","ITI","","html-keyboard-response","383","424326","0.0-1.0-522.0","0","0","54705","","null","","","null","57","","","","","","","","","","","","","","","NaN",""
"","S1","","html-keyboard-response","384","424479","0.0-1.0-524.0","0","0","54705","","null","","","null","58","","","","","","","","","","","","","","","",""
"","ISI","","html-keyboard-response","385","426481","0.0-1.0-525.0","0","0","54705","","null","","","null","58","NaN","","","","","","","","","","","","","","",""
"","S2","","html-keyboard-response","386","426634","0.0-1.0-526.0","0","0","54705","","null","","","null","58","","NaN","","","","","","","","","","","","","",""
"","response","","html-keyboard-response","387","427626","0.0-1.0-527.0-0.0","0","0","54705","","989","","","68","58","","","2","58","training","adjacent","DE","4","5","P.jpg","L.jpg","0","1","0","",""
"","feedback","","html-keyboard-response","388","428629","0.0-1.0-528.0-0.0","0","0","54705","","null","","","null","58","","","","","","","","","","","","","","","",""
"","time_out","","html-keyboard-response","389","430631","0.0-1.0-530.0-0.0","0","0","54705","","null","","","null","58","","","","","","","","","","","","","","","",""
"","ITI","","html-keyboard-response","390","431634","0.0-1.0-531.0","0","0","54705","","null","","","null","58","","","","","","","","","","","","","","","NaN",""
"","S1","","html-keyboard-response","391","431788","0.0-1.0-533.0","0","0","54705","","null","","","null","59","","","","","","","","","","","","","","","",""
"","ISI","","html-keyboard-response","392","433790","0.0-1.0-534.0","0","0","54705","","null","","","null","59","NaN","","","","","","","","","","","","","","",""
"","S2","","html-keyboard-response","393","433944","0.0-1.0-535.0","0","0","54705","","null","","","null","59","","NaN","","","","","","","","","","","","","",""
"","response","","html-keyboard-response","394","434710","0.0-1.0-536.0-0.0","0","0","54705","","763","","","75","59","","","2","59","training","adjacent","ED","5","4","L.jpg","P.jpg","1","0","0","",""
"","feedback","","html-keyboard-response","395","435714","0.0-1.0-537.0-0.0","0","0","54705","","null","","","null","59","","","","","","","","","","","","","","","",""
"","time_out","","html-keyboard-response","396","437717","0.0-1.0-539.0-0.0","0","0","54705","","null","","","null","59","","","","","","","","","","","","","","","",""
"","ITI","","html-keyboard-response","397","438720","0.0-1.0-540.0","0","0","54705","","null","","","null","59","","","","","","","","","","","","","","","NaN",""
"","S1","","html-keyboard-response","398","438873","0.0-1.0-542.0","0","0","54705","","null","","","null","60","","","","","","","","","","","","","","","",""
"","ISI","","html-keyboard-response","399","440876","0.0-1.0-543.0","0","0","54705","","null","","","null","60","NaN","","","","","","","","","","","","","","",""
"","S2","","html-keyboard-response","400","441029","0.0-1.0-544.0","0","0","54705","","null","","","null","60","","NaN","","","","","","","","","","","","","",""
"","response","","html-keyboard-response","401","441778","0.0-1.0-545.0-0.0","0","0","54705","","747","","","75","60","","","2","60","training","adjacent","DC","4","3","P.jpg","N.jpg","1","0","0","",""
"","feedback","","html-keyboard-response","402","442782","0.0-1.0-546.0-0.0","0","0","54705","","null","","","null","60","","","","","","","","","","","","","","","",""
"","time_out","","html-keyboard-response","403","444785","0.0-1.0-548.0-0.0","0","0","54705","","null","","","null","60","","","","","","","","","","","","","","","",""
"","ITI","","html-keyboard-response","404","445787","0.0-1.0-549.0","0","0","54705","","null","","","null","60","","","","","","","","","","","","","","","NaN",""
"","S1","","html-keyboard-response","405","445940","0.0-1.0-551.0","0","0","54705","","null","","","null","61","","","","","","","","","","","","","","","",""
"","ISI","","html-keyboard-response","406","447944","0.0-1.0-552.0","0","0","54705","","null","","","null","61","NaN","","","","","","","","","","","","","","",""
"","S2","","html-keyboard-response","407","448097","0.0-1.0-553.0","0","0","54705","","null","","","null","61","","NaN","","","","","","","","","","","","","",""
"","response","","html-keyboard-response","408","448406","0.0-1.0-554.0-0.0","0","0","54705","","307","","","75","61","","","2","61","training","adjacent","AB","1","2","Q.jpg","R.jpg","1","1","1","",""
"","feedback","","html-keyboard-response","409","449409","0.0-1.0-555.0-0.0","0","0","54705","","null","","","null","61","","","","","","","","","","","","","","","",""
"","ITI","","html-keyboard-response","410","450412","0.0-1.0-558.0","0","0","54705","","null","","","null","61","","","","","","","","","","","","","","","NaN",""
"","S1","","html-keyboard-response","411","450566","0.0-1.0-560.0","0","0","54705","","null","","","null","62","","","","","","","","","","","","","","","",""
"","ISI","","html-keyboard-response","412","452569","0.0-1.0-561.0","0","0","54705","","null","","","null","62","NaN","","","","","","","","","","","","","","",""
"","S2","","html-keyboard-response","413","452723","0.0-1.0-562.0","0","0","54705","","null","","","null","62","","NaN","","","","","","","","","","","","","",""
"","response","","html-keyboard-response","414","453156","0.0-1.0-563.0-0.0","0","0","54705","","431","","","75","62","","","2","62","training","adjacent","EF","5","6","L.jpg","M.jpg","1","1","1","",""
"","feedback","","html-keyboard-response","415","454159","0.0-1.0-564.0-0.0","0","0","54705","","null","","","null","62","","","","","","","","","","","","","","","",""
"","ITI","","html-keyboard-response","416","455162","0.0-1.0-567.0","0","0","54705","","null","","","null","62","","","","","","","","","","","","","","","NaN",""
"","S1","","html-keyboard-response","417","455316","0.0-1.0-569.0","0","0","54705","","null","","","null","63","","","","","","","","","","","","","","","",""
"","ISI","","html-keyboard-response","418","457320","0.0-1.0-570.0","0","0","54705","","null","","","null","63","NaN","","","","","","","","","","","","","","",""
"","S2","","html-keyboard-response","419","457473","0.0-1.0-571.0","0","0","54705","","null","","","null","63","","NaN","","","","","","","","","","","","","",""
"","response","","html-keyboard-response","420","457789","0.0-1.0-572.0-0.0","0","0","54705","","314","","","68","63","","","2","63","training","adjacent","DC","4","3","P.jpg","N.jpg","0","0","1","",""
"","feedback","","html-keyboard-response","421","458793","0.0-1.0-573.0-0.0","0","0","54705","","null","","","null","63","","","","","","","","","","","","","","","",""
"","ITI","","html-keyboard-response","422","459808","0.0-1.0-576.0","0","0","54705","","null","","","null","63","","","","","","","","","","","","","","","NaN",""
"","S1","","html-keyboard-response","423","459961","0.0-1.0-578.0","0","0","54705","","null","","","null","64","","","","","","","","","","","","","","","",""
"","ISI","","html-keyboard-response","424","461964","0.0-1.0-579.0","0","0","54705","","null","","","null","64","NaN","","","","","","","","","","","","","","",""
"","S2","","html-keyboard-response","425","462117","0.0-1.0-580.0","0","0","54705","","null","","","null","64","","NaN","","","","","","","","","","","","","",""
"","response","","html-keyboard-response","426","463085","0.0-1.0-581.0-0.0","0","0","54705","","965","","","68","64","","","2","64","training","adjacent","FG","6","7","M.jpg","O.jpg","0","1","0","",""
"","feedback","","html-keyboard-response","427","464088","0.0-1.0-582.0-0.0","0","0","54705","","null","","","null","64","","","","","","","","","","","","","","","",""
"","time_out","","html-keyboard-response","428","466091","0.0-1.0-584.0-0.0","0","0","54705","","null","","","null","64","","","","","","","","","","","","","","","",""
"","ITI","","html-keyboard-response","429","467095","0.0-1.0-585.0","0","0","54705","","null","","","null","64","","","","","","","","","","","","","","","NaN",""
"","S1","","html-keyboard-response","430","467247","0.0-1.0-587.0","0","0","54705","","null","","","null","65","","","","","","","","","","","","","","","",""
"","ISI","","html-keyboard-response","431","469250","0.0-1.0-588.0","0","0","54705","","null","","","null","65","NaN","","","","","","","","","","","","","","",""
"","S2","","html-keyboard-response","432","469404","0.0-1.0-589.0","0","0","54705","","null","","","null","65","","NaN","","","","","","","","","","","","","",""
"","response","","html-keyboard-response","433","469732","0.0-1.0-590.0-0.0","0","0","54705","","326","","","75","65","","","2","65","training","adjacent","AB","1","2","Q.jpg","R.jpg","1","1","1","",""
"","feedback","","html-keyboard-response","434","470735","0.0-1.0-591.0-0.0","0","0","54705","","null","","","null","65","","","","","","","","","","","","","","","",""
"","ITI","","html-keyboard-response","435","471738","0.0-1.0-594.0","0","0","54705","","null","","","null","65","","","","","","","","","","","","","","","NaN",""
"","S1","","html-keyboard-response","436","471892","0.0-1.0-596.0","0","0","54705","","null","","","null","66","","","","","","","","","","","","","","","",""
"","ISI","","html-keyboard-response","437","473894","0.0-1.0-597.0","0","0","54705","","null","","","null","66","NaN","","","","","","","","","","","","","","",""
"","S2","","html-keyboard-response","438","474049","0.0-1.0-598.0","0","0","54705","","null","","","null","66","","NaN","","","","","","","","","","","","","",""
"","response","","html-keyboard-response","439","474952","0.0-1.0-599.0-0.0","0","0","54705","","901","","","68","66","","","2","66","training","adjacent","BA","2","1","R.jpg","Q.jpg","0","0","1","",""
"","feedback","","html-keyboard-response","440","475955","0.0-1.0-600.0-0.0","0","0","54705","","null","","","null","66","","","","","","","","","","","","","","","",""
"","ITI","","html-keyboard-response","441","476958","0.0-1.0-603.0","0","0","54705","","null","","","null","66","","","","","","","","","","","","","","","NaN",""
"","S1","","html-keyboard-response","442","477111","0.0-1.0-605.0","0","0","54705","","null","","","null","67","","","","","","","","","","","","","","","",""
"","ISI","","html-keyboard-response","443","479114","0.0-1.0-606.0","0","0","54705","","null","","","null","67","NaN","","","","","","","","","","","","","","",""
"","S2","","html-keyboard-response","444","479267","0.0-1.0-607.0","0","0","54705","","null","","","null","67","","NaN","","","","","","","","","","","","","",""
"","response","","html-keyboard-response","445","480463","0.0-1.0-608.0-0.0","0","0","54705","","1194","","","75","67","","","2","67","training","adjacent","EF","5","6","L.jpg","M.jpg","1","1","1","",""
"","feedback","","html-keyboard-response","446","481466","0.0-1.0-609.0-0.0","0","0","54705","","null","","","null","67","","","","","","","","","","","","","","","",""
"","ITI","","html-keyboard-response","447","482469","0.0-1.0-612.0","0","0","54705","","null","","","null","67","","","","","","","","","","","","","","","NaN",""
"","S1","","html-keyboard-response","448","482622","0.0-1.0-614.0","0","0","54705","","null","","","null","68","","","","","","","","","","","","","","","",""
"","ISI","","html-keyboard-response","449","484626","0.0-1.0-615.0","0","0","54705","","null","","","null","68","NaN","","","","","","","","","","","","","","",""
"","S2","","html-keyboard-response","450","484779","0.0-1.0-616.0","0","0","54705","","null","","","null","68","","NaN","","","","","","","","","","","","","",""
"","response","","html-keyboard-response","451","485656","0.0-1.0-617.0-0.0","0","0","54705","","875","","","68","68","","","2","68","training","adjacent","BA","2","1","R.jpg","Q.jpg","0","0","1","",""
"","feedback","","html-keyboard-response","452","486660","0.0-1.0-618.0-0.0","0","0","54705","","null","","","null","68","","","","","","","","","","","","","","","",""
"","ITI","","html-keyboard-response","453","487663","0.0-1.0-621.0","0","0","54705","","null","","","null","68","","","","","","","","","","","","","","","NaN",""
"","S1","","html-keyboard-response","454","487817","0.0-1.0-623.0","0","0","54705","","null","","","null","69","","","","","","","","","","","","","","","",""
"","ISI","","html-keyboard-response","455","489820","0.0-1.0-624.0","0","0","54705","","null","","","null","69","NaN","","","","","","","","","","","","","","",""
"","S2","","html-keyboard-response","456","489973","0.0-1.0-625.0","0","0","54705","","null","","","null","69","","NaN","","","","","","","","","","","","","",""
"","response","","html-keyboard-response","457","490627","0.0-1.0-626.0-0.0","0","0","54705","","652","","","68","69","","","2","69","training","adjacent","DE","4","5","P.jpg","L.jpg","0","1","0","",""
"","feedback","","html-keyboard-response","458","491630","0.0-1.0-627.0-0.0","0","0","54705","","null","","","null","69","","","","","","","","","","","","","","","",""
"","time_out","","html-keyboard-response","459","493633","0.0-1.0-629.0-0.0","0","0","54705","","null","","","null","69","","","","","","","","","","","","","","","",""
"","ITI","","html-keyboard-response","460","494637","0.0-1.0-630.0","0","0","54705","","null","","","null","69","","","","","","","","","","","","","","","NaN",""
"","S1","","html-keyboard-response","461","494790","0.0-1.0-632.0","0","0","54705","","null","","","null","70","","","","","","","","","","","","","","","",""
"","ISI","","html-keyboard-response","462","496792","0.0-1.0-633.0","0","0","54705","","null","","","null","70","NaN","","","","","","","","","","","","","","",""
"","S2","","html-keyboard-response","463","496946","0.0-1.0-634.0","0","0","54705","","null","","","null","70","","NaN","","","","","","","","","","","","","",""
"","response","","html-keyboard-response","464","497439","0.0-1.0-635.0-0.0","0","0","54705","","491","","","68","70","","","2","70","training","adjacent","DC","4","3","P.jpg","N.jpg","0","0","1","",""
"","feedback","","html-keyboard-response","465","498443","0.0-1.0-636.0-0.0","0","0","54705","","null","","","null","70","","","","","","","","","","","","","","","",""
"","ITI","","html-keyboard-response","466","499447","0.0-1.0-639.0","0","0","54705","","null","","","null","70","","","","","","","","","","","","","","","NaN",""
"","S1","","html-keyboard-response","467","499600","0.0-1.0-641.0","0","0","54705","","null","","","null","71","","","","","","","","","","","","","","","",""
"","ISI","","html-keyboard-response","468","501602","0.0-1.0-642.0","0","0","54705","","null","","","null","71","NaN","","","","","","","","","","","","","","",""
"","S2","","html-keyboard-response","469","501755","0.0-1.0-643.0","0","0","54705","","null","","","null","71","","NaN","","","","","","","","","","","","","",""
"","response","","html-keyboard-response","470","502203","0.0-1.0-644.0-0.0","0","0","54705","","445","","","68","71","","","2","71","training","adjacent","DC","4","3","P.jpg","N.jpg","0","0","1","",""
"","feedback","","html-keyboard-response","471","503206","0.0-1.0-645.0-0.0","0","0","54705","","null","","","null","71","","","","","","","","","","","","","","","",""
"","ITI","","html-keyboard-response","472","504210","0.0-1.0-648.0","0","0","54705","","null","","","null","71","","","","","","","","","","","","","","","NaN",""
"","S1","","html-keyboard-response","473","504363","0.0-1.0-650.0","0","0","54705","","null","","","null","72","","","","","","","","","","","","","","","",""
"","ISI","","html-keyboard-response","474","506367","0.0-1.0-651.0","0","0","54705","","null","","","null","72","NaN","","","","","","","","","","","","","","",""
"","S2","","html-keyboard-response","475","506520","0.0-1.0-652.0","0","0","54705","","null","","","null","72","","NaN","","","","","","","","","","","","","",""
"","response","","html-keyboard-response","476","507027","0.0-1.0-653.0-0.0","0","0","54705","","504","","","75","72","","","2","72","training","adjacent","CD","3","4","N.jpg","P.jpg","1","1","1","",""
"","feedback","","html-keyboard-response","477","508030","0.0-1.0-654.0-0.0","0","0","54705","","null","","","null","72","","","","","","","","","","","","","","","",""
"","ITI","","html-keyboard-response","478","509033","0.0-1.0-657.0","0","0","54705","","null","","","null","72","","","","","","","","","","","","","","","NaN",""
"","S1","","html-keyboard-response","479","509187","0.0-1.0-659.0","0","0","54705","","null","","","null","73","","","","","","","","","","","","","","","",""
"","ISI","","html-keyboard-response","480","511190","0.0-1.0-660.0","0","0","54705","","null","","","null","73","NaN","","","","","","","","","","","","","","",""
"","S2","","html-keyboard-response","481","511343","0.0-1.0-661.0","0","0","54705","","null","","","null","73","","NaN","","","","","","","","","","","","","",""
"","response","","html-keyboard-response","482","511796","0.0-1.0-662.0-0.0","0","0","54705","","450","","","75","73","","","2","73","training","adjacent","CD","3","4","N.jpg","P.jpg","1","1","1","",""
"","feedback","","html-keyboard-response","483","512799","0.0-1.0-663.0-0.0","0","0","54705","","null","","","null","73","","","","","","","","","","","","","","","",""
"","ITI","","html-keyboard-response","484","513811","0.0-1.0-666.0","0","0","54705","","null","","","null","73","","","","","","","","","","","","","","","NaN",""
"","S1","","html-keyboard-response","485","513964","0.0-1.0-668.0","0","0","54705","","null","","","null","74","","","","","","","","","","","","","","","",""
"","ISI","","html-keyboard-response","486","515967","0.0-1.0-669.0","0","0","54705","","null","","","null","74","NaN","","","","","","","","","","","","","","",""
"","S2","","html-keyboard-response","487","516121","0.0-1.0-670.0","0","0","54705","","null","","","null","74","","NaN","","","","","","","","","","","","","",""
"","response","","html-keyboard-response","488","516340","0.0-1.0-671.0-0.0","0","0","54705","","217","","","75","74","","","2","74","training","adjacent","AB","1","2","Q.jpg","R.jpg","1","1","1","",""
"","feedback","","html-keyboard-response","489","517343","0.0-1.0-672.0-0.0","0","0","54705","","null","","","null","74","","","","","","","","","","","","","","","",""
"","ITI","","html-keyboard-response","490","518346","0.0-1.0-675.0","0","0","54705","","null","","","null","74","","","","","","","","","","","","","","","NaN",""
"","S1","","html-keyboard-response","491","518499","0.0-1.0-677.0","0","0","54705","","null","","","null","75","","","","","","","","","","","","","","","",""
"","ISI","","html-keyboard-response","492","520502","0.0-1.0-678.0","0","0","54705","","null","","","null","75","NaN","","","","","","","","","","","","","","",""
"","S2","","html-keyboard-response","493","520656","0.0-1.0-679.0","0","0","54705","","null","","","null","75","","NaN","","","","","","","","","","","","","",""
"","response","","html-keyboard-response","494","521571","0.0-1.0-680.0-0.0","0","0","54705","","912","","","75","75","","","2","75","training","adjacent","ED","5","4","L.jpg","P.jpg","1","0","0","",""
"","feedback","","html-keyboard-response","495","522574","0.0-1.0-681.0-0.0","0","0","54705","","null","","","null","75","","","","","","","","","","","","","","","",""
"","time_out","","html-keyboard-response","496","524577","0.0-1.0-683.0-0.0","0","0","54705","","null","","","null","75","","","","","","","","","","","","","","","",""
"","ITI","","html-keyboard-response","497","525581","0.0-1.0-684.0","0","0","54705","","null","","","null","75","","","","","","","","","","","","","","","NaN",""
"","S1","","html-keyboard-response","498","525740","0.0-1.0-686.0","0","0","54705","","null","","","null","76","","","","","","","","","","","","","","","",""
"","ISI","","html-keyboard-response","499","527743","0.0-1.0-687.0","0","0","54705","","null","","","null","76","NaN","","","","","","","","","","","","","","",""
"","S2","","html-keyboard-response","500","527896","0.0-1.0-688.0","0","0","54705","","null","","","null","76","","NaN","","","","","","","","","","","","","",""
"","response","","html-keyboard-response","501","528659","0.0-1.0-689.0-0.0","0","0","54705","","761","","","68","76","","","2","76","training","adjacent","GF","7","6","O.jpg","M.jpg","0","0","1","",""
"","feedback","","html-keyboard-response","502","529662","0.0-1.0-690.0-0.0","0","0","54705","","null","","","null","76","","","","","","","","","","","","","","","",""
"","ITI","","html-keyboard-response","503","530666","0.0-1.0-693.0","0","0","54705","","null","","","null","76","","","","","","","","","","","","","","","NaN",""
"","S1","","html-keyboard-response","504","530819","0.0-1.0-695.0","0","0","54705","","null","","","null","77","","","","","","","","","","","","","","","",""
"","ISI","","html-keyboard-response","505","532821","0.0-1.0-696.0","0","0","54705","","null","","","null","77","NaN","","","","","","","","","","","","","","",""
"","S2","","html-keyboard-response","506","532975","0.0-1.0-697.0","0","0","54705","","null","","","null","77","","NaN","","","","","","","","","","","","","",""
"","response","","html-keyboard-response","507","533663","0.0-1.0-698.0-0.0","0","0","54705","","685","","","75","77","","","2","77","training","adjacent","ED","5","4","L.jpg","P.jpg","1","0","0","",""
"","feedback","","html-keyboard-response","508","534667","0.0-1.0-699.0-0.0","0","0","54705","","null","","","null","77","","","","","","","","","","","","","","","",""
"","time_out","","html-keyboard-response","509","536670","0.0-1.0-701.0-0.0","0","0","54705","","null","","","null","77","","","","","","","","","","","","","","","",""
"","ITI","","html-keyboard-response","510","537673","0.0-1.0-702.0","0","0","54705","","null","","","null","77","","","","","","","","","","","","","","","NaN",""
"","S1","","html-keyboard-response","511","537827","0.0-1.0-704.0","0","0","54705","","null","","","null","78","","","","","","","","","","","","","","","",""
"","ISI","","html-keyboard-response","512","539830","0.0-1.0-705.0","0","0","54705","","null","","","null","78","NaN","","","","","","","","","","","","","","",""
"","S2","","html-keyboard-response","513","539982","0.0-1.0-706.0","0","0","54705","","null","","","null","78","","NaN","","","","","","","","","","","","","",""
"","response","","html-keyboard-response","514","540391","0.0-1.0-707.0-0.0","0","0","54705","","406","","","68","78","","","2","78","training","adjacent","BA","2","1","R.jpg","Q.jpg","0","0","1","",""
"","feedback","","html-keyboard-response","515","541394","0.0-1.0-708.0-0.0","0","0","54705","","null","","","null","78","","","","","","","","","","","","","","","",""
"","ITI","","html-keyboard-response","516","542398","0.0-1.0-711.0","0","0","54705","","null","","","null","78","","","","","","","","","","","","","","","NaN",""
"","S1","","html-keyboard-response","517","542551","0.0-1.0-713.0","0","0","54705","","null","","","null","79","","","","","","","","","","","","","","","",""
"","ISI","","html-keyboard-response","518","544554","0.0-1.0-714.0","0","0","54705","","null","","","null","79","NaN","","","","","","","","","","","","","","",""
"","S2","","html-keyboard-response","519","544707","0.0-1.0-715.0","0","0","54705","","null","","","null","79","","NaN","","","","","","","","","","","","","",""
"","response","","html-keyboard-response","520","545721","0.0-1.0-716.0-0.0","0","0","54705","","1012","","","75","79","","","2","79","training","adjacent","ED","5","4","L.jpg","P.jpg","1","0","0","",""
"","feedback","","html-keyboard-response","521","546725","0.0-1.0-717.0-0.0","0","0","54705","","null","","","null","79","","","","","","","","","","","","","","","",""
"","time_out","","html-keyboard-response","522","548728","0.0-1.0-719.0-0.0","0","0","54705","","null","","","null","79","","","","","","","","","","","","","","","",""
"","ITI","","html-keyboard-response","523","549731","0.0-1.0-720.0","0","0","54705","","null","","","null","79","","","","","","","","","","","","","","","NaN",""
"","S1","","html-keyboard-response","524","549892","0.0-1.0-722.0","0","0","54705","","null","","","null","80","","","","","","","","","","","","","","","",""
"","ISI","","html-keyboard-response","525","551895","0.0-1.0-723.0","0","0","54705","","null","","","null","80","NaN","","","","","","","","","","","","","","",""
"","S2","","html-keyboard-response","526","552048","0.0-1.0-724.0","0","0","54705","","null","","","null","80","","NaN","","","","","","","","","","","","","",""
"","response","","html-keyboard-response","527","552604","0.0-1.0-725.0-0.0","0","0","54705","","553","","","75","80","","","2","80","training","adjacent","CB","3","2","N.jpg","R.jpg","1","0","0","",""
"","feedback","","html-keyboard-response","528","553608","0.0-1.0-726.0-0.0","0","0","54705","","null","","","null","80","","","","","","","","","","","","","","","",""
"","time_out","","html-keyboard-response","529","555611","0.0-1.0-728.0-0.0","0","0","54705","","null","","","null","80","","","","","","","","","","","","","","","",""
"","ITI","","html-keyboard-response","530","556614","0.0-1.0-729.0","0","0","54705","","null","","","null","80","","","","","","","","","","","","","","","NaN",""
"","S1","","html-keyboard-response","531","556767","0.0-1.0-731.0","0","0","54705","","null","","","null","81","","","","","","","","","","","","","","","",""
"","ISI","","html-keyboard-response","532","558770","0.0-1.0-732.0","0","0","54705","","null","","","null","81","NaN","","","","","","","","","","","","","","",""
"","S2","","html-keyboard-response","533","558923","0.0-1.0-733.0","0","0","54705","","null","","","null","81","","NaN","","","","","","","","","","","","","",""
"","response","","html-keyboard-response","534","559247","0.0-1.0-734.0-0.0","0","0","54705","","322","","","75","81","","","2","81","training","adjacent","FG","6","7","M.jpg","O.jpg","1","1","1","",""
"","feedback","","html-keyboard-response","535","560251","0.0-1.0-735.0-0.0","0","0","54705","","null","","","null","81","","","","","","","","","","","","","","","",""
"","ITI","","html-keyboard-response","536","561253","0.0-1.0-738.0","0","0","54705","","null","","","null","81","","","","","","","","","","","","","","","NaN",""
"","S1","","html-keyboard-response","537","561406","0.0-1.0-740.0","0","0","54705","","null","","","null","82","","","","","","","","","","","","","","","",""
"","ISI","","html-keyboard-response","538","563409","0.0-1.0-741.0","0","0","54705","","null","","","null","82","NaN","","","","","","","","","","","","","","",""
"","S2","","html-keyboard-response","539","563563","0.0-1.0-742.0","0","0","54705","","null","","","null","82","","NaN","","","","","","","","","","","","","",""
"","response","","html-keyboard-response","540","564351","0.0-1.0-743.0-0.0","0","0","54705","","785","","","68","82","","","2","82","training","adjacent","CB","3","2","N.jpg","R.jpg","0","0","1","",""
"","feedback","","html-keyboard-response","541","565353","0.0-1.0-744.0-0.0","0","0","54705","","null","","","null","82","","","","","","","","","","","","","","","",""
"","ITI","","html-keyboard-response","542","566356","0.0-1.0-747.0","0","0","54705","","null","","","null","82","","","","","","","","","","","","","","","NaN",""
"","S1","","html-keyboard-response","543","566509","0.0-1.0-749.0","0","0","54705","","null","","","null","83","","","","","","","","","","","","","","","",""
"","ISI","","html-keyboard-response","544","568512","0.0-1.0-750.0","0","0","54705","","null","","","null","83","NaN","","","","","","","","","","","","","","",""
"","S2","","html-keyboard-response","545","568665","0.0-1.0-751.0","0","0","54705","","null","","","null","83","","NaN","","","","","","","","","","","","","",""
"","response","","html-keyboard-response","546","568935","0.0-1.0-752.0-0.0","0","0","54705","","267","","","75","83","","","2","83","training","adjacent","AB","1","2","Q.jpg","R.jpg","1","1","1","",""
"","feedback","","html-keyboard-response","547","569938","0.0-1.0-753.0-0.0","0","0","54705","","null","","","null","83","","","","","","","","","","","","","","","",""
"","ITI","","html-keyboard-response","548","570941","0.0-1.0-756.0","0","0","54705","","null","","","null","83","","","","","","","","","","","","","","","NaN",""
"","S1","","html-keyboard-response","549","571096","0.0-1.0-758.0","0","0","54705","","null","","","null","84","","","","","","","","","","","","","","","",""
"","ISI","","html-keyboard-response","550","573098","0.0-1.0-759.0","0","0","54705","","null","","","null","84","NaN","","","","","","","","","","","","","","",""
"","S2","","html-keyboard-response","551","573252","0.0-1.0-760.0","0","0","54705","","null","","","null","84","","NaN","","","","","","","","","","","","","",""
"","response","","html-keyboard-response","552","573819","0.0-1.0-761.0-0.0","0","0","54705","","564","","","68","84","","","2","84","training","adjacent","DE","4","5","P.jpg","L.jpg","0","1","0","",""
"","feedback","","html-keyboard-response","553","574822","0.0-1.0-762.0-0.0","0","0","54705","","null","","","null","84","","","","","","","","","","","","","","","",""
"","time_out","","html-keyboard-response","554","576826","0.0-1.0-764.0-0.0","0","0","54705","","null","","","null","84","","","","","","","","","","","","","","","",""
"","ITI","","html-keyboard-response","555","577830","0.0-1.0-765.0","0","0","54705","","null","","","null","84","","","","","","","","","","","","","","","NaN",""
"","S1","","html-keyboard-response","556","577983","0.0-1.0-767.0","0","0","54705","","null","","","null","85","","","","","","","","","","","","","","","",""
"","ISI","","html-keyboard-response","557","579986","0.0-1.0-768.0","0","0","54705","","null","","","null","85","NaN","","","","","","","","","","","","","","",""
"","S2","","html-keyboard-response","558","580139","0.0-1.0-769.0","0","0","54705","","null","","","null","85","","NaN","","","","","","","","","","","","","",""
"","response","","html-keyboard-response","559","581042","0.0-1.0-770.0-0.0","0","0","54705","","901","","","68","85","","","2","85","training","adjacent","EF","5","6","L.jpg","M.jpg","0","1","0","",""
"","feedback","","html-keyboard-response","560","582046","0.0-1.0-771.0-0.0","0","0","54705","","null","","","null","85","","","","","","","","","","","","","","","",""
"","time_out","","html-keyboard-response","561","584049","0.0-1.0-773.0-0.0","0","0","54705","","null","","","null","85","","","","","","","","","","","","","","","",""
"","ITI","","html-keyboard-response","562","585052","0.0-1.0-774.0","0","0","54705","","null","","","null","85","","","","","","","","","","","","","","","NaN",""
"","S1","","html-keyboard-response","563","585205","0.0-1.0-776.0","0","0","54705","","null","","","null","86","","","","","","","","","","","","","","","",""
"","ISI","","html-keyboard-response","564","587207","0.0-1.0-777.0","0","0","54705","","null","","","null","86","NaN","","","","","","","","","","","","","","",""
"","S2","","html-keyboard-response","565","587361","0.0-1.0-778.0","0","0","54705","","null","","","null","86","","NaN","","","","","","","","","","","","","",""
"","response","","html-keyboard-response","566","587701","0.0-1.0-779.0-0.0","0","0","54705","","338","","","75","86","","","2","86","training","adjacent","CD","3","4","N.jpg","P.jpg","1","1","1","",""
"","feedback","","html-keyboard-response","567","588704","0.0-1.0-780.0-0.0","0","0","54705","","null","","","null","86","","","","","","","","","","","","","","","",""
"","ITI","","html-keyboard-response","568","589707","0.0-1.0-783.0","0","0","54705","","null","","","null","86","","","","","","","","","","","","","","","NaN",""
"","S1","","html-keyboard-response","569","589860","0.0-1.0-785.0","0","0","54705","","null","","","null","87","","","","","","","","","","","","","","","",""
"","ISI","","html-keyboard-response","570","591863","0.0-1.0-786.0","0","0","54705","","null","","","null","87","NaN","","","","","","","","","","","","","","",""
"","S2","","html-keyboard-response","571","592017","0.0-1.0-787.0","0","0","54705","","null","","","null","87","","NaN","","","","","","","","","","","","","",""
"","response","","html-keyboard-response","572","592825","0.0-1.0-788.0-0.0","0","0","54705","","805","","","68","87","","","2","87","training","adjacent","BC","2","3","R.jpg","N.jpg","0","1","0","",""
"","feedback","","html-keyboard-response","573","593828","0.0-1.0-789.0-0.0","0","0","54705","","null","","","null","87","","","","","","","","","","","","","","","",""
"","time_out","","html-keyboard-response","574","595831","0.0-1.0-791.0-0.0","0","0","54705","","null","","","null","87","","","","","","","","","","","","","","","",""
"","ITI","","html-keyboard-response","575","596834","0.0-1.0-792.0","0","0","54705","","null","","","null","87","","","","","","","","","","","","","","","NaN",""
"","S1","","html-keyboard-response","576","596987","0.0-1.0-794.0","0","0","54705","","null","","","null","88","","","","","","","","","","","","","","","",""
"","ISI","","html-keyboard-response","577","598990","0.0-1.0-795.0","0","0","54705","","null","","","null","88","NaN","","","","","","","","","","","","","","",""
"","S2","","html-keyboard-response","578","599143","0.0-1.0-796.0","0","0","54705","","null","","","null","88","","NaN","","","","","","","","","","","","","",""
"","response","","html-keyboard-response","579","599692","0.0-1.0-797.0-0.0","0","0","54705","","547","","","75","88","","","2","88","training","adjacent","FE","6","5","M.jpg","L.jpg","1","0","0","",""
"","feedback","","html-keyboard-response","580","600697","0.0-1.0-798.0-0.0","0","0","54705","","null","","","null","88","","","","","","","","","","","","","","","",""
"","time_out","","html-keyboard-response","581","602700","0.0-1.0-800.0-0.0","0","0","54705","","null","","","null","88","","","","","","","","","","","","","","","",""
"","ITI","","html-keyboard-response","582","603718","0.0-1.0-801.0","0","0","54705","","null","","","null","88","","","","","","","","","","","","","","","NaN",""
