"success","ttype","start_time","trial_type","trial_index","time_elapsed","internal_node_id","warning","missed_checkup","PID","view_history","rt","responses","repeat_instructions","key_press","index","keypress_isi","keypress_S2","block","trial_num","phase","group_type","pair_type","S1_stim","S2_stim","S1_img","S2_img","S1_chosen","S1_higher","accuracy","keypress_iti","total_bonus_tally"
"true","full_screen","d03072023hr1751","fullscreen","0","15074","0.0-0.0","0","0","41407","","","","","","","","","","","","","","","","","","","","","",""
"","instructions","","instructions","1","52310","0.0-1.0-0.0-0.0","0","0","41407","[{""page_index"":0,""viewing_time"":5601},{""page_index"":1,""viewing_time"":19735},{""page_index"":2,""viewing_time"":10016},{""page_index"":3,""viewing_time"":1880}]","37233","","","","","","","","","","","","","","","","","","","",""
"","comprehension_check","","survey-multi-choice","2","70853","0.0-1.0-0.0-1.0","0","0","41407","","18538","{""Q0"":""True"",""Q1"":""K"",""Q2"":""Only when the screen 'MAKE A CHOICE' is shown"",""Q3"":""Green mark"",""Q4"":""either D or K""}","1","","","","","","","","","","","","","","","","","",""
"","missed_instruction_checkup","","html-keyboard-response","3","72525","0.0-1.0-0.0-2.0-0.0","0","1","41407","","1662","","","32","","","","","","","","","","","","","","","","",""
"","instructions","","instructions","4","104101","0.0-1.0-0.1-0.1","0","0","41407","[{""page_index"":0,""viewing_time"":2438},{""page_index"":1,""viewing_time"":22463},{""page_index"":2,""viewing_time"":5216},{""page_index"":3,""viewing_time"":1456}]","31573","","","","","","","","","","","","","","","","","","","",""
"","comprehension_check","","survey-multi-choice","5","118781","0.0-1.0-0.1-1.1","0","0","41407","","14675","{""Q0"":""True"",""Q1"":""K"",""Q2"":""Once the second image appears and while the screen 'MAKE A CHOICE' is shown"",""Q3"":""Green mark"",""Q4"":""either D or K""}","0","","","","","","","","","","","","","","","","","",""
"","start_exp","","html-keyboard-response","6","163243","0.0-1.0-1.0","0","0","41407","","44455","","","32","","","","","","","","","","","","","","","","",""
"","S1","","html-keyboard-response","7","163509","0.0-1.0-2.0","0","0","41407","","null","","","null","0","","","","","","","","","","","","","","","",""
"","ISI","","html-keyboard-response","8","164512","0.0-1.0-3.0","0","0","41407","","null","","","null","0","NaN","","","","","","","","","","","","","","",""
"","S2","","html-keyboard-response","9","164778","0.0-1.0-4.0","0","0","41407","","null","","","null","0","","NaN","","","","","","","","","","","","","",""
"","response","","html-keyboard-response","10","165850","0.0-1.0-5.0-0.0","0","0","41407","","1069","","","68","0","","","1","0","training","adjacent","AB","1","2","Q.jpg","N.jpg","0","1","0","",""
"","feedback","","html-keyboard-response","11","166853","0.0-1.0-6.0-0.0","0","0","41407","","null","","","null","0","","","","","","","","","","","","","","","",""
"","time_out","","html-keyboard-response","12","168856","0.0-1.0-8.0-0.0","0","0","41407","","null","","","null","0","","","","","","","","","","","","","","","",""
"","ITI","","html-keyboard-response","13","169859","0.0-1.0-9.0","0","0","41407","","null","","","null","0","","","","","","","","","","","","","","","NaN",""
"","S1","","html-keyboard-response","14","170113","0.0-1.0-11.0","0","0","41407","","null","","","null","1","","","","","","","","","","","","","","","",""
"","ISI","","html-keyboard-response","15","171115","0.0-1.0-12.0","0","0","41407","","null","","","null","1","NaN","","","","","","","","","","","","","","",""
"","S2","","html-keyboard-response","16","171368","0.0-1.0-13.0","0","0","41407","","null","","","null","1","","NaN","","","","","","","","","","","","","",""
"","response","","html-keyboard-response","17","171811","0.0-1.0-14.0-0.0","0","0","41407","","440","","","75","1","","","1","1","training","adjacent","FG","6","7","M.jpg","L.jpg","1","1","1","",""
"","feedback","","html-keyboard-response","18","172813","0.0-1.0-15.0-0.0","0","0","41407","","null","","","null","1","","","","","","","","","","","","","","","",""
"","ITI","","html-keyboard-response","19","173816","0.0-1.0-18.0","0","0","41407","","null","","","null","1","","","","","","","","","","","","","","","NaN",""
"","S1","","html-keyboard-response","20","174070","0.0-1.0-20.0","0","0","41407","","null","","","null","2","","","","","","","","","","","","","","","",""
"","ISI","","html-keyboard-response","21","175075","0.0-1.0-21.0","0","0","41407","","null","","","null","2","NaN","","","","","","","","","","","","","","",""
"","S2","","html-keyboard-response","22","175328","0.0-1.0-22.0","0","0","41407","","null","","","null","2","","NaN","","","","","","","","","","","","","",""
"","response","","html-keyboard-response","23","175979","0.0-1.0-23.0-0.0","0","0","41407","","649","","","75","2","","","1","2","training","adjacent","GF","7","6","L.jpg","M.jpg","1","0","0","",""
"","feedback","","html-keyboard-response","24","176989","0.0-1.0-24.0-0.0","0","0","41407","","null","","","null","2","","","","","","","","","","","","","","","",""
"","time_out","","html-keyboard-response","25","178993","0.0-1.0-26.0-0.0","0","0","41407","","null","","","null","2","","","","","","","","","","","","","","","",""
"","ITI","","html-keyboard-response","26","179996","0.0-1.0-27.0","0","0","41407","","null","","","null","2","","","","","","","","","","","","","","","NaN",""
"","S1","","html-keyboard-response","27","180248","0.0-1.0-29.0","0","0","41407","","null","","","null","3","","","","","","","","","","","","","","","",""
"","ISI","","html-keyboard-response","28","181251","0.0-1.0-30.0","0","0","41407","","null","","","null","3","NaN","","","","","","","","","","","","","","",""
"","S2","","html-keyboard-response","29","181505","0.0-1.0-31.0","0","0","41407","","null","","","null","3","","NaN","","","","","","","","","","","","","",""
"","response","","html-keyboard-response","30","182066","0.0-1.0-32.0-0.0","0","0","41407","","559","","","68","3","","","1","3","training","adjacent","CB","3","2","R.jpg","N.jpg","0","0","1","",""
"","feedback","","html-keyboard-response","31","183068","0.0-1.0-33.0-0.0","0","0","41407","","null","","","null","3","","","","","","","","","","","","","","","",""
"","ITI","","html-keyboard-response","32","184072","0.0-1.0-36.0","0","0","41407","","null","","","null","3","","","","","","","","","","","","","","","NaN",""
"","S1","","html-keyboard-response","33","184325","0.0-1.0-38.0","0","0","41407","","null","","","null","4","","","","","","","","","","","","","","","",""
"","ISI","","html-keyboard-response","34","185328","0.0-1.0-39.0","0","0","41407","","null","","","null","4","NaN","","","","","","","","","","","","","","",""
"","S2","","html-keyboard-response","35","185580","0.0-1.0-40.0","0","0","41407","","null","","","null","4","","NaN","","","","","","","","","","","","","",""
"","response","","html-keyboard-response","36","185746","0.0-1.0-41.0-0.0","0","0","41407","","164","","","75","4","","","1","4","training","adjacent","BC","2","3","N.jpg","R.jpg","1","1","1","",""
"","feedback","","html-keyboard-response","37","186749","0.0-1.0-42.0-0.0","0","0","41407","","null","","","null","4","","","","","","","","","","","","","","","",""
"","ITI","","html-keyboard-response","38","187751","0.0-1.0-45.0","0","0","41407","","null","","","null","4","","","","","","","","","","","","","","","NaN",""
"","S1","","html-keyboard-response","39","188011","0.0-1.0-47.0","0","0","41407","","null","","","null","5","","","","","","","","","","","","","","","",""
"","ISI","","html-keyboard-response","40","189014","0.0-1.0-48.0","0","0","41407","","null","","","null","5","NaN","","","","","","","","","","","","","","",""
"","S2","","html-keyboard-response","41","189268","0.0-1.0-49.0","0","0","41407","","null","","","null","5","","NaN","","","","","","","","","","","","","",""
"","response","","html-keyboard-response","42","189931","0.0-1.0-50.0-0.0","0","0","41407","","660","","","75","5","","","1","5","training","adjacent","BA","2","1","N.jpg","Q.jpg","1","0","0","",""
"","feedback","","html-keyboard-response","43","190935","0.0-1.0-51.0-0.0","0","0","41407","","null","","","null","5","","","","","","","","","","","","","","","",""
"","time_out","","html-keyboard-response","44","192937","0.0-1.0-53.0-0.0","0","0","41407","","null","","","null","5","","","","","","","","","","","","","","","",""
"","ITI","","html-keyboard-response","45","193940","0.0-1.0-54.0","0","0","41407","","null","","","null","5","","","","","","","","","","","","","","","NaN",""
"","S1","","html-keyboard-response","46","194193","0.0-1.0-56.0","0","0","41407","","null","","","null","6","","","","","","","","","","","","","","","",""
"","ISI","","html-keyboard-response","47","195195","0.0-1.0-57.0","0","0","41407","","null","","","null","6","NaN","","","","","","","","","","","","","","",""
"","S2","","html-keyboard-response","48","195450","0.0-1.0-58.0","0","0","41407","","null","","","null","6","","NaN","","","","","","","","","","","","","",""
"","response","","html-keyboard-response","49","196306","0.0-1.0-59.0-0.0","0","0","41407","","855","","","75","6","","","1","6","training","adjacent","ED","5","4","O.jpg","P.jpg","1","0","0","",""
"","feedback","","html-keyboard-response","50","197309","0.0-1.0-60.0-0.0","0","0","41407","","null","","","null","6","","","","","","","","","","","","","","","",""
"","time_out","","html-keyboard-response","51","199313","0.0-1.0-62.0-0.0","0","0","41407","","null","","","null","6","","","","","","","","","","","","","","","",""
"","ITI","","html-keyboard-response","52","200317","0.0-1.0-63.0","0","0","41407","","null","","","null","6","","","","","","","","","","","","","","","NaN",""
"","S1","","html-keyboard-response","53","200569","0.0-1.0-65.0","0","0","41407","","null","","","null","7","","","","","","","","","","","","","","","",""
"","ISI","","html-keyboard-response","54","201572","0.0-1.0-66.0","0","0","41407","","null","","","null","7","NaN","","","","","","","","","","","","","","",""
"","S2","","html-keyboard-response","55","201826","0.0-1.0-67.0","0","0","41407","","null","","","null","7","","NaN","","","","","","","","","","","","","",""
"","response","","html-keyboard-response","56","202075","0.0-1.0-68.0-0.0","0","0","41407","","247","","","75","7","","","1","7","training","adjacent","ED","5","4","O.jpg","P.jpg","1","0","0","",""
"","feedback","","html-keyboard-response","57","203089","0.0-1.0-69.0-0.0","0","0","41407","","null","","","null","7","","","","","","","","","","","","","","","",""
"","time_out","","html-keyboard-response","58","205092","0.0-1.0-71.0-0.0","0","0","41407","","null","","","null","7","","","","","","","","","","","","","","","",""
"","ITI","","html-keyboard-response","59","206096","0.0-1.0-72.0","0","0","41407","","null","","","null","7","","","","","","","","","","","","","","","NaN",""
"","S1","","html-keyboard-response","60","206349","0.0-1.0-74.0","0","0","41407","","null","","","null","8","","","","","","","","","","","","","","","",""
"","ISI","","html-keyboard-response","61","207352","0.0-1.0-75.0","0","0","41407","","null","","","null","8","NaN","","","","","","","","","","","","","","",""
"","S2","","html-keyboard-response","62","207605","0.0-1.0-76.0","0","0","41407","","null","","","null","8","","NaN","","","","","","","","","","","","","",""
"","response","","html-keyboard-response","63","207730","0.0-1.0-77.0-0.0","0","0","41407","","123","","","68","8","","","1","8","training","adjacent","ED","5","4","O.jpg","P.jpg","0","0","1","",""
"","feedback","","html-keyboard-response","64","208732","0.0-1.0-78.0-0.0","0","0","41407","","null","","","null","8","","","","","","","","","","","","","","","",""
"","ITI","","html-keyboard-response","65","209735","0.0-1.0-81.0","0","0","41407","","null","","","null","8","","","","","","","","","","","","","","","NaN",""
"","S1","","html-keyboard-response","66","209988","0.0-1.0-83.0","0","0","41407","","null","","","null","9","","","","","","","","","","","","","","","",""
"","ISI","","html-keyboard-response","67","210991","0.0-1.0-84.0","0","0","41407","","null","","","null","9","NaN","","","","","","","","","","","","","","",""
"","S2","","html-keyboard-response","68","211245","0.0-1.0-85.0","0","0","41407","","null","","","null","9","","NaN","","","","","","","","","","","","","",""
"","response","","html-keyboard-response","69","211738","0.0-1.0-86.0-0.0","0","0","41407","","491","","","75","9","","","1","9","training","adjacent","BA","2","1","N.jpg","Q.jpg","1","0","0","",""
"","feedback","","html-keyboard-response","70","212742","0.0-1.0-87.0-0.0","0","0","41407","","null","","","null","9","","","","","","","","","","","","","","","",""
"","time_out","","html-keyboard-response","71","214746","0.0-1.0-89.0-0.0","0","0","41407","","null","","","null","9","","","","","","","","","","","","","","","",""
"","ITI","","html-keyboard-response","72","215748","0.0-1.0-90.0","0","0","41407","","null","","","null","9","","","","","","","","","","","","","","","NaN",""
"","S1","","html-keyboard-response","73","216001","0.0-1.0-92.0","0","0","41407","","null","","","null","10","","","","","","","","","","","","","","","",""
"","ISI","","html-keyboard-response","74","217004","0.0-1.0-93.0","0","0","41407","","null","","","null","10","NaN","","","","","","","","","","","","","","",""
"","S2","","html-keyboard-response","75","217268","0.0-1.0-94.0","0","0","41407","","null","","","null","10","","NaN","","","","","","","","","","","","","",""
"","response","","html-keyboard-response","76","217427","0.0-1.0-95.0-0.0","0","0","41407","","156","","","75","10","","","1","10","training","adjacent","FG","6","7","M.jpg","L.jpg","1","1","1","",""
"","feedback","","html-keyboard-response","77","218429","0.0-1.0-96.0-0.0","0","0","41407","","null","","","null","10","","","","","","","","","","","","","","","",""
"","ITI","","html-keyboard-response","78","219432","0.0-1.0-99.0","0","0","41407","","null","","","null","10","","","","","","","","","","","","","","","NaN",""
"","S1","","html-keyboard-response","79","219686","0.0-1.0-101.0","0","0","41407","","null","","","null","11","","","","","","","","","","","","","","","",""
"","ISI","","html-keyboard-response","80","220688","0.0-1.0-102.0","0","0","41407","","null","","","null","11","NaN","","","","","","","","","","","","","","",""
"","S2","","html-keyboard-response","81","220941","0.0-1.0-103.0","0","0","41407","","null","","","null","11","","NaN","","","","","","","","","","","","","",""
"","response","","html-keyboard-response","82","221378","0.0-1.0-104.0-0.0","0","0","41407","","436","","","68","11","","","1","11","training","adjacent","CB","3","2","R.jpg","N.jpg","0","0","1","",""
"","feedback","","html-keyboard-response","83","222381","0.0-1.0-105.0-0.0","0","0","41407","","null","","","null","11","","","","","","","","","","","","","","","",""
"","ITI","","html-keyboard-response","84","223384","0.0-1.0-108.0","0","0","41407","","null","","","null","11","","","","","","","","","","","","","","","NaN",""
"","S1","","html-keyboard-response","85","223636","0.0-1.0-110.0","0","0","41407","","null","","","null","12","","","","","","","","","","","","","","","",""
"","ISI","","html-keyboard-response","86","224639","0.0-1.0-111.0","0","0","41407","","null","","","null","12","NaN","","","","","","","","","","","","","","",""
"","S2","","html-keyboard-response","87","224892","0.0-1.0-112.0","0","0","41407","","null","","","null","12","","NaN","","","","","","","","","","","","","",""
"","response","","html-keyboard-response","88","225001","0.0-1.0-113.0-0.0","0","0","41407","","107","","","75","12","","","1","12","training","adjacent","CB","3","2","R.jpg","N.jpg","1","0","0","",""
"","feedback","","html-keyboard-response","89","226005","0.0-1.0-114.0-0.0","0","0","41407","","null","","","null","12","","","","","","","","","","","","","","","",""
"","time_out","","html-keyboard-response","90","228007","0.0-1.0-116.0-0.0","0","0","41407","","null","","","null","12","","","","","","","","","","","","","","","",""
"","ITI","","html-keyboard-response","91","229009","0.0-1.0-117.0","0","0","41407","","null","","","null","12","","","","","","","","","","","","","","","NaN",""
"","S1","","html-keyboard-response","92","229263","0.0-1.0-119.0","0","0","41407","","null","","","null","13","","","","","","","","","","","","","","","",""
"","ISI","","html-keyboard-response","93","230265","0.0-1.0-120.0","0","0","41407","","null","","","null","13","NaN","","","","","","","","","","","","","","",""
"","S2","","html-keyboard-response","94","230519","0.0-1.0-121.0","0","0","41407","","null","","","null","13","","NaN","","","","","","","","","","","","","",""
"","response","","html-keyboard-response","95","231162","0.0-1.0-122.0-0.0","0","0","41407","","641","","","68","13","","","1","13","training","adjacent","FG","6","7","M.jpg","L.jpg","0","1","0","",""
"","feedback","","html-keyboard-response","96","232166","0.0-1.0-123.0-0.0","0","0","41407","","null","","","null","13","","","","","","","","","","","","","","","",""
"","time_out","","html-keyboard-response","97","234169","0.0-1.0-125.0-0.0","0","0","41407","","null","","","null","13","","","","","","","","","","","","","","","",""
"","ITI","","html-keyboard-response","98","235172","0.0-1.0-126.0","0","0","41407","","null","","","null","13","","","","","","","","","","","","","","","NaN",""
"","S1","","html-keyboard-response","99","235426","0.0-1.0-128.0","0","0","41407","","null","","","null","14","","","","","","","","","","","","","","","",""
"","ISI","","html-keyboard-response","100","236428","0.0-1.0-129.0","0","0","41407","","null","","","null","14","NaN","","","","","","","","","","","","","","",""
"","S2","","html-keyboard-response","101","236680","0.0-1.0-130.0","0","0","41407","","null","","","null","14","","NaN","","","","","","","","","","","","","",""
"","response","","html-keyboard-response","102","236706","0.0-1.0-131.0-0.0","0","0","41407","","24","","","75","14","","","1","14","training","adjacent","DC","4","3","P.jpg","R.jpg","1","0","0","",""
"","feedback","","html-keyboard-response","103","237708","0.0-1.0-132.0-0.0","0","0","41407","","null","","","null","14","","","","","","","","","","","","","","","",""
"","time_out","","html-keyboard-response","104","239710","0.0-1.0-134.0-0.0","0","0","41407","","null","","","null","14","","","","","","","","","","","","","","","",""
"","ITI","","html-keyboard-response","105","240712","0.0-1.0-135.0","0","0","41407","","null","","","null","14","","","","","","","","","","","","","","","NaN",""
"","S1","","html-keyboard-response","106","240965","0.0-1.0-137.0","0","0","41407","","null","","","null","15","","","","","","","","","","","","","","","",""
"","ISI","","html-keyboard-response","107","241968","0.0-1.0-138.0","0","0","41407","","null","","","null","15","NaN","","","","","","","","","","","","","","",""
"","S2","","html-keyboard-response","108","242185","0.0-1.0-139.0","0","0","41407","","215","","","68","15","","d","1","15","training","adjacent","ED","5","4","O.jpg","P.jpg","0","0","1","",""
"","feedback","","html-keyboard-response","109","243189","0.0-1.0-141.0-0.0","0","0","41407","","null","","","null","15","","","","","","","","","","","","","","","",""
"","ITI","","html-keyboard-response","110","244192","0.0-1.0-144.0","0","0","41407","","null","","","null","15","","","","","","","","","","","","","","","NaN",""
"","S1","","html-keyboard-response","111","244445","0.0-1.0-146.0","0","0","41407","","null","","","null","16","","","","","","","","","","","","","","","",""
"","ISI","","html-keyboard-response","112","245450","0.0-1.0-147.0","0","0","41407","","null","","","null","16","NaN","","","","","","","","","","","","","","",""
"","S2","","html-keyboard-response","113","245713","0.0-1.0-148.0","0","0","41407","","null","","","null","16","","NaN","","","","","","","","","","","","","",""
"","response","","html-keyboard-response","114","245873","0.0-1.0-149.0-0.0","0","0","41407","","159","","","75","16","","","1","16","training","adjacent","BA","2","1","N.jpg","Q.jpg","1","0","0","",""
"","feedback","","html-keyboard-response","115","246876","0.0-1.0-150.0-0.0","0","0","41407","","null","","","null","16","","","","","","","","","","","","","","","",""
"","time_out","","html-keyboard-response","116","248879","0.0-1.0-152.0-0.0","0","0","41407","","null","","","null","16","","","","","","","","","","","","","","","",""
"","ITI","","html-keyboard-response","117","249882","0.0-1.0-153.0","0","0","41407","","null","","","null","16","","","","","","","","","","","","","","","NaN",""
"","S1","","html-keyboard-response","118","250135","0.0-1.0-155.0","0","0","41407","","null","","","null","17","","","","","","","","","","","","","","","",""
"","ISI","","html-keyboard-response","119","251137","0.0-1.0-156.0","0","0","41407","","null","","","null","17","NaN","","","","","","","","","","","","","","",""
"","S2","","html-keyboard-response","120","251390","0.0-1.0-157.0","0","0","41407","","null","","","null","17","","NaN","","","","","","","","","","","","","",""
"","response","","html-keyboard-response","121","251465","0.0-1.0-158.0-0.0","0","0","41407","","73","","","68","17","","","1","17","training","adjacent","AB","1","2","Q.jpg","N.jpg","0","1","0","",""
"","feedback","","html-keyboard-response","122","252468","0.0-1.0-159.0-0.0","0","0","41407","","null","","","null","17","","","","","","","","","","","","","","","",""
"","time_out","","html-keyboard-response","123","254470","0.0-1.0-161.0-0.0","0","0","41407","","null","","","null","17","","","","","","","","","","","","","","","",""
"","ITI","","html-keyboard-response","124","255472","0.0-1.0-162.0","0","0","41407","","null","","","null","17","","","","","","","","","","","","","","","NaN",""
"","S1","","html-keyboard-response","125","255726","0.0-1.0-164.0","0","0","41407","","null","","","null","18","","","","","","","","","","","","","","","",""
"","ISI","","html-keyboard-response","126","256728","0.0-1.0-165.0","0","0","41407","","null","","","null","18","NaN","","","","","","","","","","","","","","",""
"","S2","","html-keyboard-response","127","256981","0.0-1.0-166.0","0","0","41407","","null","","","null","18","","NaN","","","","","","","","","","","","","",""
"","response","","html-keyboard-response","128","257201","0.0-1.0-167.0-0.0","0","0","41407","","217","","","75","18","","","1","18","training","adjacent","GF","7","6","L.jpg","M.jpg","1","0","0","",""
"","feedback","","html-keyboard-response","129","258204","0.0-1.0-168.0-0.0","0","0","41407","","null","","","null","18","","","","","","","","","","","","","","","",""
"","time_out","","html-keyboard-response","130","260206","0.0-1.0-170.0-0.0","0","0","41407","","null","","","null","18","","","","","","","","","","","","","","","",""
"","ITI","","html-keyboard-response","131","261208","0.0-1.0-171.0","0","0","41407","","null","","","null","18","","","","","","","","","","","","","","","NaN",""
"","S1","","html-keyboard-response","132","261460","0.0-1.0-173.0","0","0","41407","","null","","","null","19","","","","","","","","","","","","","","","",""
"","ISI","","html-keyboard-response","133","262462","0.0-1.0-174.0","0","0","41407","","null","","","null","19","NaN","","","","","","","","","","","","","","",""
"","S2","","html-keyboard-response","134","262715","0.0-1.0-175.0","0","0","41407","","null","","","null","19","","NaN","","","","","","","","","","","","","",""
"","response","","html-keyboard-response","135","262785","0.0-1.0-176.0-0.0","0","0","41407","","67","","","68","19","","","1","19","training","adjacent","FE","6","5","M.jpg","O.jpg","0","0","1","",""
"","feedback","","html-keyboard-response","136","263789","0.0-1.0-177.0-0.0","0","0","41407","","null","","","null","19","","","","","","","","","","","","","","","",""
"","ITI","","html-keyboard-response","137","264792","0.0-1.0-180.0","0","0","41407","","null","","","null","19","","","","","","","","","","","","","","","NaN",""
"","S1","","html-keyboard-response","138","265045","0.0-1.0-182.0","0","0","41407","","null","","","null","20","","","","","","","","","","","","","","","",""
"","ISI","","html-keyboard-response","139","266047","0.0-1.0-183.0","0","0","41407","","null","","","null","20","NaN","","","","","","","","","","","","","","",""
"","S2","","html-keyboard-response","140","266300","0.0-1.0-184.0","0","0","41407","","null","","","null","20","","NaN","","","","","","","","","","","","","",""
"","response","","html-keyboard-response","141","266353","0.0-1.0-185.0-0.0","0","0","41407","","50","","","75","20","","","1","20","training","adjacent","EF","5","6","O.jpg","M.jpg","1","1","1","",""
"","feedback","","html-keyboard-response","142","267356","0.0-1.0-186.0-0.0","0","0","41407","","null","","","null","20","","","","","","","","","","","","","","","",""
"","ITI","","html-keyboard-response","143","268359","0.0-1.0-189.0","0","0","41407","","null","","","null","20","","","","","","","","","","","","","","","NaN",""
"","S1","","html-keyboard-response","144","268612","0.0-1.0-191.0","0","0","41407","","null","","","null","21","","","","","","","","","","","","","","","",""
"","ISI","","html-keyboard-response","145","269614","0.0-1.0-192.0","0","0","41407","","null","","","null","21","NaN","","","","","","","","","","","","","","",""
"","S2","","html-keyboard-response","146","269868","0.0-1.0-193.0","0","0","41407","","null","","","null","21","","NaN","","","","","","","","","","","","","",""
"","response","","html-keyboard-response","147","270473","0.0-1.0-194.0-0.0","0","0","41407","","604","","","75","21","","","1","21","training","adjacent","DE","4","5","P.jpg","O.jpg","1","1","1","",""
"","feedback","","html-keyboard-response","148","271477","0.0-1.0-195.0-0.0","0","0","41407","","null","","","null","21","","","","","","","","","","","","","","","",""
"","ITI","","html-keyboard-response","149","272505","0.0-1.0-198.0","0","0","41407","","null","","","null","21","","","","","","","","","","","","","","","NaN",""
"","S1","","html-keyboard-response","150","272757","0.0-1.0-200.0","0","0","41407","","null","","","null","22","","","","","","","","","","","","","","","",""
"","ISI","","html-keyboard-response","151","273760","0.0-1.0-201.0","0","0","41407","","null","","","null","22","NaN","","","","","","","","","","","","","","",""
"","S2","","html-keyboard-response","152","274013","0.0-1.0-202.0","0","0","41407","","null","","","null","22","","NaN","","","","","","","","","","","","","",""
"","response","","html-keyboard-response","153","274273","0.0-1.0-203.0-0.0","0","0","41407","","258","","","68","22","","","1","22","training","adjacent","GF","7","6","L.jpg","M.jpg","0","0","1","",""
"","feedback","","html-keyboard-response","154","275276","0.0-1.0-204.0-0.0","0","0","41407","","null","","","null","22","","","","","","","","","","","","","","","",""
"","ITI","","html-keyboard-response","155","276278","0.0-1.0-207.0","0","0","41407","","null","","","null","22","","","","","","","","","","","","","","","NaN",""
"","S1","","html-keyboard-response","156","276532","0.0-1.0-209.0","0","0","41407","","null","","","null","23","","","","","","","","","","","","","","","",""
"","ISI","","html-keyboard-response","157","277534","0.0-1.0-210.0","0","0","41407","","null","","","null","23","NaN","","","","","","","","","","","","","","",""
"","S2","","html-keyboard-response","158","277787","0.0-1.0-211.0","0","0","41407","","null","","","null","23","","NaN","","","","","","","","","","","","","",""
"","response","","html-keyboard-response","159","278273","0.0-1.0-212.0-0.0","0","0","41407","","483","","","68","23","","","1","23","training","adjacent","DC","4","3","P.jpg","R.jpg","0","0","1","",""
"","feedback","","html-keyboard-response","160","279275","0.0-1.0-213.0-0.0","0","0","41407","","null","","","null","23","","","","","","","","","","","","","","","",""
"","ITI","","html-keyboard-response","161","280283","0.0-1.0-216.0","0","0","41407","","null","","","null","23","","","","","","","","","","","","","","","NaN",""
"","S1","","html-keyboard-response","162","280535","0.0-1.0-218.0","0","0","41407","","null","","","null","24","","","","","","","","","","","","","","","",""
"","ISI","","html-keyboard-response","163","281539","0.0-1.0-219.0","0","0","41407","","null","","","null","24","NaN","","","","","","","","","","","","","","",""
"","S2","","html-keyboard-response","164","281791","0.0-1.0-220.0","0","0","41407","","null","","","null","24","","NaN","","","","","","","","","","","","","",""
"","response","","html-keyboard-response","165","282273","0.0-1.0-221.0-0.0","0","0","41407","","479","","","75","24","","","1","24","training","adjacent","DE","4","5","P.jpg","O.jpg","1","1","1","",""
"","feedback","","html-keyboard-response","166","283275","0.0-1.0-222.0-0.0","0","0","41407","","null","","","null","24","","","","","","","","","","","","","","","",""
"","ITI","","html-keyboard-response","167","284278","0.0-1.0-225.0","0","0","41407","","null","","","null","24","","","","","","","","","","","","","","","NaN",""
"","S1","","html-keyboard-response","168","284531","0.0-1.0-227.0","0","0","41407","","null","","","null","25","","","","","","","","","","","","","","","",""
"","ISI","","html-keyboard-response","169","285534","0.0-1.0-228.0","0","0","41407","","null","","","null","25","NaN","","","","","","","","","","","","","","",""
"","S2","","html-keyboard-response","170","285787","0.0-1.0-229.0","0","0","41407","","null","","","null","25","","NaN","","","","","","","","","","","","","",""
"","response","","html-keyboard-response","171","285881","0.0-1.0-230.0-0.0","0","0","41407","","91","","","68","25","","","1","25","training","adjacent","DE","4","5","P.jpg","O.jpg","0","1","0","",""
"","feedback","","html-keyboard-response","172","286885","0.0-1.0-231.0-0.0","0","0","41407","","null","","","null","25","","","","","","","","","","","","","","","",""
"","time_out","","html-keyboard-response","173","288889","0.0-1.0-233.0-0.0","0","0","41407","","null","","","null","25","","","","","","","","","","","","","","","",""
"","ITI","","html-keyboard-response","174","289891","0.0-1.0-234.0","0","0","41407","","null","","","null","25","","","","","","","","","","","","","","","NaN",""
"","S1","","html-keyboard-response","175","290144","0.0-1.0-236.0","0","0","41407","","null","","","null","26","","","","","","","","","","","","","","","",""
"","ISI","","html-keyboard-response","176","291147","0.0-1.0-237.0","0","0","41407","","null","","","null","26","NaN","","","","","","","","","","","","","","",""
"","S2","","html-keyboard-response","177","291400","0.0-1.0-238.0","0","0","41407","","null","","","null","26","","NaN","","","","","","","","","","","","","",""
"","response","","html-keyboard-response","178","291633","0.0-1.0-239.0-0.0","0","0","41407","","230","","","75","26","","","1","26","training","adjacent","FE","6","5","M.jpg","O.jpg","1","0","0","",""
"","feedback","","html-keyboard-response","179","292635","0.0-1.0-240.0-0.0","0","0","41407","","null","","","null","26","","","","","","","","","","","","","","","",""
"","time_out","","html-keyboard-response","180","294639","0.0-1.0-242.0-0.0","0","0","41407","","null","","","null","26","","","","","","","","","","","","","","","",""
"","ITI","","html-keyboard-response","181","295641","0.0-1.0-243.0","0","0","41407","","null","","","null","26","","","","","","","","","","","","","","","NaN",""
"","S1","","html-keyboard-response","182","295895","0.0-1.0-245.0","0","0","41407","","null","","","null","27","","","","","","","","","","","","","","","",""
"","ISI","","html-keyboard-response","183","296899","0.0-1.0-246.0","0","0","41407","","null","","","null","27","NaN","","","","","","","","","","","","","","",""
"","S2","","html-keyboard-response","184","297151","0.0-1.0-247.0","0","0","41407","","null","","","null","27","","NaN","","","","","","","","","","","","","",""
"","response","","html-keyboard-response","185","297328","0.0-1.0-248.0-0.0","0","0","41407","","175","","","75","27","","","1","27","training","adjacent","BC","2","3","N.jpg","R.jpg","1","1","1","",""
"","feedback","","html-keyboard-response","186","298332","0.0-1.0-249.0-0.0","0","0","41407","","null","","","null","27","","","","","","","","","","","","","","","",""
"","ITI","","html-keyboard-response","187","299334","0.0-1.0-252.0","0","0","41407","","null","","","null","27","","","","","","","","","","","","","","","NaN",""
"","S1","","html-keyboard-response","188","299587","0.0-1.0-254.0","0","0","41407","","null","","","null","28","","","","","","","","","","","","","","","",""
"","ISI","","html-keyboard-response","189","300590","0.0-1.0-255.0","0","0","41407","","null","","","null","28","NaN","","","","","","","","","","","","","","",""
"","S2","","html-keyboard-response","190","300842","0.0-1.0-256.0","0","0","41407","","null","","","null","28","","NaN","","","","","","","","","","","","","",""
"","response","","html-keyboard-response","191","301201","0.0-1.0-257.0-0.0","0","0","41407","","357","","","75","28","","","1","28","training","adjacent","AB","1","2","Q.jpg","N.jpg","1","1","1","",""
"","feedback","","html-keyboard-response","192","302205","0.0-1.0-258.0-0.0","0","0","41407","","null","","","null","28","","","","","","","","","","","","","","","",""
"","ITI","","html-keyboard-response","193","303207","0.0-1.0-261.0","0","0","41407","","null","","","null","28","","","","","","","","","","","","","","","NaN",""
"","S1","","html-keyboard-response","194","303459","0.0-1.0-263.0","0","0","41407","","null","","","null","29","","","","","","","","","","","","","","","",""
"","ISI","","html-keyboard-response","195","304462","0.0-1.0-264.0","0","0","41407","","null","","","null","29","NaN","","","","","","","","","","","","","","",""
"","S2","","html-keyboard-response","196","304716","0.0-1.0-265.0","0","0","41407","","null","","","null","29","","NaN","","","","","","","","","","","","","",""
"","response","","html-keyboard-response","197","304961","0.0-1.0-266.0-0.0","0","0","41407","","242","","","75","29","","","1","29","training","adjacent","GF","7","6","L.jpg","M.jpg","1","0","0","",""
"","feedback","","html-keyboard-response","198","305963","0.0-1.0-267.0-0.0","0","0","41407","","null","","","null","29","","","","","","","","","","","","","","","",""
"","time_out","","html-keyboard-response","199","307966","0.0-1.0-269.0-0.0","0","0","41407","","null","","","null","29","","","","","","","","","","","","","","","",""
"","ITI","","html-keyboard-response","200","308969","0.0-1.0-270.0","0","0","41407","","null","","","null","29","","","","","","","","","","","","","","","NaN",""
"","S1","","html-keyboard-response","201","309222","0.0-1.0-272.0","0","0","41407","","null","","","null","30","","","","","","","","","","","","","","","",""
"","ISI","","html-keyboard-response","202","310223","0.0-1.0-273.0","0","0","41407","","null","","","null","30","NaN","","","","","","","","","","","","","","",""
"","S2","","html-keyboard-response","203","310476","0.0-1.0-274.0","0","0","41407","","null","","","null","30","","NaN","","","","","","","","","","","","","",""
"","response","","html-keyboard-response","204","310601","0.0-1.0-275.0-0.0","0","0","41407","","123","","","68","30","","","1","30","training","adjacent","DE","4","5","P.jpg","O.jpg","0","1","0","",""
"","feedback","","html-keyboard-response","205","311604","0.0-1.0-276.0-0.0","0","0","41407","","null","","","null","30","","","","","","","","","","","","","","","",""
"","time_out","","html-keyboard-response","206","313607","0.0-1.0-278.0-0.0","0","0","41407","","null","","","null","30","","","","","","","","","","","","","","","",""
"","ITI","","html-keyboard-response","207","314609","0.0-1.0-279.0","0","0","41407","","null","","","null","30","","","","","","","","","","","","","","","NaN",""
"","S1","","html-keyboard-response","208","314862","0.0-1.0-281.0","0","0","41407","","null","","","null","31","","","","","","","","","","","","","","","",""
"","ISI","","html-keyboard-response","209","315865","0.0-1.0-282.0","0","0","41407","","null","","","null","31","NaN","","","","","","","","","","","","","","",""
"","S2","","html-keyboard-response","210","316118","0.0-1.0-283.0","0","0","41407","","null","","","null","31","","NaN","","","","","","","","","","","","","",""
"","response","","html-keyboard-response","211","316193","0.0-1.0-284.0-0.0","0","0","41407","","72","","","75","31","","","1","31","training","adjacent","CD","3","4","R.jpg","P.jpg","1","1","1","",""
"","feedback","","html-keyboard-response","212","317196","0.0-1.0-285.0-0.0","0","0","41407","","null","","","null","31","","","","","","","","","","","","","","","",""
"","ITI","","html-keyboard-response","213","318199","0.0-1.0-288.0","0","0","41407","","null","","","null","31","","","","","","","","","","","","","","","NaN",""
"","S1","","html-keyboard-response","214","318462","0.0-1.0-290.0","0","0","41407","","null","","","null","32","","","","","","","","","","","","","","","",""
"","ISI","","html-keyboard-response","215","319467","0.0-1.0-291.0","0","0","41407","","null","","","null","32","NaN","","","","","","","","","","","","","","",""
"","S2","","html-keyboard-response","216","319721","0.0-1.0-292.0","0","0","41407","","null","","","null","32","","NaN","","","","","","","","","","","","","",""
"","response","","html-keyboard-response","217","319769","0.0-1.0-293.0-0.0","0","0","41407","","45","","","75","32","","","1","32","training","adjacent","CD","3","4","R.jpg","P.jpg","1","1","1","",""
"","feedback","","html-keyboard-response","218","320773","0.0-1.0-294.0-0.0","0","0","41407","","null","","","null","32","","","","","","","","","","","","","","","",""
"","ITI","","html-keyboard-response","219","321776","0.0-1.0-297.0","0","0","41407","","null","","","null","32","","","","","","","","","","","","","","","NaN",""
"","S1","","html-keyboard-response","220","322029","0.0-1.0-299.0","0","0","41407","","null","","","null","33","","","","","","","","","","","","","","","",""
"","ISI","","html-keyboard-response","221","323031","0.0-1.0-300.0","0","0","41407","","null","","","null","33","NaN","","","","","","","","","","","","","","",""
"","S2","","html-keyboard-response","222","323284","0.0-1.0-301.0","0","0","41407","","null","","","null","33","","NaN","","","","","","","","","","","","","",""
"","response","","html-keyboard-response","223","323672","0.0-1.0-302.0-0.0","0","0","41407","","386","","","68","33","","","1","33","training","adjacent","AB","1","2","Q.jpg","N.jpg","0","1","0","",""
"","feedback","","html-keyboard-response","224","324674","0.0-1.0-303.0-0.0","0","0","41407","","null","","","null","33","","","","","","","","","","","","","","","",""
"","time_out","","html-keyboard-response","225","326677","0.0-1.0-305.0-0.0","0","0","41407","","null","","","null","33","","","","","","","","","","","","","","","",""
"","ITI","","html-keyboard-response","226","327680","0.0-1.0-306.0","0","0","41407","","null","","","null","33","","","","","","","","","","","","","","","NaN",""
"","S1","","html-keyboard-response","227","327932","0.0-1.0-308.0","0","0","41407","","null","","","null","34","","","","","","","","","","","","","","","",""
"","ISI","","html-keyboard-response","228","328935","0.0-1.0-309.0","0","0","41407","","null","","","null","34","NaN","","","","","","","","","","","","","","",""
"","S2","","html-keyboard-response","229","329188","0.0-1.0-310.0","0","0","41407","","null","","","null","34","","NaN","","","","","","","","","","","","","",""
"","response","","html-keyboard-response","230","329219","0.0-1.0-311.0-0.0","0","0","41407","","30","","","75","34","","","1","34","training","adjacent","EF","5","6","O.jpg","M.jpg","1","1","1","",""
"","feedback","","html-keyboard-response","231","330221","0.0-1.0-312.0-0.0","0","0","41407","","null","","","null","34","","","","","","","","","","","","","","","",""
"","ITI","","html-keyboard-response","232","331224","0.0-1.0-315.0","0","0","41407","","null","","","null","34","","","","","","","","","","","","","","","NaN",""
"","S1","","html-keyboard-response","233","331477","0.0-1.0-317.0","0","0","41407","","null","","","null","35","","","","","","","","","","","","","","","",""
"","ISI","","html-keyboard-response","234","332479","0.0-1.0-318.0","0","0","41407","","null","","","null","35","NaN","","","","","","","","","","","","","","",""
"","S2","","html-keyboard-response","235","332732","0.0-1.0-319.0","0","0","41407","","null","","","null","35","","NaN","","","","","","","","","","","","","",""
"","response","","html-keyboard-response","236","332880","0.0-1.0-320.0-0.0","0","0","41407","","146","","","75","35","","","1","35","training","adjacent","FE","6","5","M.jpg","O.jpg","1","0","0","",""
"","feedback","","html-keyboard-response","237","333883","0.0-1.0-321.0-0.0","0","0","41407","","null","","","null","35","","","","","","","","","","","","","","","",""
"","time_out","","html-keyboard-response","238","335887","0.0-1.0-323.0-0.0","0","0","41407","","null","","","null","35","","","","","","","","","","","","","","","",""
"","ITI","","html-keyboard-response","239","336889","0.0-1.0-324.0","0","0","41407","","null","","","null","35","","","","","","","","","","","","","","","NaN",""
"","S1","","html-keyboard-response","240","337142","0.0-1.0-326.0","0","0","41407","","null","","","null","36","","","","","","","","","","","","","","","",""
"","ISI","","html-keyboard-response","241","338144","0.0-1.0-327.0","0","0","41407","","null","","","null","36","NaN","","","","","","","","","","","","","","",""
"","S2","","html-keyboard-response","242","338346","0.0-1.0-328.0","0","0","41407","","199","","","68","36","","d","1","36","training","adjacent","CD","3","4","R.jpg","P.jpg","0","1","0","",""
"","feedback","","html-keyboard-response","243","339349","0.0-1.0-330.0-0.0","0","0","41407","","null","","","null","36","","","","","","","","","","","","","","","",""
"","time_out","","html-keyboard-response","244","341351","0.0-1.0-332.0-0.0","0","0","41407","","null","","","null","36","","","","","","","","","","","","","","","",""
"","ITI","","html-keyboard-response","245","342355","0.0-1.0-333.0","0","0","41407","","null","","","null","36","","","","","","","","","","","","","","","NaN",""
"","S1","","html-keyboard-response","246","342608","0.0-1.0-335.0","0","0","41407","","null","","","null","37","","","","","","","","","","","","","","","",""
"","ISI","","html-keyboard-response","247","343611","0.0-1.0-336.0","0","0","41407","","null","","","null","37","NaN","","","","","","","","","","","","","","",""
"","S2","","html-keyboard-response","248","343873","0.0-1.0-337.0","0","0","41407","","null","","","null","37","","NaN","","","","","","","","","","","","","",""
"","response","","html-keyboard-response","249","343896","0.0-1.0-338.0-0.0","0","0","41407","","21","","","75","37","","","1","37","training","adjacent","EF","5","6","O.jpg","M.jpg","1","1","1","",""
"","feedback","","html-keyboard-response","250","344899","0.0-1.0-339.0-0.0","0","0","41407","","null","","","null","37","","","","","","","","","","","","","","","",""
"","ITI","","html-keyboard-response","251","345903","0.0-1.0-342.0","0","0","41407","","null","","","null","37","","","","","","","","","","","","","","","NaN",""
"","S1","","html-keyboard-response","252","346155","0.0-1.0-344.0","0","0","41407","","null","","","null","38","","","","","","","","","","","","","","","",""
"","ISI","","html-keyboard-response","253","347158","0.0-1.0-345.0","0","0","41407","","null","","","null","38","NaN","","","","","","","","","","","","","","",""
"","S2","","html-keyboard-response","254","347412","0.0-1.0-346.0","0","0","41407","","null","","","null","38","","NaN","","","","","","","","","","","","","",""
"","response","","html-keyboard-response","255","347689","0.0-1.0-347.0-0.0","0","0","41407","","274","","","75","38","","","1","38","training","adjacent","EF","5","6","O.jpg","M.jpg","1","1","1","",""
"","feedback","","html-keyboard-response","256","348692","0.0-1.0-348.0-0.0","0","0","41407","","null","","","null","38","","","","","","","","","","","","","","","",""
"","ITI","","html-keyboard-response","257","349696","0.0-1.0-351.0","0","0","41407","","null","","","null","38","","","","","","","","","","","","","","","NaN",""
"","S1","","html-keyboard-response","258","349948","0.0-1.0-353.0","0","0","41407","","null","","","null","39","","","","","","","","","","","","","","","",""
"","ISI","","html-keyboard-response","259","350951","0.0-1.0-354.0","0","0","41407","","null","","","null","39","NaN","","","","","","","","","","","","","","",""
"","S2","","html-keyboard-response","260","351137","0.0-1.0-355.0","0","0","41407","","183","","","75","39","","k","1","39","training","adjacent","DC","4","3","P.jpg","R.jpg","1","0","0","",""
"","feedback","","html-keyboard-response","261","352140","0.0-1.0-357.0-0.0","0","0","41407","","null","","","null","39","","","","","","","","","","","","","","","",""
"","time_out","","html-keyboard-response","262","354142","0.0-1.0-359.0-0.0","0","0","41407","","null","","","null","39","","","","","","","","","","","","","","","",""
"","ITI","","html-keyboard-response","263","355145","0.0-1.0-360.0","0","0","41407","","null","","","null","39","","","","","","","","","","","","","","","NaN",""
"","S1","","html-keyboard-response","264","355398","0.0-1.0-362.0","0","0","41407","","null","","","null","40","","","","","","","","","","","","","","","",""
"","ISI","","html-keyboard-response","265","356400","0.0-1.0-363.0","0","0","41407","","null","","","null","40","NaN","","","","","","","","","","","","","","",""
"","S2","","html-keyboard-response","266","356653","0.0-1.0-364.0","0","0","41407","","null","","","null","40","","NaN","","","","","","","","","","","","","",""
"","response","","html-keyboard-response","267","356665","0.0-1.0-365.0-0.0","0","0","41407","","9","","","68","40","","","1","40","training","adjacent","FG","6","7","M.jpg","L.jpg","0","1","0","",""
"","feedback","","html-keyboard-response","268","357669","0.0-1.0-366.0-0.0","0","0","41407","","null","","","null","40","","","","","","","","","","","","","","","",""
"","time_out","","html-keyboard-response","269","359672","0.0-1.0-368.0-0.0","0","0","41407","","null","","","null","40","","","","","","","","","","","","","","","",""
"","ITI","","html-keyboard-response","270","360675","0.0-1.0-369.0","0","0","41407","","null","","","null","40","","","","","","","","","","","","","","","NaN",""
"","S1","","html-keyboard-response","271","360927","0.0-1.0-371.0","0","0","41407","","null","","","null","41","","","","","","","","","","","","","","","",""
"","ISI","","html-keyboard-response","272","361930","0.0-1.0-372.0","0","0","41407","","null","","","null","41","NaN","","","","","","","","","","","","","","",""
"","S2","","html-keyboard-response","273","362196","0.0-1.0-373.0","0","0","41407","","null","","","null","41","","NaN","","","","","","","","","","","","","",""
"","response","","html-keyboard-response","274","362202","0.0-1.0-374.0-0.0","0","0","41407","","2","","","75","41","","","1","41","training","adjacent","FE","6","5","M.jpg","O.jpg","1","0","0","",""
"","feedback","","html-keyboard-response","275","363205","0.0-1.0-375.0-0.0","0","0","41407","","null","","","null","41","","","","","","","","","","","","","","","",""
"","time_out","","html-keyboard-response","276","365208","0.0-1.0-377.0-0.0","0","0","41407","","null","","","null","41","","","","","","","","","","","","","","","",""
"","ITI","","html-keyboard-response","277","366211","0.0-1.0-378.0","0","0","41407","","null","","","null","41","","","","","","","","","","","","","","","NaN",""
"","S1","","html-keyboard-response","278","366464","0.0-1.0-380.0","0","0","41407","","null","","","null","42","","","","","","","","","","","","","","","",""
"","ISI","","html-keyboard-response","279","367467","0.0-1.0-381.0","0","0","41407","","null","","","null","42","NaN","","","","","","","","","","","","","","",""
"","S2","","html-keyboard-response","280","367720","0.0-1.0-382.0","0","0","41407","","null","","","null","42","","NaN","","","","","","","","","","","","","",""
"","response","","html-keyboard-response","281","367792","0.0-1.0-383.0-0.0","0","0","41407","","69","","","75","42","","","1","42","training","adjacent","BA","2","1","N.jpg","Q.jpg","1","0","0","",""
"","feedback","","html-keyboard-response","282","368796","0.0-1.0-384.0-0.0","0","0","41407","","null","","","null","42","","","","","","","","","","","","","","","",""
"","time_out","","html-keyboard-response","283","370799","0.0-1.0-386.0-0.0","0","0","41407","","null","","","null","42","","","","","","","","","","","","","","","",""
"","ITI","","html-keyboard-response","284","371801","0.0-1.0-387.0","0","0","41407","","null","","","null","42","","","","","","","","","","","","","","","NaN",""
"","S1","","html-keyboard-response","285","372055","0.0-1.0-389.0","0","0","41407","","null","","","null","43","","","","","","","","","","","","","","","",""
"","ISI","","html-keyboard-response","286","373058","0.0-1.0-390.0","0","0","41407","","638","","","75","43","k","","","","","","","","","","","","","","",""
"","S2","","html-keyboard-response","287","373322","0.0-1.0-391.0","0","0","41407","","null","","","null","43","","NaN","","","","","","","","","","","","","",""
"","response","","html-keyboard-response","288","374472","0.0-1.0-392.0-0.0","0","0","41407","","1148","","","75","43","","","1","43","training","adjacent","CD","3","4","R.jpg","P.jpg","1","1","1","",""
"","feedback","","html-keyboard-response","289","375476","0.0-1.0-393.0-0.0","0","0","41407","","null","","","null","43","","","","","","","","","","","","","","","",""
"","ITI","","html-keyboard-response","290","376478","0.0-1.0-396.0","0","0","41407","","null","","","null","43","","","","","","","","","","","","","","","NaN",""
"","S1","","html-keyboard-response","291","376731","0.0-1.0-398.0","0","0","41407","","null","","","null","44","","","","","","","","","","","","","","","",""
"","ISI","","html-keyboard-response","292","377734","0.0-1.0-399.0","0","0","41407","","null","","","null","44","NaN","","","","","","","","","","","","","","",""
"","S2","","html-keyboard-response","293","377987","0.0-1.0-400.0","0","0","41407","","null","","","null","44","","NaN","","","","","","","","","","","","","",""
"","response","","html-keyboard-response","294","378152","0.0-1.0-401.0-0.0","0","0","41407","","162","","","68","44","","","1","44","training","adjacent","BC","2","3","N.jpg","R.jpg","0","1","0","",""
"","feedback","","html-keyboard-response","295","379155","0.0-1.0-402.0-0.0","0","0","41407","","null","","","null","44","","","","","","","","","","","","","","","",""
"","time_out","","html-keyboard-response","296","381173","0.0-1.0-404.0-0.0","0","0","41407","","null","","","null","44","","","","","","","","","","","","","","","",""
"","ITI","","html-keyboard-response","297","382177","0.0-1.0-405.0","0","0","41407","","null","","","null","44","","","","","","","","","","","","","","","NaN",""
"","S1","","html-keyboard-response","298","382430","0.0-1.0-407.0","0","0","41407","","null","","","null","45","","","","","","","","","","","","","","","",""
"","ISI","","html-keyboard-response","299","383433","0.0-1.0-408.0","0","0","41407","","null","","","null","45","NaN","","","","","","","","","","","","","","",""
"","S2","","html-keyboard-response","300","383687","0.0-1.0-409.0","0","0","41407","","null","","","null","45","","NaN","","","","","","","","","","","","","",""
"","response","","html-keyboard-response","301","383888","0.0-1.0-410.0-0.0","0","0","41407","","199","","","75","45","","","1","45","training","adjacent","DC","4","3","P.jpg","R.jpg","1","0","0","",""
"","feedback","","html-keyboard-response","302","384891","0.0-1.0-411.0-0.0","0","0","41407","","null","","","null","45","","","","","","","","","","","","","","","",""
"","time_out","","html-keyboard-response","303","386894","0.0-1.0-413.0-0.0","0","0","41407","","null","","","null","45","","","","","","","","","","","","","","","",""
"","ITI","","html-keyboard-response","304","387896","0.0-1.0-414.0","0","0","41407","","null","","","null","45","","","","","","","","","","","","","","","NaN",""
"","S1","","html-keyboard-response","305","388150","0.0-1.0-416.0","0","0","41407","","null","","","null","46","","","","","","","","","","","","","","","",""
"","ISI","","html-keyboard-response","306","389152","0.0-1.0-417.0","0","0","41407","","null","","","null","46","NaN","","","","","","","","","","","","","","",""
"","S2","","html-keyboard-response","307","389405","0.0-1.0-418.0","0","0","41407","","null","","","null","46","","NaN","","","","","","","","","","","","","",""
"","response","","html-keyboard-response","308","389672","0.0-1.0-419.0-0.0","0","0","41407","","264","","","68","46","","","1","46","training","adjacent","CB","3","2","R.jpg","N.jpg","0","0","1","",""
"","feedback","","html-keyboard-response","309","390675","0.0-1.0-420.0-0.0","0","0","41407","","null","","","null","46","","","","","","","","","","","","","","","",""
"","ITI","","html-keyboard-response","310","391677","0.0-1.0-423.0","0","0","41407","","null","","","null","46","","","","","","","","","","","","","","","NaN",""
"","S1","","html-keyboard-response","311","391930","0.0-1.0-425.0","0","0","41407","","null","","","null","47","","","","","","","","","","","","","","","",""
"","ISI","","html-keyboard-response","312","392933","0.0-1.0-426.0","0","0","41407","","null","","","null","47","NaN","","","","","","","","","","","","","","",""
"","S2","","html-keyboard-response","313","393186","0.0-1.0-427.0","0","0","41407","","null","","","null","47","","NaN","","","","","","","","","","","","","",""
"","response","","html-keyboard-response","314","393575","0.0-1.0-428.0-0.0","0","0","41407","","387","","","68","47","","","1","47","training","adjacent","BC","2","3","N.jpg","R.jpg","0","1","0","",""
"","feedback","","html-keyboard-response","315","394579","0.0-1.0-429.0-0.0","0","0","41407","","null","","","null","47","","","","","","","","","","","","","","","",""
"","time_out","","html-keyboard-response","316","396582","0.0-1.0-431.0-0.0","0","0","41407","","null","","","null","47","","","","","","","","","","","","","","","",""
"","ITI","","html-keyboard-response","317","397585","0.0-1.0-432.0","0","0","41407","","null","","","null","47","","","","","","","","","","","","","","","NaN",""
"","block_over","","html-keyboard-response","318","400769","0.0-1.0-433.0-0.0","0","0","41407","","3179","","","32","47","","","","","","","","","","","","","","","",""
"","S1","","html-keyboard-response","319","401021","0.0-1.0-434.0","0","0","41407","","null","","","null","48","","","","","","","","","","","","","","","",""
"","ISI","","html-keyboard-response","320","402024","0.0-1.0-435.0","0","0","41407","","null","","","null","48","NaN","","","","","","","","","","","","","","",""
"","S2","","html-keyboard-response","321","402277","0.0-1.0-436.0","0","0","41407","","null","","","null","48","","NaN","","","","","","","","","","","","","",""
"","response","","html-keyboard-response","322","402695","0.0-1.0-437.0-0.0","0","0","41407","","416","","","75","48","","","2","48","training","adjacent","CD","3","4","R.jpg","P.jpg","1","1","1","",""
"","feedback","","html-keyboard-response","323","403700","0.0-1.0-438.0-0.0","0","0","41407","","null","","","null","48","","","","","","","","","","","","","","","",""
"","ITI","","html-keyboard-response","324","404702","0.0-1.0-441.0","0","0","41407","","null","","","null","48","","","","","","","","","","","","","","","NaN",""
"","S1","","html-keyboard-response","325","404956","0.0-1.0-443.0","0","0","41407","","null","","","null","49","","","","","","","","","","","","","","","",""
"","ISI","","html-keyboard-response","326","405959","0.0-1.0-444.0","0","0","41407","","null","","","null","49","NaN","","","","","","","","","","","","","","",""
"","S2","","html-keyboard-response","327","406212","0.0-1.0-445.0","0","0","41407","","null","","","null","49","","NaN","","","","","","","","","","","","","",""
"","response","","html-keyboard-response","328","406376","0.0-1.0-446.0-0.0","0","0","41407","","161","","","75","49","","","2","49","training","adjacent","GF","7","6","L.jpg","M.jpg","1","0","0","",""
"","feedback","","html-keyboard-response","329","407378","0.0-1.0-447.0-0.0","0","0","41407","","null","","","null","49","","","","","","","","","","","","","","","",""
"","time_out","","html-keyboard-response","330","409384","0.0-1.0-449.0-0.0","0","0","41407","","null","","","null","49","","","","","","","","","","","","","","","",""
"","ITI","","html-keyboard-response","331","410387","0.0-1.0-450.0","0","0","41407","","null","","","null","49","","","","","","","","","","","","","","","NaN",""
"","S1","","html-keyboard-response","332","410641","0.0-1.0-452.0","0","0","41407","","null","","","null","50","","","","","","","","","","","","","","","",""
"","ISI","","html-keyboard-response","333","411644","0.0-1.0-453.0","0","0","41407","","null","","","null","50","NaN","","","","","","","","","","","","","","",""
"","S2","","html-keyboard-response","334","411897","0.0-1.0-454.0","0","0","41407","","null","","","null","50","","NaN","","","","","","","","","","","","","",""
"","response","","html-keyboard-response","335","411959","0.0-1.0-455.0-0.0","0","0","41407","","60","","","75","50","","","2","50","training","adjacent","BA","2","1","N.jpg","Q.jpg","1","0","0","",""
"","feedback","","html-keyboard-response","336","412963","0.0-1.0-456.0-0.0","0","0","41407","","null","","","null","50","","","","","","","","","","","","","","","",""
"","time_out","","html-keyboard-response","337","414965","0.0-1.0-458.0-0.0","0","0","41407","","null","","","null","50","","","","","","","","","","","","","","","",""
"","ITI","","html-keyboard-response","338","415968","0.0-1.0-459.0","0","0","41407","","null","","","null","50","","","","","","","","","","","","","","","NaN",""
"","S1","","html-keyboard-response","339","416221","0.0-1.0-461.0","0","0","41407","","null","","","null","51","","","","","","","","","","","","","","","",""
"","ISI","","html-keyboard-response","340","417224","0.0-1.0-462.0","0","0","41407","","275","","","68","51","d","","","","","","","","","","","","","","",""
"","S2","","html-keyboard-response","341","417478","0.0-1.0-463.0","0","0","41407","","null","","","null","51","","NaN","","","","","","","","","","","","","",""
"","response","","html-keyboard-response","342","417968","0.0-1.0-464.0-0.0","0","0","41407","","487","","","75","51","","","2","51","training","adjacent","FE","6","5","M.jpg","O.jpg","1","0","0","",""
"","feedback","","html-keyboard-response","343","418971","0.0-1.0-465.0-0.0","0","0","41407","","null","","","null","51","","","","","","","","","","","","","","","",""
"","time_out","","html-keyboard-response","344","420974","0.0-1.0-467.0-0.0","0","0","41407","","null","","","null","51","","","","","","","","","","","","","","","",""
"","ITI","","html-keyboard-response","345","421976","0.0-1.0-468.0","0","0","41407","","null","","","null","51","","","","","","","","","","","","","","","NaN",""
"","S1","","html-keyboard-response","346","422229","0.0-1.0-470.0","0","0","41407","","null","","","null","52","","","","","","","","","","","","","","","",""
"","ISI","","html-keyboard-response","347","423231","0.0-1.0-471.0","0","0","41407","","null","","","null","52","NaN","","","","","","","","","","","","","","",""
"","S2","","html-keyboard-response","348","423485","0.0-1.0-472.0","0","0","41407","","null","","","null","52","","NaN","","","","","","","","","","","","","",""
"","response","","html-keyboard-response","349","423855","0.0-1.0-473.0-0.0","0","0","41407","","368","","","75","52","","","2","52","training","adjacent","EF","5","6","O.jpg","M.jpg","1","1","1","",""
"","feedback","","html-keyboard-response","350","424858","0.0-1.0-474.0-0.0","0","0","41407","","null","","","null","52","","","","","","","","","","","","","","","",""
"","ITI","","html-keyboard-response","351","425861","0.0-1.0-477.0","0","0","41407","","null","","","null","52","","","","","","","","","","","","","","","NaN",""
"","S1","","html-keyboard-response","352","426114","0.0-1.0-479.0","0","0","41407","","null","","","null","53","","","","","","","","","","","","","","","",""
"","ISI","","html-keyboard-response","353","427117","0.0-1.0-480.0","0","0","41407","","null","","","null","53","NaN","","","","","","","","","","","","","","",""
"","S2","","html-keyboard-response","354","427370","0.0-1.0-481.0","0","0","41407","","null","","","null","53","","NaN","","","","","","","","","","","","","",""
"","response","","html-keyboard-response","355","427512","0.0-1.0-482.0-0.0","0","0","41407","","139","","","68","53","","","2","53","training","adjacent","FE","6","5","M.jpg","O.jpg","0","0","1","",""
"","feedback","","html-keyboard-response","356","428515","0.0-1.0-483.0-0.0","0","0","41407","","null","","","null","53","","","","","","","","","","","","","","","",""
"","ITI","","html-keyboard-response","357","429518","0.0-1.0-486.0","0","0","41407","","null","","","null","53","","","","","","","","","","","","","","","NaN",""
"","S1","","html-keyboard-response","358","429770","0.0-1.0-488.0","0","0","41407","","null","","","null","54","","","","","","","","","","","","","","","",""
"","ISI","","html-keyboard-response","359","430773","0.0-1.0-489.0","0","0","41407","","null","","","null","54","NaN","","","","","","","","","","","","","","",""
"","S2","","html-keyboard-response","360","431026","0.0-1.0-490.0","0","0","41407","","null","","","null","54","","NaN","","","","","","","","","","","","","",""
"","response","","html-keyboard-response","361","431078","0.0-1.0-491.0-0.0","0","0","41407","","51","","","75","54","","","2","54","training","adjacent","CD","3","4","R.jpg","P.jpg","1","1","1","",""
"","feedback","","html-keyboard-response","362","432081","0.0-1.0-492.0-0.0","0","0","41407","","null","","","null","54","","","","","","","","","","","","","","","",""
"","ITI","","html-keyboard-response","363","433084","0.0-1.0-495.0","0","0","41407","","null","","","null","54","","","","","","","","","","","","","","","NaN",""
"","S1","","html-keyboard-response","364","433337","0.0-1.0-497.0","0","0","41407","","null","","","null","55","","","","","","","","","","","","","","","",""
"","ISI","","html-keyboard-response","365","434340","0.0-1.0-498.0","0","0","41407","","null","","","null","55","NaN","","","","","","","","","","","","","","",""
"","S2","","html-keyboard-response","366","434594","0.0-1.0-499.0","0","0","41407","","null","","","null","55","","NaN","","","","","","","","","","","","","",""
"","response","","html-keyboard-response","367","434783","0.0-1.0-500.0-0.0","0","0","41407","","188","","","75","55","","","2","55","training","adjacent","DE","4","5","P.jpg","O.jpg","1","1","1","",""
"","feedback","","html-keyboard-response","368","435787","0.0-1.0-501.0-0.0","0","0","41407","","null","","","null","55","","","","","","","","","","","","","","","",""
"","ITI","","html-keyboard-response","369","436790","0.0-1.0-504.0","0","0","41407","","null","","","null","55","","","","","","","","","","","","","","","NaN",""
"","S1","","html-keyboard-response","370","437044","0.0-1.0-506.0","0","0","41407","","null","","","null","56","","","","","","","","","","","","","","","",""
"","ISI","","html-keyboard-response","371","438046","0.0-1.0-507.0","0","0","41407","","null","","","null","56","NaN","","","","","","","","","","","","","","",""
"","S2","","html-keyboard-response","372","438299","0.0-1.0-508.0","0","0","41407","","null","","","null","56","","NaN","","","","","","","","","","","","","",""
"","response","","html-keyboard-response","373","438544","0.0-1.0-509.0-0.0","0","0","41407","","243","","","75","56","","","2","56","training","adjacent","DC","4","3","P.jpg","R.jpg","1","0","0","",""
"","feedback","","html-keyboard-response","374","439547","0.0-1.0-510.0-0.0","0","0","41407","","null","","","null","56","","","","","","","","","","","","","","","",""
"","time_out","","html-keyboard-response","375","441550","0.0-1.0-512.0-0.0","0","0","41407","","null","","","null","56","","","","","","","","","","","","","","","",""
"","ITI","","html-keyboard-response","376","442553","0.0-1.0-513.0","0","0","41407","","null","","","null","56","","","","","","","","","","","","","","","NaN",""
"","S1","","html-keyboard-response","377","442807","0.0-1.0-515.0","0","0","41407","","null","","","null","57","","","","","","","","","","","","","","","",""
"","ISI","","html-keyboard-response","378","443809","0.0-1.0-516.0","0","0","41407","","null","","","null","57","NaN","","","","","","","","","","","","","","",""
"","S2","","html-keyboard-response","379","444061","0.0-1.0-517.0","0","0","41407","","null","","","null","57","","NaN","","","","","","","","","","","","","",""
"","response","","html-keyboard-response","380","444208","0.0-1.0-518.0-0.0","0","0","41407","","144","","","68","57","","","2","57","training","adjacent","DC","4","3","P.jpg","R.jpg","0","0","1","",""
"","feedback","","html-keyboard-response","381","445211","0.0-1.0-519.0-0.0","0","0","41407","","null","","","null","57","","","","","","","","","","","","","","","",""
"","ITI","","html-keyboard-response","382","446218","0.0-1.0-522.0","0","0","41407","","null","","","null","57","","","","","","","","","","","","","","","NaN",""
"","S1","","html-keyboard-response","383","446470","0.0-1.0-524.0","0","0","41407","","null","","","null","58","","","","","","","","","","","","","","","",""
"","ISI","","html-keyboard-response","384","447472","0.0-1.0-525.0","0","0","41407","","null","","","null","58","NaN","","","","","","","","","","","","","","",""
"","S2","","html-keyboard-response","385","447726","0.0-1.0-526.0","0","0","41407","","null","","","null","58","","NaN","","","","","","","","","","","","","",""
"","response","","html-keyboard-response","386","447961","0.0-1.0-527.0-0.0","0","0","41407","","232","","","75","58","","","2","58","training","adjacent","BC","2","3","N.jpg","R.jpg","1","1","1","",""
"","feedback","","html-keyboard-response","387","448964","0.0-1.0-528.0-0.0","0","0","41407","","null","","","null","58","","","","","","","","","","","","","","","",""
"","ITI","","html-keyboard-response","388","449967","0.0-1.0-531.0","0","0","41407","","null","","","null","58","","","","","","","","","","","","","","","NaN",""
"","S1","","html-keyboard-response","389","450220","0.0-1.0-533.0","0","0","41407","","null","","","null","59","","","","","","","","","","","","","","","",""
"","ISI","","html-keyboard-response","390","451222","0.0-1.0-534.0","0","0","41407","","null","","","null","59","NaN","","","","","","","","","","","","","","",""
"","S2","","html-keyboard-response","391","451475","0.0-1.0-535.0","0","0","41407","","null","","","null","59","","NaN","","","","","","","","","","","","","",""
"","response","","html-keyboard-response","392","451663","0.0-1.0-536.0-0.0","0","0","41407","","186","","","68","59","","","2","59","training","adjacent","CB","3","2","R.jpg","N.jpg","0","0","1","",""
"","feedback","","html-keyboard-response","393","452678","0.0-1.0-537.0-0.0","0","0","41407","","null","","","null","59","","","","","","","","","","","","","","","",""
"","ITI","","html-keyboard-response","394","453682","0.0-1.0-540.0","0","0","41407","","null","","","null","59","","","","","","","","","","","","","","","NaN",""
"","S1","","html-keyboard-response","395","453935","0.0-1.0-542.0","0","0","41407","","null","","","null","60","","","","","","","","","","","","","","","",""
"","ISI","","html-keyboard-response","396","454937","0.0-1.0-543.0","0","0","41407","","null","","","null","60","NaN","","","","","","","","","","","","","","",""
"","S2","","html-keyboard-response","397","455191","0.0-1.0-544.0","0","0","41407","","null","","","null","60","","NaN","","","","","","","","","","","","","",""
"","response","","html-keyboard-response","398","455239","0.0-1.0-545.0-0.0","0","0","41407","","46","","","75","60","","","2","60","training","adjacent","BA","2","1","N.jpg","Q.jpg","1","0","0","",""
"","feedback","","html-keyboard-response","399","456243","0.0-1.0-546.0-0.0","0","0","41407","","null","","","null","60","","","","","","","","","","","","","","","",""
"","time_out","","html-keyboard-response","400","458246","0.0-1.0-548.0-0.0","0","0","41407","","null","","","null","60","","","","","","","","","","","","","","","",""
"","ITI","","html-keyboard-response","401","459249","0.0-1.0-549.0","0","0","41407","","null","","","null","60","","","","","","","","","","","","","","","NaN",""
"","S1","","html-keyboard-response","402","459503","0.0-1.0-551.0","0","0","41407","","null","","","null","61","","","","","","","","","","","","","","","",""
"","ISI","","html-keyboard-response","403","460505","0.0-1.0-552.0","0","0","41407","","null","","","null","61","NaN","","","","","","","","","","","","","","",""
"","S2","","html-keyboard-response","404","460759","0.0-1.0-553.0","0","0","41407","","null","","","null","61","","NaN","","","","","","","","","","","","","",""
"","response","","html-keyboard-response","405","460975","0.0-1.0-554.0-0.0","0","0","41407","","215","","","68","61","","","2","61","training","adjacent","AB","1","2","Q.jpg","N.jpg","0","1","0","",""
"","feedback","","html-keyboard-response","406","461978","0.0-1.0-555.0-0.0","0","0","41407","","null","","","null","61","","","","","","","","","","","","","","","",""
"","time_out","","html-keyboard-response","407","463982","0.0-1.0-557.0-0.0","0","0","41407","","null","","","null","61","","","","","","","","","","","","","","","",""
"","ITI","","html-keyboard-response","408","464985","0.0-1.0-558.0","0","0","41407","","null","","","null","61","","","","","","","","","","","","","","","NaN",""
"","S1","","html-keyboard-response","409","465237","0.0-1.0-560.0","0","0","41407","","null","","","null","62","","","","","","","","","","","","","","","",""
"","ISI","","html-keyboard-response","410","466240","0.0-1.0-561.0","0","0","41407","","null","","","null","62","NaN","","","","","","","","","","","","","","",""
"","S2","","html-keyboard-response","411","466493","0.0-1.0-562.0","0","0","41407","","null","","","null","62","","NaN","","","","","","","","","","","","","",""
"","response","","html-keyboard-response","412","467183","0.0-1.0-563.0-0.0","0","0","41407","","688","","","75","62","","","2","62","training","adjacent","FE","6","5","M.jpg","O.jpg","1","0","0","",""
"","feedback","","html-keyboard-response","413","468187","0.0-1.0-564.0-0.0","0","0","41407","","null","","","null","62","","","","","","","","","","","","","","","",""
"","time_out","","html-keyboard-response","414","470189","0.0-1.0-566.0-0.0","0","0","41407","","null","","","null","62","","","","","","","","","","","","","","","",""
"","ITI","","html-keyboard-response","415","471192","0.0-1.0-567.0","0","0","41407","","null","","","null","62","","","","","","","","","","","","","","","NaN",""
"","S1","","html-keyboard-response","416","471445","0.0-1.0-569.0","0","0","41407","","null","","","null","63","","","","","","","","","","","","","","","",""
"","ISI","","html-keyboard-response","417","472449","0.0-1.0-570.0","0","0","41407","","null","","","null","63","NaN","","","","","","","","","","","","","","",""
"","S2","","html-keyboard-response","418","472702","0.0-1.0-571.0","0","0","41407","","null","","","null","63","","NaN","","","","","","","","","","","","","",""
"","response","","html-keyboard-response","419","473383","0.0-1.0-572.0-0.0","0","0","41407","","678","","","75","63","","","2","63","training","adjacent","BA","2","1","N.jpg","Q.jpg","1","0","0","",""
"","feedback","","html-keyboard-response","420","474386","0.0-1.0-573.0-0.0","0","0","41407","","null","","","null","63","","","","","","","","","","","","","","","",""
"","time_out","","html-keyboard-response","421","476390","0.0-1.0-575.0-0.0","0","0","41407","","null","","","null","63","","","","","","","","","","","","","","","",""
"","ITI","","html-keyboard-response","422","477392","0.0-1.0-576.0","0","0","41407","","null","","","null","63","","","","","","","","","","","","","","","NaN",""
"","S1","","html-keyboard-response","423","477646","0.0-1.0-578.0","0","0","41407","","null","","","null","64","","","","","","","","","","","","","","","",""
"","ISI","","html-keyboard-response","424","478648","0.0-1.0-579.0","0","0","41407","","null","","","null","64","NaN","","","","","","","","","","","","","","",""
"","S2","","html-keyboard-response","425","478903","0.0-1.0-580.0","0","0","41407","","null","","","null","64","","NaN","","","","","","","","","","","","","",""
"","response","","html-keyboard-response","426","478968","0.0-1.0-581.0-0.0","0","0","41407","","62","","","68","64","","","2","64","training","adjacent","DC","4","3","P.jpg","R.jpg","0","0","1","",""
"","feedback","","html-keyboard-response","427","479972","0.0-1.0-582.0-0.0","0","0","41407","","null","","","null","64","","","","","","","","","","","","","","","",""
"","ITI","","html-keyboard-response","428","480975","0.0-1.0-585.0","0","0","41407","","null","","","null","64","","","","","","","","","","","","","","","NaN",""
"","S1","","html-keyboard-response","429","481228","0.0-1.0-587.0","0","0","41407","","null","","","null","65","","","","","","","","","","","","","","","",""
"","ISI","","html-keyboard-response","430","482231","0.0-1.0-588.0","0","0","41407","","null","","","null","65","NaN","","","","","","","","","","","","","","",""
"","S2","","html-keyboard-response","431","482499","0.0-1.0-589.0","0","0","41407","","null","","","null","65","","NaN","","","","","","","","","","","","","",""
"","response","","html-keyboard-response","432","482599","0.0-1.0-590.0-0.0","0","0","41407","","97","","","75","65","","","2","65","training","adjacent","ED","5","4","O.jpg","P.jpg","1","0","0","",""
"","feedback","","html-keyboard-response","433","483602","0.0-1.0-591.0-0.0","0","0","41407","","null","","","null","65","","","","","","","","","","","","","","","",""
"","time_out","","html-keyboard-response","434","485605","0.0-1.0-593.0-0.0","0","0","41407","","null","","","null","65","","","","","","","","","","","","","","","",""
"","ITI","","html-keyboard-response","435","486608","0.0-1.0-594.0","0","0","41407","","null","","","null","65","","","","","","","","","","","","","","","NaN",""
"","S1","","html-keyboard-response","436","486862","0.0-1.0-596.0","0","0","41407","","null","","","null","66","","","","","","","","","","","","","","","",""
"","ISI","","html-keyboard-response","437","487877","0.0-1.0-597.0","0","0","41407","","null","","","null","66","NaN","","","","","","","","","","","","","","",""
"","S2","","html-keyboard-response","438","488130","0.0-1.0-598.0","0","0","41407","","null","","","null","66","","NaN","","","","","","","","","","","","","",""
"","response","","html-keyboard-response","439","488174","0.0-1.0-599.0-0.0","0","0","41407","","42","","","68","66","","","2","66","training","adjacent","BC","2","3","N.jpg","R.jpg","0","1","0","",""
"","feedback","","html-keyboard-response","440","489177","0.0-1.0-600.0-0.0","0","0","41407","","null","","","null","66","","","","","","","","","","","","","","","",""
"","time_out","","html-keyboard-response","441","491180","0.0-1.0-602.0-0.0","0","0","41407","","null","","","null","66","","","","","","","","","","","","","","","",""
"","ITI","","html-keyboard-response","442","492183","0.0-1.0-603.0","0","0","41407","","null","","","null","66","","","","","","","","","","","","","","","NaN",""
"","S1","","html-keyboard-response","443","492436","0.0-1.0-605.0","0","0","41407","","null","","","null","67","","","","","","","","","","","","","","","",""
"","ISI","","html-keyboard-response","444","493439","0.0-1.0-606.0","0","0","41407","","376","","","75","67","k","","","","","","","","","","","","","","",""
"","S2","","html-keyboard-response","445","493679","0.0-1.0-607.0","0","0","41407","","237","","","75","67","","k","2","67","training","adjacent","CB","3","2","R.jpg","N.jpg","1","0","0","",""
"","feedback","","html-keyboard-response","446","494683","0.0-1.0-609.0-0.0","0","0","41407","","null","","","null","67","","","","","","","","","","","","","","","",""
"","time_out","","html-keyboard-response","447","496687","0.0-1.0-611.0-0.0","0","0","41407","","null","","","null","67","","","","","","","","","","","","","","","",""
"","ITI","","html-keyboard-response","448","497690","0.0-1.0-612.0","0","0","41407","","null","","","null","67","","","","","","","","","","","","","","","NaN",""
"","S1","","html-keyboard-response","449","497943","0.0-1.0-614.0","0","0","41407","","null","","","null","68","","","","","","","","","","","","","","","",""
"","ISI","","html-keyboard-response","450","498945","0.0-1.0-615.0","0","0","41407","","null","","","null","68","NaN","","","","","","","","","","","","","","",""
"","S2","","html-keyboard-response","451","499198","0.0-1.0-616.0","0","0","41407","","null","","","null","68","","NaN","","","","","","","","","","","","","",""
"","response","","html-keyboard-response","452","499791","0.0-1.0-617.0-0.0","0","0","41407","","591","","","68","68","","","2","68","training","adjacent","EF","5","6","O.jpg","M.jpg","0","1","0","",""
"","feedback","","html-keyboard-response","453","500794","0.0-1.0-618.0-0.0","0","0","41407","","null","","","null","68","","","","","","","","","","","","","","","",""
"","time_out","","html-keyboard-response","454","502797","0.0-1.0-620.0-0.0","0","0","41407","","null","","","null","68","","","","","","","","","","","","","","","",""
"","ITI","","html-keyboard-response","455","503801","0.0-1.0-621.0","0","0","41407","","null","","","null","68","","","","","","","","","","","","","","","NaN",""
"","S1","","html-keyboard-response","456","504054","0.0-1.0-623.0","0","0","41407","","null","","","null","69","","","","","","","","","","","","","","","",""
"","ISI","","html-keyboard-response","457","505058","0.0-1.0-624.0","0","0","41407","","null","","","null","69","NaN","","","","","","","","","","","","","","",""
"","S2","","html-keyboard-response","458","505311","0.0-1.0-625.0","0","0","41407","","null","","","null","69","","NaN","","","","","","","","","","","","","",""
"","response","","html-keyboard-response","459","505383","0.0-1.0-626.0-0.0","0","0","41407","","69","","","75","69","","","2","69","training","adjacent","CB","3","2","R.jpg","N.jpg","1","0","0","",""
"","feedback","","html-keyboard-response","460","506387","0.0-1.0-627.0-0.0","0","0","41407","","null","","","null","69","","","","","","","","","","","","","","","",""
"","time_out","","html-keyboard-response","461","508390","0.0-1.0-629.0-0.0","0","0","41407","","null","","","null","69","","","","","","","","","","","","","","","",""
"","ITI","","html-keyboard-response","462","509393","0.0-1.0-630.0","0","0","41407","","null","","","null","69","","","","","","","","","","","","","","","NaN",""
"","S1","","html-keyboard-response","463","509645","0.0-1.0-632.0","0","0","41407","","null","","","null","70","","","","","","","","","","","","","","","",""
"","ISI","","html-keyboard-response","464","510648","0.0-1.0-633.0","0","0","41407","","null","","","null","70","NaN","","","","","","","","","","","","","","",""
"","S2","","html-keyboard-response","465","510901","0.0-1.0-634.0","0","0","41407","","null","","","null","70","","NaN","","","","","","","","","","","","","",""
"","response","","html-keyboard-response","466","511238","0.0-1.0-635.0-0.0","0","0","41407","","335","","","75","70","","","2","70","training","adjacent","EF","5","6","O.jpg","M.jpg","1","1","1","",""
"","feedback","","html-keyboard-response","467","512250","0.0-1.0-636.0-0.0","0","0","41407","","null","","","null","70","","","","","","","","","","","","","","","",""
"","ITI","","html-keyboard-response","468","513253","0.0-1.0-639.0","0","0","41407","","null","","","null","70","","","","","","","","","","","","","","","NaN",""
"","S1","","html-keyboard-response","469","513507","0.0-1.0-641.0","0","0","41407","","null","","","null","71","","","","","","","","","","","","","","","",""
"","ISI","","html-keyboard-response","470","514509","0.0-1.0-642.0","0","0","41407","","null","","","null","71","NaN","","","","","","","","","","","","","","",""
"","S2","","html-keyboard-response","471","514762","0.0-1.0-643.0","0","0","41407","","null","","","null","71","","NaN","","","","","","","","","","","","","",""
"","response","","html-keyboard-response","472","515239","0.0-1.0-644.0-0.0","0","0","41407","","474","","","68","71","","","2","71","training","adjacent","FG","6","7","M.jpg","L.jpg","0","1","0","",""
"","feedback","","html-keyboard-response","473","516242","0.0-1.0-645.0-0.0","0","0","41407","","null","","","null","71","","","","","","","","","","","","","","","",""
"","time_out","","html-keyboard-response","474","518246","0.0-1.0-647.0-0.0","0","0","41407","","null","","","null","71","","","","","","","","","","","","","","","",""
"","ITI","","html-keyboard-response","475","519248","0.0-1.0-648.0","0","0","41407","","null","","","null","71","","","","","","","","","","","","","","","NaN",""
"","S1","","html-keyboard-response","476","519501","0.0-1.0-650.0","0","0","41407","","null","","","null","72","","","","","","","","","","","","","","","",""
"","ISI","","html-keyboard-response","477","520503","0.0-1.0-651.0","0","0","41407","","160","","","75","72","k","","","","","","","","","","","","","","",""
"","S2","","html-keyboard-response","478","520756","0.0-1.0-652.0","0","0","41407","","null","","","null","72","","NaN","","","","","","","","","","","","","",""
"","response","","html-keyboard-response","479","521078","0.0-1.0-653.0-0.0","0","0","41407","","320","","","75","72","","","2","72","training","adjacent","AB","1","2","Q.jpg","N.jpg","1","1","1","",""
"","feedback","","html-keyboard-response","480","522087","0.0-1.0-654.0-0.0","0","0","41407","","null","","","null","72","","","","","","","","","","","","","","","",""
"","ITI","","html-keyboard-response","481","523090","0.0-1.0-657.0","0","0","41407","","null","","","null","72","","","","","","","","","","","","","","","NaN",""
"","S1","","html-keyboard-response","482","523344","0.0-1.0-659.0","0","0","41407","","null","","","null","73","","","","","","","","","","","","","","","",""
"","ISI","","html-keyboard-response","483","524349","0.0-1.0-660.0","0","0","41407","","null","","","null","73","NaN","","","","","","","","","","","","","","",""
"","S2","","html-keyboard-response","484","524601","0.0-1.0-661.0","0","0","41407","","null","","","null","73","","NaN","","","","","","","","","","","","","",""
"","response","","html-keyboard-response","485","524918","0.0-1.0-662.0-0.0","0","0","41407","","315","","","75","73","","","2","73","training","adjacent","CD","3","4","R.jpg","P.jpg","1","1","1","",""
"","feedback","","html-keyboard-response","486","525921","0.0-1.0-663.0-0.0","0","0","41407","","null","","","null","73","","","","","","","","","","","","","","","",""
"","ITI","","html-keyboard-response","487","526930","0.0-1.0-666.0","0","0","41407","","null","","","null","73","","","","","","","","","","","","","","","NaN",""
"","S1","","html-keyboard-response","488","527185","0.0-1.0-668.0","0","0","41407","","null","","","null","74","","","","","","","","","","","","","","","",""
"","ISI","","html-keyboard-response","489","528188","0.0-1.0-669.0","0","0","41407","","null","","","null","74","NaN","","","","","","","","","","","","","","",""
"","S2","","html-keyboard-response","490","528440","0.0-1.0-670.0","0","0","41407","","null","","","null","74","","NaN","","","","","","","","","","","","","",""
"","response","","html-keyboard-response","491","528798","0.0-1.0-671.0-0.0","0","0","41407","","356","","","75","74","","","2","74","training","adjacent","EF","5","6","O.jpg","M.jpg","1","1","1","",""
"","feedback","","html-keyboard-response","492","529803","0.0-1.0-672.0-0.0","0","0","41407","","null","","","null","74","","","","","","","","","","","","","","","",""
"","ITI","","html-keyboard-response","493","530806","0.0-1.0-675.0","0","0","41407","","null","","","null","74","","","","","","","","","","","","","","","NaN",""
"","S1","","html-keyboard-response","494","531059","0.0-1.0-677.0","0","0","41407","","null","","","null","75","","","","","","","","","","","","","","","",""
"","ISI","","html-keyboard-response","495","532062","0.0-1.0-678.0","0","0","41407","","null","","","null","75","NaN","","","","","","","","","","","","","","",""
"","S2","","html-keyboard-response","496","532315","0.0-1.0-679.0","0","0","41407","","null","","","null","75","","NaN","","","","","","","","","","","","","",""
"","response","","html-keyboard-response","497","533119","0.0-1.0-680.0-0.0","0","0","41407","","801","","","68","75","","","2","75","training","adjacent","AB","1","2","Q.jpg","N.jpg","0","1","0","",""
"","feedback","","html-keyboard-response","498","534123","0.0-1.0-681.0-0.0","0","0","41407","","null","","","null","75","","","","","","","","","","","","","","","",""
"","time_out","","html-keyboard-response","499","536135","0.0-1.0-683.0-0.0","0","0","41407","","null","","","null","75","","","","","","","","","","","","","","","",""
"","ITI","","html-keyboard-response","500","537138","0.0-1.0-684.0","0","0","41407","","null","","","null","75","","","","","","","","","","","","","","","NaN",""
"","S1","","html-keyboard-response","501","537401","0.0-1.0-686.0","0","0","41407","","null","","","null","76","","","","","","","","","","","","","","","",""
"","ISI","","html-keyboard-response","502","538405","0.0-1.0-687.0","0","0","41407","","null","","","null","76","NaN","","","","","","","","","","","","","","",""
"","S2","","html-keyboard-response","503","538658","0.0-1.0-688.0","0","0","41407","","null","","","null","76","","NaN","","","","","","","","","","","","","",""
"","response","","html-keyboard-response","504","538901","0.0-1.0-689.0-0.0","0","0","41407","","242","","","75","76","","","2","76","training","adjacent","GF","7","6","L.jpg","M.jpg","1","0","0","",""
"","feedback","","html-keyboard-response","505","539905","0.0-1.0-690.0-0.0","0","0","41407","","null","","","null","76","","","","","","","","","","","","","","","",""
"","time_out","","html-keyboard-response","506","541907","0.0-1.0-692.0-0.0","0","0","41407","","null","","","null","76","","","","","","","","","","","","","","","",""
"","ITI","","html-keyboard-response","507","542910","0.0-1.0-693.0","0","0","41407","","null","","","null","76","","","","","","","","","","","","","","","NaN",""
"","S1","","html-keyboard-response","508","543164","0.0-1.0-695.0","0","0","41407","","null","","","null","77","","","","","","","","","","","","","","","",""
"","ISI","","html-keyboard-response","509","544167","0.0-1.0-696.0","0","0","41407","","null","","","null","77","NaN","","","","","","","","","","","","","","",""
"","S2","","html-keyboard-response","510","544421","0.0-1.0-697.0","0","0","41407","","null","","","null","77","","NaN","","","","","","","","","","","","","",""
"","response","","html-keyboard-response","511","545037","0.0-1.0-698.0-0.0","0","0","41407","","614","","","75","77","","","2","77","training","adjacent","GF","7","6","L.jpg","M.jpg","1","0","0","",""
"","feedback","","html-keyboard-response","512","546040","0.0-1.0-699.0-0.0","0","0","41407","","null","","","null","77","","","","","","","","","","","","","","","",""
"","time_out","","html-keyboard-response","513","548043","0.0-1.0-701.0-0.0","0","0","41407","","null","","","null","77","","","","","","","","","","","","","","","",""
"","ITI","","html-keyboard-response","514","549045","0.0-1.0-702.0","0","0","41407","","null","","","null","77","","","","","","","","","","","","","","","NaN",""
"","S1","","html-keyboard-response","515","549298","0.0-1.0-704.0","0","0","41407","","null","","","null","78","","","","","","","","","","","","","","","",""
"","ISI","","html-keyboard-response","516","550300","0.0-1.0-705.0","0","0","41407","","null","","","null","78","NaN","","","","","","","","","","","","","","",""
"","S2","","html-keyboard-response","517","550553","0.0-1.0-706.0","0","0","41407","","null","","","null","78","","NaN","","","","","","","","","","","","","",""
"","response","","html-keyboard-response","518","551254","0.0-1.0-707.0-0.0","0","0","41407","","699","","","68","78","","","2","78","training","adjacent","FG","6","7","M.jpg","L.jpg","0","1","0","",""
"","feedback","","html-keyboard-response","519","552259","0.0-1.0-708.0-0.0","0","0","41407","","null","","","null","78","","","","","","","","","","","","","","","",""
"","time_out","","html-keyboard-response","520","554262","0.0-1.0-710.0-0.0","0","0","41407","","null","","","null","78","","","","","","","","","","","","","","","",""
"","ITI","","html-keyboard-response","521","555266","0.0-1.0-711.0","0","0","41407","","null","","","null","78","","","","","","","","","","","","","","","NaN",""
"","S1","","html-keyboard-response","522","555518","0.0-1.0-713.0","0","0","41407","","null","","","null","79","","","","","","","","","","","","","","","",""
"","ISI","","html-keyboard-response","523","556520","0.0-1.0-714.0","0","0","41407","","null","","","null","79","NaN","","","","","","","","","","","","","","",""
"","S2","","html-keyboard-response","524","556774","0.0-1.0-715.0","0","0","41407","","null","","","null","79","","NaN","","","","","","","","","","","","","",""
"","response","","html-keyboard-response","525","556920","0.0-1.0-716.0-0.0","0","0","41407","","142","","","75","79","","","2","79","training","adjacent","ED","5","4","O.jpg","P.jpg","1","0","0","",""
"","feedback","","html-keyboard-response","526","557923","0.0-1.0-717.0-0.0","0","0","41407","","null","","","null","79","","","","","","","","","","","","","","","",""
"","time_out","","html-keyboard-response","527","559927","0.0-1.0-719.0-0.0","0","0","41407","","null","","","null","79","","","","","","","","","","","","","","","",""
"","ITI","","html-keyboard-response","528","560930","0.0-1.0-720.0","0","0","41407","","null","","","null","79","","","","","","","","","","","","","","","NaN",""
"","S1","","html-keyboard-response","529","561190","0.0-1.0-722.0","0","0","41407","","null","","","null","80","","","","","","","","","","","","","","","",""
"","ISI","","html-keyboard-response","530","562204","0.0-1.0-723.0","0","0","41407","","null","","","null","80","NaN","","","","","","","","","","","","","","",""
"","S2","","html-keyboard-response","531","562456","0.0-1.0-724.0","0","0","41407","","null","","","null","80","","NaN","","","","","","","","","","","","","",""
"","response","","html-keyboard-response","532","562982","0.0-1.0-725.0-0.0","0","0","41407","","524","","","68","80","","","2","80","training","adjacent","BA","2","1","N.jpg","Q.jpg","0","0","1","",""
"","feedback","","html-keyboard-response","533","563986","0.0-1.0-726.0-0.0","0","0","41407","","null","","","null","80","","","","","","","","","","","","","","","",""
"","ITI","","html-keyboard-response","534","564988","0.0-1.0-729.0","0","0","41407","","null","","","null","80","","","","","","","","","","","","","","","NaN",""
"","S1","","html-keyboard-response","535","565242","0.0-1.0-731.0","0","0","41407","","null","","","null","81","","","","","","","","","","","","","","","",""
"","ISI","","html-keyboard-response","536","566246","0.0-1.0-732.0","0","0","41407","","null","","","null","81","NaN","","","","","","","","","","","","","","",""
"","S2","","html-keyboard-response","537","566499","0.0-1.0-733.0","0","0","41407","","null","","","null","81","","NaN","","","","","","","","","","","","","",""
"","response","","html-keyboard-response","538","567054","0.0-1.0-734.0-0.0","0","0","41407","","553","","","75","81","","","2","81","training","adjacent","FG","6","7","M.jpg","L.jpg","1","1","1","",""
"","feedback","","html-keyboard-response","539","568057","0.0-1.0-735.0-0.0","0","0","41407","","null","","","null","81","","","","","","","","","","","","","","","",""
"","ITI","","html-keyboard-response","540","569061","0.0-1.0-738.0","0","0","41407","","null","","","null","81","","","","","","","","","","","","","","","NaN",""
"","S1","","html-keyboard-response","541","569327","0.0-1.0-740.0","0","0","41407","","null","","","null","82","","","","","","","","","","","","","","","",""
"","ISI","","html-keyboard-response","542","570330","0.0-1.0-741.0","0","0","41407","","null","","","null","82","NaN","","","","","","","","","","","","","","",""
"","S2","","html-keyboard-response","543","570582","0.0-1.0-742.0","0","0","41407","","null","","","null","82","","NaN","","","","","","","","","","","","","",""
"","response","","html-keyboard-response","544","571150","0.0-1.0-743.0-0.0","0","0","41407","","566","","","68","82","","","2","82","training","adjacent","DE","4","5","P.jpg","O.jpg","0","1","0","",""
"","feedback","","html-keyboard-response","545","572154","0.0-1.0-744.0-0.0","0","0","41407","","null","","","null","82","","","","","","","","","","","","","","","",""
"","time_out","","html-keyboard-response","546","574158","0.0-1.0-746.0-0.0","0","0","41407","","null","","","null","82","","","","","","","","","","","","","","","",""
"","ITI","","html-keyboard-response","547","575160","0.0-1.0-747.0","0","0","41407","","null","","","null","82","","","","","","","","","","","","","","","NaN",""
"","S1","","html-keyboard-response","548","575413","0.0-1.0-749.0","0","0","41407","","null","","","null","83","","","","","","","","","","","","","","","",""
"","ISI","","html-keyboard-response","549","576416","0.0-1.0-750.0","0","0","41407","","479","","","75","83","k","","","","","","","","","","","","","","",""
"","S2","","html-keyboard-response","550","576669","0.0-1.0-751.0","0","0","41407","","null","","","null","83","","NaN","","","","","","","","","","","","","",""
"","response","","html-keyboard-response","551","576735","0.0-1.0-752.0-0.0","0","0","41407","","63","","","75","83","","","2","83","training","adjacent","ED","5","4","O.jpg","P.jpg","1","0","0","",""
"","feedback","","html-keyboard-response","552","577739","0.0-1.0-753.0-0.0","0","0","41407","","null","","","null","83","","","","","","","","","","","","","","","",""
"","time_out","","html-keyboard-response","553","579745","0.0-1.0-755.0-0.0","0","0","41407","","null","","","null","83","","","","","","","","","","","","","","","",""
"","ITI","","html-keyboard-response","554","580747","0.0-1.0-756.0","0","0","41407","","null","","","null","83","","","","","","","","","","","","","","","NaN",""
"","S1","","html-keyboard-response","555","580999","0.0-1.0-758.0","0","0","41407","","null","","","null","84","","","","","","","","","","","","","","","",""
"","ISI","","html-keyboard-response","556","582004","0.0-1.0-759.0","0","0","41407","","null","","","null","84","NaN","","","","","","","","","","","","","","",""
"","S2","","html-keyboard-response","557","582264","0.0-1.0-760.0","0","0","41407","","null","","","null","84","","NaN","","","","","","","","","","","","","",""
"","response","","html-keyboard-response","558","582678","0.0-1.0-761.0-0.0","0","0","41407","","411","","","75","84","","","2","84","training","adjacent","ED","5","4","O.jpg","P.jpg","1","0","0","",""
"","feedback","","html-keyboard-response","559","583682","0.0-1.0-762.0-0.0","0","0","41407","","null","","","null","84","","","","","","","","","","","","","","","",""
"","time_out","","html-keyboard-response","560","585685","0.0-1.0-764.0-0.0","0","0","41407","","null","","","null","84","","","","","","","","","","","","","","","",""
"","ITI","","html-keyboard-response","561","586687","0.0-1.0-765.0","0","0","41407","","null","","","null","84","","","","","","","","","","","","","","","NaN",""
"","S1","","html-keyboard-response","562","586940","0.0-1.0-767.0","0","0","41407","","null","","","null","85","","","","","","","","","","","","","","","",""
"","ISI","","html-keyboard-response","563","587943","0.0-1.0-768.0","0","0","41407","","null","","","null","85","NaN","","","","","","","","","","","","","","",""
"","S2","","html-keyboard-response","564","588197","0.0-1.0-769.0","0","0","41407","","null","","","null","85","","NaN","","","","","","","","","","","","","",""
"","response","","html-keyboard-response","565","588286","0.0-1.0-770.0-0.0","0","0","41407","","86","","","68","85","","","2","85","training","adjacent","CB","3","2","R.jpg","N.jpg","0","0","1","",""
"","feedback","","html-keyboard-response","566","589289","0.0-1.0-771.0-0.0","0","0","41407","","null","","","null","85","","","","","","","","","","","","","","","",""
"","ITI","","html-keyboard-response","567","590292","0.0-1.0-774.0","0","0","41407","","null","","","null","85","","","","","","","","","","","","","","","NaN",""
"","S1","","html-keyboard-response","568","590546","0.0-1.0-776.0","0","0","41407","","null","","","null","86","","","","","","","","","","","","","","","",""
"","ISI","","html-keyboard-response","569","591549","0.0-1.0-777.0","0","0","41407","","null","","","null","86","NaN","","","","","","","","","","","","","","",""
"","S2","","html-keyboard-response","570","591802","0.0-1.0-778.0","0","0","41407","","null","","","null","86","","NaN","","","","","","","","","","","","","",""
"","response","","html-keyboard-response","571","591934","0.0-1.0-779.0-0.0","0","0","41407","","129","","","75","86","","","2","86","training","adjacent","DE","4","5","P.jpg","O.jpg","1","1","1","",""
"","feedback","","html-keyboard-response","572","592937","0.0-1.0-780.0-0.0","0","0","41407","","null","","","null","86","","","","","","","","","","","","","","","",""
"","ITI","","html-keyboard-response","573","593939","0.0-1.0-783.0","0","0","41407","","null","","","null","86","","","","","","","","","","","","","","","NaN",""
"","S1","","html-keyboard-response","574","594192","0.0-1.0-785.0","0","0","41407","","null","","","null","87","","","","","","","","","","","","","","","",""
"","ISI","","html-keyboard-response","575","595196","0.0-1.0-786.0","0","0","41407","","null","","","null","87","NaN","","","","","","","","","","","","","","",""
"","S2","","html-keyboard-response","576","595448","0.0-1.0-787.0","0","0","41407","","null","","","null","87","","NaN","","","","","","","","","","","","","",""
"","response","","html-keyboard-response","577","595726","0.0-1.0-788.0-0.0","0","0","41407","","275","","","75","87","","","2","87","training","adjacent","BC","2","3","N.jpg","R.jpg","1","1","1","",""
"","feedback","","html-keyboard-response","578","596730","0.0-1.0-789.0-0.0","0","0","41407","","null","","","null","87","","","","","","","","","","","","","","","",""
"","ITI","","html-keyboard-response","579","597733","0.0-1.0-792.0","0","0","41407","","null","","","null","87","","","","","","","","","","","","","","","NaN",""
"","S1","","html-keyboard-response","580","597987","0.0-1.0-794.0","0","0","41407","","null","","","null","88","","","","","","","","","","","","","","","",""
"","ISI","","html-keyboard-response","581","598989","0.0-1.0-795.0","0","0","41407","","null","","","null","88","NaN","","","","","","","","","","","","","","",""
