"success","ttype","start_time","trial_type","trial_index","time_elapsed","internal_node_id","warning","missed_checkup","PID","view_history","rt","responses","repeat_instructions","key_press","index","keypress_isi","keypress_S2","block","trial_num","phase","group_type","pair_type","S1_stim","S2_stim","S1_img","S2_img","S1_chosen","S1_higher","accuracy","keypress_iti","total_bonus_tally"
"true","full_screen","d03082023hr1614","fullscreen","0","5155","0.0-0.0","0","0","50389","","","","","","","","","","","","","","","","","","","","","",""
"","instructions","","instructions","1","37417","0.0-1.0-0.0-0.0","0","0","50389","[{""page_index"":0,""viewing_time"":4362},{""page_index"":1,""viewing_time"":17951},{""page_index"":2,""viewing_time"":8052},{""page_index"":3,""viewing_time"":1893}]","32259","","","","","","","","","","","","","","","","","","","",""
"","comprehension_check","","survey-multi-choice","2","54497","0.0-1.0-0.0-1.0","0","0","50389","","17076","{""Q0"":""True"",""Q1"":""K"",""Q2"":""Once the second image appears and while the screen 'MAKE A CHOICE' is shown"",""Q3"":""Green mark"",""Q4"":""either D or K""}","0","","","","","","","","","","","","","","","","","",""
"","start_exp","","html-keyboard-response","3","56836","0.0-1.0-1.0","0","0","50389","","2333","","","32","","","","","","","","","","","","","","","","",""
"","S1","","html-keyboard-response","4","57093","0.0-1.0-2.0","0","0","50389","","null","","","null","0","","","","","","","","","","","","","","","",""
"","ISI","","html-keyboard-response","5","57247","0.0-1.0-3.0","0","0","50389","","null","","","null","0","NaN","","","","","","","","","","","","","","",""
"","S2","","html-keyboard-response","6","57501","0.0-1.0-4.0","0","0","50389","","null","","","null","0","","NaN","","","","","","","","","","","","","",""
"","response","","html-keyboard-response","7","57514","0.0-1.0-5.0-0.0","0","0","50389","","10","","","75","0","","","1","0","training","adjacent","BC","2","3","O.jpg","P.jpg","1","1","1","",""
"","feedback","","html-keyboard-response","8","58518","0.0-1.0-6.0-0.0","0","0","50389","","null","","","null","0","","","","","","","","","","","","","","","",""
"","ITI","","html-keyboard-response","9","59523","0.0-1.0-9.0","0","0","50389","","null","","","null","0","","","","","","","","","","","","","","","NaN",""
"","S1","","html-keyboard-response","10","59778","0.0-1.0-11.0","0","0","50389","","null","","","null","1","","","","","","","","","","","","","","","",""
"","ISI","","html-keyboard-response","11","59932","0.0-1.0-12.0","0","0","50389","","null","","","null","1","NaN","","","","","","","","","","","","","","",""
"","S2","","html-keyboard-response","12","60186","0.0-1.0-13.0","0","0","50389","","null","","","null","1","","NaN","","","","","","","","","","","","","",""
"","response","","html-keyboard-response","13","60562","0.0-1.0-14.0-0.0","0","0","50389","","371","","","68","1","","","1","1","training","adjacent","FG","6","7","N.jpg","Q.jpg","0","1","0","",""
"","feedback","","html-keyboard-response","14","61567","0.0-1.0-15.0-0.0","0","0","50389","","null","","","null","1","","","","","","","","","","","","","","","",""
"","time_out","","html-keyboard-response","15","63571","0.0-1.0-17.0-0.0","0","0","50389","","null","","","null","1","","","","","","","","","","","","","","","",""
"","ITI","","html-keyboard-response","16","64575","0.0-1.0-18.0","0","0","50389","","null","","","null","1","","","","","","","","","","","","","","","NaN",""
"","S1","","html-keyboard-response","17","64828","0.0-1.0-20.0","0","0","50389","","null","","","null","2","","","","","","","","","","","","","","","",""
"","ISI","","html-keyboard-response","18","64983","0.0-1.0-21.0","0","0","50389","","null","","","null","2","NaN","","","","","","","","","","","","","","",""
"","S2","","html-keyboard-response","19","65238","0.0-1.0-22.0","0","0","50389","","null","","","null","2","","NaN","","","","","","","","","","","","","",""
"","response","","html-keyboard-response","20","65594","0.0-1.0-23.0-0.0","0","0","50389","","351","","","75","2","","","1","2","training","adjacent","FG","6","7","N.jpg","Q.jpg","1","1","1","",""
"","feedback","","html-keyboard-response","21","66599","0.0-1.0-24.0-0.0","0","0","50389","","null","","","null","2","","","","","","","","","","","","","","","",""
"","ITI","","html-keyboard-response","22","67602","0.0-1.0-27.0","0","0","50389","","null","","","null","2","","","","","","","","","","","","","","","NaN",""
"","S1","","html-keyboard-response","23","67859","0.0-1.0-29.0","0","0","50389","","null","","","null","3","","","","","","","","","","","","","","","",""
"","ISI","","html-keyboard-response","24","68012","0.0-1.0-30.0","0","0","50389","","null","","","null","3","NaN","","","","","","","","","","","","","","",""
"","S2","","html-keyboard-response","25","68266","0.0-1.0-31.0","0","0","50389","","null","","","null","3","","NaN","","","","","","","","","","","","","",""
"","response","","html-keyboard-response","26","68601","0.0-1.0-32.0-0.0","0","0","50389","","330","","","75","3","","","1","3","training","adjacent","BA","2","1","O.jpg","R.jpg","1","0","0","",""
"","feedback","","html-keyboard-response","27","69606","0.0-1.0-33.0-0.0","0","0","50389","","null","","","null","3","","","","","","","","","","","","","","","",""
"","time_out","","html-keyboard-response","28","71611","0.0-1.0-35.0-0.0","0","0","50389","","null","","","null","3","","","","","","","","","","","","","","","",""
"","ITI","","html-keyboard-response","29","72616","0.0-1.0-36.0","0","0","50389","","null","","","null","3","","","","","","","","","","","","","","","NaN",""
"","S1","","html-keyboard-response","30","72870","0.0-1.0-38.0","0","0","50389","","null","","","null","4","","","","","","","","","","","","","","","",""
"","ISI","","html-keyboard-response","31","73024","0.0-1.0-39.0","0","0","50389","","null","","","null","4","NaN","","","","","","","","","","","","","","",""
"","S2","","html-keyboard-response","32","73279","0.0-1.0-40.0","0","0","50389","","null","","","null","4","","NaN","","","","","","","","","","","","","",""
"","response","","html-keyboard-response","33","73423","0.0-1.0-41.0-0.0","0","0","50389","","140","","","68","4","","","1","4","training","adjacent","CB","3","2","P.jpg","O.jpg","0","0","1","",""
"","feedback","","html-keyboard-response","34","74427","0.0-1.0-42.0-0.0","0","0","50389","","null","","","null","4","","","","","","","","","","","","","","","",""
"","ITI","","html-keyboard-response","35","75432","0.0-1.0-45.0","0","0","50389","","null","","","null","4","","","","","","","","","","","","","","","NaN",""
"","S1","","html-keyboard-response","36","75685","0.0-1.0-47.0","0","0","50389","","null","","","null","5","","","","","","","","","","","","","","","",""
"","ISI","","html-keyboard-response","37","75840","0.0-1.0-48.0","0","0","50389","","null","","","null","5","NaN","","","","","","","","","","","","","","",""
"","S2","","html-keyboard-response","38","76097","0.0-1.0-49.0","0","0","50389","","null","","","null","5","","NaN","","","","","","","","","","","","","",""
"","response","","html-keyboard-response","39","76394","0.0-1.0-50.0-0.0","0","0","50389","","292","","","75","5","","","1","5","training","adjacent","ED","5","4","L.jpg","M.jpg","1","0","0","",""
"","feedback","","html-keyboard-response","40","77399","0.0-1.0-51.0-0.0","0","0","50389","","null","","","null","5","","","","","","","","","","","","","","","",""
"","time_out","","html-keyboard-response","41","79402","0.0-1.0-53.0-0.0","0","0","50389","","null","","","null","5","","","","","","","","","","","","","","","",""
"","ITI","","html-keyboard-response","42","80407","0.0-1.0-54.0","0","0","50389","","null","","","null","5","","","","","","","","","","","","","","","NaN",""
"","S1","","html-keyboard-response","43","80661","0.0-1.0-56.0","0","0","50389","","null","","","null","6","","","","","","","","","","","","","","","",""
"","ISI","","html-keyboard-response","44","80814","0.0-1.0-57.0","0","0","50389","","null","","","null","6","NaN","","","","","","","","","","","","","","",""
"","S2","","html-keyboard-response","45","81071","0.0-1.0-58.0","0","0","50389","","null","","","null","6","","NaN","","","","","","","","","","","","","",""
"","response","","html-keyboard-response","46","81179","0.0-1.0-59.0-0.0","0","0","50389","","104","","","68","6","","","1","6","training","adjacent","DE","4","5","M.jpg","L.jpg","0","1","0","",""
"","feedback","","html-keyboard-response","47","82183","0.0-1.0-60.0-0.0","0","0","50389","","null","","","null","6","","","","","","","","","","","","","","","",""
"","time_out","","html-keyboard-response","48","84188","0.0-1.0-62.0-0.0","0","0","50389","","null","","","null","6","","","","","","","","","","","","","","","",""
"","ITI","","html-keyboard-response","49","85192","0.0-1.0-63.0","0","0","50389","","null","","","null","6","","","","","","","","","","","","","","","NaN",""
"","S1","","html-keyboard-response","50","85447","0.0-1.0-65.0","0","0","50389","","null","","","null","7","","","","","","","","","","","","","","","",""
"","ISI","","html-keyboard-response","51","85601","0.0-1.0-66.0","0","0","50389","","null","","","null","7","NaN","","","","","","","","","","","","","","",""
"","S2","","html-keyboard-response","52","85857","0.0-1.0-67.0","0","0","50389","","null","","","null","7","","NaN","","","","","","","","","","","","","",""
"","response","","html-keyboard-response","53","85966","0.0-1.0-68.0-0.0","0","0","50389","","106","","","75","7","","","1","7","training","adjacent","CD","3","4","P.jpg","M.jpg","1","1","1","",""
"","feedback","","html-keyboard-response","54","86969","0.0-1.0-69.0-0.0","0","0","50389","","null","","","null","7","","","","","","","","","","","","","","","",""
"","ITI","","html-keyboard-response","55","87971","0.0-1.0-72.0","0","0","50389","","null","","","null","7","","","","","","","","","","","","","","","NaN",""
"","S1","","html-keyboard-response","56","88225","0.0-1.0-74.0","0","0","50389","","null","","","null","8","","","","","","","","","","","","","","","",""
"","ISI","","html-keyboard-response","57","88378","0.0-1.0-75.0","0","0","50389","","null","","","null","8","NaN","","","","","","","","","","","","","","",""
"","S2","","html-keyboard-response","58","88634","0.0-1.0-76.0","0","0","50389","","null","","","null","8","","NaN","","","","","","","","","","","","","",""
"","response","","html-keyboard-response","59","88913","0.0-1.0-77.0-0.0","0","0","50389","","276","","","75","8","","","1","8","training","adjacent","FE","6","5","N.jpg","L.jpg","1","0","0","",""
"","feedback","","html-keyboard-response","60","89917","0.0-1.0-78.0-0.0","0","0","50389","","null","","","null","8","","","","","","","","","","","","","","","",""
"","time_out","","html-keyboard-response","61","91920","0.0-1.0-80.0-0.0","0","0","50389","","null","","","null","8","","","","","","","","","","","","","","","",""
"","ITI","","html-keyboard-response","62","92925","0.0-1.0-81.0","0","0","50389","","null","","","null","8","","","","","","","","","","","","","","","NaN",""
"","S1","","html-keyboard-response","63","93178","0.0-1.0-83.0","0","0","50389","","null","","","null","9","","","","","","","","","","","","","","","",""
"","ISI","","html-keyboard-response","64","93332","0.0-1.0-84.0","0","0","50389","","null","","","null","9","NaN","","","","","","","","","","","","","","",""
"","S2","","html-keyboard-response","65","93587","0.0-1.0-85.0","0","0","50389","","null","","","null","9","","NaN","","","","","","","","","","","","","",""
"","response","","html-keyboard-response","66","94123","0.0-1.0-86.0-0.0","0","0","50389","","533","","","68","9","","","1","9","training","adjacent","CD","3","4","P.jpg","M.jpg","0","1","0","",""
"","feedback","","html-keyboard-response","67","95127","0.0-1.0-87.0-0.0","0","0","50389","","null","","","null","9","","","","","","","","","","","","","","","",""
"","time_out","","html-keyboard-response","68","97130","0.0-1.0-89.0-0.0","0","0","50389","","null","","","null","9","","","","","","","","","","","","","","","",""
"","ITI","","html-keyboard-response","69","98134","0.0-1.0-90.0","0","0","50389","","null","","","null","9","","","","","","","","","","","","","","","NaN",""
"","S1","","html-keyboard-response","70","98388","0.0-1.0-92.0","0","0","50389","","null","","","null","10","","","","","","","","","","","","","","","",""
"","ISI","","html-keyboard-response","71","98541","0.0-1.0-93.0","0","0","50389","","null","","","null","10","NaN","","","","","","","","","","","","","","",""
"","S2","","html-keyboard-response","72","98797","0.0-1.0-94.0","0","0","50389","","null","","","null","10","","NaN","","","","","","","","","","","","","",""
"","response","","html-keyboard-response","73","98849","0.0-1.0-95.0-0.0","0","0","50389","","49","","","75","10","","","1","10","training","adjacent","GF","7","6","Q.jpg","N.jpg","1","0","0","",""
"","feedback","","html-keyboard-response","74","99854","0.0-1.0-96.0-0.0","0","0","50389","","null","","","null","10","","","","","","","","","","","","","","","",""
"","time_out","","html-keyboard-response","75","101860","0.0-1.0-98.0-0.0","0","0","50389","","null","","","null","10","","","","","","","","","","","","","","","",""
"","ITI","","html-keyboard-response","76","102863","0.0-1.0-99.0","0","0","50389","","null","","","null","10","","","","","","","","","","","","","","","NaN",""
"","S1","","html-keyboard-response","77","103118","0.0-1.0-101.0","0","0","50389","","null","","","null","11","","","","","","","","","","","","","","","",""
"","ISI","","html-keyboard-response","78","103272","0.0-1.0-102.0","0","0","50389","","null","","","null","11","NaN","","","","","","","","","","","","","","",""
"","S2","","html-keyboard-response","79","103527","0.0-1.0-103.0","0","0","50389","","null","","","null","11","","NaN","","","","","","","","","","","","","",""
"","response","","html-keyboard-response","80","103578","0.0-1.0-104.0-0.0","0","0","50389","","47","","","68","11","","","1","11","training","adjacent","EF","5","6","L.jpg","N.jpg","0","1","0","",""
"","feedback","","html-keyboard-response","81","104583","0.0-1.0-105.0-0.0","0","0","50389","","null","","","null","11","","","","","","","","","","","","","","","",""
"","time_out","","html-keyboard-response","82","106587","0.0-1.0-107.0-0.0","0","0","50389","","null","","","null","11","","","","","","","","","","","","","","","",""
"","ITI","","html-keyboard-response","83","107591","0.0-1.0-108.0","0","0","50389","","null","","","null","11","","","","","","","","","","","","","","","NaN",""
"","S1","","html-keyboard-response","84","107844","0.0-1.0-110.0","0","0","50389","","null","","","null","12","","","","","","","","","","","","","","","",""
"","ISI","","html-keyboard-response","85","107997","0.0-1.0-111.0","0","0","50389","","null","","","null","12","NaN","","","","","","","","","","","","","","",""
"","S2","","html-keyboard-response","86","108252","0.0-1.0-112.0","0","0","50389","","null","","","null","12","","NaN","","","","","","","","","","","","","",""
"","response","","html-keyboard-response","87","108495","0.0-1.0-113.0-0.0","0","0","50389","","240","","","75","12","","","1","12","training","adjacent","BC","2","3","O.jpg","P.jpg","1","1","1","",""
"","feedback","","html-keyboard-response","88","109500","0.0-1.0-114.0-0.0","0","0","50389","","null","","","null","12","","","","","","","","","","","","","","","",""
"","ITI","","html-keyboard-response","89","110503","0.0-1.0-117.0","0","0","50389","","null","","","null","12","","","","","","","","","","","","","","","NaN",""
"","S1","","html-keyboard-response","90","110758","0.0-1.0-119.0","0","0","50389","","null","","","null","13","","","","","","","","","","","","","","","",""
"","ISI","","html-keyboard-response","91","110912","0.0-1.0-120.0","0","0","50389","","null","","","null","13","NaN","","","","","","","","","","","","","","",""
"","S2","","html-keyboard-response","92","111168","0.0-1.0-121.0","0","0","50389","","null","","","null","13","","NaN","","","","","","","","","","","","","",""
"","response","","html-keyboard-response","93","111451","0.0-1.0-122.0-0.0","0","0","50389","","279","","","75","13","","","1","13","training","adjacent","GF","7","6","Q.jpg","N.jpg","1","0","0","",""
"","feedback","","html-keyboard-response","94","112456","0.0-1.0-123.0-0.0","0","0","50389","","null","","","null","13","","","","","","","","","","","","","","","",""
"","time_out","","html-keyboard-response","95","114458","0.0-1.0-125.0-0.0","0","0","50389","","null","","","null","13","","","","","","","","","","","","","","","",""
"","ITI","","html-keyboard-response","96","115462","0.0-1.0-126.0","0","0","50389","","null","","","null","13","","","","","","","","","","","","","","","NaN",""
"","S1","","html-keyboard-response","97","115717","0.0-1.0-128.0","0","0","50389","","null","","","null","14","","","","","","","","","","","","","","","",""
"","ISI","","html-keyboard-response","98","115871","0.0-1.0-129.0","0","0","50389","","null","","","null","14","NaN","","","","","","","","","","","","","","",""
"","S2","","html-keyboard-response","99","116127","0.0-1.0-130.0","0","0","50389","","null","","","null","14","","NaN","","","","","","","","","","","","","",""
"","response","","html-keyboard-response","100","116175","0.0-1.0-131.0-0.0","0","0","50389","","43","","","68","14","","","1","14","training","adjacent","BC","2","3","O.jpg","P.jpg","0","1","0","",""
"","feedback","","html-keyboard-response","101","117181","0.0-1.0-132.0-0.0","0","0","50389","","null","","","null","14","","","","","","","","","","","","","","","",""
"","time_out","","html-keyboard-response","102","119184","0.0-1.0-134.0-0.0","0","0","50389","","null","","","null","14","","","","","","","","","","","","","","","",""
"","ITI","","html-keyboard-response","103","120188","0.0-1.0-135.0","0","0","50389","","null","","","null","14","","","","","","","","","","","","","","","NaN",""
"","S1","","html-keyboard-response","104","120441","0.0-1.0-137.0","0","0","50389","","null","","","null","15","","","","","","","","","","","","","","","",""
"","ISI","","html-keyboard-response","105","120594","0.0-1.0-138.0","0","0","50389","","null","","","null","15","NaN","","","","","","","","","","","","","","",""
"","S2","","html-keyboard-response","106","120848","0.0-1.0-139.0","0","0","50389","","null","","","null","15","","NaN","","","","","","","","","","","","","",""
"","response","","html-keyboard-response","107","121154","0.0-1.0-140.0-0.0","0","0","50389","","302","","","75","15","","","1","15","training","adjacent","ED","5","4","L.jpg","M.jpg","1","0","0","",""
"","feedback","","html-keyboard-response","108","122160","0.0-1.0-141.0-0.0","0","0","50389","","null","","","null","15","","","","","","","","","","","","","","","",""
"","time_out","","html-keyboard-response","109","124165","0.0-1.0-143.0-0.0","0","0","50389","","null","","","null","15","","","","","","","","","","","","","","","",""
"","ITI","","html-keyboard-response","110","125169","0.0-1.0-144.0","0","0","50389","","null","","","null","15","","","","","","","","","","","","","","","NaN",""
"","S1","","html-keyboard-response","111","125425","0.0-1.0-146.0","0","0","50389","","null","","","null","16","","","","","","","","","","","","","","","",""
"","ISI","","html-keyboard-response","112","125578","0.0-1.0-147.0","0","0","50389","","null","","","null","16","NaN","","","","","","","","","","","","","","",""
"","S2","","html-keyboard-response","113","125832","0.0-1.0-148.0","0","0","50389","","null","","","null","16","","NaN","","","","","","","","","","","","","",""
"","response","","html-keyboard-response","114","126025","0.0-1.0-149.0-0.0","0","0","50389","","191","","","68","16","","","1","16","training","adjacent","CB","3","2","P.jpg","O.jpg","0","0","1","",""
"","feedback","","html-keyboard-response","115","127027","0.0-1.0-150.0-0.0","0","0","50389","","null","","","null","16","","","","","","","","","","","","","","","",""
"","ITI","","html-keyboard-response","116","128032","0.0-1.0-153.0","0","0","50389","","null","","","null","16","","","","","","","","","","","","","","","NaN",""
"","S1","","html-keyboard-response","117","128285","0.0-1.0-155.0","0","0","50389","","null","","","null","17","","","","","","","","","","","","","","","",""
"","ISI","","html-keyboard-response","118","128439","0.0-1.0-156.0","0","0","50389","","null","","","null","17","NaN","","","","","","","","","","","","","","",""
"","S2","","html-keyboard-response","119","128695","0.0-1.0-157.0","0","0","50389","","null","","","null","17","","NaN","","","","","","","","","","","","","",""
"","response","","html-keyboard-response","120","128789","0.0-1.0-158.0-0.0","0","0","50389","","87","","","68","17","","","1","17","training","adjacent","FG","6","7","N.jpg","Q.jpg","0","1","0","",""
"","feedback","","html-keyboard-response","121","129798","0.0-1.0-159.0-0.0","0","0","50389","","null","","","null","17","","","","","","","","","","","","","","","",""
"","time_out","","html-keyboard-response","122","131801","0.0-1.0-161.0-0.0","0","0","50389","","null","","","null","17","","","","","","","","","","","","","","","",""
"","ITI","","html-keyboard-response","123","132805","0.0-1.0-162.0","0","0","50389","","null","","","null","17","","","","","","","","","","","","","","","NaN",""
"","S1","","html-keyboard-response","124","133059","0.0-1.0-164.0","0","0","50389","","null","","","null","18","","","","","","","","","","","","","","","",""
"","ISI","","html-keyboard-response","125","133213","0.0-1.0-165.0","0","0","50389","","null","","","null","18","NaN","","","","","","","","","","","","","","",""
"","S2","","html-keyboard-response","126","133469","0.0-1.0-166.0","0","0","50389","","null","","","null","18","","NaN","","","","","","","","","","","","","",""
"","response","","html-keyboard-response","127","133712","0.0-1.0-167.0-0.0","0","0","50389","","238","","","75","18","","","1","18","training","adjacent","GF","7","6","Q.jpg","N.jpg","1","0","0","",""
"","feedback","","html-keyboard-response","128","134717","0.0-1.0-168.0-0.0","0","0","50389","","null","","","null","18","","","","","","","","","","","","","","","",""
"","time_out","","html-keyboard-response","129","136722","0.0-1.0-170.0-0.0","0","0","50389","","null","","","null","18","","","","","","","","","","","","","","","",""
"","ITI","","html-keyboard-response","130","137725","0.0-1.0-171.0","0","0","50389","","null","","","null","18","","","","","","","","","","","","","","","NaN",""
"","S1","","html-keyboard-response","131","137979","0.0-1.0-173.0","0","0","50389","","null","","","null","19","","","","","","","","","","","","","","","",""
"","ISI","","html-keyboard-response","132","138132","0.0-1.0-174.0","0","0","50389","","null","","","null","19","NaN","","","","","","","","","","","","","","",""
"","S2","","html-keyboard-response","133","138386","0.0-1.0-175.0","0","0","50389","","null","","","null","19","","NaN","","","","","","","","","","","","","",""
"","response","","html-keyboard-response","134","138601","0.0-1.0-176.0-0.0","0","0","50389","","211","","","68","19","","","1","19","training","adjacent","CB","3","2","P.jpg","O.jpg","0","0","1","",""
"","feedback","","html-keyboard-response","135","139606","0.0-1.0-177.0-0.0","0","0","50389","","null","","","null","19","","","","","","","","","","","","","","","",""
"","ITI","","html-keyboard-response","136","140610","0.0-1.0-180.0","0","0","50389","","null","","","null","19","","","","","","","","","","","","","","","NaN",""
"","S1","","html-keyboard-response","137","140864","0.0-1.0-182.0","0","0","50389","","null","","","null","20","","","","","","","","","","","","","","","",""
"","ISI","","html-keyboard-response","138","141018","0.0-1.0-183.0","0","0","50389","","null","","","null","20","NaN","","","","","","","","","","","","","","",""
"","S2","","html-keyboard-response","139","141272","0.0-1.0-184.0","0","0","50389","","null","","","null","20","","NaN","","","","","","","","","","","","","",""
"","response","","html-keyboard-response","140","141548","0.0-1.0-185.0-0.0","0","0","50389","","271","","","68","20","","","1","20","training","adjacent","AB","1","2","R.jpg","O.jpg","0","1","0","",""
"","feedback","","html-keyboard-response","141","142553","0.0-1.0-186.0-0.0","0","0","50389","","null","","","null","20","","","","","","","","","","","","","","","",""
"","time_out","","html-keyboard-response","142","144558","0.0-1.0-188.0-0.0","0","0","50389","","null","","","null","20","","","","","","","","","","","","","","","",""
"","ITI","","html-keyboard-response","143","145562","0.0-1.0-189.0","0","0","50389","","null","","","null","20","","","","","","","","","","","","","","","NaN",""
"","S1","","html-keyboard-response","144","145816","0.0-1.0-191.0","0","0","50389","","null","","","null","21","","","","","","","","","","","","","","","",""
"","ISI","","html-keyboard-response","145","145972","0.0-1.0-192.0","0","0","50389","","null","","","null","21","NaN","","","","","","","","","","","","","","",""
"","S2","","html-keyboard-response","146","146228","0.0-1.0-193.0","0","0","50389","","null","","","null","21","","NaN","","","","","","","","","","","","","",""
"","response","","html-keyboard-response","147","146317","0.0-1.0-194.0-0.0","0","0","50389","","85","","","68","21","","","1","21","training","adjacent","AB","1","2","R.jpg","O.jpg","0","1","0","",""
"","feedback","","html-keyboard-response","148","147322","0.0-1.0-195.0-0.0","0","0","50389","","null","","","null","21","","","","","","","","","","","","","","","",""
"","time_out","","html-keyboard-response","149","149326","0.0-1.0-197.0-0.0","0","0","50389","","null","","","null","21","","","","","","","","","","","","","","","",""
"","ITI","","html-keyboard-response","150","150330","0.0-1.0-198.0","0","0","50389","","null","","","null","21","","","","","","","","","","","","","","","NaN",""
"","S1","","html-keyboard-response","151","150584","0.0-1.0-200.0","0","0","50389","","null","","","null","22","","","","","","","","","","","","","","","",""
"","ISI","","html-keyboard-response","152","150738","0.0-1.0-201.0","0","0","50389","","null","","","null","22","NaN","","","","","","","","","","","","","","",""
"","S2","","html-keyboard-response","153","150993","0.0-1.0-202.0","0","0","50389","","null","","","null","22","","NaN","","","","","","","","","","","","","",""
"","response","","html-keyboard-response","154","151046","0.0-1.0-203.0-0.0","0","0","50389","","50","","","68","22","","","1","22","training","adjacent","BA","2","1","O.jpg","R.jpg","0","0","1","",""
"","feedback","","html-keyboard-response","155","152048","0.0-1.0-204.0-0.0","0","0","50389","","null","","","null","22","","","","","","","","","","","","","","","",""
"","ITI","","html-keyboard-response","156","153051","0.0-1.0-207.0","0","0","50389","","null","","","null","22","","","","","","","","","","","","","","","NaN",""
"","S1","","html-keyboard-response","157","153305","0.0-1.0-209.0","0","0","50389","","null","","","null","23","","","","","","","","","","","","","","","",""
"","ISI","","html-keyboard-response","158","153459","0.0-1.0-210.0","0","0","50389","","null","","","null","23","NaN","","","","","","","","","","","","","","",""
"","S2","","html-keyboard-response","159","153714","0.0-1.0-211.0","0","0","50389","","null","","","null","23","","NaN","","","","","","","","","","","","","",""
"","response","","html-keyboard-response","160","153949","0.0-1.0-212.0-0.0","0","0","50389","","231","","","75","23","","","1","23","training","adjacent","BA","2","1","O.jpg","R.jpg","1","0","0","",""
"","feedback","","html-keyboard-response","161","154954","0.0-1.0-213.0-0.0","0","0","50389","","null","","","null","23","","","","","","","","","","","","","","","",""
"","time_out","","html-keyboard-response","162","156961","0.0-1.0-215.0-0.0","0","0","50389","","null","","","null","23","","","","","","","","","","","","","","","",""
"","ITI","","html-keyboard-response","163","157967","0.0-1.0-216.0","0","0","50389","","null","","","null","23","","","","","","","","","","","","","","","NaN",""
"","S1","","html-keyboard-response","164","158220","0.0-1.0-218.0","0","0","50389","","null","","","null","24","","","","","","","","","","","","","","","",""
"","ISI","","html-keyboard-response","165","158374","0.0-1.0-219.0","0","0","50389","","null","","","null","24","NaN","","","","","","","","","","","","","","",""
"","S2","","html-keyboard-response","166","158630","0.0-1.0-220.0","0","0","50389","","null","","","null","24","","NaN","","","","","","","","","","","","","",""
"","response","","html-keyboard-response","167","158707","0.0-1.0-221.0-0.0","0","0","50389","","72","","","68","24","","","1","24","training","adjacent","DE","4","5","M.jpg","L.jpg","0","1","0","",""
"","feedback","","html-keyboard-response","168","159713","0.0-1.0-222.0-0.0","0","0","50389","","null","","","null","24","","","","","","","","","","","","","","","",""
"","time_out","","html-keyboard-response","169","161717","0.0-1.0-224.0-0.0","0","0","50389","","null","","","null","24","","","","","","","","","","","","","","","",""
"","ITI","","html-keyboard-response","170","162722","0.0-1.0-225.0","0","0","50389","","null","","","null","24","","","","","","","","","","","","","","","NaN",""
"","S1","","html-keyboard-response","171","162977","0.0-1.0-227.0","0","0","50389","","null","","","null","25","","","","","","","","","","","","","","","",""
"","ISI","","html-keyboard-response","172","163131","0.0-1.0-228.0","0","0","50389","","null","","","null","25","NaN","","","","","","","","","","","","","","",""
"","S2","","html-keyboard-response","173","163386","0.0-1.0-229.0","0","0","50389","","null","","","null","25","","NaN","","","","","","","","","","","","","",""
"","response","","html-keyboard-response","174","163670","0.0-1.0-230.0-0.0","0","0","50389","","281","","","75","25","","","1","25","training","adjacent","ED","5","4","L.jpg","M.jpg","1","0","0","",""
"","feedback","","html-keyboard-response","175","164676","0.0-1.0-231.0-0.0","0","0","50389","","null","","","null","25","","","","","","","","","","","","","","","",""
"","time_out","","html-keyboard-response","176","166679","0.0-1.0-233.0-0.0","0","0","50389","","null","","","null","25","","","","","","","","","","","","","","","",""
"","ITI","","html-keyboard-response","177","167683","0.0-1.0-234.0","0","0","50389","","null","","","null","25","","","","","","","","","","","","","","","NaN",""
"","S1","","html-keyboard-response","178","167937","0.0-1.0-236.0","0","0","50389","","null","","","null","26","","","","","","","","","","","","","","","",""
"","ISI","","html-keyboard-response","179","168090","0.0-1.0-237.0","0","0","50389","","null","","","null","26","NaN","","","","","","","","","","","","","","",""
"","S2","","html-keyboard-response","180","168344","0.0-1.0-238.0","0","0","50389","","null","","","null","26","","NaN","","","","","","","","","","","","","",""
"","response","","html-keyboard-response","181","168472","0.0-1.0-239.0-0.0","0","0","50389","","125","","","68","26","","","1","26","training","adjacent","DC","4","3","M.jpg","P.jpg","0","0","1","",""
"","feedback","","html-keyboard-response","182","169478","0.0-1.0-240.0-0.0","0","0","50389","","null","","","null","26","","","","","","","","","","","","","","","",""
"","ITI","","html-keyboard-response","183","170483","0.0-1.0-243.0","0","0","50389","","null","","","null","26","","","","","","","","","","","","","","","NaN",""
"","S1","","html-keyboard-response","184","170738","0.0-1.0-245.0","0","0","50389","","null","","","null","27","","","","","","","","","","","","","","","",""
"","ISI","","html-keyboard-response","185","170891","0.0-1.0-246.0","0","0","50389","","null","","","null","27","NaN","","","","","","","","","","","","","","",""
"","S2","","html-keyboard-response","186","171146","0.0-1.0-247.0","0","0","50389","","null","","","null","27","","NaN","","","","","","","","","","","","","",""
"","response","","html-keyboard-response","187","171647","0.0-1.0-248.0-0.0","0","0","50389","","497","","","68","27","","","1","27","training","adjacent","DC","4","3","M.jpg","P.jpg","0","0","1","",""
"","feedback","","html-keyboard-response","188","172652","0.0-1.0-249.0-0.0","0","0","50389","","null","","","null","27","","","","","","","","","","","","","","","",""
"","ITI","","html-keyboard-response","189","173662","0.0-1.0-252.0","0","0","50389","","null","","","null","27","","","","","","","","","","","","","","","NaN",""
"","S1","","html-keyboard-response","190","173917","0.0-1.0-254.0","0","0","50389","","null","","","null","28","","","","","","","","","","","","","","","",""
"","ISI","","html-keyboard-response","191","174070","0.0-1.0-255.0","0","0","50389","","null","","","null","28","NaN","","","","","","","","","","","","","","",""
"","S2","","html-keyboard-response","192","174325","0.0-1.0-256.0","0","0","50389","","null","","","null","28","","NaN","","","","","","","","","","","","","",""
"","response","","html-keyboard-response","193","174710","0.0-1.0-257.0-0.0","0","0","50389","","382","","","68","28","","","1","28","training","adjacent","EF","5","6","L.jpg","N.jpg","0","1","0","",""
"","feedback","","html-keyboard-response","194","175717","0.0-1.0-258.0-0.0","0","0","50389","","null","","","null","28","","","","","","","","","","","","","","","",""
"","time_out","","html-keyboard-response","195","177721","0.0-1.0-260.0-0.0","0","0","50389","","null","","","null","28","","","","","","","","","","","","","","","",""
"","ITI","","html-keyboard-response","196","178725","0.0-1.0-261.0","0","0","50389","","null","","","null","28","","","","","","","","","","","","","","","NaN",""
"","S1","","html-keyboard-response","197","178982","0.0-1.0-263.0","0","0","50389","","null","","","null","29","","","","","","","","","","","","","","","",""
"","ISI","","html-keyboard-response","198","179149","0.0-1.0-264.0","0","0","50389","","null","","","null","29","NaN","","","","","","","","","","","","","","",""
"","S2","","html-keyboard-response","199","179405","0.0-1.0-265.0","0","0","50389","","null","","","null","29","","NaN","","","","","","","","","","","","","",""
"","response","","html-keyboard-response","200","179619","0.0-1.0-266.0-0.0","0","0","50389","","210","","","75","29","","","1","29","training","adjacent","ED","5","4","L.jpg","M.jpg","1","0","0","",""
"","feedback","","html-keyboard-response","201","180623","0.0-1.0-267.0-0.0","0","0","50389","","null","","","null","29","","","","","","","","","","","","","","","",""
"","time_out","","html-keyboard-response","202","182627","0.0-1.0-269.0-0.0","0","0","50389","","null","","","null","29","","","","","","","","","","","","","","","",""
"","ITI","","html-keyboard-response","203","183631","0.0-1.0-270.0","0","0","50389","","null","","","null","29","","","","","","","","","","","","","","","NaN",""
"","S1","","html-keyboard-response","204","183893","0.0-1.0-272.0","0","0","50389","","null","","","null","30","","","","","","","","","","","","","","","",""
"","ISI","","html-keyboard-response","205","184047","0.0-1.0-273.0","0","0","50389","","null","","","null","30","NaN","","","","","","","","","","","","","","",""
"","S2","","html-keyboard-response","206","184302","0.0-1.0-274.0","0","0","50389","","null","","","null","30","","NaN","","","","","","","","","","","","","",""
"","response","","html-keyboard-response","207","184390","0.0-1.0-275.0-0.0","0","0","50389","","85","","","68","30","","","1","30","training","adjacent","AB","1","2","R.jpg","O.jpg","0","1","0","",""
"","feedback","","html-keyboard-response","208","185395","0.0-1.0-276.0-0.0","0","0","50389","","null","","","null","30","","","","","","","","","","","","","","","",""
"","time_out","","html-keyboard-response","209","187399","0.0-1.0-278.0-0.0","0","0","50389","","null","","","null","30","","","","","","","","","","","","","","","",""
"","ITI","","html-keyboard-response","210","188404","0.0-1.0-279.0","0","0","50389","","59","","","75","30","","","","","","","","","","","","","","","k",""
"","S1","","html-keyboard-response","211","188658","0.0-1.0-281.0","0","0","50389","","null","","","null","31","","","","","","","","","","","","","","","",""
"","ISI","","html-keyboard-response","212","188811","0.0-1.0-282.0","0","0","50389","","null","","","null","31","NaN","","","","","","","","","","","","","","",""
"","S2","","html-keyboard-response","213","189066","0.0-1.0-283.0","0","0","50389","","null","","","null","31","","NaN","","","","","","","","","","","","","",""
"","response","","html-keyboard-response","214","189286","0.0-1.0-284.0-0.0","0","0","50389","","218","","","75","31","","","1","31","training","adjacent","BC","2","3","O.jpg","P.jpg","1","1","1","",""
"","feedback","","html-keyboard-response","215","190292","0.0-1.0-285.0-0.0","0","0","50389","","null","","","null","31","","","","","","","","","","","","","","","",""
"","ITI","","html-keyboard-response","216","191295","0.0-1.0-288.0","0","0","50389","","null","","","null","31","","","","","","","","","","","","","","","NaN",""
"","S1","","html-keyboard-response","217","191550","0.0-1.0-290.0","0","0","50389","","null","","","null","32","","","","","","","","","","","","","","","",""
"","ISI","","html-keyboard-response","218","191702","0.0-1.0-291.0","0","0","50389","","null","","","null","32","NaN","","","","","","","","","","","","","","",""
"","S2","","html-keyboard-response","219","191955","0.0-1.0-292.0","0","0","50389","","null","","","null","32","","NaN","","","","","","","","","","","","","",""
"","response","","html-keyboard-response","220","192075","0.0-1.0-293.0-0.0","0","0","50389","","118","","","68","32","","","1","32","training","adjacent","DE","4","5","M.jpg","L.jpg","0","1","0","",""
"","feedback","","html-keyboard-response","221","193079","0.0-1.0-294.0-0.0","0","0","50389","","null","","","null","32","","","","","","","","","","","","","","","",""
"","time_out","","html-keyboard-response","222","195082","0.0-1.0-296.0-0.0","0","0","50389","","null","","","null","32","","","","","","","","","","","","","","","",""
"","ITI","","html-keyboard-response","223","196085","0.0-1.0-297.0","0","0","50389","","null","","","null","32","","","","","","","","","","","","","","","NaN",""
"","S1","","html-keyboard-response","224","196338","0.0-1.0-299.0","0","0","50389","","null","","","null","33","","","","","","","","","","","","","","","",""
"","ISI","","html-keyboard-response","225","196492","0.0-1.0-300.0","0","0","50389","","null","","","null","33","NaN","","","","","","","","","","","","","","",""
"","S2","","html-keyboard-response","226","196748","0.0-1.0-301.0","0","0","50389","","null","","","null","33","","NaN","","","","","","","","","","","","","",""
"","response","","html-keyboard-response","227","197009","0.0-1.0-302.0-0.0","0","0","50389","","256","","","68","33","","","1","33","training","adjacent","DC","4","3","M.jpg","P.jpg","0","0","1","",""
"","feedback","","html-keyboard-response","228","198017","0.0-1.0-303.0-0.0","0","0","50389","","null","","","null","33","","","","","","","","","","","","","","","",""
"","ITI","","html-keyboard-response","229","199021","0.0-1.0-306.0","0","0","50389","","null","","","null","33","","","","","","","","","","","","","","","NaN",""
"","S1","","html-keyboard-response","230","199275","0.0-1.0-308.0","0","0","50389","","null","","","null","34","","","","","","","","","","","","","","","",""
"","ISI","","html-keyboard-response","231","199429","0.0-1.0-309.0","0","0","50389","","null","","","null","34","NaN","","","","","","","","","","","","","","",""
"","S2","","html-keyboard-response","232","199684","0.0-1.0-310.0","0","0","50389","","null","","","null","34","","NaN","","","","","","","","","","","","","",""
"","response","","html-keyboard-response","233","201088","0.0-1.0-311.0-0.0","0","0","50389","","1400","","","75","34","","","1","34","training","adjacent","GF","7","6","Q.jpg","N.jpg","1","0","0","",""
"","feedback","","html-keyboard-response","234","202091","0.0-1.0-312.0-0.0","0","0","50389","","null","","","null","34","","","","","","","","","","","","","","","",""
"","time_out","","html-keyboard-response","235","204093","0.0-1.0-314.0-0.0","0","0","50389","","null","","","null","34","","","","","","","","","","","","","","","",""
"","ITI","","html-keyboard-response","236","205096","0.0-1.0-315.0","0","0","50389","","null","","","null","34","","","","","","","","","","","","","","","NaN",""
"","S1","","html-keyboard-response","237","205350","0.0-1.0-317.0","0","0","50389","","null","","","null","35","","","","","","","","","","","","","","","",""
"","ISI","","html-keyboard-response","238","205504","0.0-1.0-318.0","0","0","50389","","null","","","null","35","NaN","","","","","","","","","","","","","","",""
"","S2","","html-keyboard-response","239","205759","0.0-1.0-319.0","0","0","50389","","null","","","null","35","","NaN","","","","","","","","","","","","","",""
"","response","","html-keyboard-response","240","206094","0.0-1.0-320.0-0.0","0","0","50389","","333","","","68","35","","","1","35","training","adjacent","EF","5","6","L.jpg","N.jpg","0","1","0","",""
"","feedback","","html-keyboard-response","241","207097","0.0-1.0-321.0-0.0","0","0","50389","","null","","","null","35","","","","","","","","","","","","","","","",""
"","time_out","","html-keyboard-response","242","209098","0.0-1.0-323.0-0.0","0","0","50389","","null","","","null","35","","","","","","","","","","","","","","","",""
"","ITI","","html-keyboard-response","243","210101","0.0-1.0-324.0","0","0","50389","","null","","","null","35","","","","","","","","","","","","","","","NaN",""
"","S1","","html-keyboard-response","244","210355","0.0-1.0-326.0","0","0","50389","","null","","","null","36","","","","","","","","","","","","","","","",""
"","ISI","","html-keyboard-response","245","210508","0.0-1.0-327.0","0","0","50389","","null","","","null","36","NaN","","","","","","","","","","","","","","",""
"","S2","","html-keyboard-response","246","210764","0.0-1.0-328.0","0","0","50389","","null","","","null","36","","NaN","","","","","","","","","","","","","",""
"","response","","html-keyboard-response","247","211037","0.0-1.0-329.0-0.0","0","0","50389","","270","","","75","36","","","1","36","training","adjacent","DE","4","5","M.jpg","L.jpg","1","1","1","",""
"","feedback","","html-keyboard-response","248","212041","0.0-1.0-330.0-0.0","0","0","50389","","null","","","null","36","","","","","","","","","","","","","","","",""
"","ITI","","html-keyboard-response","249","213043","0.0-1.0-333.0","0","0","50389","","null","","","null","36","","","","","","","","","","","","","","","NaN",""
"","S1","","html-keyboard-response","250","213298","0.0-1.0-335.0","0","0","50389","","null","","","null","37","","","","","","","","","","","","","","","",""
"","ISI","","html-keyboard-response","251","213452","0.0-1.0-336.0","0","0","50389","","null","","","null","37","NaN","","","","","","","","","","","","","","",""
"","S2","","html-keyboard-response","252","213710","0.0-1.0-337.0","0","0","50389","","null","","","null","37","","NaN","","","","","","","","","","","","","",""
"","response","","html-keyboard-response","253","215034","0.0-1.0-338.0-0.0","0","0","50389","","1321","","","68","37","","","1","37","training","adjacent","AB","1","2","R.jpg","O.jpg","0","1","0","",""
"","feedback","","html-keyboard-response","254","216043","0.0-1.0-339.0-0.0","0","0","50389","","null","","","null","37","","","","","","","","","","","","","","","",""
"","time_out","","html-keyboard-response","255","218047","0.0-1.0-341.0-0.0","0","0","50389","","null","","","null","37","","","","","","","","","","","","","","","",""
"","ITI","","html-keyboard-response","256","219050","0.0-1.0-342.0","0","0","50389","","null","","","null","37","","","","","","","","","","","","","","","NaN",""
"","S1","","html-keyboard-response","257","219303","0.0-1.0-344.0","0","0","50389","","null","","","null","38","","","","","","","","","","","","","","","",""
"","ISI","","html-keyboard-response","258","219457","0.0-1.0-345.0","0","0","50389","","null","","","null","38","NaN","","","","","","","","","","","","","","",""
"","S2","","html-keyboard-response","259","219712","0.0-1.0-346.0","0","0","50389","","null","","","null","38","","NaN","","","","","","","","","","","","","",""
"","response","","html-keyboard-response","260","219769","0.0-1.0-347.0-0.0","0","0","50389","","52","","","75","38","","","1","38","training","adjacent","EF","5","6","L.jpg","N.jpg","1","1","1","",""
"","feedback","","html-keyboard-response","261","220774","0.0-1.0-348.0-0.0","0","0","50389","","null","","","null","38","","","","","","","","","","","","","","","",""
"","ITI","","html-keyboard-response","262","221779","0.0-1.0-351.0","0","0","50389","","null","","","null","38","","","","","","","","","","","","","","","NaN",""
"","S1","","html-keyboard-response","263","222034","0.0-1.0-353.0","0","0","50389","","null","","","null","39","","","","","","","","","","","","","","","",""
"","ISI","","html-keyboard-response","264","222187","0.0-1.0-354.0","0","0","50389","","null","","","null","39","NaN","","","","","","","","","","","","","","",""
"","S2","","html-keyboard-response","265","222441","0.0-1.0-355.0","0","0","50389","","null","","","null","39","","NaN","","","","","","","","","","","","","",""
"","response","","html-keyboard-response","266","223268","0.0-1.0-356.0-0.0","0","0","50389","","824","","","75","39","","","1","39","training","adjacent","DC","4","3","M.jpg","P.jpg","1","0","0","",""
"","feedback","","html-keyboard-response","267","224272","0.0-1.0-357.0-0.0","0","0","50389","","null","","","null","39","","","","","","","","","","","","","","","",""
"","time_out","","html-keyboard-response","268","226276","0.0-1.0-359.0-0.0","0","0","50389","","null","","","null","39","","","","","","","","","","","","","","","",""
"","ITI","","html-keyboard-response","269","227281","0.0-1.0-360.0","0","0","50389","","null","","","null","39","","","","","","","","","","","","","","","NaN",""
"","S1","","html-keyboard-response","270","227535","0.0-1.0-362.0","0","0","50389","","null","","","null","40","","","","","","","","","","","","","","","",""
"","ISI","","html-keyboard-response","271","227687","0.0-1.0-363.0","0","0","50389","","null","","","null","40","NaN","","","","","","","","","","","","","","",""
"","S2","","html-keyboard-response","272","227942","0.0-1.0-364.0","0","0","50389","","null","","","null","40","","NaN","","","","","","","","","","","","","",""
"","response","","html-keyboard-response","273","228462","0.0-1.0-365.0-0.0","0","0","50389","","515","","","68","40","","","1","40","training","adjacent","CD","3","4","P.jpg","M.jpg","0","1","0","",""
"","feedback","","html-keyboard-response","274","229467","0.0-1.0-366.0-0.0","0","0","50389","","null","","","null","40","","","","","","","","","","","","","","","",""
"","time_out","","html-keyboard-response","275","231471","0.0-1.0-368.0-0.0","0","0","50389","","null","","","null","40","","","","","","","","","","","","","","","",""
"","ITI","","html-keyboard-response","276","232475","0.0-1.0-369.0","0","0","50389","","null","","","null","40","","","","","","","","","","","","","","","NaN",""
"","S1","","html-keyboard-response","277","232729","0.0-1.0-371.0","0","0","50389","","null","","","null","41","","","","","","","","","","","","","","","",""
"","ISI","","html-keyboard-response","278","232883","0.0-1.0-372.0","0","0","50389","","101","","","75","41","k","","","","","","","","","","","","","","",""
"","S2","","html-keyboard-response","279","233138","0.0-1.0-373.0","0","0","50389","","null","","","null","41","","NaN","","","","","","","","","","","","","",""
"","response","","html-keyboard-response","280","233541","0.0-1.0-374.0-0.0","0","0","50389","","401","","","75","41","","","1","41","training","adjacent","BA","2","1","O.jpg","R.jpg","1","0","0","",""
"","feedback","","html-keyboard-response","281","234546","0.0-1.0-375.0-0.0","0","0","50389","","null","","","null","41","","","","","","","","","","","","","","","",""
"","time_out","","html-keyboard-response","282","236549","0.0-1.0-377.0-0.0","0","0","50389","","null","","","null","41","","","","","","","","","","","","","","","",""
"","ITI","","html-keyboard-response","283","237551","0.0-1.0-378.0","0","0","50389","","null","","","null","41","","","","","","","","","","","","","","","NaN",""
"","S1","","html-keyboard-response","284","237804","0.0-1.0-380.0","0","0","50389","","null","","","null","42","","","","","","","","","","","","","","","",""
"","ISI","","html-keyboard-response","285","237958","0.0-1.0-381.0","0","0","50389","","null","","","null","42","NaN","","","","","","","","","","","","","","",""
"","S2","","html-keyboard-response","286","238213","0.0-1.0-382.0","0","0","50389","","null","","","null","42","","NaN","","","","","","","","","","","","","",""
"","response","","html-keyboard-response","287","238522","0.0-1.0-383.0-0.0","0","0","50389","","304","","","68","42","","","1","42","training","adjacent","FE","6","5","N.jpg","L.jpg","0","0","1","",""
"","feedback","","html-keyboard-response","288","239528","0.0-1.0-384.0-0.0","0","0","50389","","null","","","null","42","","","","","","","","","","","","","","","",""
"","ITI","","html-keyboard-response","289","240532","0.0-1.0-387.0","0","0","50389","","null","","","null","42","","","","","","","","","","","","","","","NaN",""
"","S1","","html-keyboard-response","290","240787","0.0-1.0-389.0","0","0","50389","","null","","","null","43","","","","","","","","","","","","","","","",""
"","ISI","","html-keyboard-response","291","240940","0.0-1.0-390.0","0","0","50389","","null","","","null","43","NaN","","","","","","","","","","","","","","",""
"","S2","","html-keyboard-response","292","241193","0.0-1.0-391.0","0","0","50389","","null","","","null","43","","NaN","","","","","","","","","","","","","",""
"","response","","html-keyboard-response","293","241788","0.0-1.0-392.0-0.0","0","0","50389","","590","","","68","43","","","1","43","training","adjacent","CD","3","4","P.jpg","M.jpg","0","1","0","",""
"","feedback","","html-keyboard-response","294","242794","0.0-1.0-393.0-0.0","0","0","50389","","null","","","null","43","","","","","","","","","","","","","","","",""
"","time_out","","html-keyboard-response","295","244798","0.0-1.0-395.0-0.0","0","0","50389","","null","","","null","43","","","","","","","","","","","","","","","",""
"","ITI","","html-keyboard-response","296","245803","0.0-1.0-396.0","0","0","50389","","null","","","null","43","","","","","","","","","","","","","","","NaN",""
"","S1","","html-keyboard-response","297","246056","0.0-1.0-398.0","0","0","50389","","null","","","null","44","","","","","","","","","","","","","","","",""
"","ISI","","html-keyboard-response","298","246211","0.0-1.0-399.0","0","0","50389","","null","","","null","44","NaN","","","","","","","","","","","","","","",""
"","S2","","html-keyboard-response","299","246468","0.0-1.0-400.0","0","0","50389","","null","","","null","44","","NaN","","","","","","","","","","","","","",""
"","response","","html-keyboard-response","300","246916","0.0-1.0-401.0-0.0","0","0","50389","","444","","","75","44","","","1","44","training","adjacent","FE","6","5","N.jpg","L.jpg","1","0","0","",""
"","feedback","","html-keyboard-response","301","247922","0.0-1.0-402.0-0.0","0","0","50389","","null","","","null","44","","","","","","","","","","","","","","","",""
"","time_out","","html-keyboard-response","302","249925","0.0-1.0-404.0-0.0","0","0","50389","","null","","","null","44","","","","","","","","","","","","","","","",""
"","ITI","","html-keyboard-response","303","250928","0.0-1.0-405.0","0","0","50389","","null","","","null","44","","","","","","","","","","","","","","","NaN",""
"","S1","","html-keyboard-response","304","251183","0.0-1.0-407.0","0","0","50389","","null","","","null","45","","","","","","","","","","","","","","","",""
"","ISI","","html-keyboard-response","305","251338","0.0-1.0-408.0","0","0","50389","","null","","","null","45","NaN","","","","","","","","","","","","","","",""
"","S2","","html-keyboard-response","306","251593","0.0-1.0-409.0","0","0","50389","","null","","","null","45","","NaN","","","","","","","","","","","","","",""
"","response","","html-keyboard-response","307","252282","0.0-1.0-410.0-0.0","0","0","50389","","685","","","68","45","","","1","45","training","adjacent","CB","3","2","P.jpg","O.jpg","0","0","1","",""
"","feedback","","html-keyboard-response","308","253287","0.0-1.0-411.0-0.0","0","0","50389","","null","","","null","45","","","","","","","","","","","","","","","",""
"","ITI","","html-keyboard-response","309","254291","0.0-1.0-414.0","0","0","50389","","null","","","null","45","","","","","","","","","","","","","","","NaN",""
"","S1","","html-keyboard-response","310","254545","0.0-1.0-416.0","0","0","50389","","null","","","null","46","","","","","","","","","","","","","","","",""
"","ISI","","html-keyboard-response","311","254699","0.0-1.0-417.0","0","0","50389","","null","","","null","46","NaN","","","","","","","","","","","","","","",""
"","S2","","html-keyboard-response","312","254955","0.0-1.0-418.0","0","0","50389","","null","","","null","46","","NaN","","","","","","","","","","","","","",""
"","response","","html-keyboard-response","313","255690","0.0-1.0-419.0-0.0","0","0","50389","","731","","","75","46","","","1","46","training","adjacent","FG","6","7","N.jpg","Q.jpg","1","1","1","",""
"","feedback","","html-keyboard-response","314","256696","0.0-1.0-420.0-0.0","0","0","50389","","null","","","null","46","","","","","","","","","","","","","","","",""
"","ITI","","html-keyboard-response","315","257701","0.0-1.0-423.0","0","0","50389","","null","","","null","46","","","","","","","","","","","","","","","NaN",""
"","S1","","html-keyboard-response","316","257956","0.0-1.0-425.0","0","0","50389","","null","","","null","47","","","","","","","","","","","","","","","",""
"","ISI","","html-keyboard-response","317","258111","0.0-1.0-426.0","0","0","50389","","null","","","null","47","NaN","","","","","","","","","","","","","","",""
"","S2","","html-keyboard-response","318","258366","0.0-1.0-427.0","0","0","50389","","null","","","null","47","","NaN","","","","","","","","","","","","","",""
"","response","","html-keyboard-response","319","258876","0.0-1.0-428.0-0.0","0","0","50389","","508","","","75","47","","","1","47","training","adjacent","FE","6","5","N.jpg","L.jpg","1","0","0","",""
"","feedback","","html-keyboard-response","320","259881","0.0-1.0-429.0-0.0","0","0","50389","","null","","","null","47","","","","","","","","","","","","","","","",""
"","time_out","","html-keyboard-response","321","261885","0.0-1.0-431.0-0.0","0","0","50389","","null","","","null","47","","","","","","","","","","","","","","","",""
"","ITI","","html-keyboard-response","322","262888","0.0-1.0-432.0","0","0","50389","","null","","","null","47","","","","","","","","","","","","","","","NaN",""
"","block_over","","html-keyboard-response","323","291208","0.0-1.0-433.0-0.0","0","0","50389","","28316","","","32","47","","","","","","","","","","","","","","","",""
"","S1","","html-keyboard-response","324","291462","0.0-1.0-434.0","0","0","50389","","null","","","null","48","","","","","","","","","","","","","","","",""
"","ISI","","html-keyboard-response","325","291616","0.0-1.0-435.0","0","0","50389","","null","","","null","48","NaN","","","","","","","","","","","","","","",""
"","S2","","html-keyboard-response","326","291872","0.0-1.0-436.0","0","0","50389","","null","","","null","48","","NaN","","","","","","","","","","","","","",""
"","response","","html-keyboard-response","327","292319","0.0-1.0-437.0-0.0","0","0","50389","","444","","","68","48","","","2","48","training","adjacent","CD","3","4","P.jpg","M.jpg","0","1","0","",""
"","feedback","","html-keyboard-response","328","293323","0.0-1.0-438.0-0.0","0","0","50389","","null","","","null","48","","","","","","","","","","","","","","","",""
"","time_out","","html-keyboard-response","329","295328","0.0-1.0-440.0-0.0","0","0","50389","","null","","","null","48","","","","","","","","","","","","","","","",""
"","ITI","","html-keyboard-response","330","296334","0.0-1.0-441.0","0","0","50389","","null","","","null","48","","","","","","","","","","","","","","","NaN",""
"","S1","","html-keyboard-response","331","296589","0.0-1.0-443.0","0","0","50389","","null","","","null","49","","","","","","","","","","","","","","","",""
"","ISI","","html-keyboard-response","332","296742","0.0-1.0-444.0","0","0","50389","","null","","","null","49","NaN","","","","","","","","","","","","","","",""
"","S2","","html-keyboard-response","333","296998","0.0-1.0-445.0","0","0","50389","","null","","","null","49","","NaN","","","","","","","","","","","","","",""
"","response","","html-keyboard-response","334","297321","0.0-1.0-446.0-0.0","0","0","50389","","320","","","75","49","","","2","49","training","adjacent","FE","6","5","N.jpg","L.jpg","1","0","0","",""
"","feedback","","html-keyboard-response","335","298326","0.0-1.0-447.0-0.0","0","0","50389","","null","","","null","49","","","","","","","","","","","","","","","",""
"","time_out","","html-keyboard-response","336","300331","0.0-1.0-449.0-0.0","0","0","50389","","null","","","null","49","","","","","","","","","","","","","","","",""
"","ITI","","html-keyboard-response","337","301334","0.0-1.0-450.0","0","0","50389","","null","","","null","49","","","","","","","","","","","","","","","NaN",""
"","S1","","html-keyboard-response","338","301588","0.0-1.0-452.0","0","0","50389","","null","","","null","50","","","","","","","","","","","","","","","",""
"","ISI","","html-keyboard-response","339","301742","0.0-1.0-453.0","0","0","50389","","null","","","null","50","NaN","","","","","","","","","","","","","","",""
"","S2","","html-keyboard-response","340","301999","0.0-1.0-454.0","0","0","50389","","null","","","null","50","","NaN","","","","","","","","","","","","","",""
"","response","","html-keyboard-response","341","302392","0.0-1.0-455.0-0.0","0","0","50389","","390","","","68","50","","","2","50","training","adjacent","BC","2","3","O.jpg","P.jpg","0","1","0","",""
"","feedback","","html-keyboard-response","342","303398","0.0-1.0-456.0-0.0","0","0","50389","","null","","","null","50","","","","","","","","","","","","","","","",""
"","time_out","","html-keyboard-response","343","305402","0.0-1.0-458.0-0.0","0","0","50389","","null","","","null","50","","","","","","","","","","","","","","","",""
"","ITI","","html-keyboard-response","344","306408","0.0-1.0-459.0","0","0","50389","","null","","","null","50","","","","","","","","","","","","","","","NaN",""
"","S1","","html-keyboard-response","345","306662","0.0-1.0-461.0","0","0","50389","","null","","","null","51","","","","","","","","","","","","","","","",""
"","ISI","","html-keyboard-response","346","306818","0.0-1.0-462.0","0","0","50389","","null","","","null","51","NaN","","","","","","","","","","","","","","",""
"","S2","","html-keyboard-response","347","307074","0.0-1.0-463.0","0","0","50389","","null","","","null","51","","NaN","","","","","","","","","","","","","",""
"","response","","html-keyboard-response","348","307202","0.0-1.0-464.0-0.0","0","0","50389","","122","","","75","51","","","2","51","training","adjacent","FG","6","7","N.jpg","Q.jpg","1","1","1","",""
"","feedback","","html-keyboard-response","349","308205","0.0-1.0-465.0-0.0","0","0","50389","","null","","","null","51","","","","","","","","","","","","","","","",""
"","ITI","","html-keyboard-response","350","309208","0.0-1.0-468.0","0","0","50389","","null","","","null","51","","","","","","","","","","","","","","","NaN",""
"","S1","","html-keyboard-response","351","309461","0.0-1.0-470.0","0","0","50389","","null","","","null","52","","","","","","","","","","","","","","","",""
"","ISI","","html-keyboard-response","352","309614","0.0-1.0-471.0","0","0","50389","","null","","","null","52","NaN","","","","","","","","","","","","","","",""
"","S2","","html-keyboard-response","353","309869","0.0-1.0-472.0","0","0","50389","","null","","","null","52","","NaN","","","","","","","","","","","","","",""
"","response","","html-keyboard-response","354","310261","0.0-1.0-473.0-0.0","0","0","50389","","386","","","75","52","","","2","52","training","adjacent","BA","2","1","O.jpg","R.jpg","1","0","0","",""
"","feedback","","html-keyboard-response","355","311266","0.0-1.0-474.0-0.0","0","0","50389","","null","","","null","52","","","","","","","","","","","","","","","",""
"","time_out","","html-keyboard-response","356","313270","0.0-1.0-476.0-0.0","0","0","50389","","null","","","null","52","","","","","","","","","","","","","","","",""
"","ITI","","html-keyboard-response","357","314274","0.0-1.0-477.0","0","0","50389","","null","","","null","52","","","","","","","","","","","","","","","NaN",""
"","S1","","html-keyboard-response","358","314528","0.0-1.0-479.0","0","0","50389","","null","","","null","53","","","","","","","","","","","","","","","",""
"","ISI","","html-keyboard-response","359","314684","0.0-1.0-480.0","0","0","50389","","null","","","null","53","NaN","","","","","","","","","","","","","","",""
"","S2","","html-keyboard-response","360","314940","0.0-1.0-481.0","0","0","50389","","null","","","null","53","","NaN","","","","","","","","","","","","","",""
"","response","","html-keyboard-response","361","315221","0.0-1.0-482.0-0.0","0","0","50389","","278","","","68","53","","","2","53","training","adjacent","BC","2","3","O.jpg","P.jpg","0","1","0","",""
"","feedback","","html-keyboard-response","362","316223","0.0-1.0-483.0-0.0","0","0","50389","","null","","","null","53","","","","","","","","","","","","","","","",""
"","time_out","","html-keyboard-response","363","318226","0.0-1.0-485.0-0.0","0","0","50389","","null","","","null","53","","","","","","","","","","","","","","","",""
"","ITI","","html-keyboard-response","364","319229","0.0-1.0-486.0","0","0","50389","","null","","","null","53","","","","","","","","","","","","","","","NaN",""
"","S1","","html-keyboard-response","365","319482","0.0-1.0-488.0","0","0","50389","","null","","","null","54","","","","","","","","","","","","","","","",""
"","ISI","","html-keyboard-response","366","319637","0.0-1.0-489.0","0","0","50389","","null","","","null","54","NaN","","","","","","","","","","","","","","",""
"","S2","","html-keyboard-response","367","319892","0.0-1.0-490.0","0","0","50389","","null","","","null","54","","NaN","","","","","","","","","","","","","",""
"","response","","html-keyboard-response","368","320252","0.0-1.0-491.0-0.0","0","0","50389","","355","","","75","54","","","2","54","training","adjacent","CB","3","2","P.jpg","O.jpg","1","0","0","",""
"","feedback","","html-keyboard-response","369","321257","0.0-1.0-492.0-0.0","0","0","50389","","null","","","null","54","","","","","","","","","","","","","","","",""
"","time_out","","html-keyboard-response","370","323259","0.0-1.0-494.0-0.0","0","0","50389","","null","","","null","54","","","","","","","","","","","","","","","",""
"","ITI","","html-keyboard-response","371","324262","0.0-1.0-495.0","0","0","50389","","111","","","75","54","","","","","","","","","","","","","","","k",""
"","S1","","html-keyboard-response","372","324517","0.0-1.0-497.0","0","0","50389","","null","","","null","55","","","","","","","","","","","","","","","",""
"","ISI","","html-keyboard-response","373","324671","0.0-1.0-498.0","0","0","50389","","null","","","null","55","NaN","","","","","","","","","","","","","","",""
"","S2","","html-keyboard-response","374","324683","0.0-1.0-499.0","0","0","50389","","8","","","75","55","","k","2","55","training","adjacent","DE","4","5","M.jpg","L.jpg","1","1","1","",""
"","feedback","","html-keyboard-response","375","325687","0.0-1.0-501.0-0.0","0","0","50389","","null","","","null","55","","","","","","","","","","","","","","","",""
"","ITI","","html-keyboard-response","376","326691","0.0-1.0-504.0","0","0","50389","","null","","","null","55","","","","","","","","","","","","","","","NaN",""
"","S1","","html-keyboard-response","377","326945","0.0-1.0-506.0","0","0","50389","","null","","","null","56","","","","","","","","","","","","","","","",""
"","ISI","","html-keyboard-response","378","327100","0.0-1.0-507.0","0","0","50389","","null","","","null","56","NaN","","","","","","","","","","","","","","",""
"","S2","","html-keyboard-response","379","327356","0.0-1.0-508.0","0","0","50389","","null","","","null","56","","NaN","","","","","","","","","","","","","",""
"","response","","html-keyboard-response","380","328947","0.0-1.0-509.0-0.0","0","0","50389","","1588","","","68","56","","","2","56","training","adjacent","GF","7","6","Q.jpg","N.jpg","0","0","1","",""
"","feedback","","html-keyboard-response","381","329953","0.0-1.0-510.0-0.0","0","0","50389","","null","","","null","56","","","","","","","","","","","","","","","",""
"","ITI","","html-keyboard-response","382","330958","0.0-1.0-513.0","0","0","50389","","null","","","null","56","","","","","","","","","","","","","","","NaN",""
"","S1","","html-keyboard-response","383","331211","0.0-1.0-515.0","0","0","50389","","null","","","null","57","","","","","","","","","","","","","","","",""
"","ISI","","html-keyboard-response","384","331364","0.0-1.0-516.0","0","0","50389","","null","","","null","57","NaN","","","","","","","","","","","","","","",""
"","S2","","html-keyboard-response","385","331619","0.0-1.0-517.0","0","0","50389","","null","","","null","57","","NaN","","","","","","","","","","","","","",""
"","response","","html-keyboard-response","386","332057","0.0-1.0-518.0-0.0","0","0","50389","","434","","","68","57","","","2","57","training","adjacent","FG","6","7","N.jpg","Q.jpg","0","1","0","",""
"","feedback","","html-keyboard-response","387","333062","0.0-1.0-519.0-0.0","0","0","50389","","null","","","null","57","","","","","","","","","","","","","","","",""
"","time_out","","html-keyboard-response","388","335067","0.0-1.0-521.0-0.0","0","0","50389","","null","","","null","57","","","","","","","","","","","","","","","",""
"","ITI","","html-keyboard-response","389","336072","0.0-1.0-522.0","0","0","50389","","null","","","null","57","","","","","","","","","","","","","","","NaN",""
"","S1","","html-keyboard-response","390","336324","0.0-1.0-524.0","0","0","50389","","null","","","null","58","","","","","","","","","","","","","","","",""
"","ISI","","html-keyboard-response","391","336478","0.0-1.0-525.0","0","0","50389","","null","","","null","58","NaN","","","","","","","","","","","","","","",""
"","S2","","html-keyboard-response","392","336733","0.0-1.0-526.0","0","0","50389","","null","","","null","58","","NaN","","","","","","","","","","","","","",""
"","response","","html-keyboard-response","393","337097","0.0-1.0-527.0-0.0","0","0","50389","","360","","","75","58","","","2","58","training","adjacent","ED","5","4","L.jpg","M.jpg","1","0","0","",""
"","feedback","","html-keyboard-response","394","338103","0.0-1.0-528.0-0.0","0","0","50389","","null","","","null","58","","","","","","","","","","","","","","","",""
"","time_out","","html-keyboard-response","395","340108","0.0-1.0-530.0-0.0","0","0","50389","","null","","","null","58","","","","","","","","","","","","","","","",""
"","ITI","","html-keyboard-response","396","341113","0.0-1.0-531.0","0","0","50389","","null","","","null","58","","","","","","","","","","","","","","","NaN",""
"","S1","","html-keyboard-response","397","341368","0.0-1.0-533.0","0","0","50389","","null","","","null","59","","","","","","","","","","","","","","","",""
"","ISI","","html-keyboard-response","398","341522","0.0-1.0-534.0","0","0","50389","","null","","","null","59","NaN","","","","","","","","","","","","","","",""
"","S2","","html-keyboard-response","399","341779","0.0-1.0-535.0","0","0","50389","","null","","","null","59","","NaN","","","","","","","","","","","","","",""
"","response","","html-keyboard-response","400","342210","0.0-1.0-536.0-0.0","0","0","50389","","428","","","68","59","","","2","59","training","adjacent","DC","4","3","M.jpg","P.jpg","0","0","1","",""
"","feedback","","html-keyboard-response","401","343214","0.0-1.0-537.0-0.0","0","0","50389","","null","","","null","59","","","","","","","","","","","","","","","",""
"","ITI","","html-keyboard-response","402","344217","0.0-1.0-540.0","0","0","50389","","null","","","null","59","","","","","","","","","","","","","","","NaN",""
"","S1","","html-keyboard-response","403","344470","0.0-1.0-542.0","0","0","50389","","null","","","null","60","","","","","","","","","","","","","","","",""
"","ISI","","html-keyboard-response","404","344625","0.0-1.0-543.0","0","0","50389","","null","","","null","60","NaN","","","","","","","","","","","","","","",""
"","S2","","html-keyboard-response","405","344881","0.0-1.0-544.0","0","0","50389","","null","","","null","60","","NaN","","","","","","","","","","","","","",""
"","response","","html-keyboard-response","406","345422","0.0-1.0-545.0-0.0","0","0","50389","","536","","","75","60","","","2","60","training","adjacent","BA","2","1","O.jpg","R.jpg","1","0","0","",""
"","feedback","","html-keyboard-response","407","346428","0.0-1.0-546.0-0.0","0","0","50389","","null","","","null","60","","","","","","","","","","","","","","","",""
"","time_out","","html-keyboard-response","408","348433","0.0-1.0-548.0-0.0","0","0","50389","","null","","","null","60","","","","","","","","","","","","","","","",""
"","ITI","","html-keyboard-response","409","349436","0.0-1.0-549.0","0","0","50389","","null","","","null","60","","","","","","","","","","","","","","","NaN",""
"","S1","","html-keyboard-response","410","349690","0.0-1.0-551.0","0","0","50389","","null","","","null","61","","","","","","","","","","","","","","","",""
"","ISI","","html-keyboard-response","411","349843","0.0-1.0-552.0","0","0","50389","","null","","","null","61","NaN","","","","","","","","","","","","","","",""
"","S2","","html-keyboard-response","412","350099","0.0-1.0-553.0","0","0","50389","","null","","","null","61","","NaN","","","","","","","","","","","","","",""
"","response","","html-keyboard-response","413","350417","0.0-1.0-554.0-0.0","0","0","50389","","313","","","68","61","","","2","61","training","adjacent","BA","2","1","O.jpg","R.jpg","0","0","1","",""
"","feedback","","html-keyboard-response","414","351423","0.0-1.0-555.0-0.0","0","0","50389","","null","","","null","61","","","","","","","","","","","","","","","",""
"","ITI","","html-keyboard-response","415","352427","0.0-1.0-558.0","0","0","50389","","null","","","null","61","","","","","","","","","","","","","","","NaN",""
"","S1","","html-keyboard-response","416","352682","0.0-1.0-560.0","0","0","50389","","null","","","null","62","","","","","","","","","","","","","","","",""
"","ISI","","html-keyboard-response","417","352836","0.0-1.0-561.0","0","0","50389","","null","","","null","62","NaN","","","","","","","","","","","","","","",""
"","S2","","html-keyboard-response","418","353092","0.0-1.0-562.0","0","0","50389","","null","","","null","62","","NaN","","","","","","","","","","","","","",""
"","response","","html-keyboard-response","419","353561","0.0-1.0-563.0-0.0","0","0","50389","","465","","","68","62","","","2","62","training","adjacent","FG","6","7","N.jpg","Q.jpg","0","1","0","",""
"","feedback","","html-keyboard-response","420","354567","0.0-1.0-564.0-0.0","0","0","50389","","null","","","null","62","","","","","","","","","","","","","","","",""
"","time_out","","html-keyboard-response","421","356571","0.0-1.0-566.0-0.0","0","0","50389","","null","","","null","62","","","","","","","","","","","","","","","",""
"","ITI","","html-keyboard-response","422","357576","0.0-1.0-567.0","0","0","50389","","null","","","null","62","","","","","","","","","","","","","","","NaN",""
"","S1","","html-keyboard-response","423","357828","0.0-1.0-569.0","0","0","50389","","null","","","null","63","","","","","","","","","","","","","","","",""
"","ISI","","html-keyboard-response","424","357981","0.0-1.0-570.0","0","0","50389","","null","","","null","63","NaN","","","","","","","","","","","","","","",""
"","S2","","html-keyboard-response","425","358233","0.0-1.0-571.0","0","0","50389","","null","","","null","63","","NaN","","","","","","","","","","","","","",""
"","response","","html-keyboard-response","426","358532","0.0-1.0-572.0-0.0","0","0","50389","","296","","","75","63","","","2","63","training","adjacent","CB","3","2","P.jpg","O.jpg","1","0","0","",""
"","feedback","","html-keyboard-response","427","359537","0.0-1.0-573.0-0.0","0","0","50389","","null","","","null","63","","","","","","","","","","","","","","","",""
"","time_out","","html-keyboard-response","428","361541","0.0-1.0-575.0-0.0","0","0","50389","","null","","","null","63","","","","","","","","","","","","","","","",""
"","ITI","","html-keyboard-response","429","362546","0.0-1.0-576.0","0","0","50389","","null","","","null","63","","","","","","","","","","","","","","","NaN",""
"","S1","","html-keyboard-response","430","362799","0.0-1.0-578.0","0","0","50389","","null","","","null","64","","","","","","","","","","","","","","","",""
"","ISI","","html-keyboard-response","431","362953","0.0-1.0-579.0","0","0","50389","","null","","","null","64","NaN","","","","","","","","","","","","","","",""
"","S2","","html-keyboard-response","432","363208","0.0-1.0-580.0","0","0","50389","","null","","","null","64","","NaN","","","","","","","","","","","","","",""
"","response","","html-keyboard-response","433","363491","0.0-1.0-581.0-0.0","0","0","50389","","280","","","68","64","","","2","64","training","adjacent","EF","5","6","L.jpg","N.jpg","0","1","0","",""
"","feedback","","html-keyboard-response","434","364497","0.0-1.0-582.0-0.0","0","0","50389","","null","","","null","64","","","","","","","","","","","","","","","",""
"","time_out","","html-keyboard-response","435","366501","0.0-1.0-584.0-0.0","0","0","50389","","null","","","null","64","","","","","","","","","","","","","","","",""
"","ITI","","html-keyboard-response","436","367504","0.0-1.0-585.0","0","0","50389","","null","","","null","64","","","","","","","","","","","","","","","NaN",""
"","S1","","html-keyboard-response","437","367757","0.0-1.0-587.0","0","0","50389","","null","","","null","65","","","","","","","","","","","","","","","",""
"","ISI","","html-keyboard-response","438","367912","0.0-1.0-588.0","0","0","50389","","null","","","null","65","NaN","","","","","","","","","","","","","","",""
"","S2","","html-keyboard-response","439","368167","0.0-1.0-589.0","0","0","50389","","null","","","null","65","","NaN","","","","","","","","","","","","","",""
"","response","","html-keyboard-response","440","368584","0.0-1.0-590.0-0.0","0","0","50389","","413","","","75","65","","","2","65","training","adjacent","ED","5","4","L.jpg","M.jpg","1","0","0","",""
"","feedback","","html-keyboard-response","441","369590","0.0-1.0-591.0-0.0","0","0","50389","","null","","","null","65","","","","","","","","","","","","","","","",""
"","time_out","","html-keyboard-response","442","371595","0.0-1.0-593.0-0.0","0","0","50389","","null","","","null","65","","","","","","","","","","","","","","","",""
"","ITI","","html-keyboard-response","443","372599","0.0-1.0-594.0","0","0","50389","","null","","","null","65","","","","","","","","","","","","","","","NaN",""
"","S1","","html-keyboard-response","444","372853","0.0-1.0-596.0","0","0","50389","","null","","","null","66","","","","","","","","","","","","","","","",""
"","ISI","","html-keyboard-response","445","373008","0.0-1.0-597.0","0","0","50389","","null","","","null","66","NaN","","","","","","","","","","","","","","",""
"","S2","","html-keyboard-response","446","373262","0.0-1.0-598.0","0","0","50389","","null","","","null","66","","NaN","","","","","","","","","","","","","",""
"","response","","html-keyboard-response","447","373717","0.0-1.0-599.0-0.0","0","0","50389","","451","","","75","66","","","2","66","training","adjacent","CD","3","4","P.jpg","M.jpg","1","1","1","",""
"","feedback","","html-keyboard-response","448","374722","0.0-1.0-600.0-0.0","0","0","50389","","null","","","null","66","","","","","","","","","","","","","","","",""
"","ITI","","html-keyboard-response","449","375728","0.0-1.0-603.0","0","0","50389","","null","","","null","66","","","","","","","","","","","","","","","NaN",""
"","S1","","html-keyboard-response","450","375982","0.0-1.0-605.0","0","0","50389","","null","","","null","67","","","","","","","","","","","","","","","",""
"","ISI","","html-keyboard-response","451","376136","0.0-1.0-606.0","0","0","50389","","null","","","null","67","NaN","","","","","","","","","","","","","","",""
"","S2","","html-keyboard-response","452","376392","0.0-1.0-607.0","0","0","50389","","null","","","null","67","","NaN","","","","","","","","","","","","","",""
"","response","","html-keyboard-response","453","377239","0.0-1.0-608.0-0.0","0","0","50389","","843","","","68","67","","","2","67","training","adjacent","CB","3","2","P.jpg","O.jpg","0","0","1","",""
"","feedback","","html-keyboard-response","454","378243","0.0-1.0-609.0-0.0","0","0","50389","","null","","","null","67","","","","","","","","","","","","","","","",""
"","ITI","","html-keyboard-response","455","379245","0.0-1.0-612.0","0","0","50389","","null","","","null","67","","","","","","","","","","","","","","","NaN",""
"","S1","","html-keyboard-response","456","379499","0.0-1.0-614.0","0","0","50389","","null","","","null","68","","","","","","","","","","","","","","","",""
"","ISI","","html-keyboard-response","457","379653","0.0-1.0-615.0","0","0","50389","","null","","","null","68","NaN","","","","","","","","","","","","","","",""
"","S2","","html-keyboard-response","458","379909","0.0-1.0-616.0","0","0","50389","","null","","","null","68","","NaN","","","","","","","","","","","","","",""
"","response","","html-keyboard-response","459","380458","0.0-1.0-617.0-0.0","0","0","50389","","544","","","75","68","","","2","68","training","adjacent","EF","5","6","L.jpg","N.jpg","1","1","1","",""
"","feedback","","html-keyboard-response","460","381463","0.0-1.0-618.0-0.0","0","0","50389","","null","","","null","68","","","","","","","","","","","","","","","",""
"","ITI","","html-keyboard-response","461","382469","0.0-1.0-621.0","0","0","50389","","null","","","null","68","","","","","","","","","","","","","","","NaN",""
"","S1","","html-keyboard-response","462","382723","0.0-1.0-623.0","0","0","50389","","null","","","null","69","","","","","","","","","","","","","","","",""
"","ISI","","html-keyboard-response","463","382878","0.0-1.0-624.0","0","0","50389","","null","","","null","69","NaN","","","","","","","","","","","","","","",""
"","S2","","html-keyboard-response","464","383133","0.0-1.0-625.0","0","0","50389","","null","","","null","69","","NaN","","","","","","","","","","","","","",""
"","response","","html-keyboard-response","465","383481","0.0-1.0-626.0-0.0","0","0","50389","","343","","","68","69","","","2","69","training","adjacent","AB","1","2","R.jpg","O.jpg","0","1","0","",""
"","feedback","","html-keyboard-response","466","384486","0.0-1.0-627.0-0.0","0","0","50389","","null","","","null","69","","","","","","","","","","","","","","","",""
"","time_out","","html-keyboard-response","467","386491","0.0-1.0-629.0-0.0","0","0","50389","","null","","","null","69","","","","","","","","","","","","","","","",""
"","ITI","","html-keyboard-response","468","387494","0.0-1.0-630.0","0","0","50389","","null","","","null","69","","","","","","","","","","","","","","","NaN",""
"","S1","","html-keyboard-response","469","387749","0.0-1.0-632.0","0","0","50389","","null","","","null","70","","","","","","","","","","","","","","","",""
"","ISI","","html-keyboard-response","470","387903","0.0-1.0-633.0","0","0","50389","","null","","","null","70","NaN","","","","","","","","","","","","","","",""
"","S2","","html-keyboard-response","471","388160","0.0-1.0-634.0","0","0","50389","","null","","","null","70","","NaN","","","","","","","","","","","","","",""
"","response","","html-keyboard-response","472","388437","0.0-1.0-635.0-0.0","0","0","50389","","273","","","75","70","","","2","70","training","adjacent","DC","4","3","M.jpg","P.jpg","1","0","0","",""
"","feedback","","html-keyboard-response","473","389443","0.0-1.0-636.0-0.0","0","0","50389","","null","","","null","70","","","","","","","","","","","","","","","",""
"","time_out","","html-keyboard-response","474","391449","0.0-1.0-638.0-0.0","0","0","50389","","null","","","null","70","","","","","","","","","","","","","","","",""
"","ITI","","html-keyboard-response","475","392454","0.0-1.0-639.0","0","0","50389","","null","","","null","70","","","","","","","","","","","","","","","NaN",""
"","S1","","html-keyboard-response","476","392708","0.0-1.0-641.0","0","0","50389","","null","","","null","71","","","","","","","","","","","","","","","",""
"","ISI","","html-keyboard-response","477","392862","0.0-1.0-642.0","0","0","50389","","null","","","null","71","NaN","","","","","","","","","","","","","","",""
"","S2","","html-keyboard-response","478","393118","0.0-1.0-643.0","0","0","50389","","null","","","null","71","","NaN","","","","","","","","","","","","","",""
"","response","","html-keyboard-response","479","393181","0.0-1.0-644.0-0.0","0","0","50389","","57","","","75","71","","","2","71","training","adjacent","GF","7","6","Q.jpg","N.jpg","1","0","0","",""
"","feedback","","html-keyboard-response","480","394190","0.0-1.0-645.0-0.0","0","0","50389","","null","","","null","71","","","","","","","","","","","","","","","",""
"","time_out","","html-keyboard-response","481","396197","0.0-1.0-647.0-0.0","0","0","50389","","null","","","null","71","","","","","","","","","","","","","","","",""
"","ITI","","html-keyboard-response","482","397204","0.0-1.0-648.0","0","0","50389","","null","","","null","71","","","","","","","","","","","","","","","NaN",""
"","S1","","html-keyboard-response","483","397459","0.0-1.0-650.0","0","0","50389","","null","","","null","72","","","","","","","","","","","","","","","",""
"","ISI","","html-keyboard-response","484","397613","0.0-1.0-651.0","0","0","50389","","null","","","null","72","NaN","","","","","","","","","","","","","","",""
"","S2","","html-keyboard-response","485","397869","0.0-1.0-652.0","0","0","50389","","null","","","null","72","","NaN","","","","","","","","","","","","","",""
"","response","","html-keyboard-response","486","398146","0.0-1.0-653.0-0.0","0","0","50389","","273","","","75","72","","","2","72","training","adjacent","FG","6","7","N.jpg","Q.jpg","1","1","1","",""
"","feedback","","html-keyboard-response","487","399151","0.0-1.0-654.0-0.0","0","0","50389","","null","","","null","72","","","","","","","","","","","","","","","",""
"","ITI","","html-keyboard-response","488","400156","0.0-1.0-657.0","0","0","50389","","null","","","null","72","","","","","","","","","","","","","","","NaN",""
"","S1","","html-keyboard-response","489","400410","0.0-1.0-659.0","0","0","50389","","null","","","null","73","","","","","","","","","","","","","","","",""
"","ISI","","html-keyboard-response","490","400566","0.0-1.0-660.0","0","0","50389","","null","","","null","73","NaN","","","","","","","","","","","","","","",""
"","S2","","html-keyboard-response","491","400821","0.0-1.0-661.0","0","0","50389","","null","","","null","73","","NaN","","","","","","","","","","","","","",""
"","response","","html-keyboard-response","492","401439","0.0-1.0-662.0-0.0","0","0","50389","","614","","","68","73","","","2","73","training","adjacent","EF","5","6","L.jpg","N.jpg","0","1","0","",""
"","feedback","","html-keyboard-response","493","402445","0.0-1.0-663.0-0.0","0","0","50389","","null","","","null","73","","","","","","","","","","","","","","","",""
"","time_out","","html-keyboard-response","494","404450","0.0-1.0-665.0-0.0","0","0","50389","","null","","","null","73","","","","","","","","","","","","","","","",""
"","ITI","","html-keyboard-response","495","405453","0.0-1.0-666.0","0","0","50389","","null","","","null","73","","","","","","","","","","","","","","","NaN",""
"","S1","","html-keyboard-response","496","405708","0.0-1.0-668.0","0","0","50389","","null","","","null","74","","","","","","","","","","","","","","","",""
"","ISI","","html-keyboard-response","497","405861","0.0-1.0-669.0","0","0","50389","","null","","","null","74","NaN","","","","","","","","","","","","","","",""
"","S2","","html-keyboard-response","498","406118","0.0-1.0-670.0","0","0","50389","","null","","","null","74","","NaN","","","","","","","","","","","","","",""
"","response","","html-keyboard-response","499","406462","0.0-1.0-671.0-0.0","0","0","50389","","340","","","75","74","","","2","74","training","adjacent","DC","4","3","M.jpg","P.jpg","1","0","0","",""
"","feedback","","html-keyboard-response","500","407469","0.0-1.0-672.0-0.0","0","0","50389","","null","","","null","74","","","","","","","","","","","","","","","",""
"","time_out","","html-keyboard-response","501","409473","0.0-1.0-674.0-0.0","0","0","50389","","null","","","null","74","","","","","","","","","","","","","","","",""
"","ITI","","html-keyboard-response","502","410477","0.0-1.0-675.0","0","0","50389","","null","","","null","74","","","","","","","","","","","","","","","NaN",""
"","S1","","html-keyboard-response","503","410731","0.0-1.0-677.0","0","0","50389","","null","","","null","75","","","","","","","","","","","","","","","",""
"","ISI","","html-keyboard-response","504","410885","0.0-1.0-678.0","0","0","50389","","null","","","null","75","NaN","","","","","","","","","","","","","","",""
"","S2","","html-keyboard-response","505","411141","0.0-1.0-679.0","0","0","50389","","null","","","null","75","","NaN","","","","","","","","","","","","","",""
"","response","","html-keyboard-response","506","411255","0.0-1.0-680.0-0.0","0","0","50389","","111","","","68","75","","","2","75","training","adjacent","CD","3","4","P.jpg","M.jpg","0","1","0","",""
"","feedback","","html-keyboard-response","507","412259","0.0-1.0-681.0-0.0","0","0","50389","","null","","","null","75","","","","","","","","","","","","","","","",""
"","time_out","","html-keyboard-response","508","414263","0.0-1.0-683.0-0.0","0","0","50389","","null","","","null","75","","","","","","","","","","","","","","","",""
"","ITI","","html-keyboard-response","509","415265","0.0-1.0-684.0","0","0","50389","","null","","","null","75","","","","","","","","","","","","","","","NaN",""
"","S1","","html-keyboard-response","510","415519","0.0-1.0-686.0","0","0","50389","","null","","","null","76","","","","","","","","","","","","","","","",""
"","ISI","","html-keyboard-response","511","415672","0.0-1.0-687.0","0","0","50389","","null","","","null","76","NaN","","","","","","","","","","","","","","",""
"","S2","","html-keyboard-response","512","415929","0.0-1.0-688.0","0","0","50389","","null","","","null","76","","NaN","","","","","","","","","","","","","",""
"","response","","html-keyboard-response","513","416364","0.0-1.0-689.0-0.0","0","0","50389","","430","","","75","76","","","2","76","training","adjacent","GF","7","6","Q.jpg","N.jpg","1","0","0","",""
"","feedback","","html-keyboard-response","514","417369","0.0-1.0-690.0-0.0","0","0","50389","","null","","","null","76","","","","","","","","","","","","","","","",""
"","time_out","","html-keyboard-response","515","419372","0.0-1.0-692.0-0.0","0","0","50389","","null","","","null","76","","","","","","","","","","","","","","","",""
"","ITI","","html-keyboard-response","516","420376","0.0-1.0-693.0","0","0","50389","","null","","","null","76","","","","","","","","","","","","","","","NaN",""
"","S1","","html-keyboard-response","517","420630","0.0-1.0-695.0","0","0","50389","","null","","","null","77","","","","","","","","","","","","","","","",""
"","ISI","","html-keyboard-response","518","420784","0.0-1.0-696.0","0","0","50389","","null","","","null","77","NaN","","","","","","","","","","","","","","",""
"","S2","","html-keyboard-response","519","421039","0.0-1.0-697.0","0","0","50389","","null","","","null","77","","NaN","","","","","","","","","","","","","",""
"","response","","html-keyboard-response","520","422250","0.0-1.0-698.0-0.0","0","0","50389","","1208","","","75","77","","","2","77","training","adjacent","DE","4","5","M.jpg","L.jpg","1","1","1","",""
"","feedback","","html-keyboard-response","521","423254","0.0-1.0-699.0-0.0","0","0","50389","","null","","","null","77","","","","","","","","","","","","","","","",""
"","ITI","","html-keyboard-response","522","424256","0.0-1.0-702.0","0","0","50389","","null","","","null","77","","","","","","","","","","","","","","","NaN",""
"","S1","","html-keyboard-response","523","424510","0.0-1.0-704.0","0","0","50389","","null","","","null","78","","","","","","","","","","","","","","","",""
"","ISI","","html-keyboard-response","524","424664","0.0-1.0-705.0","0","0","50389","","null","","","null","78","NaN","","","","","","","","","","","","","","",""
"","S2","","html-keyboard-response","525","424919","0.0-1.0-706.0","0","0","50389","","null","","","null","78","","NaN","","","","","","","","","","","","","",""
"","response","","html-keyboard-response","526","425660","0.0-1.0-707.0-0.0","0","0","50389","","735","","","68","78","","","2","78","training","adjacent","DC","4","3","M.jpg","P.jpg","0","0","1","",""
"","feedback","","html-keyboard-response","527","426664","0.0-1.0-708.0-0.0","0","0","50389","","null","","","null","78","","","","","","","","","","","","","","","",""
"","ITI","","html-keyboard-response","528","427668","0.0-1.0-711.0","0","0","50389","","null","","","null","78","","","","","","","","","","","","","","","NaN",""
"","S1","","html-keyboard-response","529","427924","0.0-1.0-713.0","0","0","50389","","null","","","null","79","","","","","","","","","","","","","","","",""
"","ISI","","html-keyboard-response","530","428078","0.0-1.0-714.0","0","0","50389","","null","","","null","79","NaN","","","","","","","","","","","","","","",""
"","S2","","html-keyboard-response","531","428330","0.0-1.0-715.0","0","0","50389","","null","","","null","79","","NaN","","","","","","","","","","","","","",""
"","response","","html-keyboard-response","532","428701","0.0-1.0-716.0-0.0","0","0","50389","","367","","","75","79","","","2","79","training","adjacent","GF","7","6","Q.jpg","N.jpg","1","0","0","",""
"","feedback","","html-keyboard-response","533","429706","0.0-1.0-717.0-0.0","0","0","50389","","null","","","null","79","","","","","","","","","","","","","","","",""
"","time_out","","html-keyboard-response","534","431710","0.0-1.0-719.0-0.0","0","0","50389","","null","","","null","79","","","","","","","","","","","","","","","",""
"","ITI","","html-keyboard-response","535","432715","0.0-1.0-720.0","0","0","50389","","null","","","null","79","","","","","","","","","","","","","","","NaN",""
"","S1","","html-keyboard-response","536","432969","0.0-1.0-722.0","0","0","50389","","null","","","null","80","","","","","","","","","","","","","","","",""
"","ISI","","html-keyboard-response","537","433123","0.0-1.0-723.0","0","0","50389","","null","","","null","80","NaN","","","","","","","","","","","","","","",""
"","S2","","html-keyboard-response","538","433379","0.0-1.0-724.0","0","0","50389","","null","","","null","80","","NaN","","","","","","","","","","","","","",""
"","response","","html-keyboard-response","539","433947","0.0-1.0-725.0-0.0","0","0","50389","","563","","","75","80","","","2","80","training","adjacent","CB","3","2","P.jpg","O.jpg","1","0","0","",""
"","feedback","","html-keyboard-response","540","434953","0.0-1.0-726.0-0.0","0","0","50389","","null","","","null","80","","","","","","","","","","","","","","","",""
"","time_out","","html-keyboard-response","541","436958","0.0-1.0-728.0-0.0","0","0","50389","","null","","","null","80","","","","","","","","","","","","","","","",""
"","ITI","","html-keyboard-response","542","437961","0.0-1.0-729.0","0","0","50389","","null","","","null","80","","","","","","","","","","","","","","","NaN",""
"","S1","","html-keyboard-response","543","438216","0.0-1.0-731.0","0","0","50389","","null","","","null","81","","","","","","","","","","","","","","","",""
"","ISI","","html-keyboard-response","544","438370","0.0-1.0-732.0","0","0","50389","","null","","","null","81","NaN","","","","","","","","","","","","","","",""
"","S2","","html-keyboard-response","545","438624","0.0-1.0-733.0","0","0","50389","","null","","","null","81","","NaN","","","","","","","","","","","","","",""
"","response","","html-keyboard-response","546","439238","0.0-1.0-734.0-0.0","0","0","50389","","611","","","68","81","","","2","81","training","adjacent","BC","2","3","O.jpg","P.jpg","0","1","0","",""
"","feedback","","html-keyboard-response","547","440246","0.0-1.0-735.0-0.0","0","0","50389","","null","","","null","81","","","","","","","","","","","","","","","",""
"","time_out","","html-keyboard-response","548","442253","0.0-1.0-737.0-0.0","0","0","50389","","null","","","null","81","","","","","","","","","","","","","","","",""
"","ITI","","html-keyboard-response","549","443258","0.0-1.0-738.0","0","0","50389","","null","","","null","81","","","","","","","","","","","","","","","NaN",""
"","S1","","html-keyboard-response","550","443512","0.0-1.0-740.0","0","0","50389","","null","","","null","82","","","","","","","","","","","","","","","",""
"","ISI","","html-keyboard-response","551","443668","0.0-1.0-741.0","0","0","50389","","null","","","null","82","NaN","","","","","","","","","","","","","","",""
"","S2","","html-keyboard-response","552","443923","0.0-1.0-742.0","0","0","50389","","null","","","null","82","","NaN","","","","","","","","","","","","","",""
"","response","","html-keyboard-response","553","444444","0.0-1.0-743.0-0.0","0","0","50389","","518","","","75","82","","","2","82","training","adjacent","AB","1","2","R.jpg","O.jpg","1","1","1","",""
"","feedback","","html-keyboard-response","554","445450","0.0-1.0-744.0-0.0","0","0","50389","","null","","","null","82","","","","","","","","","","","","","","","",""
"","ITI","","html-keyboard-response","555","446453","0.0-1.0-747.0","0","0","50389","","null","","","null","82","","","","","","","","","","","","","","","NaN",""
"","S1","","html-keyboard-response","556","446706","0.0-1.0-749.0","0","0","50389","","null","","","null","83","","","","","","","","","","","","","","","",""
"","ISI","","html-keyboard-response","557","446860","0.0-1.0-750.0","0","0","50389","","null","","","null","83","NaN","","","","","","","","","","","","","","",""
"","S2","","html-keyboard-response","558","447115","0.0-1.0-751.0","0","0","50389","","null","","","null","83","","NaN","","","","","","","","","","","","","",""
"","response","","html-keyboard-response","559","447878","0.0-1.0-752.0-0.0","0","0","50389","","759","","","75","83","","","2","83","training","adjacent","CD","3","4","P.jpg","M.jpg","1","1","1","",""
"","feedback","","html-keyboard-response","560","448884","0.0-1.0-753.0-0.0","0","0","50389","","null","","","null","83","","","","","","","","","","","","","","","",""
"","ITI","","html-keyboard-response","561","449889","0.0-1.0-756.0","0","0","50389","","null","","","null","83","","","","","","","","","","","","","","","NaN",""
"","S1","","html-keyboard-response","562","450143","0.0-1.0-758.0","0","0","50389","","null","","","null","84","","","","","","","","","","","","","","","",""
"","ISI","","html-keyboard-response","563","450297","0.0-1.0-759.0","0","0","50389","","null","","","null","84","NaN","","","","","","","","","","","","","","",""
"","S2","","html-keyboard-response","564","450552","0.0-1.0-760.0","0","0","50389","","null","","","null","84","","NaN","","","","","","","","","","","","","",""
"","response","","html-keyboard-response","565","451342","0.0-1.0-761.0-0.0","0","0","50389","","787","","","68","84","","","2","84","training","adjacent","ED","5","4","L.jpg","M.jpg","0","0","1","",""
"","feedback","","html-keyboard-response","566","452346","0.0-1.0-762.0-0.0","0","0","50389","","null","","","null","84","","","","","","","","","","","","","","","",""
"","ITI","","html-keyboard-response","567","453348","0.0-1.0-765.0","0","0","50389","","null","","","null","84","","","","","","","","","","","","","","","NaN",""
"","S1","","html-keyboard-response","568","453602","0.0-1.0-767.0","0","0","50389","","null","","","null","85","","","","","","","","","","","","","","","",""
"","ISI","","html-keyboard-response","569","453771","0.0-1.0-768.0","0","0","50389","","null","","","null","85","NaN","","","","","","","","","","","","","","",""
"","S2","","html-keyboard-response","570","454026","0.0-1.0-769.0","0","0","50389","","null","","","null","85","","NaN","","","","","","","","","","","","","",""
"","response","","html-keyboard-response","571","454952","0.0-1.0-770.0-0.0","0","0","50389","","921","","","75","85","","","2","85","training","adjacent","FE","6","5","N.jpg","L.jpg","1","0","0","",""
"","feedback","","html-keyboard-response","572","455956","0.0-1.0-771.0-0.0","0","0","50389","","null","","","null","85","","","","","","","","","","","","","","","",""
"","time_out","","html-keyboard-response","573","457961","0.0-1.0-773.0-0.0","0","0","50389","","null","","","null","85","","","","","","","","","","","","","","","",""
"","ITI","","html-keyboard-response","574","458963","0.0-1.0-774.0","0","0","50389","","null","","","null","85","","","","","","","","","","","","","","","NaN",""
"","S1","","html-keyboard-response","575","459217","0.0-1.0-776.0","0","0","50389","","null","","","null","86","","","","","","","","","","","","","","","",""
"","ISI","","html-keyboard-response","576","459371","0.0-1.0-777.0","0","0","50389","","null","","","null","86","NaN","","","","","","","","","","","","","","",""
"","S2","","html-keyboard-response","577","459628","0.0-1.0-778.0","0","0","50389","","null","","","null","86","","NaN","","","","","","","","","","","","","",""
"","response","","html-keyboard-response","578","460088","0.0-1.0-779.0-0.0","0","0","50389","","456","","","68","86","","","2","86","training","adjacent","DE","4","5","M.jpg","L.jpg","0","1","0","",""
"","feedback","","html-keyboard-response","579","461094","0.0-1.0-780.0-0.0","0","0","50389","","null","","","null","86","","","","","","","","","","","","","","","",""
"","time_out","","html-keyboard-response","580","463099","0.0-1.0-782.0-0.0","0","0","50389","","null","","","null","86","","","","","","","","","","","","","","","",""
"","ITI","","html-keyboard-response","581","464103","0.0-1.0-783.0","0","0","50389","","null","","","null","86","","","","","","","","","","","","","","","NaN",""
"","S1","","html-keyboard-response","582","464358","0.0-1.0-785.0","0","0","50389","","null","","","null","87","","","","","","","","","","","","","","","",""
"","ISI","","html-keyboard-response","583","464511","0.0-1.0-786.0","0","0","50389","","null","","","null","87","NaN","","","","","","","","","","","","","","",""
