"success","ttype","start_time","trial_type","trial_index","time_elapsed","internal_node_id","warning","missed_checkup","PID","view_history","rt","responses","repeat_instructions","key_press","index","keypress_isi","keypress_S2","block","trial_num","phase","group_type","pair_type","S1_stim","S2_stim","S1_img","S2_img","S1_chosen","S1_higher","accuracy","keypress_iti","total_bonus_tally"
"true","full_screen","d04132023hr1517","fullscreen","0","15479","0.0-0.0","0","0","96953","","","","","","","","","","","","","","","","","","","","","",""
"","instructions","","instructions","1","35467","0.0-1.0-0.0-0.0","0","0","96953","[{""page_index"":0,""viewing_time"":1956},{""page_index"":1,""viewing_time"":14867},{""page_index"":2,""viewing_time"":2351},{""page_index"":3,""viewing_time"":810}]","19984","","","","","","","","","","","","","","","","","","","",""
"","comprehension_check","","survey-multi-choice","2","50163","0.0-1.0-0.0-1.0","0","0","96953","","14692","{""Q0"":""True"",""Q1"":""K"",""Q2"":""Once the second image appears and while the screen 'MAKE A CHOICE' is shown"",""Q3"":""Green mark"",""Q4"":""either D or K""}","0","","","","","","","","","","","","","","","","","",""
"","start_exp","","html-keyboard-response","3","51171","0.0-1.0-1.0","0","0","96953","","1007","","","32","","","","","","","","","","","","","","","","",""
"","S1","","html-keyboard-response","4","51438","0.0-1.0-2.0","0","0","96953","","null","","","null","0","","","","","","","","","","","","","","","",""
"","ISI","","html-keyboard-response","5","52452","0.0-1.0-3.0","0","0","96953","","null","","","null","0","NaN","","","","","","","","","","","","","","",""
"","S2","","html-keyboard-response","6","52717","0.0-1.0-4.0","0","0","96953","","null","","","null","0","","NaN","","","","","","","","","","","","","",""
"","response","","html-keyboard-response","7","53307","0.0-1.0-5.0-0.0","0","0","96953","","588","","","68","0","","","1","0","training","adjacent","ED","5","4","M.jpg","L.jpg","0","0","1","",""
"","feedback","","html-keyboard-response","8","54321","0.0-1.0-6.0-0.0","0","0","96953","","null","","","null","0","","","","","","","","","","","","","","","",""
"","ITI","","html-keyboard-response","9","55332","0.0-1.0-9.0","0","0","96953","","null","","","null","0","","","","","","","","","","","","","","","NaN",""
"","S1","","html-keyboard-response","10","55595","0.0-1.0-11.0","0","0","96953","","null","","","null","1","","","","","","","","","","","","","","","",""
"","ISI","","html-keyboard-response","11","56609","0.0-1.0-12.0","0","0","96953","","null","","","null","1","NaN","","","","","","","","","","","","","","",""
"","S2","","html-keyboard-response","12","56861","0.0-1.0-13.0","0","0","96953","","null","","","null","1","","NaN","","","","","","","","","","","","","",""
"","response","","html-keyboard-response","13","57650","0.0-1.0-14.0-0.0","0","0","96953","","789","","","68","1","","","1","1","training","adjacent","EF","5","6","M.jpg","P.jpg","0","1","0","",""
"","feedback","","html-keyboard-response","14","58664","0.0-1.0-15.0-0.0","0","0","96953","","null","","","null","1","","","","","","","","","","","","","","","",""
"","time_out","","html-keyboard-response","15","60676","0.0-1.0-17.0-0.0","0","0","96953","","null","","","null","1","","","","","","","","","","","","","","","",""
"","ITI","","html-keyboard-response","16","61691","0.0-1.0-18.0","0","0","96953","","null","","","null","1","","","","","","","","","","","","","","","NaN",""
"","S1","","html-keyboard-response","17","61956","0.0-1.0-20.0","0","0","96953","","null","","","null","2","","","","","","","","","","","","","","","",""
"","ISI","","html-keyboard-response","18","62968","0.0-1.0-21.0","0","0","96953","","null","","","null","2","NaN","","","","","","","","","","","","","","",""
"","S2","","html-keyboard-response","19","63233","0.0-1.0-22.0","0","0","96953","","null","","","null","2","","NaN","","","","","","","","","","","","","",""
"","response","","html-keyboard-response","20","63812","0.0-1.0-23.0-0.0","0","0","96953","","577","","","75","2","","","1","2","training","adjacent","FG","6","7","P.jpg","N.jpg","1","1","1","",""
"","feedback","","html-keyboard-response","21","64825","0.0-1.0-24.0-0.0","0","0","96953","","null","","","null","2","","","","","","","","","","","","","","","",""
"","ITI","","html-keyboard-response","22","65839","0.0-1.0-27.0","0","0","96953","","null","","","null","2","","","","","","","","","","","","","","","NaN",""
"","S1","","html-keyboard-response","23","66104","0.0-1.0-29.0","0","0","96953","","null","","","null","3","","","","","","","","","","","","","","","",""
"","ISI","","html-keyboard-response","24","67119","0.0-1.0-30.0","0","0","96953","","null","","","null","3","NaN","","","","","","","","","","","","","","",""
"","S2","","html-keyboard-response","25","67383","0.0-1.0-31.0","0","0","96953","","null","","","null","3","","NaN","","","","","","","","","","","","","",""
"","response","","html-keyboard-response","26","67851","0.0-1.0-32.0-0.0","0","0","96953","","467","","","75","3","","","1","3","training","adjacent","DE","4","5","L.jpg","M.jpg","1","1","1","",""
"","feedback","","html-keyboard-response","27","68864","0.0-1.0-33.0-0.0","0","0","96953","","null","","","null","3","","","","","","","","","","","","","","","",""
"","ITI","","html-keyboard-response","28","69875","0.0-1.0-36.0","0","0","96953","","null","","","null","3","","","","","","","","","","","","","","","NaN",""
"","S1","","html-keyboard-response","29","70139","0.0-1.0-38.0","0","0","96953","","null","","","null","4","","","","","","","","","","","","","","","",""
"","ISI","","html-keyboard-response","30","71154","0.0-1.0-39.0","0","0","96953","","null","","","null","4","NaN","","","","","","","","","","","","","","",""
"","S2","","html-keyboard-response","31","71419","0.0-1.0-40.0","0","0","96953","","null","","","null","4","","NaN","","","","","","","","","","","","","",""
"","response","","html-keyboard-response","32","71826","0.0-1.0-41.0-0.0","0","0","96953","","406","","","68","4","","","1","4","training","adjacent","BA","2","1","R.jpg","O.jpg","0","0","1","",""
"","feedback","","html-keyboard-response","33","72838","0.0-1.0-42.0-0.0","0","0","96953","","null","","","null","4","","","","","","","","","","","","","","","",""
"","ITI","","html-keyboard-response","34","73842","0.0-1.0-45.0","0","0","96953","","null","","","null","4","","","","","","","","","","","","","","","NaN",""
"","S1","","html-keyboard-response","35","74104","0.0-1.0-47.0","0","0","96953","","null","","","null","5","","","","","","","","","","","","","","","",""
"","ISI","","html-keyboard-response","36","75119","0.0-1.0-48.0","0","0","96953","","null","","","null","5","NaN","","","","","","","","","","","","","","",""
"","S2","","html-keyboard-response","37","75382","0.0-1.0-49.0","0","0","96953","","null","","","null","5","","NaN","","","","","","","","","","","","","",""
"","response","","html-keyboard-response","38","75539","0.0-1.0-50.0-0.0","0","0","96953","","156","","","68","5","","","1","5","training","adjacent","GF","7","6","N.jpg","P.jpg","0","0","1","",""
"","feedback","","html-keyboard-response","39","76552","0.0-1.0-51.0-0.0","0","0","96953","","null","","","null","5","","","","","","","","","","","","","","","",""
"","ITI","","html-keyboard-response","40","77562","0.0-1.0-54.0","0","0","96953","","null","","","null","5","","","","","","","","","","","","","","","NaN",""
"","S1","","html-keyboard-response","41","77826","0.0-1.0-56.0","0","0","96953","","null","","","null","6","","","","","","","","","","","","","","","",""
"","ISI","","html-keyboard-response","42","78841","0.0-1.0-57.0","0","0","96953","","null","","","null","6","NaN","","","","","","","","","","","","","","",""
"","S2","","html-keyboard-response","43","79105","0.0-1.0-58.0","0","0","96953","","null","","","null","6","","NaN","","","","","","","","","","","","","",""
"","response","","html-keyboard-response","44","79995","0.0-1.0-59.0-0.0","0","0","96953","","889","","","68","6","","","1","6","training","adjacent","EF","5","6","M.jpg","P.jpg","0","1","0","",""
"","feedback","","html-keyboard-response","45","81010","0.0-1.0-60.0-0.0","0","0","96953","","null","","","null","6","","","","","","","","","","","","","","","",""
"","time_out","","html-keyboard-response","46","83026","0.0-1.0-62.0-0.0","0","0","96953","","null","","","null","6","","","","","","","","","","","","","","","",""
"","ITI","","html-keyboard-response","47","84030","0.0-1.0-63.0","0","0","96953","","null","","","null","6","","","","","","","","","","","","","","","NaN",""
"","S1","","html-keyboard-response","48","84294","0.0-1.0-65.0","0","0","96953","","null","","","null","7","","","","","","","","","","","","","","","",""
"","ISI","","html-keyboard-response","49","85309","0.0-1.0-66.0","0","0","96953","","null","","","null","7","NaN","","","","","","","","","","","","","","",""
"","S2","","html-keyboard-response","50","85575","0.0-1.0-67.0","0","0","96953","","null","","","null","7","","NaN","","","","","","","","","","","","","",""
"","response","","html-keyboard-response","51","85923","0.0-1.0-68.0-0.0","0","0","96953","","347","","","75","7","","","1","7","training","adjacent","CD","3","4","Q.jpg","L.jpg","1","1","1","",""
"","feedback","","html-keyboard-response","52","86932","0.0-1.0-69.0-0.0","0","0","96953","","null","","","null","7","","","","","","","","","","","","","","","",""
"","ITI","","html-keyboard-response","53","87946","0.0-1.0-72.0","0","0","96953","","null","","","null","7","","","","","","","","","","","","","","","NaN",""
"","S1","","html-keyboard-response","54","88210","0.0-1.0-74.0","0","0","96953","","null","","","null","8","","","","","","","","","","","","","","","",""
"","ISI","","html-keyboard-response","55","89213","0.0-1.0-75.0","0","0","96953","","null","","","null","8","NaN","","","","","","","","","","","","","","",""
"","S2","","html-keyboard-response","56","89477","0.0-1.0-76.0","0","0","96953","","null","","","null","8","","NaN","","","","","","","","","","","","","",""
"","response","","html-keyboard-response","57","90067","0.0-1.0-77.0-0.0","0","0","96953","","589","","","75","8","","","1","8","training","adjacent","FE","6","5","P.jpg","M.jpg","1","0","0","",""
"","feedback","","html-keyboard-response","58","91083","0.0-1.0-78.0-0.0","0","0","96953","","null","","","null","8","","","","","","","","","","","","","","","",""
"","time_out","","html-keyboard-response","59","93099","0.0-1.0-80.0-0.0","0","0","96953","","null","","","null","8","","","","","","","","","","","","","","","",""
"","ITI","","html-keyboard-response","60","94103","0.0-1.0-81.0","0","0","96953","","null","","","null","8","","","","","","","","","","","","","","","NaN",""
"","S1","","html-keyboard-response","61","94365","0.0-1.0-83.0","0","0","96953","","null","","","null","9","","","","","","","","","","","","","","","",""
"","ISI","","html-keyboard-response","62","95379","0.0-1.0-84.0","0","0","96953","","null","","","null","9","NaN","","","","","","","","","","","","","","",""
"","S2","","html-keyboard-response","63","95644","0.0-1.0-85.0","0","0","96953","","null","","","null","9","","NaN","","","","","","","","","","","","","",""
"","response","","html-keyboard-response","64","95891","0.0-1.0-86.0-0.0","0","0","96953","","246","","","75","9","","","1","9","training","adjacent","DE","4","5","L.jpg","M.jpg","1","1","1","",""
"","feedback","","html-keyboard-response","65","96905","0.0-1.0-87.0-0.0","0","0","96953","","null","","","null","9","","","","","","","","","","","","","","","",""
"","ITI","","html-keyboard-response","66","97919","0.0-1.0-90.0","0","0","96953","","null","","","null","9","","","","","","","","","","","","","","","NaN",""
"","S1","","html-keyboard-response","67","98181","0.0-1.0-92.0","0","0","96953","","null","","","null","10","","","","","","","","","","","","","","","",""
"","ISI","","html-keyboard-response","68","99196","0.0-1.0-93.0","0","0","96953","","null","","","null","10","NaN","","","","","","","","","","","","","","",""
"","S2","","html-keyboard-response","69","99460","0.0-1.0-94.0","0","0","96953","","null","","","null","10","","NaN","","","","","","","","","","","","","",""
"","response","","html-keyboard-response","70","99707","0.0-1.0-95.0-0.0","0","0","96953","","245","","","75","10","","","1","10","training","adjacent","DE","4","5","L.jpg","M.jpg","1","1","1","",""
"","feedback","","html-keyboard-response","71","100722","0.0-1.0-96.0-0.0","0","0","96953","","null","","","null","10","","","","","","","","","","","","","","","",""
"","ITI","","html-keyboard-response","72","101735","0.0-1.0-99.0","0","0","96953","","null","","","null","10","","","","","","","","","","","","","","","NaN",""
"","S1","","html-keyboard-response","73","102000","0.0-1.0-101.0","0","0","96953","","null","","","null","11","","","","","","","","","","","","","","","",""
"","ISI","","html-keyboard-response","74","103016","0.0-1.0-102.0","0","0","96953","","null","","","null","11","NaN","","","","","","","","","","","","","","",""
"","S2","","html-keyboard-response","75","103280","0.0-1.0-103.0","0","0","96953","","null","","","null","11","","NaN","","","","","","","","","","","","","",""
"","response","","html-keyboard-response","76","103619","0.0-1.0-104.0-0.0","0","0","96953","","338","","","75","11","","","1","11","training","adjacent","CB","3","2","Q.jpg","R.jpg","1","0","0","",""
"","feedback","","html-keyboard-response","77","104620","0.0-1.0-105.0-0.0","0","0","96953","","null","","","null","11","","","","","","","","","","","","","","","",""
"","time_out","","html-keyboard-response","78","106632","0.0-1.0-107.0-0.0","0","0","96953","","null","","","null","11","","","","","","","","","","","","","","","",""
"","ITI","","html-keyboard-response","79","107648","0.0-1.0-108.0","0","0","96953","","null","","","null","11","","","","","","","","","","","","","","","NaN",""
"","S1","","html-keyboard-response","80","107912","0.0-1.0-110.0","0","0","96953","","null","","","null","12","","","","","","","","","","","","","","","",""
"","ISI","","html-keyboard-response","81","108926","0.0-1.0-111.0","0","0","96953","","null","","","null","12","NaN","","","","","","","","","","","","","","",""
"","S2","","html-keyboard-response","82","109191","0.0-1.0-112.0","0","0","96953","","null","","","null","12","","NaN","","","","","","","","","","","","","",""
"","response","","html-keyboard-response","83","110299","0.0-1.0-113.0-0.0","0","0","96953","","1107","","","75","12","","","1","12","training","adjacent","FE","6","5","P.jpg","M.jpg","1","0","0","",""
"","feedback","","html-keyboard-response","84","111301","0.0-1.0-114.0-0.0","0","0","96953","","null","","","null","12","","","","","","","","","","","","","","","",""
"","time_out","","html-keyboard-response","85","113312","0.0-1.0-116.0-0.0","0","0","96953","","null","","","null","12","","","","","","","","","","","","","","","",""
"","ITI","","html-keyboard-response","86","114326","0.0-1.0-117.0","0","0","96953","","null","","","null","12","","","","","","","","","","","","","","","NaN",""
"","S1","","html-keyboard-response","87","114590","0.0-1.0-119.0","0","0","96953","","null","","","null","13","","","","","","","","","","","","","","","",""
"","ISI","","html-keyboard-response","88","115603","0.0-1.0-120.0","0","0","96953","","null","","","null","13","NaN","","","","","","","","","","","","","","",""
"","S2","","html-keyboard-response","89","115867","0.0-1.0-121.0","0","0","96953","","null","","","null","13","","NaN","","","","","","","","","","","","","",""
"","response","","html-keyboard-response","90","116227","0.0-1.0-122.0-0.0","0","0","96953","","359","","","68","13","","","1","13","training","adjacent","ED","5","4","M.jpg","L.jpg","0","0","1","",""
"","feedback","","html-keyboard-response","91","117238","0.0-1.0-123.0-0.0","0","0","96953","","null","","","null","13","","","","","","","","","","","","","","","",""
"","ITI","","html-keyboard-response","92","118252","0.0-1.0-126.0","0","0","96953","","null","","","null","13","","","","","","","","","","","","","","","NaN",""
"","S1","","html-keyboard-response","93","118514","0.0-1.0-128.0","0","0","96953","","null","","","null","14","","","","","","","","","","","","","","","",""
"","ISI","","html-keyboard-response","94","119528","0.0-1.0-129.0","0","0","96953","","null","","","null","14","NaN","","","","","","","","","","","","","","",""
"","S2","","html-keyboard-response","95","119790","0.0-1.0-130.0","0","0","96953","","null","","","null","14","","NaN","","","","","","","","","","","","","",""
"","response","","html-keyboard-response","96","120043","0.0-1.0-131.0-0.0","0","0","96953","","251","","","68","14","","","1","14","training","adjacent","ED","5","4","M.jpg","L.jpg","0","0","1","",""
"","feedback","","html-keyboard-response","97","121051","0.0-1.0-132.0-0.0","0","0","96953","","null","","","null","14","","","","","","","","","","","","","","","",""
"","ITI","","html-keyboard-response","98","122067","0.0-1.0-135.0","0","0","96953","","null","","","null","14","","","","","","","","","","","","","","","NaN",""
"","S1","","html-keyboard-response","99","122320","0.0-1.0-137.0","0","0","96953","","null","","","null","15","","","","","","","","","","","","","","","",""
"","ISI","","html-keyboard-response","100","123332","0.0-1.0-138.0","0","0","96953","","null","","","null","15","NaN","","","","","","","","","","","","","","",""
"","S2","","html-keyboard-response","101","123596","0.0-1.0-139.0","0","0","96953","","null","","","null","15","","NaN","","","","","","","","","","","","","",""
"","response","","html-keyboard-response","102","124123","0.0-1.0-140.0-0.0","0","0","96953","","525","","","75","15","","","1","15","training","adjacent","AB","1","2","O.jpg","R.jpg","1","1","1","",""
"","feedback","","html-keyboard-response","103","125134","0.0-1.0-141.0-0.0","0","0","96953","","null","","","null","15","","","","","","","","","","","","","","","",""
"","ITI","","html-keyboard-response","104","126147","0.0-1.0-144.0","0","0","96953","","null","","","null","15","","","","","","","","","","","","","","","NaN",""
"","S1","","html-keyboard-response","105","126412","0.0-1.0-146.0","0","0","96953","","null","","","null","16","","","","","","","","","","","","","","","",""
"","ISI","","html-keyboard-response","106","127426","0.0-1.0-147.0","0","0","96953","","null","","","null","16","NaN","","","","","","","","","","","","","","",""
"","S2","","html-keyboard-response","107","127692","0.0-1.0-148.0","0","0","96953","","null","","","null","16","","NaN","","","","","","","","","","","","","",""
"","response","","html-keyboard-response","108","127907","0.0-1.0-149.0-0.0","0","0","96953","","214","","","68","16","","","1","16","training","adjacent","ED","5","4","M.jpg","L.jpg","0","0","1","",""
"","feedback","","html-keyboard-response","109","128909","0.0-1.0-150.0-0.0","0","0","96953","","null","","","null","16","","","","","","","","","","","","","","","",""
"","ITI","","html-keyboard-response","110","129923","0.0-1.0-153.0","0","0","96953","","null","","","null","16","","","","","","","","","","","","","","","NaN",""
"","S1","","html-keyboard-response","111","130188","0.0-1.0-155.0","0","0","96953","","null","","","null","17","","","","","","","","","","","","","","","",""
"","ISI","","html-keyboard-response","112","131199","0.0-1.0-156.0","0","0","96953","","null","","","null","17","NaN","","","","","","","","","","","","","","",""
"","S2","","html-keyboard-response","113","131462","0.0-1.0-157.0","0","0","96953","","null","","","null","17","","NaN","","","","","","","","","","","","","",""
"","response","","html-keyboard-response","114","131875","0.0-1.0-158.0-0.0","0","0","96953","","412","","","68","17","","","1","17","training","adjacent","BC","2","3","R.jpg","Q.jpg","0","1","0","",""
"","feedback","","html-keyboard-response","115","132881","0.0-1.0-159.0-0.0","0","0","96953","","null","","","null","17","","","","","","","","","","","","","","","",""
"","time_out","","html-keyboard-response","116","134892","0.0-1.0-161.0-0.0","0","0","96953","","null","","","null","17","","","","","","","","","","","","","","","",""
"","ITI","","html-keyboard-response","117","135904","0.0-1.0-162.0","0","0","96953","","null","","","null","17","","","","","","","","","","","","","","","NaN",""
"","S1","","html-keyboard-response","118","136171","0.0-1.0-164.0","0","0","96953","","null","","","null","18","","","","","","","","","","","","","","","",""
"","ISI","","html-keyboard-response","119","137184","0.0-1.0-165.0","0","0","96953","","null","","","null","18","NaN","","","","","","","","","","","","","","",""
"","S2","","html-keyboard-response","120","137450","0.0-1.0-166.0","0","0","96953","","null","","","null","18","","NaN","","","","","","","","","","","","","",""
"","response","","html-keyboard-response","121","137819","0.0-1.0-167.0-0.0","0","0","96953","","368","","","75","18","","","1","18","training","adjacent","FG","6","7","P.jpg","N.jpg","1","1","1","",""
"","feedback","","html-keyboard-response","122","138822","0.0-1.0-168.0-0.0","0","0","96953","","null","","","null","18","","","","","","","","","","","","","","","",""
"","ITI","","html-keyboard-response","123","139824","0.0-1.0-171.0","0","0","96953","","null","","","null","18","","","","","","","","","","","","","","","NaN",""
"","S1","","html-keyboard-response","124","140087","0.0-1.0-173.0","0","0","96953","","null","","","null","19","","","","","","","","","","","","","","","",""
"","ISI","","html-keyboard-response","125","141101","0.0-1.0-174.0","0","0","96953","","null","","","null","19","NaN","","","","","","","","","","","","","","",""
"","S2","","html-keyboard-response","126","141364","0.0-1.0-175.0","0","0","96953","","null","","","null","19","","NaN","","","","","","","","","","","","","",""
"","response","","html-keyboard-response","127","141707","0.0-1.0-176.0-0.0","0","0","96953","","342","","","75","19","","","1","19","training","adjacent","BC","2","3","R.jpg","Q.jpg","1","1","1","",""
"","feedback","","html-keyboard-response","128","142724","0.0-1.0-177.0-0.0","0","0","96953","","null","","","null","19","","","","","","","","","","","","","","","",""
"","ITI","","html-keyboard-response","129","143738","0.0-1.0-180.0","0","0","96953","","null","","","null","19","","","","","","","","","","","","","","","NaN",""
"","S1","","html-keyboard-response","130","144005","0.0-1.0-182.0","0","0","96953","","null","","","null","20","","","","","","","","","","","","","","","",""
"","ISI","","html-keyboard-response","131","145006","0.0-1.0-183.0","0","0","96953","","null","","","null","20","NaN","","","","","","","","","","","","","","",""
"","S2","","html-keyboard-response","132","145269","0.0-1.0-184.0","0","0","96953","","null","","","null","20","","NaN","","","","","","","","","","","","","",""
"","response","","html-keyboard-response","133","145643","0.0-1.0-185.0-0.0","0","0","96953","","373","","","75","20","","","1","20","training","adjacent","FG","6","7","P.jpg","N.jpg","1","1","1","",""
"","feedback","","html-keyboard-response","134","146658","0.0-1.0-186.0-0.0","0","0","96953","","null","","","null","20","","","","","","","","","","","","","","","",""
"","ITI","","html-keyboard-response","135","147672","0.0-1.0-189.0","0","0","96953","","null","","","null","20","","","","","","","","","","","","","","","NaN",""
"","S1","","html-keyboard-response","136","147935","0.0-1.0-191.0","0","0","96953","","null","","","null","21","","","","","","","","","","","","","","","",""
"","ISI","","html-keyboard-response","137","148946","0.0-1.0-192.0","0","0","96953","","null","","","null","21","NaN","","","","","","","","","","","","","","",""
"","S2","","html-keyboard-response","138","149211","0.0-1.0-193.0","0","0","96953","","null","","","null","21","","NaN","","","","","","","","","","","","","",""
"","response","","html-keyboard-response","139","149635","0.0-1.0-194.0-0.0","0","0","96953","","423","","","75","21","","","1","21","training","adjacent","DC","4","3","L.jpg","Q.jpg","1","0","0","",""
"","feedback","","html-keyboard-response","140","150648","0.0-1.0-195.0-0.0","0","0","96953","","null","","","null","21","","","","","","","","","","","","","","","",""
"","time_out","","html-keyboard-response","141","152660","0.0-1.0-197.0-0.0","0","0","96953","","null","","","null","21","","","","","","","","","","","","","","","",""
"","ITI","","html-keyboard-response","142","153664","0.0-1.0-198.0","0","0","96953","","null","","","null","21","","","","","","","","","","","","","","","NaN",""
"","S1","","html-keyboard-response","143","153930","0.0-1.0-200.0","0","0","96953","","null","","","null","22","","","","","","","","","","","","","","","",""
"","ISI","","html-keyboard-response","144","154944","0.0-1.0-201.0","0","0","96953","","null","","","null","22","NaN","","","","","","","","","","","","","","",""
"","S2","","html-keyboard-response","145","155208","0.0-1.0-202.0","0","0","96953","","null","","","null","22","","NaN","","","","","","","","","","","","","",""
"","response","","html-keyboard-response","146","155507","0.0-1.0-203.0-0.0","0","0","96953","","298","","","68","22","","","1","22","training","adjacent","GF","7","6","N.jpg","P.jpg","0","0","1","",""
"","feedback","","html-keyboard-response","147","156521","0.0-1.0-204.0-0.0","0","0","96953","","null","","","null","22","","","","","","","","","","","","","","","",""
"","ITI","","html-keyboard-response","148","157533","0.0-1.0-207.0","0","0","96953","","null","","","null","22","","","","","","","","","","","","","","","NaN",""
"","S1","","html-keyboard-response","149","157799","0.0-1.0-209.0","0","0","96953","","null","","","null","23","","","","","","","","","","","","","","","",""
"","ISI","","html-keyboard-response","150","158815","0.0-1.0-210.0","0","0","96953","","null","","","null","23","NaN","","","","","","","","","","","","","","",""
"","S2","","html-keyboard-response","151","159079","0.0-1.0-211.0","0","0","96953","","null","","","null","23","","NaN","","","","","","","","","","","","","",""
"","response","","html-keyboard-response","152","159411","0.0-1.0-212.0-0.0","0","0","96953","","331","","","68","23","","","1","23","training","adjacent","GF","7","6","N.jpg","P.jpg","0","0","1","",""
"","feedback","","html-keyboard-response","153","160425","0.0-1.0-213.0-0.0","0","0","96953","","null","","","null","23","","","","","","","","","","","","","","","",""
"","ITI","","html-keyboard-response","154","161438","0.0-1.0-216.0","0","0","96953","","null","","","null","23","","","","","","","","","","","","","","","NaN",""
"","S1","","html-keyboard-response","155","161703","0.0-1.0-218.0","0","0","96953","","null","","","null","24","","","","","","","","","","","","","","","",""
"","ISI","","html-keyboard-response","156","162715","0.0-1.0-219.0","0","0","96953","","null","","","null","24","NaN","","","","","","","","","","","","","","",""
"","S2","","html-keyboard-response","157","162978","0.0-1.0-220.0","0","0","96953","","null","","","null","24","","NaN","","","","","","","","","","","","","",""
"","response","","html-keyboard-response","158","163659","0.0-1.0-221.0-0.0","0","0","96953","","680","","","68","24","","","1","24","training","adjacent","FE","6","5","P.jpg","M.jpg","0","0","1","",""
"","feedback","","html-keyboard-response","159","164661","0.0-1.0-222.0-0.0","0","0","96953","","null","","","null","24","","","","","","","","","","","","","","","",""
"","ITI","","html-keyboard-response","160","165672","0.0-1.0-225.0","0","0","96953","","null","","","null","24","","","","","","","","","","","","","","","NaN",""
"","S1","","html-keyboard-response","161","165924","0.0-1.0-227.0","0","0","96953","","null","","","null","25","","","","","","","","","","","","","","","",""
"","ISI","","html-keyboard-response","162","166938","0.0-1.0-228.0","0","0","96953","","null","","","null","25","NaN","","","","","","","","","","","","","","",""
"","S2","","html-keyboard-response","163","167199","0.0-1.0-229.0","0","0","96953","","null","","","null","25","","NaN","","","","","","","","","","","","","",""
"","response","","html-keyboard-response","164","167714","0.0-1.0-230.0-0.0","0","0","96953","","514","","","68","25","","","1","25","training","adjacent","BA","2","1","R.jpg","O.jpg","0","0","1","",""
"","feedback","","html-keyboard-response","165","168724","0.0-1.0-231.0-0.0","0","0","96953","","null","","","null","25","","","","","","","","","","","","","","","",""
"","ITI","","html-keyboard-response","166","169736","0.0-1.0-234.0","0","0","96953","","null","","","null","25","","","","","","","","","","","","","","","NaN",""
"","S1","","html-keyboard-response","167","170002","0.0-1.0-236.0","0","0","96953","","null","","","null","26","","","","","","","","","","","","","","","",""
"","ISI","","html-keyboard-response","168","171014","0.0-1.0-237.0","0","0","96953","","null","","","null","26","NaN","","","","","","","","","","","","","","",""
"","S2","","html-keyboard-response","169","171279","0.0-1.0-238.0","0","0","96953","","null","","","null","26","","NaN","","","","","","","","","","","","","",""
"","response","","html-keyboard-response","170","171763","0.0-1.0-239.0-0.0","0","0","96953","","483","","","75","26","","","1","26","training","adjacent","BA","2","1","R.jpg","O.jpg","1","0","0","",""
"","feedback","","html-keyboard-response","171","172773","0.0-1.0-240.0-0.0","0","0","96953","","null","","","null","26","","","","","","","","","","","","","","","",""
"","time_out","","html-keyboard-response","172","174784","0.0-1.0-242.0-0.0","0","0","96953","","null","","","null","26","","","","","","","","","","","","","","","",""
"","ITI","","html-keyboard-response","173","175797","0.0-1.0-243.0","0","0","96953","","null","","","null","26","","","","","","","","","","","","","","","NaN",""
"","S1","","html-keyboard-response","174","176062","0.0-1.0-245.0","0","0","96953","","null","","","null","27","","","","","","","","","","","","","","","",""
"","ISI","","html-keyboard-response","175","177075","0.0-1.0-246.0","0","0","96953","","null","","","null","27","NaN","","","","","","","","","","","","","","",""
"","S2","","html-keyboard-response","176","177340","0.0-1.0-247.0","0","0","96953","","null","","","null","27","","NaN","","","","","","","","","","","","","",""
"","response","","html-keyboard-response","177","177651","0.0-1.0-248.0-0.0","0","0","96953","","310","","","75","27","","","1","27","training","adjacent","FG","6","7","P.jpg","N.jpg","1","1","1","",""
"","feedback","","html-keyboard-response","178","178661","0.0-1.0-249.0-0.0","0","0","96953","","null","","","null","27","","","","","","","","","","","","","","","",""
"","ITI","","html-keyboard-response","179","179676","0.0-1.0-252.0","0","0","96953","","null","","","null","27","","","","","","","","","","","","","","","NaN",""
"","S1","","html-keyboard-response","180","179940","0.0-1.0-254.0","0","0","96953","","null","","","null","28","","","","","","","","","","","","","","","",""
"","ISI","","html-keyboard-response","181","180956","0.0-1.0-255.0","0","0","96953","","null","","","null","28","NaN","","","","","","","","","","","","","","",""
"","S2","","html-keyboard-response","182","181219","0.0-1.0-256.0","0","0","96953","","null","","","null","28","","NaN","","","","","","","","","","","","","",""
"","response","","html-keyboard-response","183","181835","0.0-1.0-257.0-0.0","0","0","96953","","614","","","75","28","","","1","28","training","adjacent","BC","2","3","R.jpg","Q.jpg","1","1","1","",""
"","feedback","","html-keyboard-response","184","182841","0.0-1.0-258.0-0.0","0","0","96953","","null","","","null","28","","","","","","","","","","","","","","","",""
"","ITI","","html-keyboard-response","185","183855","0.0-1.0-261.0","0","0","96953","","null","","","null","28","","","","","","","","","","","","","","","NaN",""
"","S1","","html-keyboard-response","186","184120","0.0-1.0-263.0","0","0","96953","","null","","","null","29","","","","","","","","","","","","","","","",""
"","ISI","","html-keyboard-response","187","185132","0.0-1.0-264.0","0","0","96953","","null","","","null","29","NaN","","","","","","","","","","","","","","",""
"","S2","","html-keyboard-response","188","185396","0.0-1.0-265.0","0","0","96953","","null","","","null","29","","NaN","","","","","","","","","","","","","",""
"","response","","html-keyboard-response","189","185699","0.0-1.0-266.0-0.0","0","0","96953","","301","","","68","29","","","1","29","training","adjacent","CB","3","2","Q.jpg","R.jpg","0","0","1","",""
"","feedback","","html-keyboard-response","190","186705","0.0-1.0-267.0-0.0","0","0","96953","","null","","","null","29","","","","","","","","","","","","","","","",""
"","ITI","","html-keyboard-response","191","187715","0.0-1.0-270.0","0","0","96953","","null","","","null","29","","","","","","","","","","","","","","","NaN",""
"","S1","","html-keyboard-response","192","187978","0.0-1.0-272.0","0","0","96953","","null","","","null","30","","","","","","","","","","","","","","","",""
"","ISI","","html-keyboard-response","193","188987","0.0-1.0-273.0","0","0","96953","","null","","","null","30","NaN","","","","","","","","","","","","","","",""
"","S2","","html-keyboard-response","194","189252","0.0-1.0-274.0","0","0","96953","","null","","","null","30","","NaN","","","","","","","","","","","","","",""
"","response","","html-keyboard-response","195","189835","0.0-1.0-275.0-0.0","0","0","96953","","582","","","68","30","","","1","30","training","adjacent","BA","2","1","R.jpg","O.jpg","0","0","1","",""
"","feedback","","html-keyboard-response","196","190842","0.0-1.0-276.0-0.0","0","0","96953","","null","","","null","30","","","","","","","","","","","","","","","",""
"","ITI","","html-keyboard-response","197","191853","0.0-1.0-279.0","0","0","96953","","null","","","null","30","","","","","","","","","","","","","","","NaN",""
"","S1","","html-keyboard-response","198","192117","0.0-1.0-281.0","0","0","96953","","null","","","null","31","","","","","","","","","","","","","","","",""
"","ISI","","html-keyboard-response","199","193131","0.0-1.0-282.0","0","0","96953","","null","","","null","31","NaN","","","","","","","","","","","","","","",""
"","S2","","html-keyboard-response","200","193398","0.0-1.0-283.0","0","0","96953","","null","","","null","31","","NaN","","","","","","","","","","","","","",""
"","response","","html-keyboard-response","201","193978","0.0-1.0-284.0-0.0","0","0","96953","","579","","","75","31","","","1","31","training","adjacent","FE","6","5","P.jpg","M.jpg","1","0","0","",""
"","feedback","","html-keyboard-response","202","194986","0.0-1.0-285.0-0.0","0","0","96953","","null","","","null","31","","","","","","","","","","","","","","","",""
"","time_out","","html-keyboard-response","203","197000","0.0-1.0-287.0-0.0","0","0","96953","","null","","","null","31","","","","","","","","","","","","","","","",""
"","ITI","","html-keyboard-response","204","198015","0.0-1.0-288.0","0","0","96953","","null","","","null","31","","","","","","","","","","","","","","","NaN",""
"","S1","","html-keyboard-response","205","198279","0.0-1.0-290.0","0","0","96953","","null","","","null","32","","","","","","","","","","","","","","","",""
"","ISI","","html-keyboard-response","206","199294","0.0-1.0-291.0","0","0","96953","","null","","","null","32","NaN","","","","","","","","","","","","","","",""
"","S2","","html-keyboard-response","207","199559","0.0-1.0-292.0","0","0","96953","","null","","","null","32","","NaN","","","","","","","","","","","","","",""
"","response","","html-keyboard-response","208","199771","0.0-1.0-293.0-0.0","0","0","96953","","211","","","68","32","","","1","32","training","adjacent","CB","3","2","Q.jpg","R.jpg","0","0","1","",""
"","feedback","","html-keyboard-response","209","200773","0.0-1.0-294.0-0.0","0","0","96953","","null","","","null","32","","","","","","","","","","","","","","","",""
"","ITI","","html-keyboard-response","210","201785","0.0-1.0-297.0","0","0","96953","","null","","","null","32","","","","","","","","","","","","","","","NaN",""
"","S1","","html-keyboard-response","211","202049","0.0-1.0-299.0","0","0","96953","","null","","","null","33","","","","","","","","","","","","","","","",""
"","ISI","","html-keyboard-response","212","203064","0.0-1.0-300.0","0","0","96953","","null","","","null","33","NaN","","","","","","","","","","","","","","",""
"","S2","","html-keyboard-response","213","203328","0.0-1.0-301.0","0","0","96953","","null","","","null","33","","NaN","","","","","","","","","","","","","",""
"","response","","html-keyboard-response","214","203579","0.0-1.0-302.0-0.0","0","0","96953","","250","","","75","33","","","1","33","training","adjacent","CD","3","4","Q.jpg","L.jpg","1","1","1","",""
"","feedback","","html-keyboard-response","215","204590","0.0-1.0-303.0-0.0","0","0","96953","","null","","","null","33","","","","","","","","","","","","","","","",""
"","ITI","","html-keyboard-response","216","205593","0.0-1.0-306.0","0","0","96953","","null","","","null","33","","","","","","","","","","","","","","","NaN",""
"","S1","","html-keyboard-response","217","205858","0.0-1.0-308.0","0","0","96953","","null","","","null","34","","","","","","","","","","","","","","","",""
"","ISI","","html-keyboard-response","218","206872","0.0-1.0-309.0","0","0","96953","","null","","","null","34","NaN","","","","","","","","","","","","","","",""
"","S2","","html-keyboard-response","219","207136","0.0-1.0-310.0","0","0","96953","","null","","","null","34","","NaN","","","","","","","","","","","","","",""
"","response","","html-keyboard-response","220","207322","0.0-1.0-311.0-0.0","0","0","96953","","184","","","75","34","","","1","34","training","adjacent","CD","3","4","Q.jpg","L.jpg","1","1","1","",""
"","feedback","","html-keyboard-response","221","208326","0.0-1.0-312.0-0.0","0","0","96953","","null","","","null","34","","","","","","","","","","","","","","","",""
"","ITI","","html-keyboard-response","222","209340","0.0-1.0-315.0","0","0","96953","","null","","","null","34","","","","","","","","","","","","","","","NaN",""
"","S1","","html-keyboard-response","223","209592","0.0-1.0-317.0","0","0","96953","","null","","","null","35","","","","","","","","","","","","","","","",""
"","ISI","","html-keyboard-response","224","210607","0.0-1.0-318.0","0","0","96953","","null","","","null","35","NaN","","","","","","","","","","","","","","",""
"","S2","","html-keyboard-response","225","210871","0.0-1.0-319.0","0","0","96953","","null","","","null","35","","NaN","","","","","","","","","","","","","",""
"","response","","html-keyboard-response","226","211235","0.0-1.0-320.0-0.0","0","0","96953","","362","","","68","35","","","1","35","training","adjacent","AB","1","2","O.jpg","R.jpg","0","1","0","",""
"","feedback","","html-keyboard-response","227","212242","0.0-1.0-321.0-0.0","0","0","96953","","null","","","null","35","","","","","","","","","","","","","","","",""
"","time_out","","html-keyboard-response","228","214257","0.0-1.0-323.0-0.0","0","0","96953","","null","","","null","35","","","","","","","","","","","","","","","",""
"","ITI","","html-keyboard-response","229","215270","0.0-1.0-324.0","0","0","96953","","null","","","null","35","","","","","","","","","","","","","","","NaN",""
"","S1","","html-keyboard-response","230","215535","0.0-1.0-326.0","0","0","96953","","null","","","null","36","","","","","","","","","","","","","","","",""
"","ISI","","html-keyboard-response","231","216551","0.0-1.0-327.0","0","0","96953","","null","","","null","36","NaN","","","","","","","","","","","","","","",""
"","S2","","html-keyboard-response","232","216814","0.0-1.0-328.0","0","0","96953","","null","","","null","36","","NaN","","","","","","","","","","","","","",""
"","response","","html-keyboard-response","233","217011","0.0-1.0-329.0-0.0","0","0","96953","","196","","","75","36","","","1","36","training","adjacent","AB","1","2","O.jpg","R.jpg","1","1","1","",""
"","feedback","","html-keyboard-response","234","218012","0.0-1.0-330.0-0.0","0","0","96953","","null","","","null","36","","","","","","","","","","","","","","","",""
"","ITI","","html-keyboard-response","235","219025","0.0-1.0-333.0","0","0","96953","","null","","","null","36","","","","","","","","","","","","","","","NaN",""
"","S1","","html-keyboard-response","236","219277","0.0-1.0-335.0","0","0","96953","","null","","","null","37","","","","","","","","","","","","","","","",""
"","ISI","","html-keyboard-response","237","220294","0.0-1.0-336.0","0","0","96953","","null","","","null","37","NaN","","","","","","","","","","","","","","",""
"","S2","","html-keyboard-response","238","220556","0.0-1.0-337.0","0","0","96953","","null","","","null","37","","NaN","","","","","","","","","","","","","",""
"","response","","html-keyboard-response","239","220707","0.0-1.0-338.0-0.0","0","0","96953","","150","","","68","37","","","1","37","training","adjacent","GF","7","6","N.jpg","P.jpg","0","0","1","",""
"","feedback","","html-keyboard-response","240","221711","0.0-1.0-339.0-0.0","0","0","96953","","null","","","null","37","","","","","","","","","","","","","","","",""
"","ITI","","html-keyboard-response","241","222724","0.0-1.0-342.0","0","0","96953","","null","","","null","37","","","","","","","","","","","","","","","NaN",""
"","S1","","html-keyboard-response","242","222990","0.0-1.0-344.0","0","0","96953","","null","","","null","38","","","","","","","","","","","","","","","",""
"","ISI","","html-keyboard-response","243","223993","0.0-1.0-345.0","0","0","96953","","null","","","null","38","NaN","","","","","","","","","","","","","","",""
"","S2","","html-keyboard-response","244","224257","0.0-1.0-346.0","0","0","96953","","null","","","null","38","","NaN","","","","","","","","","","","","","",""
"","response","","html-keyboard-response","245","224930","0.0-1.0-347.0-0.0","0","0","96953","","672","","","75","38","","","1","38","training","adjacent","EF","5","6","M.jpg","P.jpg","1","1","1","",""
"","feedback","","html-keyboard-response","246","225936","0.0-1.0-348.0-0.0","0","0","96953","","null","","","null","38","","","","","","","","","","","","","","","",""
"","ITI","","html-keyboard-response","247","226938","0.0-1.0-351.0","0","0","96953","","null","","","null","38","","","","","","","","","","","","","","","NaN",""
"","S1","","html-keyboard-response","248","227202","0.0-1.0-353.0","0","0","96953","","null","","","null","39","","","","","","","","","","","","","","","",""
"","ISI","","html-keyboard-response","249","228203","0.0-1.0-354.0","0","0","96953","","null","","","null","39","NaN","","","","","","","","","","","","","","",""
"","S2","","html-keyboard-response","250","228467","0.0-1.0-355.0","0","0","96953","","null","","","null","39","","NaN","","","","","","","","","","","","","",""
"","response","","html-keyboard-response","251","228835","0.0-1.0-356.0-0.0","0","0","96953","","366","","","68","39","","","1","39","training","adjacent","CB","3","2","Q.jpg","R.jpg","0","0","1","",""
"","feedback","","html-keyboard-response","252","229841","0.0-1.0-357.0-0.0","0","0","96953","","null","","","null","39","","","","","","","","","","","","","","","",""
"","ITI","","html-keyboard-response","253","230844","0.0-1.0-360.0","0","0","96953","","null","","","null","39","","","","","","","","","","","","","","","NaN",""
"","S1","","html-keyboard-response","254","231108","0.0-1.0-362.0","0","0","96953","","null","","","null","40","","","","","","","","","","","","","","","",""
"","ISI","","html-keyboard-response","255","232118","0.0-1.0-363.0","0","0","96953","","null","","","null","40","NaN","","","","","","","","","","","","","","",""
"","S2","","html-keyboard-response","256","232384","0.0-1.0-364.0","0","0","96953","","null","","","null","40","","NaN","","","","","","","","","","","","","",""
"","response","","html-keyboard-response","257","232506","0.0-1.0-365.0-0.0","0","0","96953","","122","","","75","40","","","1","40","training","adjacent","DE","4","5","L.jpg","M.jpg","1","1","1","",""
"","feedback","","html-keyboard-response","258","233522","0.0-1.0-366.0-0.0","0","0","96953","","null","","","null","40","","","","","","","","","","","","","","","",""
"","ITI","","html-keyboard-response","259","234523","0.0-1.0-369.0","0","0","96953","","null","","","null","40","","","","","","","","","","","","","","","NaN",""
"","S1","","html-keyboard-response","260","234788","0.0-1.0-371.0","0","0","96953","","null","","","null","41","","","","","","","","","","","","","","","",""
"","ISI","","html-keyboard-response","261","235803","0.0-1.0-372.0","0","0","96953","","null","","","null","41","NaN","","","","","","","","","","","","","","",""
"","S2","","html-keyboard-response","262","236070","0.0-1.0-373.0","0","0","96953","","null","","","null","41","","NaN","","","","","","","","","","","","","",""
"","response","","html-keyboard-response","263","236411","0.0-1.0-374.0-0.0","0","0","96953","","340","","","68","41","","","1","41","training","adjacent","CD","3","4","Q.jpg","L.jpg","0","1","0","",""
"","feedback","","html-keyboard-response","264","237427","0.0-1.0-375.0-0.0","0","0","96953","","null","","","null","41","","","","","","","","","","","","","","","",""
"","time_out","","html-keyboard-response","265","239438","0.0-1.0-377.0-0.0","0","0","96953","","null","","","null","41","","","","","","","","","","","","","","","",""
"","ITI","","html-keyboard-response","266","240444","0.0-1.0-378.0","0","0","96953","","null","","","null","41","","","","","","","","","","","","","","","NaN",""
"","S1","","html-keyboard-response","267","240707","0.0-1.0-380.0","0","0","96953","","null","","","null","42","","","","","","","","","","","","","","","",""
"","ISI","","html-keyboard-response","268","241722","0.0-1.0-381.0","0","0","96953","","null","","","null","42","NaN","","","","","","","","","","","","","","",""
"","S2","","html-keyboard-response","269","241987","0.0-1.0-382.0","0","0","96953","","null","","","null","42","","NaN","","","","","","","","","","","","","",""
"","response","","html-keyboard-response","270","242755","0.0-1.0-383.0-0.0","0","0","96953","","767","","","68","42","","","1","42","training","adjacent","EF","5","6","M.jpg","P.jpg","0","1","0","",""
"","feedback","","html-keyboard-response","271","243765","0.0-1.0-384.0-0.0","0","0","96953","","null","","","null","42","","","","","","","","","","","","","","","",""
"","time_out","","html-keyboard-response","272","245780","0.0-1.0-386.0-0.0","0","0","96953","","null","","","null","42","","","","","","","","","","","","","","","",""
"","ITI","","html-keyboard-response","273","246793","0.0-1.0-387.0","0","0","96953","","null","","","null","42","","","","","","","","","","","","","","","NaN",""
"","S1","","html-keyboard-response","274","247055","0.0-1.0-389.0","0","0","96953","","null","","","null","43","","","","","","","","","","","","","","","",""
"","ISI","","html-keyboard-response","275","248069","0.0-1.0-390.0","0","0","96953","","null","","","null","43","NaN","","","","","","","","","","","","","","",""
"","S2","","html-keyboard-response","276","248332","0.0-1.0-391.0","0","0","96953","","null","","","null","43","","NaN","","","","","","","","","","","","","",""
"","response","","html-keyboard-response","277","248755","0.0-1.0-392.0-0.0","0","0","96953","","422","","","75","43","","","1","43","training","adjacent","DC","4","3","L.jpg","Q.jpg","1","0","0","",""
"","feedback","","html-keyboard-response","278","249757","0.0-1.0-393.0-0.0","0","0","96953","","null","","","null","43","","","","","","","","","","","","","","","",""
"","time_out","","html-keyboard-response","279","251769","0.0-1.0-395.0-0.0","0","0","96953","","null","","","null","43","","","","","","","","","","","","","","","",""
"","ITI","","html-keyboard-response","280","252784","0.0-1.0-396.0","0","0","96953","","null","","","null","43","","","","","","","","","","","","","","","NaN",""
"","S1","","html-keyboard-response","281","253048","0.0-1.0-398.0","0","0","96953","","null","","","null","44","","","","","","","","","","","","","","","",""
"","ISI","","html-keyboard-response","282","254061","0.0-1.0-399.0","0","0","96953","","null","","","null","44","NaN","","","","","","","","","","","","","","",""
"","S2","","html-keyboard-response","283","254325","0.0-1.0-400.0","0","0","96953","","null","","","null","44","","NaN","","","","","","","","","","","","","",""
"","response","","html-keyboard-response","284","255011","0.0-1.0-401.0-0.0","0","0","96953","","685","","","68","44","","","1","44","training","adjacent","DC","4","3","L.jpg","Q.jpg","0","0","1","",""
"","feedback","","html-keyboard-response","285","256023","0.0-1.0-402.0-0.0","0","0","96953","","null","","","null","44","","","","","","","","","","","","","","","",""
"","ITI","","html-keyboard-response","286","257024","0.0-1.0-405.0","0","0","96953","","null","","","null","44","","","","","","","","","","","","","","","NaN",""
"","S1","","html-keyboard-response","287","257288","0.0-1.0-407.0","0","0","96953","","null","","","null","45","","","","","","","","","","","","","","","",""
"","ISI","","html-keyboard-response","288","258303","0.0-1.0-408.0","0","0","96953","","null","","","null","45","NaN","","","","","","","","","","","","","","",""
"","S2","","html-keyboard-response","289","258567","0.0-1.0-409.0","0","0","96953","","null","","","null","45","","NaN","","","","","","","","","","","","","",""
"","response","","html-keyboard-response","290","258923","0.0-1.0-410.0-0.0","0","0","96953","","353","","","68","45","","","1","45","training","adjacent","AB","1","2","O.jpg","R.jpg","0","1","0","",""
"","feedback","","html-keyboard-response","291","259924","0.0-1.0-411.0-0.0","0","0","96953","","null","","","null","45","","","","","","","","","","","","","","","",""
"","time_out","","html-keyboard-response","292","261936","0.0-1.0-413.0-0.0","0","0","96953","","null","","","null","45","","","","","","","","","","","","","","","",""
"","ITI","","html-keyboard-response","293","262950","0.0-1.0-414.0","0","0","96953","","null","","","null","45","","","","","","","","","","","","","","","NaN",""
"","S1","","html-keyboard-response","294","263216","0.0-1.0-416.0","0","0","96953","","null","","","null","46","","","","","","","","","","","","","","","",""
"","ISI","","html-keyboard-response","295","264217","0.0-1.0-417.0","0","0","96953","","null","","","null","46","NaN","","","","","","","","","","","","","","",""
"","S2","","html-keyboard-response","296","264481","0.0-1.0-418.0","0","0","96953","","null","","","null","46","","NaN","","","","","","","","","","","","","",""
"","response","","html-keyboard-response","297","265299","0.0-1.0-419.0-0.0","0","0","96953","","817","","","68","46","","","1","46","training","adjacent","DC","4","3","L.jpg","Q.jpg","0","0","1","",""
"","feedback","","html-keyboard-response","298","266308","0.0-1.0-420.0-0.0","0","0","96953","","null","","","null","46","","","","","","","","","","","","","","","",""
"","ITI","","html-keyboard-response","299","267325","0.0-1.0-423.0","0","0","96953","","null","","","null","46","","","","","","","","","","","","","","","NaN",""
"","S1","","html-keyboard-response","300","267590","0.0-1.0-425.0","0","0","96953","","null","","","null","47","","","","","","","","","","","","","","","",""
"","ISI","","html-keyboard-response","301","268604","0.0-1.0-426.0","0","0","96953","","null","","","null","47","NaN","","","","","","","","","","","","","","",""
"","S2","","html-keyboard-response","302","268867","0.0-1.0-427.0","0","0","96953","","null","","","null","47","","NaN","","","","","","","","","","","","","",""
"","response","","html-keyboard-response","303","269427","0.0-1.0-428.0-0.0","0","0","96953","","559","","","75","47","","","1","47","training","adjacent","BC","2","3","R.jpg","Q.jpg","1","1","1","",""
"","feedback","","html-keyboard-response","304","270431","0.0-1.0-429.0-0.0","0","0","96953","","null","","","null","47","","","","","","","","","","","","","","","",""
"","ITI","","html-keyboard-response","305","271445","0.0-1.0-432.0","0","0","96953","","null","","","null","47","","","","","","","","","","","","","","","NaN",""
"","block_over","","html-keyboard-response","306","273963","0.0-1.0-433.0-0.0","0","0","96953","","2516","","","32","47","","","","","","","","","","","","","","","",""
"","S1","","html-keyboard-response","307","274227","0.0-1.0-434.0","0","0","96953","","null","","","null","48","","","","","","","","","","","","","","","",""
"","ISI","","html-keyboard-response","308","275241","0.0-1.0-435.0","0","0","96953","","null","","","null","48","NaN","","","","","","","","","","","","","","",""
"","S2","","html-keyboard-response","309","275506","0.0-1.0-436.0","0","0","96953","","null","","","null","48","","NaN","","","","","","","","","","","","","",""
"","response","","html-keyboard-response","310","276187","0.0-1.0-437.0-0.0","0","0","96953","","680","","","68","48","","","2","48","training","adjacent","CB","3","2","Q.jpg","R.jpg","0","0","1","",""
"","feedback","","html-keyboard-response","311","277194","0.0-1.0-438.0-0.0","0","0","96953","","null","","","null","48","","","","","","","","","","","","","","","",""
"","ITI","","html-keyboard-response","312","278196","0.0-1.0-441.0","0","0","96953","","null","","","null","48","","","","","","","","","","","","","","","NaN",""
"","S1","","html-keyboard-response","313","278459","0.0-1.0-443.0","0","0","96953","","null","","","null","49","","","","","","","","","","","","","","","",""
"","ISI","","html-keyboard-response","314","279471","0.0-1.0-444.0","0","0","96953","","null","","","null","49","NaN","","","","","","","","","","","","","","",""
"","S2","","html-keyboard-response","315","279736","0.0-1.0-445.0","0","0","96953","","null","","","null","49","","NaN","","","","","","","","","","","","","",""
"","response","","html-keyboard-response","316","279979","0.0-1.0-446.0-0.0","0","0","96953","","242","","","75","49","","","2","49","training","adjacent","ED","5","4","M.jpg","L.jpg","1","0","0","",""
"","feedback","","html-keyboard-response","317","280987","0.0-1.0-447.0-0.0","0","0","96953","","null","","","null","49","","","","","","","","","","","","","","","",""
"","time_out","","html-keyboard-response","318","282997","0.0-1.0-449.0-0.0","0","0","96953","","null","","","null","49","","","","","","","","","","","","","","","",""
"","ITI","","html-keyboard-response","319","284012","0.0-1.0-450.0","0","0","96953","","null","","","null","49","","","","","","","","","","","","","","","NaN",""
"","S1","","html-keyboard-response","320","284276","0.0-1.0-452.0","0","0","96953","","null","","","null","50","","","","","","","","","","","","","","","",""
"","ISI","","html-keyboard-response","321","285290","0.0-1.0-453.0","0","0","96953","","null","","","null","50","NaN","","","","","","","","","","","","","","",""
"","S2","","html-keyboard-response","322","285553","0.0-1.0-454.0","0","0","96953","","null","","","null","50","","NaN","","","","","","","","","","","","","",""
"","response","","html-keyboard-response","323","285971","0.0-1.0-455.0-0.0","0","0","96953","","417","","","68","50","","","2","50","training","adjacent","AB","1","2","O.jpg","R.jpg","0","1","0","",""
"","feedback","","html-keyboard-response","324","286975","0.0-1.0-456.0-0.0","0","0","96953","","null","","","null","50","","","","","","","","","","","","","","","",""
"","time_out","","html-keyboard-response","325","288985","0.0-1.0-458.0-0.0","0","0","96953","","null","","","null","50","","","","","","","","","","","","","","","",""
"","ITI","","html-keyboard-response","326","290001","0.0-1.0-459.0","0","0","96953","","null","","","null","50","","","","","","","","","","","","","","","NaN",""
"","S1","","html-keyboard-response","327","290266","0.0-1.0-461.0","0","0","96953","","null","","","null","51","","","","","","","","","","","","","","","",""
"","ISI","","html-keyboard-response","328","291273","0.0-1.0-462.0","0","0","96953","","null","","","null","51","NaN","","","","","","","","","","","","","","",""
"","S2","","html-keyboard-response","329","291537","0.0-1.0-463.0","0","0","96953","","null","","","null","51","","NaN","","","","","","","","","","","","","",""
"","response","","html-keyboard-response","330","291626","0.0-1.0-464.0-0.0","0","0","96953","","89","","","68","51","","","2","51","training","adjacent","GF","7","6","N.jpg","P.jpg","0","0","1","",""
"","feedback","","html-keyboard-response","331","292629","0.0-1.0-465.0-0.0","0","0","96953","","null","","","null","51","","","","","","","","","","","","","","","",""
"","ITI","","html-keyboard-response","332","293630","0.0-1.0-468.0","0","0","96953","","null","","","null","51","","","","","","","","","","","","","","","NaN",""
"","S1","","html-keyboard-response","333","293893","0.0-1.0-470.0","0","0","96953","","null","","","null","52","","","","","","","","","","","","","","","",""
"","ISI","","html-keyboard-response","334","294910","0.0-1.0-471.0","0","0","96953","","null","","","null","52","NaN","","","","","","","","","","","","","","",""
"","S2","","html-keyboard-response","335","295173","0.0-1.0-472.0","0","0","96953","","null","","","null","52","","NaN","","","","","","","","","","","","","",""
"","response","","html-keyboard-response","336","295882","0.0-1.0-473.0-0.0","0","0","96953","","708","","","68","52","","","2","52","training","adjacent","BC","2","3","R.jpg","Q.jpg","0","1","0","",""
"","feedback","","html-keyboard-response","337","296887","0.0-1.0-474.0-0.0","0","0","96953","","null","","","null","52","","","","","","","","","","","","","","","",""
"","time_out","","html-keyboard-response","338","298889","0.0-1.0-476.0-0.0","0","0","96953","","null","","","null","52","","","","","","","","","","","","","","","",""
"","ITI","","html-keyboard-response","339","299902","0.0-1.0-477.0","0","0","96953","","null","","","null","52","","","","","","","","","","","","","","","NaN",""
"","S1","","html-keyboard-response","340","300166","0.0-1.0-479.0","0","0","96953","","null","","","null","53","","","","","","","","","","","","","","","",""
"","ISI","","html-keyboard-response","341","301168","0.0-1.0-480.0","0","0","96953","","null","","","null","53","NaN","","","","","","","","","","","","","","",""
"","S2","","html-keyboard-response","342","301433","0.0-1.0-481.0","0","0","96953","","null","","","null","53","","NaN","","","","","","","","","","","","","",""
"","response","","html-keyboard-response","343","302370","0.0-1.0-482.0-0.0","0","0","96953","","936","","","68","53","","","2","53","training","adjacent","FE","6","5","P.jpg","M.jpg","0","0","1","",""
"","feedback","","html-keyboard-response","344","303382","0.0-1.0-483.0-0.0","0","0","96953","","null","","","null","53","","","","","","","","","","","","","","","",""
"","ITI","","html-keyboard-response","345","304391","0.0-1.0-486.0","0","0","96953","","null","","","null","53","","","","","","","","","","","","","","","NaN",""
"","S1","","html-keyboard-response","346","304658","0.0-1.0-488.0","0","0","96953","","null","","","null","54","","","","","","","","","","","","","","","",""
"","ISI","","html-keyboard-response","347","305672","0.0-1.0-489.0","0","0","96953","","null","","","null","54","NaN","","","","","","","","","","","","","","",""
"","S2","","html-keyboard-response","348","305937","0.0-1.0-490.0","0","0","96953","","null","","","null","54","","NaN","","","","","","","","","","","","","",""
"","response","","html-keyboard-response","349","306267","0.0-1.0-491.0-0.0","0","0","96953","","329","","","68","54","","","2","54","training","adjacent","BA","2","1","R.jpg","O.jpg","0","0","1","",""
"","feedback","","html-keyboard-response","350","307279","0.0-1.0-492.0-0.0","0","0","96953","","null","","","null","54","","","","","","","","","","","","","","","",""
"","ITI","","html-keyboard-response","351","308289","0.0-1.0-495.0","0","0","96953","","null","","","null","54","","","","","","","","","","","","","","","NaN",""
"","S1","","html-keyboard-response","352","308553","0.0-1.0-497.0","0","0","96953","","null","","","null","55","","","","","","","","","","","","","","","",""
"","ISI","","html-keyboard-response","353","309557","0.0-1.0-498.0","0","0","96953","","null","","","null","55","NaN","","","","","","","","","","","","","","",""
"","S2","","html-keyboard-response","354","309823","0.0-1.0-499.0","0","0","96953","","null","","","null","55","","NaN","","","","","","","","","","","","","",""
"","response","","html-keyboard-response","355","310515","0.0-1.0-500.0-0.0","0","0","96953","","691","","","75","55","","","2","55","training","adjacent","CD","3","4","Q.jpg","L.jpg","1","1","1","",""
"","feedback","","html-keyboard-response","356","311518","0.0-1.0-501.0-0.0","0","0","96953","","null","","","null","55","","","","","","","","","","","","","","","",""
"","ITI","","html-keyboard-response","357","312527","0.0-1.0-504.0","0","0","96953","","null","","","null","55","","","","","","","","","","","","","","","NaN",""
"","S1","","html-keyboard-response","358","312789","0.0-1.0-506.0","0","0","96953","","null","","","null","56","","","","","","","","","","","","","","","",""
"","ISI","","html-keyboard-response","359","313792","0.0-1.0-507.0","0","0","96953","","null","","","null","56","NaN","","","","","","","","","","","","","","",""
"","S2","","html-keyboard-response","360","314054","0.0-1.0-508.0","0","0","96953","","null","","","null","56","","NaN","","","","","","","","","","","","","",""
"","response","","html-keyboard-response","361","314291","0.0-1.0-509.0-0.0","0","0","96953","","236","","","75","56","","","2","56","training","adjacent","DE","4","5","L.jpg","M.jpg","1","1","1","",""
"","feedback","","html-keyboard-response","362","315297","0.0-1.0-510.0-0.0","0","0","96953","","null","","","null","56","","","","","","","","","","","","","","","",""
"","ITI","","html-keyboard-response","363","316311","0.0-1.0-513.0","0","0","96953","","null","","","null","56","","","","","","","","","","","","","","","NaN",""
"","S1","","html-keyboard-response","364","316575","0.0-1.0-515.0","0","0","96953","","null","","","null","57","","","","","","","","","","","","","","","",""
"","ISI","","html-keyboard-response","365","317589","0.0-1.0-516.0","0","0","96953","","null","","","null","57","NaN","","","","","","","","","","","","","","",""
"","S2","","html-keyboard-response","366","317854","0.0-1.0-517.0","0","0","96953","","null","","","null","57","","NaN","","","","","","","","","","","","","",""
"","response","","html-keyboard-response","367","318458","0.0-1.0-518.0-0.0","0","0","96953","","602","","","75","57","","","2","57","training","adjacent","CD","3","4","Q.jpg","L.jpg","1","1","1","",""
"","feedback","","html-keyboard-response","368","319475","0.0-1.0-519.0-0.0","0","0","96953","","null","","","null","57","","","","","","","","","","","","","","","",""
"","ITI","","html-keyboard-response","369","320476","0.0-1.0-522.0","0","0","96953","","null","","","null","57","","","","","","","","","","","","","","","NaN",""
"","S1","","html-keyboard-response","370","320742","0.0-1.0-524.0","0","0","96953","","null","","","null","58","","","","","","","","","","","","","","","",""
"","ISI","","html-keyboard-response","371","321752","0.0-1.0-525.0","0","0","96953","","null","","","null","58","NaN","","","","","","","","","","","","","","",""
"","S2","","html-keyboard-response","372","322018","0.0-1.0-526.0","0","0","96953","","null","","","null","58","","NaN","","","","","","","","","","","","","",""
"","response","","html-keyboard-response","373","322458","0.0-1.0-527.0-0.0","0","0","96953","","439","","","68","58","","","2","58","training","adjacent","EF","5","6","M.jpg","P.jpg","0","1","0","",""
"","feedback","","html-keyboard-response","374","323469","0.0-1.0-528.0-0.0","0","0","96953","","null","","","null","58","","","","","","","","","","","","","","","",""
"","time_out","","html-keyboard-response","375","325473","0.0-1.0-530.0-0.0","0","0","96953","","null","","","null","58","","","","","","","","","","","","","","","",""
"","ITI","","html-keyboard-response","376","326488","0.0-1.0-531.0","0","0","96953","","null","","","null","58","","","","","","","","","","","","","","","NaN",""
"","S1","","html-keyboard-response","377","326753","0.0-1.0-533.0","0","0","96953","","null","","","null","59","","","","","","","","","","","","","","","",""
"","ISI","","html-keyboard-response","378","327766","0.0-1.0-534.0","0","0","96953","","null","","","null","59","NaN","","","","","","","","","","","","","","",""
"","S2","","html-keyboard-response","379","328031","0.0-1.0-535.0","0","0","96953","","null","","","null","59","","NaN","","","","","","","","","","","","","",""
"","response","","html-keyboard-response","380","328947","0.0-1.0-536.0-0.0","0","0","96953","","914","","","68","59","","","2","59","training","adjacent","CB","3","2","Q.jpg","R.jpg","0","0","1","",""
"","feedback","","html-keyboard-response","381","329962","0.0-1.0-537.0-0.0","0","0","96953","","null","","","null","59","","","","","","","","","","","","","","","",""
"","ITI","","html-keyboard-response","382","330973","0.0-1.0-540.0","0","0","96953","","null","","","null","59","","","","","","","","","","","","","","","NaN",""
"","S1","","html-keyboard-response","383","331225","0.0-1.0-542.0","0","0","96953","","null","","","null","60","","","","","","","","","","","","","","","",""
"","ISI","","html-keyboard-response","384","332239","0.0-1.0-543.0","0","0","96953","","null","","","null","60","NaN","","","","","","","","","","","","","","",""
"","S2","","html-keyboard-response","385","332504","0.0-1.0-544.0","0","0","96953","","null","","","null","60","","NaN","","","","","","","","","","","","","",""
"","response","","html-keyboard-response","386","333339","0.0-1.0-545.0-0.0","0","0","96953","","832","","","75","60","","","2","60","training","adjacent","FE","6","5","P.jpg","M.jpg","1","0","0","",""
"","feedback","","html-keyboard-response","387","334342","0.0-1.0-546.0-0.0","0","0","96953","","null","","","null","60","","","","","","","","","","","","","","","",""
"","time_out","","html-keyboard-response","388","336357","0.0-1.0-548.0-0.0","0","0","96953","","null","","","null","60","","","","","","","","","","","","","","","",""
"","ITI","","html-keyboard-response","389","337371","0.0-1.0-549.0","0","0","96953","","null","","","null","60","","","","","","","","","","","","","","","NaN",""
"","S1","","html-keyboard-response","390","337636","0.0-1.0-551.0","0","0","96953","","null","","","null","61","","","","","","","","","","","","","","","",""
"","ISI","","html-keyboard-response","391","338639","0.0-1.0-552.0","0","0","96953","","null","","","null","61","NaN","","","","","","","","","","","","","","",""
"","S2","","html-keyboard-response","392","338904","0.0-1.0-553.0","0","0","96953","","null","","","null","61","","NaN","","","","","","","","","","","","","",""
"","response","","html-keyboard-response","393","339163","0.0-1.0-554.0-0.0","0","0","96953","","258","","","75","61","","","2","61","training","adjacent","AB","1","2","O.jpg","R.jpg","1","1","1","",""
"","feedback","","html-keyboard-response","394","340166","0.0-1.0-555.0-0.0","0","0","96953","","null","","","null","61","","","","","","","","","","","","","","","",""
"","ITI","","html-keyboard-response","395","341181","0.0-1.0-558.0","0","0","96953","","null","","","null","61","","","","","","","","","","","","","","","NaN",""
"","S1","","html-keyboard-response","396","341445","0.0-1.0-560.0","0","0","96953","","null","","","null","62","","","","","","","","","","","","","","","",""
"","ISI","","html-keyboard-response","397","342459","0.0-1.0-561.0","0","0","96953","","null","","","null","62","NaN","","","","","","","","","","","","","","",""
"","S2","","html-keyboard-response","398","342725","0.0-1.0-562.0","0","0","96953","","null","","","null","62","","NaN","","","","","","","","","","","","","",""
"","response","","html-keyboard-response","399","342826","0.0-1.0-563.0-0.0","0","0","96953","","101","","","75","62","","","2","62","training","adjacent","DE","4","5","L.jpg","M.jpg","1","1","1","",""
"","feedback","","html-keyboard-response","400","343828","0.0-1.0-564.0-0.0","0","0","96953","","null","","","null","62","","","","","","","","","","","","","","","",""
"","ITI","","html-keyboard-response","401","344843","0.0-1.0-567.0","0","0","96953","","null","","","null","62","","","","","","","","","","","","","","","NaN",""
"","S1","","html-keyboard-response","402","345108","0.0-1.0-569.0","0","0","96953","","null","","","null","63","","","","","","","","","","","","","","","",""
"","ISI","","html-keyboard-response","403","346123","0.0-1.0-570.0","0","0","96953","","null","","","null","63","NaN","","","","","","","","","","","","","","",""
"","S2","","html-keyboard-response","404","346388","0.0-1.0-571.0","0","0","96953","","null","","","null","63","","NaN","","","","","","","","","","","","","",""
"","response","","html-keyboard-response","405","346795","0.0-1.0-572.0-0.0","0","0","96953","","406","","","68","63","","","2","63","training","adjacent","AB","1","2","O.jpg","R.jpg","0","1","0","",""
"","feedback","","html-keyboard-response","406","347805","0.0-1.0-573.0-0.0","0","0","96953","","null","","","null","63","","","","","","","","","","","","","","","",""
"","time_out","","html-keyboard-response","407","349817","0.0-1.0-575.0-0.0","0","0","96953","","null","","","null","63","","","","","","","","","","","","","","","",""
"","ITI","","html-keyboard-response","408","350832","0.0-1.0-576.0","0","0","96953","","null","","","null","63","","","","","","","","","","","","","","","NaN",""
"","S1","","html-keyboard-response","409","351095","0.0-1.0-578.0","0","0","96953","","null","","","null","64","","","","","","","","","","","","","","","",""
"","ISI","","html-keyboard-response","410","352096","0.0-1.0-579.0","0","0","96953","","null","","","null","64","NaN","","","","","","","","","","","","","","",""
"","S2","","html-keyboard-response","411","352360","0.0-1.0-580.0","0","0","96953","","null","","","null","64","","NaN","","","","","","","","","","","","","",""
"","response","","html-keyboard-response","412","352946","0.0-1.0-581.0-0.0","0","0","96953","","585","","","75","64","","","2","64","training","adjacent","BC","2","3","R.jpg","Q.jpg","1","1","1","",""
"","feedback","","html-keyboard-response","413","353954","0.0-1.0-582.0-0.0","0","0","96953","","null","","","null","64","","","","","","","","","","","","","","","",""
"","ITI","","html-keyboard-response","414","354969","0.0-1.0-585.0","0","0","96953","","null","","","null","64","","","","","","","","","","","","","","","NaN",""
"","S1","","html-keyboard-response","415","355234","0.0-1.0-587.0","0","0","96953","","null","","","null","65","","","","","","","","","","","","","","","",""
"","ISI","","html-keyboard-response","416","356248","0.0-1.0-588.0","0","0","96953","","null","","","null","65","NaN","","","","","","","","","","","","","","",""
"","S2","","html-keyboard-response","417","356514","0.0-1.0-589.0","0","0","96953","","null","","","null","65","","NaN","","","","","","","","","","","","","",""
"","response","","html-keyboard-response","418","357027","0.0-1.0-590.0-0.0","0","0","96953","","511","","","68","65","","","2","65","training","adjacent","BA","2","1","R.jpg","O.jpg","0","0","1","",""
"","feedback","","html-keyboard-response","419","358041","0.0-1.0-591.0-0.0","0","0","96953","","null","","","null","65","","","","","","","","","","","","","","","",""
"","ITI","","html-keyboard-response","420","359052","0.0-1.0-594.0","0","0","96953","","null","","","null","65","","","","","","","","","","","","","","","NaN",""
"","S1","","html-keyboard-response","421","359317","0.0-1.0-596.0","0","0","96953","","null","","","null","66","","","","","","","","","","","","","","","",""
"","ISI","","html-keyboard-response","422","360331","0.0-1.0-597.0","0","0","96953","","null","","","null","66","NaN","","","","","","","","","","","","","","",""
"","S2","","html-keyboard-response","423","360597","0.0-1.0-598.0","0","0","96953","","null","","","null","66","","NaN","","","","","","","","","","","","","",""
"","response","","html-keyboard-response","424","360931","0.0-1.0-599.0-0.0","0","0","96953","","333","","","75","66","","","2","66","training","adjacent","FG","6","7","P.jpg","N.jpg","1","1","1","",""
"","feedback","","html-keyboard-response","425","361941","0.0-1.0-600.0-0.0","0","0","96953","","null","","","null","66","","","","","","","","","","","","","","","",""
"","ITI","","html-keyboard-response","426","362952","0.0-1.0-603.0","0","0","96953","","null","","","null","66","","","","","","","","","","","","","","","NaN",""
"","S1","","html-keyboard-response","427","363216","0.0-1.0-605.0","0","0","96953","","null","","","null","67","","","","","","","","","","","","","","","",""
"","ISI","","html-keyboard-response","428","364231","0.0-1.0-606.0","0","0","96953","","null","","","null","67","NaN","","","","","","","","","","","","","","",""
"","S2","","html-keyboard-response","429","364493","0.0-1.0-607.0","0","0","96953","","null","","","null","67","","NaN","","","","","","","","","","","","","",""
"","response","","html-keyboard-response","430","364699","0.0-1.0-608.0-0.0","0","0","96953","","205","","","75","67","","","2","67","training","adjacent","DE","4","5","L.jpg","M.jpg","1","1","1","",""
"","feedback","","html-keyboard-response","431","365710","0.0-1.0-609.0-0.0","0","0","96953","","null","","","null","67","","","","","","","","","","","","","","","",""
"","ITI","","html-keyboard-response","432","366713","0.0-1.0-612.0","0","0","96953","","null","","","null","67","","","","","","","","","","","","","","","NaN",""
"","S1","","html-keyboard-response","433","366977","0.0-1.0-614.0","0","0","96953","","null","","","null","68","","","","","","","","","","","","","","","",""
"","ISI","","html-keyboard-response","434","367994","0.0-1.0-615.0","0","0","96953","","null","","","null","68","NaN","","","","","","","","","","","","","","",""
"","S2","","html-keyboard-response","435","368257","0.0-1.0-616.0","0","0","96953","","null","","","null","68","","NaN","","","","","","","","","","","","","",""
"","response","","html-keyboard-response","436","368883","0.0-1.0-617.0-0.0","0","0","96953","","624","","","75","68","","","2","68","training","adjacent","CB","3","2","Q.jpg","R.jpg","1","0","0","",""
"","feedback","","html-keyboard-response","437","369893","0.0-1.0-618.0-0.0","0","0","96953","","null","","","null","68","","","","","","","","","","","","","","","",""
"","time_out","","html-keyboard-response","438","371903","0.0-1.0-620.0-0.0","0","0","96953","","null","","","null","68","","","","","","","","","","","","","","","",""
"","ITI","","html-keyboard-response","439","372916","0.0-1.0-621.0","0","0","96953","","null","","","null","68","","","","","","","","","","","","","","","NaN",""
"","S1","","html-keyboard-response","440","373181","0.0-1.0-623.0","0","0","96953","","null","","","null","69","","","","","","","","","","","","","","","",""
"","ISI","","html-keyboard-response","441","374183","0.0-1.0-624.0","0","0","96953","","null","","","null","69","NaN","","","","","","","","","","","","","","",""
"","S2","","html-keyboard-response","442","374448","0.0-1.0-625.0","0","0","96953","","null","","","null","69","","NaN","","","","","","","","","","","","","",""
"","response","","html-keyboard-response","443","374570","0.0-1.0-626.0-0.0","0","0","96953","","121","","","68","69","","","2","69","training","adjacent","GF","7","6","N.jpg","P.jpg","0","0","1","",""
"","feedback","","html-keyboard-response","444","375578","0.0-1.0-627.0-0.0","0","0","96953","","null","","","null","69","","","","","","","","","","","","","","","",""
"","ITI","","html-keyboard-response","445","376589","0.0-1.0-630.0","0","0","96953","","null","","","null","69","","","","","","","","","","","","","","","NaN",""
"","S1","","html-keyboard-response","446","376852","0.0-1.0-632.0","0","0","96953","","null","","","null","70","","","","","","","","","","","","","","","",""
"","ISI","","html-keyboard-response","447","377863","0.0-1.0-633.0","0","0","96953","","null","","","null","70","NaN","","","","","","","","","","","","","","",""
"","S2","","html-keyboard-response","448","378128","0.0-1.0-634.0","0","0","96953","","null","","","null","70","","NaN","","","","","","","","","","","","","",""
"","response","","html-keyboard-response","449","378339","0.0-1.0-635.0-0.0","0","0","96953","","209","","","68","70","","","2","70","training","adjacent","ED","5","4","M.jpg","L.jpg","0","0","1","",""
"","feedback","","html-keyboard-response","450","379344","0.0-1.0-636.0-0.0","0","0","96953","","null","","","null","70","","","","","","","","","","","","","","","",""
"","ITI","","html-keyboard-response","451","380345","0.0-1.0-639.0","0","0","96953","","null","","","null","70","","","","","","","","","","","","","","","NaN",""
"","S1","","html-keyboard-response","452","380610","0.0-1.0-641.0","0","0","96953","","null","","","null","71","","","","","","","","","","","","","","","",""
"","ISI","","html-keyboard-response","453","381621","0.0-1.0-642.0","0","0","96953","","null","","","null","71","NaN","","","","","","","","","","","","","","",""
"","S2","","html-keyboard-response","454","381885","0.0-1.0-643.0","0","0","96953","","null","","","null","71","","NaN","","","","","","","","","","","","","",""
"","response","","html-keyboard-response","455","382475","0.0-1.0-644.0-0.0","0","0","96953","","589","","","75","71","","","2","71","training","adjacent","FE","6","5","P.jpg","M.jpg","1","0","0","",""
"","feedback","","html-keyboard-response","456","383488","0.0-1.0-645.0-0.0","0","0","96953","","null","","","null","71","","","","","","","","","","","","","","","",""
"","time_out","","html-keyboard-response","457","385500","0.0-1.0-647.0-0.0","0","0","96953","","null","","","null","71","","","","","","","","","","","","","","","",""
"","ITI","","html-keyboard-response","458","386515","0.0-1.0-648.0","0","0","96953","","null","","","null","71","","","","","","","","","","","","","","","NaN",""
"","S1","","html-keyboard-response","459","386781","0.0-1.0-650.0","0","0","96953","","null","","","null","72","","","","","","","","","","","","","","","",""
"","ISI","","html-keyboard-response","460","387795","0.0-1.0-651.0","0","0","96953","","null","","","null","72","NaN","","","","","","","","","","","","","","",""
"","S2","","html-keyboard-response","461","388059","0.0-1.0-652.0","0","0","96953","","null","","","null","72","","NaN","","","","","","","","","","","","","",""
"","response","","html-keyboard-response","462","388923","0.0-1.0-653.0-0.0","0","0","96953","","862","","","68","72","","","2","72","training","adjacent","DC","4","3","L.jpg","Q.jpg","0","0","1","",""
"","feedback","","html-keyboard-response","463","389926","0.0-1.0-654.0-0.0","0","0","96953","","null","","","null","72","","","","","","","","","","","","","","","",""
"","ITI","","html-keyboard-response","464","390941","0.0-1.0-657.0","0","0","96953","","null","","","null","72","","","","","","","","","","","","","","","NaN",""
"","S1","","html-keyboard-response","465","391205","0.0-1.0-659.0","0","0","96953","","null","","","null","73","","","","","","","","","","","","","","","",""
"","ISI","","html-keyboard-response","466","392221","0.0-1.0-660.0","0","0","96953","","null","","","null","73","NaN","","","","","","","","","","","","","","",""
"","S2","","html-keyboard-response","467","392486","0.0-1.0-661.0","0","0","96953","","null","","","null","73","","NaN","","","","","","","","","","","","","",""
"","response","","html-keyboard-response","468","393427","0.0-1.0-662.0-0.0","0","0","96953","","940","","","75","73","","","2","73","training","adjacent","ED","5","4","M.jpg","L.jpg","1","0","0","",""
"","feedback","","html-keyboard-response","469","394437","0.0-1.0-663.0-0.0","0","0","96953","","null","","","null","73","","","","","","","","","","","","","","","",""
"","time_out","","html-keyboard-response","470","396451","0.0-1.0-665.0-0.0","0","0","96953","","null","","","null","73","","","","","","","","","","","","","","","",""
"","ITI","","html-keyboard-response","471","397453","0.0-1.0-666.0","0","0","96953","","null","","","null","73","","","","","","","","","","","","","","","NaN",""
"","S1","","html-keyboard-response","472","397715","0.0-1.0-668.0","0","0","96953","","null","","","null","74","","","","","","","","","","","","","","","",""
"","ISI","","html-keyboard-response","473","398730","0.0-1.0-669.0","0","0","96953","","null","","","null","74","NaN","","","","","","","","","","","","","","",""
"","S2","","html-keyboard-response","474","398997","0.0-1.0-670.0","0","0","96953","","null","","","null","74","","NaN","","","","","","","","","","","","","",""
"","response","","html-keyboard-response","475","399786","0.0-1.0-671.0-0.0","0","0","96953","","788","","","68","74","","","2","74","training","adjacent","BA","2","1","R.jpg","O.jpg","0","0","1","",""
"","feedback","","html-keyboard-response","476","400793","0.0-1.0-672.0-0.0","0","0","96953","","null","","","null","74","","","","","","","","","","","","","","","",""
"","ITI","","html-keyboard-response","477","401804","0.0-1.0-675.0","0","0","96953","","null","","","null","74","","","","","","","","","","","","","","","NaN",""
"","S1","","html-keyboard-response","478","402066","0.0-1.0-677.0","0","0","96953","","null","","","null","75","","","","","","","","","","","","","","","",""
"","ISI","","html-keyboard-response","479","403080","0.0-1.0-678.0","0","0","96953","","null","","","null","75","NaN","","","","","","","","","","","","","","",""
"","S2","","html-keyboard-response","480","403331","0.0-1.0-679.0","0","0","96953","","null","","","null","75","","NaN","","","","","","","","","","","","","",""
"","response","","html-keyboard-response","481","404058","0.0-1.0-680.0-0.0","0","0","96953","","726","","","75","75","","","2","75","training","adjacent","FG","6","7","P.jpg","N.jpg","1","1","1","",""
"","feedback","","html-keyboard-response","482","405067","0.0-1.0-681.0-0.0","0","0","96953","","null","","","null","75","","","","","","","","","","","","","","","",""
"","ITI","","html-keyboard-response","483","406081","0.0-1.0-684.0","0","0","96953","","null","","","null","75","","","","","","","","","","","","","","","NaN",""
"","S1","","html-keyboard-response","484","406347","0.0-1.0-686.0","0","0","96953","","null","","","null","76","","","","","","","","","","","","","","","",""
"","ISI","","html-keyboard-response","485","407361","0.0-1.0-687.0","0","0","96953","","null","","","null","76","NaN","","","","","","","","","","","","","","",""
"","S2","","html-keyboard-response","486","407625","0.0-1.0-688.0","0","0","96953","","null","","","null","76","","NaN","","","","","","","","","","","","","",""
"","response","","html-keyboard-response","487","408139","0.0-1.0-689.0-0.0","0","0","96953","","513","","","75","76","","","2","76","training","adjacent","FG","6","7","P.jpg","N.jpg","1","1","1","",""
"","feedback","","html-keyboard-response","488","409154","0.0-1.0-690.0-0.0","0","0","96953","","null","","","null","76","","","","","","","","","","","","","","","",""
"","ITI","","html-keyboard-response","489","410169","0.0-1.0-693.0","0","0","96953","","null","","","null","76","","","","","","","","","","","","","","","NaN",""
"","S1","","html-keyboard-response","490","410435","0.0-1.0-695.0","0","0","96953","","null","","","null","77","","","","","","","","","","","","","","","",""
"","ISI","","html-keyboard-response","491","411449","0.0-1.0-696.0","0","0","96953","","null","","","null","77","NaN","","","","","","","","","","","","","","",""
"","S2","","html-keyboard-response","492","411713","0.0-1.0-697.0","0","0","96953","","null","","","null","77","","NaN","","","","","","","","","","","","","",""
"","response","","html-keyboard-response","493","412970","0.0-1.0-698.0-0.0","0","0","96953","","1256","","","68","77","","","2","77","training","adjacent","EF","5","6","M.jpg","P.jpg","0","1","0","",""
"","feedback","","html-keyboard-response","494","413986","0.0-1.0-699.0-0.0","0","0","96953","","null","","","null","77","","","","","","","","","","","","","","","",""
"","time_out","","html-keyboard-response","495","415998","0.0-1.0-701.0-0.0","0","0","96953","","null","","","null","77","","","","","","","","","","","","","","","",""
"","ITI","","html-keyboard-response","496","417013","0.0-1.0-702.0","0","0","96953","","null","","","null","77","","","","","","","","","","","","","","","NaN",""
"","S1","","html-keyboard-response","497","417277","0.0-1.0-704.0","0","0","96953","","null","","","null","78","","","","","","","","","","","","","","","",""
"","ISI","","html-keyboard-response","498","418287","0.0-1.0-705.0","0","0","96953","","null","","","null","78","NaN","","","","","","","","","","","","","","",""
"","S2","","html-keyboard-response","499","418538","0.0-1.0-706.0","0","0","96953","","null","","","null","78","","NaN","","","","","","","","","","","","","",""
"","response","","html-keyboard-response","500","419162","0.0-1.0-707.0-0.0","0","0","96953","","622","","","68","78","","","2","78","training","adjacent","DC","4","3","L.jpg","Q.jpg","0","0","1","",""
"","feedback","","html-keyboard-response","501","420175","0.0-1.0-708.0-0.0","0","0","96953","","null","","","null","78","","","","","","","","","","","","","","","",""
"","ITI","","html-keyboard-response","502","421188","0.0-1.0-711.0","0","0","96953","","null","","","null","78","","","","","","","","","","","","","","","NaN",""
"","S1","","html-keyboard-response","503","421454","0.0-1.0-713.0","0","0","96953","","null","","","null","79","","","","","","","","","","","","","","","",""
"","ISI","","html-keyboard-response","504","422470","0.0-1.0-714.0","0","0","96953","","null","","","null","79","NaN","","","","","","","","","","","","","","",""
"","S2","","html-keyboard-response","505","422733","0.0-1.0-715.0","0","0","96953","","null","","","null","79","","NaN","","","","","","","","","","","","","",""
"","response","","html-keyboard-response","506","422770","0.0-1.0-716.0-0.0","0","0","96953","","36","","","68","79","","","2","79","training","adjacent","GF","7","6","N.jpg","P.jpg","0","0","1","",""
"","feedback","","html-keyboard-response","507","423776","0.0-1.0-717.0-0.0","0","0","96953","","null","","","null","79","","","","","","","","","","","","","","","",""
"","ITI","","html-keyboard-response","508","424789","0.0-1.0-720.0","0","0","96953","","null","","","null","79","","","","","","","","","","","","","","","NaN",""
"","S1","","html-keyboard-response","509","425053","0.0-1.0-722.0","0","0","96953","","null","","","null","80","","","","","","","","","","","","","","","",""
"","ISI","","html-keyboard-response","510","426069","0.0-1.0-723.0","0","0","96953","","null","","","null","80","NaN","","","","","","","","","","","","","","",""
"","S2","","html-keyboard-response","511","426334","0.0-1.0-724.0","0","0","96953","","null","","","null","80","","NaN","","","","","","","","","","","","","",""
"","response","","html-keyboard-response","512","427322","0.0-1.0-725.0-0.0","0","0","96953","","988","","","75","80","","","2","80","training","adjacent","EF","5","6","M.jpg","P.jpg","1","1","1","",""
"","feedback","","html-keyboard-response","513","428335","0.0-1.0-726.0-0.0","0","0","96953","","null","","","null","80","","","","","","","","","","","","","","","",""
"","ITI","","html-keyboard-response","514","429348","0.0-1.0-729.0","0","0","96953","","null","","","null","80","","","","","","","","","","","","","","","NaN",""
"","S1","","html-keyboard-response","515","429613","0.0-1.0-731.0","0","0","96953","","null","","","null","81","","","","","","","","","","","","","","","",""
"","ISI","","html-keyboard-response","516","430615","0.0-1.0-732.0","0","0","96953","","null","","","null","81","NaN","","","","","","","","","","","","","","",""
"","S2","","html-keyboard-response","517","430880","0.0-1.0-733.0","0","0","96953","","null","","","null","81","","NaN","","","","","","","","","","","","","",""
"","response","","html-keyboard-response","518","431339","0.0-1.0-734.0-0.0","0","0","96953","","457","","","75","81","","","2","81","training","adjacent","EF","5","6","M.jpg","P.jpg","1","1","1","",""
"","feedback","","html-keyboard-response","519","432346","0.0-1.0-735.0-0.0","0","0","96953","","null","","","null","81","","","","","","","","","","","","","","","",""
"","ITI","","html-keyboard-response","520","433359","0.0-1.0-738.0","0","0","96953","","null","","","null","81","","","","","","","","","","","","","","","NaN",""
"","S1","","html-keyboard-response","521","433623","0.0-1.0-740.0","0","0","96953","","null","","","null","82","","","","","","","","","","","","","","","",""
"","ISI","","html-keyboard-response","522","434635","0.0-1.0-741.0","0","0","96953","","null","","","null","82","NaN","","","","","","","","","","","","","","",""
"","S2","","html-keyboard-response","523","434900","0.0-1.0-742.0","0","0","96953","","null","","","null","82","","NaN","","","","","","","","","","","","","",""
"","response","","html-keyboard-response","524","435515","0.0-1.0-743.0-0.0","0","0","96953","","613","","","68","82","","","2","82","training","adjacent","FE","6","5","P.jpg","M.jpg","0","0","1","",""
"","feedback","","html-keyboard-response","525","436521","0.0-1.0-744.0-0.0","0","0","96953","","null","","","null","82","","","","","","","","","","","","","","","",""
"","ITI","","html-keyboard-response","526","437532","0.0-1.0-747.0","0","0","96953","","null","","","null","82","","","","","","","","","","","","","","","NaN",""
"","S1","","html-keyboard-response","527","437797","0.0-1.0-749.0","0","0","96953","","null","","","null","83","","","","","","","","","","","","","","","",""
"","ISI","","html-keyboard-response","528","438811","0.0-1.0-750.0","0","0","96953","","null","","","null","83","NaN","","","","","","","","","","","","","","",""
"","S2","","html-keyboard-response","529","439073","0.0-1.0-751.0","0","0","96953","","null","","","null","83","","NaN","","","","","","","","","","","","","",""
"","response","","html-keyboard-response","530","439538","0.0-1.0-752.0-0.0","0","0","96953","","464","","","75","83","","","2","83","training","adjacent","BC","2","3","R.jpg","Q.jpg","1","1","1","",""
"","feedback","","html-keyboard-response","531","440540","0.0-1.0-753.0-0.0","0","0","96953","","null","","","null","83","","","","","","","","","","","","","","","",""
"","ITI","","html-keyboard-response","532","441553","0.0-1.0-756.0","0","0","96953","","null","","","null","83","","","","","","","","","","","","","","","NaN",""
"","S1","","html-keyboard-response","533","441816","0.0-1.0-758.0","0","0","96953","","null","","","null","84","","","","","","","","","","","","","","","",""
"","ISI","","html-keyboard-response","534","442830","0.0-1.0-759.0","0","0","96953","","null","","","null","84","NaN","","","","","","","","","","","","","","",""
"","S2","","html-keyboard-response","535","443093","0.0-1.0-760.0","0","0","96953","","null","","","null","84","","NaN","","","","","","","","","","","","","",""
"","response","","html-keyboard-response","536","443667","0.0-1.0-761.0-0.0","0","0","96953","","572","","","68","84","","","2","84","training","adjacent","AB","1","2","O.jpg","R.jpg","0","1","0","",""
"","feedback","","html-keyboard-response","537","444673","0.0-1.0-762.0-0.0","0","0","96953","","null","","","null","84","","","","","","","","","","","","","","","",""
"","time_out","","html-keyboard-response","538","446689","0.0-1.0-764.0-0.0","0","0","96953","","null","","","null","84","","","","","","","","","","","","","","","",""
"","ITI","","html-keyboard-response","539","447703","0.0-1.0-765.0","0","0","96953","","null","","","null","84","","","","","","","","","","","","","","","NaN",""
"","S1","","html-keyboard-response","540","447968","0.0-1.0-767.0","0","0","96953","","null","","","null","85","","","","","","","","","","","","","","","",""
"","ISI","","html-keyboard-response","541","448979","0.0-1.0-768.0","0","0","96953","","null","","","null","85","NaN","","","","","","","","","","","","","","",""
"","S2","","html-keyboard-response","542","449243","0.0-1.0-769.0","0","0","96953","","null","","","null","85","","NaN","","","","","","","","","","","","","",""
"","response","","html-keyboard-response","543","449979","0.0-1.0-770.0-0.0","0","0","96953","","734","","","75","85","","","2","85","training","adjacent","BC","2","3","R.jpg","Q.jpg","1","1","1","",""
"","feedback","","html-keyboard-response","544","450992","0.0-1.0-771.0-0.0","0","0","96953","","null","","","null","85","","","","","","","","","","","","","","","",""
"","ITI","","html-keyboard-response","545","452006","0.0-1.0-774.0","0","0","96953","","null","","","null","85","","","","","","","","","","","","","","","NaN",""
"","S1","","html-keyboard-response","546","452269","0.0-1.0-776.0","0","0","96953","","null","","","null","86","","","","","","","","","","","","","","","",""
"","ISI","","html-keyboard-response","547","453279","0.0-1.0-777.0","0","0","96953","","null","","","null","86","NaN","","","","","","","","","","","","","","",""
"","S2","","html-keyboard-response","548","453542","0.0-1.0-778.0","0","0","96953","","null","","","null","86","","NaN","","","","","","","","","","","","","",""
"","response","","html-keyboard-response","549","454195","0.0-1.0-779.0-0.0","0","0","96953","","652","","","68","86","","","2","86","training","adjacent","ED","5","4","M.jpg","L.jpg","0","0","1","",""
"","feedback","","html-keyboard-response","550","455207","0.0-1.0-780.0-0.0","0","0","96953","","null","","","null","86","","","","","","","","","","","","","","","",""
"","ITI","","html-keyboard-response","551","456214","0.0-1.0-783.0","0","0","96953","","null","","","null","86","","","","","","","","","","","","","","","NaN",""
"","S1","","html-keyboard-response","552","456479","0.0-1.0-785.0","0","0","96953","","null","","","null","87","","","","","","","","","","","","","","","",""
"","ISI","","html-keyboard-response","553","457493","0.0-1.0-786.0","0","0","96953","","null","","","null","87","NaN","","","","","","","","","","","","","","",""
"","S2","","html-keyboard-response","554","457757","0.0-1.0-787.0","0","0","96953","","null","","","null","87","","NaN","","","","","","","","","","","","","",""
"","response","","html-keyboard-response","555","458858","0.0-1.0-788.0-0.0","0","0","96953","","1100","","","75","87","","","2","87","training","adjacent","CD","3","4","Q.jpg","L.jpg","1","1","1","",""
"","feedback","","html-keyboard-response","556","459862","0.0-1.0-789.0-0.0","0","0","96953","","null","","","null","87","","","","","","","","","","","","","","","",""
"","ITI","","html-keyboard-response","557","460876","0.0-1.0-792.0","0","0","96953","","null","","","null","87","","","","","","","","","","","","","","","NaN",""
"","S1","","html-keyboard-response","558","461138","0.0-1.0-794.0","0","0","96953","","null","","","null","88","","","","","","","","","","","","","","","",""
"","ISI","","html-keyboard-response","559","462154","0.0-1.0-795.0","0","0","96953","","null","","","null","88","NaN","","","","","","","","","","","","","","",""
"","S2","","html-keyboard-response","560","462417","0.0-1.0-796.0","0","0","96953","","null","","","null","88","","NaN","","","","","","","","","","","","","",""
"","response","","html-keyboard-response","561","463114","0.0-1.0-797.0-0.0","0","0","96953","","695","","","68","88","","","2","88","training","adjacent","CB","3","2","Q.jpg","R.jpg","0","0","1","",""
"","feedback","","html-keyboard-response","562","464123","0.0-1.0-798.0-0.0","0","0","96953","","null","","","null","88","","","","","","","","","","","","","","","",""
"","ITI","","html-keyboard-response","563","465136","0.0-1.0-801.0","0","0","96953","","null","","","null","88","","","","","","","","","","","","","","","NaN",""
"","S1","","html-keyboard-response","564","465401","0.0-1.0-803.0","0","0","96953","","null","","","null","89","","","","","","","","","","","","","","","",""
"","ISI","","html-keyboard-response","565","466415","0.0-1.0-804.0","0","0","96953","","null","","","null","89","NaN","","","","","","","","","","","","","","",""
"","S2","","html-keyboard-response","566","466681","0.0-1.0-805.0","0","0","96953","","null","","","null","89","","NaN","","","","","","","","","","","","","",""
"","response","","html-keyboard-response","567","466802","0.0-1.0-806.0-0.0","0","0","96953","","120","","","68","89","","","2","89","training","adjacent","GF","7","6","N.jpg","P.jpg","0","0","1","",""
"","feedback","","html-keyboard-response","568","467818","0.0-1.0-807.0-0.0","0","0","96953","","null","","","null","89","","","","","","","","","","","","","","","",""
"","ITI","","html-keyboard-response","569","468821","0.0-1.0-810.0","0","0","96953","","null","","","null","89","","","","","","","","","","","","","","","NaN",""
"","S1","","html-keyboard-response","570","469083","0.0-1.0-812.0","0","0","96953","","null","","","null","90","","","","","","","","","","","","","","","",""
"","ISI","","html-keyboard-response","571","470083","0.0-1.0-813.0","0","0","96953","","null","","","null","90","NaN","","","","","","","","","","","","","","",""
"","S2","","html-keyboard-response","572","470349","0.0-1.0-814.0","0","0","96953","","null","","","null","90","","NaN","","","","","","","","","","","","","",""
"","response","","html-keyboard-response","573","470523","0.0-1.0-815.0-0.0","0","0","96953","","173","","","75","90","","","2","90","training","adjacent","CD","3","4","Q.jpg","L.jpg","1","1","1","",""
"","feedback","","html-keyboard-response","574","471530","0.0-1.0-816.0-0.0","0","0","96953","","null","","","null","90","","","","","","","","","","","","","","","",""
"","ITI","","html-keyboard-response","575","472543","0.0-1.0-819.0","0","0","96953","","null","","","null","90","","","","","","","","","","","","","","","NaN",""
"","S1","","html-keyboard-response","576","472808","0.0-1.0-821.0","0","0","96953","","null","","","null","91","","","","","","","","","","","","","","","",""
"","ISI","","html-keyboard-response","577","473821","0.0-1.0-822.0","0","0","96953","","null","","","null","91","NaN","","","","","","","","","","","","","","",""
"","S2","","html-keyboard-response","578","474087","0.0-1.0-823.0","0","0","96953","","null","","","null","91","","NaN","","","","","","","","","","","","","",""
"","response","","html-keyboard-response","579","474682","0.0-1.0-824.0-0.0","0","0","96953","","594","","","75","91","","","2","91","training","adjacent","BA","2","1","R.jpg","O.jpg","1","0","0","",""
"","feedback","","html-keyboard-response","580","475690","0.0-1.0-825.0-0.0","0","0","96953","","null","","","null","91","","","","","","","","","","","","","","","",""
"","time_out","","html-keyboard-response","581","477703","0.0-1.0-827.0-0.0","0","0","96953","","null","","","null","91","","","","","","","","","","","","","","","",""
"","ITI","","html-keyboard-response","582","478715","0.0-1.0-828.0","0","0","96953","","null","","","null","91","","","","","","","","","","","","","","","NaN",""
"","S1","","html-keyboard-response","583","478977","0.0-1.0-830.0","0","0","96953","","null","","","null","92","","","","","","","","","","","","","","","",""
