"success","ttype","start_time","trial_type","trial_index","time_elapsed","internal_node_id","warning","missed_checkup","PID","view_history","rt","responses","repeat_instructions","key_press","index","keypress_isi","keypress_S2","block","trial_num","phase","group_type","pair_type","S1_stim","S2_stim","S1_img","S2_img","S1_chosen","S1_higher","accuracy","keypress_iti","total_bonus_tally"
"true","full_screen","d08052022hr1251","fullscreen","0","6797","0.0-0.0","0","0","70203","","","","","","","","","","","","","","","","","","","","","",""
"","instructions","","instructions","1","22767","0.0-1.0-0.0-0.0","0","0","70203","[{""page_index"":0,""viewing_time"":2253},{""page_index"":1,""viewing_time"":8221},{""page_index"":2,""viewing_time"":3472},{""page_index"":3,""viewing_time"":2022}]","15969","","","","","","","","","","","","","","","","","","","",""
"","comprehension_check","","survey-multi-choice","2","36138","0.0-1.0-0.0-1.0","0","0","70203","","13367","{""Q0"":""True"",""Q1"":""D"",""Q2"":""Only when the screen 'MAKE A CHOICE' is shown"",""Q3"":""Green mark"",""Q4"":""either D or K""}","1","","","","","","","","","","","","","","","","","",""
"","missed_instruction_checkup","","html-keyboard-response","3","111303","0.0-1.0-0.0-2.0-0.0","0","1","70203","","75161","","","32","","","","","","","","","","","","","","","","",""
"","instructions","","instructions","4","122930","0.0-1.0-0.1-0.1","0","0","70203","[{""page_index"":0,""viewing_time"":2520},{""page_index"":1,""viewing_time"":5736},{""page_index"":2,""viewing_time"":2278},{""page_index"":3,""viewing_time"":1092}]","11626","","","","","","","","","","","","","","","","","","","",""
"","comprehension_check","","survey-multi-choice","5","137016","0.0-1.0-0.1-1.1","0","0","70203","","14080","{""Q0"":""False"",""Q1"":""D"",""Q2"":""Once the second image appears and while the screen 'MAKE A CHOICE' is shown"",""Q3"":""Green mark"",""Q4"":""either D or K""}","1","","","","","","","","","","","","","","","","","",""
"","missed_instruction_checkup","","html-keyboard-response","6","138328","0.0-1.0-0.1-2.1-0.1","0","1","70203","","1309","","","32","","","","","","","","","","","","","","","","",""
"","instructions","","instructions","7","147754","0.0-1.0-0.2-0.2","0","0","70203","[{""page_index"":0,""viewing_time"":1522},{""page_index"":1,""viewing_time"":4193},{""page_index"":0,""viewing_time"":989},{""page_index"":1,""viewing_time"":512},{""page_index"":2,""viewing_time"":1132},{""page_index"":3,""viewing_time"":1077}]","9425","","","","","","","","","","","","","","","","","","","",""
"","comprehension_check","","survey-multi-choice","8","155370","0.0-1.0-0.2-1.2","0","0","70203","","7611","{""Q0"":""False"",""Q1"":""K"",""Q2"":""Once the second image appears and while the screen 'MAKE A CHOICE' is shown"",""Q3"":""Green mark"",""Q4"":""either D or K""}","1","","","","","","","","","","","","","","","","","",""
"","missed_instruction_checkup","","html-keyboard-response","9","156599","0.0-1.0-0.2-2.2-0.2","0","1","70203","","1227","","","32","","","","","","","","","","","","","","","","",""
"","instructions","","instructions","10","161233","0.0-1.0-0.3-0.3","0","0","70203","[{""page_index"":0,""viewing_time"":1211},{""page_index"":1,""viewing_time"":1206},{""page_index"":2,""viewing_time"":910},{""page_index"":3,""viewing_time"":1304}]","4631","","","","","","","","","","","","","","","","","","","",""
"","comprehension_check","","survey-multi-choice","11","172301","0.0-1.0-0.3-1.3","0","0","70203","","11060","{""Q0"":""True"",""Q1"":""K"",""Q2"":""Only when the screen 'MAKE A CHOICE' is shown"",""Q3"":""Green mark"",""Q4"":""either D or K""}","1","","","","","","","","","","","","","","","","","",""
"","missed_instruction_checkup","","html-keyboard-response","12","173315","0.0-1.0-0.3-2.3-0.3","0","1","70203","","1010","","","32","","","","","","","","","","","","","","","","",""
"","instructions","","instructions","13","182068","0.0-1.0-0.4-0.4","0","0","70203","[{""page_index"":0,""viewing_time"":1359},{""page_index"":1,""viewing_time"":5052},{""page_index"":2,""viewing_time"":589},{""page_index"":3,""viewing_time"":1751}]","8752","","","","","","","","","","","","","","","","","","","",""
"","comprehension_check","","survey-multi-choice","14","190279","0.0-1.0-0.4-1.4","0","0","70203","","8207","{""Q0"":""False"",""Q1"":""K"",""Q2"":""Once the second image appears and while the screen 'MAKE A CHOICE' is shown"",""Q3"":""Green mark"",""Q4"":""either D or K""}","1","","","","","","","","","","","","","","","","","",""
"","missed_instruction_checkup","","html-keyboard-response","15","191488","0.0-1.0-0.4-2.4-0.4","0","1","70203","","1207","","","32","","","","","","","","","","","","","","","","",""
"","instructions","","instructions","16","198181","0.0-1.0-0.5-0.5","0","0","70203","[{""page_index"":0,""viewing_time"":1133},{""page_index"":1,""viewing_time"":3640},{""page_index"":2,""viewing_time"":725},{""page_index"":3,""viewing_time"":1193}]","6691","","","","","","","","","","","","","","","","","","","",""
"","comprehension_check","","survey-multi-choice","17","206104","0.0-1.0-0.5-1.5","0","0","70203","","7918","{""Q0"":""True"",""Q1"":""K"",""Q2"":""Once the second image appears and while the screen 'MAKE A CHOICE' is shown"",""Q3"":""Green mark"",""Q4"":""either D or K""}","0","","","","","","","","","","","","","","","","","",""
"","start_exp","","html-keyboard-response","18","207586","0.0-1.0-1.0","0","0","70203","","1479","","","32","","","","","","","","","","","","","","","","",""
"","S1","","html-keyboard-response","19","207841","0.0-1.0-2.0","0","0","70203","","null","","","null","0","","","","","","","","","","","","","","","",""
"","ISI","","html-keyboard-response","20","209848","0.0-1.0-3.0","0","0","70203","","null","","","null","0","NaN","","","","","","","","","","","","","","",""
"","S2","","html-keyboard-response","21","210101","0.0-1.0-4.0","0","0","70203","","null","","","null","0","","NaN","","","","","","","","","","","","","",""
"","response","","html-keyboard-response","22","210615","0.0-1.0-5.0-0.0","0","0","70203","","511","","","75","0","","","1","0","training","adjacent","AB","1","2","P.jpg","R.jpg","1","1","1","",""
"","feedback","","html-keyboard-response","23","211618","0.0-1.0-6.0-0.0","0","0","70203","","null","","","null","0","","","","","","","","","","","","","","","",""
"","ITI","","html-keyboard-response","24","212631","0.0-1.0-9.0","0","0","70203","","null","","","null","0","","","","","","","","","","","","","","","NaN",""
"","S1","","html-keyboard-response","25","212884","0.0-1.0-11.0","0","0","70203","","null","","","null","1","","","","","","","","","","","","","","","",""
"","ISI","","html-keyboard-response","26","214886","0.0-1.0-12.0","0","0","70203","","null","","","null","1","NaN","","","","","","","","","","","","","","",""
"","S2","","html-keyboard-response","27","215140","0.0-1.0-13.0","0","0","70203","","null","","","null","1","","NaN","","","","","","","","","","","","","",""
"","response","","html-keyboard-response","28","215583","0.0-1.0-14.0-0.0","0","0","70203","","440","","","68","1","","","1","1","training","adjacent","CD","3","4","M.jpg","N.jpg","0","1","0","",""
"","feedback","","html-keyboard-response","29","216586","0.0-1.0-15.0-0.0","0","0","70203","","null","","","null","1","","","","","","","","","","","","","","","",""
"","time_out","","html-keyboard-response","30","218591","0.0-1.0-17.0-0.0","0","0","70203","","null","","","null","1","","","","","","","","","","","","","","","",""
"","ITI","","html-keyboard-response","31","219594","0.0-1.0-18.0","0","0","70203","","null","","","null","1","","","","","","","","","","","","","","","NaN",""
"","S1","","html-keyboard-response","32","219847","0.0-1.0-20.0","0","0","70203","","null","","","null","2","","","","","","","","","","","","","","","",""
"","ISI","","html-keyboard-response","33","221850","0.0-1.0-21.0","0","0","70203","","null","","","null","2","NaN","","","","","","","","","","","","","","",""
"","S2","","html-keyboard-response","34","222102","0.0-1.0-22.0","0","0","70203","","null","","","null","2","","NaN","","","","","","","","","","","","","",""
"","response","","html-keyboard-response","35","222188","0.0-1.0-23.0-0.0","0","0","70203","","83","","","75","2","","","1","2","training","adjacent","FG","6","7","L.jpg","O.jpg","1","1","1","",""
"","feedback","","html-keyboard-response","36","223192","0.0-1.0-24.0-0.0","0","0","70203","","null","","","null","2","","","","","","","","","","","","","","","",""
"","ITI","","html-keyboard-response","37","224194","0.0-1.0-27.0","0","0","70203","","null","","","null","2","","","","","","","","","","","","","","","NaN",""
"","S1","","html-keyboard-response","38","224447","0.0-1.0-29.0","0","0","70203","","null","","","null","3","","","","","","","","","","","","","","","",""
"","ISI","","html-keyboard-response","39","226450","0.0-1.0-30.0","0","0","70203","","null","","","null","3","NaN","","","","","","","","","","","","","","",""
"","S2","","html-keyboard-response","40","226704","0.0-1.0-31.0","0","0","70203","","null","","","null","3","","NaN","","","","","","","","","","","","","",""
"","response","","html-keyboard-response","41","226809","0.0-1.0-32.0-0.0","0","0","70203","","103","","","75","3","","","1","3","training","adjacent","FE","6","5","L.jpg","Q.jpg","1","0","0","",""
"","feedback","","html-keyboard-response","42","227814","0.0-1.0-33.0-0.0","0","0","70203","","null","","","null","3","","","","","","","","","","","","","","","",""
"","time_out","","html-keyboard-response","43","229817","0.0-1.0-35.0-0.0","0","0","70203","","null","","","null","3","","","","","","","","","","","","","","","",""
"","ITI","","html-keyboard-response","44","230820","0.0-1.0-36.0","0","0","70203","","null","","","null","3","","","","","","","","","","","","","","","NaN",""
"","S1","","html-keyboard-response","45","231072","0.0-1.0-38.0","0","0","70203","","null","","","null","4","","","","","","","","","","","","","","","",""
"","ISI","","html-keyboard-response","46","233075","0.0-1.0-39.0","0","0","70203","","null","","","null","4","NaN","","","","","","","","","","","","","","",""
"","S2","","html-keyboard-response","47","233328","0.0-1.0-40.0","0","0","70203","","null","","","null","4","","NaN","","","","","","","","","","","","","",""
"","response","","html-keyboard-response","48","233382","0.0-1.0-41.0-0.0","0","0","70203","","52","","","75","4","","","1","4","training","adjacent","FG","6","7","L.jpg","O.jpg","1","1","1","",""
"","feedback","","html-keyboard-response","49","234384","0.0-1.0-42.0-0.0","0","0","70203","","null","","","null","4","","","","","","","","","","","","","","","",""
"","ITI","","html-keyboard-response","50","235388","0.0-1.0-45.0","0","0","70203","","null","","","null","4","","","","","","","","","","","","","","","NaN",""
"","S1","","html-keyboard-response","51","235641","0.0-1.0-47.0","0","0","70203","","null","","","null","5","","","","","","","","","","","","","","","",""
"","ISI","","html-keyboard-response","52","237644","0.0-1.0-48.0","0","0","70203","","null","","","null","5","NaN","","","","","","","","","","","","","","",""
"","S2","","html-keyboard-response","53","237897","0.0-1.0-49.0","0","0","70203","","null","","","null","5","","NaN","","","","","","","","","","","","","",""
"","response","","html-keyboard-response","54","237938","0.0-1.0-50.0-0.0","0","0","70203","","39","","","75","5","","","1","5","training","adjacent","DE","4","5","N.jpg","Q.jpg","1","1","1","",""
"","feedback","","html-keyboard-response","55","238940","0.0-1.0-51.0-0.0","0","0","70203","","null","","","null","5","","","","","","","","","","","","","","","",""
"","ITI","","html-keyboard-response","56","239950","0.0-1.0-54.0","0","0","70203","","null","","","null","5","","","","","","","","","","","","","","","NaN",""
"","S1","","html-keyboard-response","57","240204","0.0-1.0-56.0","0","0","70203","","null","","","null","6","","","","","","","","","","","","","","","",""
"","ISI","","html-keyboard-response","58","242206","0.0-1.0-57.0","0","0","70203","","null","","","null","6","NaN","","","","","","","","","","","","","","",""
"","S2","","html-keyboard-response","59","242459","0.0-1.0-58.0","0","0","70203","","null","","","null","6","","NaN","","","","","","","","","","","","","",""
"","response","","html-keyboard-response","60","242528","0.0-1.0-59.0-0.0","0","0","70203","","66","","","75","6","","","1","6","training","adjacent","DE","4","5","N.jpg","Q.jpg","1","1","1","",""
"","feedback","","html-keyboard-response","61","243532","0.0-1.0-60.0-0.0","0","0","70203","","null","","","null","6","","","","","","","","","","","","","","","",""
"","ITI","","html-keyboard-response","62","244542","0.0-1.0-63.0","0","0","70203","","null","","","null","6","","","","","","","","","","","","","","","NaN",""
"","S1","","html-keyboard-response","63","244796","0.0-1.0-65.0","0","0","70203","","null","","","null","7","","","","","","","","","","","","","","","",""
"","ISI","","html-keyboard-response","64","246800","0.0-1.0-66.0","0","0","70203","","null","","","null","7","NaN","","","","","","","","","","","","","","",""
"","S2","","html-keyboard-response","65","247052","0.0-1.0-67.0","0","0","70203","","null","","","null","7","","NaN","","","","","","","","","","","","","",""
"","response","","html-keyboard-response","66","247131","0.0-1.0-68.0-0.0","0","0","70203","","78","","","75","7","","","1","7","training","adjacent","FE","6","5","L.jpg","Q.jpg","1","0","0","",""
"","feedback","","html-keyboard-response","67","248134","0.0-1.0-69.0-0.0","0","0","70203","","null","","","null","7","","","","","","","","","","","","","","","",""
"","time_out","","html-keyboard-response","68","250137","0.0-1.0-71.0-0.0","0","0","70203","","null","","","null","7","","","","","","","","","","","","","","","",""
"","ITI","","html-keyboard-response","69","251141","0.0-1.0-72.0","0","0","70203","","null","","","null","7","","","","","","","","","","","","","","","NaN",""
"","S1","","html-keyboard-response","70","251394","0.0-1.0-74.0","0","0","70203","","null","","","null","8","","","","","","","","","","","","","","","",""
"","ISI","","html-keyboard-response","71","253405","0.0-1.0-75.0","0","0","70203","","null","","","null","8","NaN","","","","","","","","","","","","","","",""
"","S2","","html-keyboard-response","72","253658","0.0-1.0-76.0","0","0","70203","","null","","","null","8","","NaN","","","","","","","","","","","","","",""
"","response","","html-keyboard-response","73","253717","0.0-1.0-77.0-0.0","0","0","70203","","58","","","75","8","","","1","8","training","adjacent","DE","4","5","N.jpg","Q.jpg","1","1","1","",""
"","feedback","","html-keyboard-response","74","254720","0.0-1.0-78.0-0.0","0","0","70203","","null","","","null","8","","","","","","","","","","","","","","","",""
"","ITI","","html-keyboard-response","75","255723","0.0-1.0-81.0","0","0","70203","","null","","","null","8","","","","","","","","","","","","","","","NaN",""
"","S1","","html-keyboard-response","76","255978","0.0-1.0-83.0","0","0","70203","","null","","","null","9","","","","","","","","","","","","","","","",""
"","ISI","","html-keyboard-response","77","257983","0.0-1.0-84.0","0","0","70203","","null","","","null","9","NaN","","","","","","","","","","","","","","",""
"","S2","","html-keyboard-response","78","258236","0.0-1.0-85.0","0","0","70203","","null","","","null","9","","NaN","","","","","","","","","","","","","",""
"","response","","html-keyboard-response","79","258651","0.0-1.0-86.0-0.0","0","0","70203","","413","","","75","9","","","1","9","training","adjacent","CD","3","4","M.jpg","N.jpg","1","1","1","",""
"","feedback","","html-keyboard-response","80","259656","0.0-1.0-87.0-0.0","0","0","70203","","null","","","null","9","","","","","","","","","","","","","","","",""
"","ITI","","html-keyboard-response","81","260658","0.0-1.0-90.0","0","0","70203","","null","","","null","9","","","","","","","","","","","","","","","NaN",""
"","S1","","html-keyboard-response","82","260911","0.0-1.0-92.0","0","0","70203","","null","","","null","10","","","","","","","","","","","","","","","",""
"","ISI","","html-keyboard-response","83","262914","0.0-1.0-93.0","0","0","70203","","null","","","null","10","NaN","","","","","","","","","","","","","","",""
"","S2","","html-keyboard-response","84","263167","0.0-1.0-94.0","0","0","70203","","null","","","null","10","","NaN","","","","","","","","","","","","","",""
"","response","","html-keyboard-response","85","263247","0.0-1.0-95.0-0.0","0","0","70203","","78","","","75","10","","","1","10","training","adjacent","BC","2","3","R.jpg","M.jpg","1","1","1","",""
"","feedback","","html-keyboard-response","86","264251","0.0-1.0-96.0-0.0","0","0","70203","","null","","","null","10","","","","","","","","","","","","","","","",""
"","ITI","","html-keyboard-response","87","265254","0.0-1.0-99.0","0","0","70203","","null","","","null","10","","","","","","","","","","","","","","","NaN",""
"","S1","","html-keyboard-response","88","265508","0.0-1.0-101.0","0","0","70203","","null","","","null","11","","","","","","","","","","","","","","","",""
"","ISI","","html-keyboard-response","89","267512","0.0-1.0-102.0","0","0","70203","","null","","","null","11","NaN","","","","","","","","","","","","","","",""
"","S2","","html-keyboard-response","90","267764","0.0-1.0-103.0","0","0","70203","","null","","","null","11","","NaN","","","","","","","","","","","","","",""
"","response","","html-keyboard-response","91","267827","0.0-1.0-104.0-0.0","0","0","70203","","61","","","75","11","","","1","11","training","adjacent","DE","4","5","N.jpg","Q.jpg","1","1","1","",""
"","feedback","","html-keyboard-response","92","268845","0.0-1.0-105.0-0.0","0","0","70203","","null","","","null","11","","","","","","","","","","","","","","","",""
"","ITI","","html-keyboard-response","93","269848","0.0-1.0-108.0","0","0","70203","","null","","","null","11","","","","","","","","","","","","","","","NaN",""
"","S1","","html-keyboard-response","94","270101","0.0-1.0-110.0","0","0","70203","","null","","","null","12","","","","","","","","","","","","","","","",""
"","ISI","","html-keyboard-response","95","272105","0.0-1.0-111.0","0","0","70203","","1432","","","75","12","k","","","","","","","","","","","","","","",""
"","S2","","html-keyboard-response","96","272358","0.0-1.0-112.0","0","0","70203","","null","","","null","12","","NaN","","","","","","","","","","","","","",""
"","response","","html-keyboard-response","97","272381","0.0-1.0-113.0-0.0","0","0","70203","","21","","","75","12","","","1","12","training","adjacent","AB","1","2","P.jpg","R.jpg","1","1","1","",""
"","feedback","","html-keyboard-response","98","273384","0.0-1.0-114.0-0.0","0","0","70203","","null","","","null","12","","","","","","","","","","","","","","","",""
"","ITI","","html-keyboard-response","99","274389","0.0-1.0-117.0","0","0","70203","","null","","","null","12","","","","","","","","","","","","","","","NaN",""
"","S1","","html-keyboard-response","100","274643","0.0-1.0-119.0","0","0","70203","","null","","","null","13","","","","","","","","","","","","","","","",""
"","ISI","","html-keyboard-response","101","276646","0.0-1.0-120.0","0","0","70203","","null","","","null","13","NaN","","","","","","","","","","","","","","",""
"","S2","","html-keyboard-response","102","276902","0.0-1.0-121.0","0","0","70203","","null","","","null","13","","NaN","","","","","","","","","","","","","",""
"","response","","html-keyboard-response","103","276952","0.0-1.0-122.0-0.0","0","0","70203","","47","","","75","13","","","1","13","training","adjacent","DC","4","3","N.jpg","M.jpg","1","0","0","",""
"","feedback","","html-keyboard-response","104","277955","0.0-1.0-123.0-0.0","0","0","70203","","null","","","null","13","","","","","","","","","","","","","","","",""
"","time_out","","html-keyboard-response","105","279958","0.0-1.0-125.0-0.0","0","0","70203","","null","","","null","13","","","","","","","","","","","","","","","",""
"","ITI","","html-keyboard-response","106","280961","0.0-1.0-126.0","0","0","70203","","null","","","null","13","","","","","","","","","","","","","","","NaN",""
"","S1","","html-keyboard-response","107","281215","0.0-1.0-128.0","0","0","70203","","null","","","null","14","","","","","","","","","","","","","","","",""
"","ISI","","html-keyboard-response","108","283217","0.0-1.0-129.0","0","0","70203","","223","","","75","14","k","","","","","","","","","","","","","","",""
"","S2","","html-keyboard-response","109","283470","0.0-1.0-130.0","0","0","70203","","null","","","null","14","","NaN","","","","","","","","","","","","","",""
"","response","","html-keyboard-response","110","283513","0.0-1.0-131.0-0.0","0","0","70203","","42","","","68","14","","","1","14","training","adjacent","FG","6","7","L.jpg","O.jpg","0","1","0","",""
"","feedback","","html-keyboard-response","111","284516","0.0-1.0-132.0-0.0","0","0","70203","","null","","","null","14","","","","","","","","","","","","","","","",""
"","time_out","","html-keyboard-response","112","286519","0.0-1.0-134.0-0.0","0","0","70203","","null","","","null","14","","","","","","","","","","","","","","","",""
"","ITI","","html-keyboard-response","113","287521","0.0-1.0-135.0","0","0","70203","","null","","","null","14","","","","","","","","","","","","","","","NaN",""
"","S1","","html-keyboard-response","114","287775","0.0-1.0-137.0","0","0","70203","","null","","","null","15","","","","","","","","","","","","","","","",""
"","ISI","","html-keyboard-response","115","289777","0.0-1.0-138.0","0","0","70203","","null","","","null","15","NaN","","","","","","","","","","","","","","",""
"","S2","","html-keyboard-response","116","290030","0.0-1.0-139.0","0","0","70203","","null","","","null","15","","NaN","","","","","","","","","","","","","",""
"","response","","html-keyboard-response","117","290067","0.0-1.0-140.0-0.0","0","0","70203","","35","","","75","15","","","1","15","training","adjacent","BA","2","1","R.jpg","P.jpg","1","0","0","",""
"","feedback","","html-keyboard-response","118","291070","0.0-1.0-141.0-0.0","0","0","70203","","null","","","null","15","","","","","","","","","","","","","","","",""
"","time_out","","html-keyboard-response","119","293073","0.0-1.0-143.0-0.0","0","0","70203","","null","","","null","15","","","","","","","","","","","","","","","",""
"","ITI","","html-keyboard-response","120","294076","0.0-1.0-144.0","0","0","70203","","null","","","null","15","","","","","","","","","","","","","","","NaN",""
"","S1","","html-keyboard-response","121","294336","0.0-1.0-146.0","0","0","70203","","null","","","null","16","","","","","","","","","","","","","","","",""
"","ISI","","html-keyboard-response","122","296338","0.0-1.0-147.0","0","0","70203","","null","","","null","16","NaN","","","","","","","","","","","","","","",""
"","S2","","html-keyboard-response","123","296581","0.0-1.0-148.0","0","0","70203","","241","","","75","16","","k","1","16","training","adjacent","DC","4","3","N.jpg","M.jpg","1","0","0","",""
"","feedback","","html-keyboard-response","124","297584","0.0-1.0-150.0-0.0","0","0","70203","","null","","","null","16","","","","","","","","","","","","","","","",""
"","time_out","","html-keyboard-response","125","299585","0.0-1.0-152.0-0.0","0","0","70203","","null","","","null","16","","","","","","","","","","","","","","","",""
"","ITI","","html-keyboard-response","126","300588","0.0-1.0-153.0","0","0","70203","","null","","","null","16","","","","","","","","","","","","","","","NaN",""
"","S1","","html-keyboard-response","127","300849","0.0-1.0-155.0","0","0","70203","","null","","","null","17","","","","","","","","","","","","","","","",""
"","ISI","","html-keyboard-response","128","302851","0.0-1.0-156.0","0","0","70203","","null","","","null","17","NaN","","","","","","","","","","","","","","",""
"","S2","","html-keyboard-response","129","303106","0.0-1.0-157.0","0","0","70203","","null","","","null","17","","NaN","","","","","","","","","","","","","",""
"","response","","html-keyboard-response","130","303215","0.0-1.0-158.0-0.0","0","0","70203","","107","","","75","17","","","1","17","training","adjacent","CD","3","4","M.jpg","N.jpg","1","1","1","",""
"","feedback","","html-keyboard-response","131","304218","0.0-1.0-159.0-0.0","0","0","70203","","null","","","null","17","","","","","","","","","","","","","","","",""
"","ITI","","html-keyboard-response","132","305221","0.0-1.0-162.0","0","0","70203","","null","","","null","17","","","","","","","","","","","","","","","NaN",""
"","S1","","html-keyboard-response","133","305474","0.0-1.0-164.0","0","0","70203","","null","","","null","18","","","","","","","","","","","","","","","",""
"","ISI","","html-keyboard-response","134","307477","0.0-1.0-165.0","0","0","70203","","null","","","null","18","NaN","","","","","","","","","","","","","","",""
"","S2","","html-keyboard-response","135","307729","0.0-1.0-166.0","0","0","70203","","null","","","null","18","","NaN","","","","","","","","","","","","","",""
"","response","","html-keyboard-response","136","308095","0.0-1.0-167.0-0.0","0","0","70203","","363","","","75","18","","","1","18","training","adjacent","ED","5","4","Q.jpg","N.jpg","1","0","0","",""
"","feedback","","html-keyboard-response","137","309099","0.0-1.0-168.0-0.0","0","0","70203","","null","","","null","18","","","","","","","","","","","","","","","",""
"","time_out","","html-keyboard-response","138","311102","0.0-1.0-170.0-0.0","0","0","70203","","null","","","null","18","","","","","","","","","","","","","","","",""
"","ITI","","html-keyboard-response","139","312104","0.0-1.0-171.0","0","0","70203","","null","","","null","18","","","","","","","","","","","","","","","NaN",""
"","S1","","html-keyboard-response","140","312357","0.0-1.0-173.0","0","0","70203","","null","","","null","19","","","","","","","","","","","","","","","",""
"","ISI","","html-keyboard-response","141","314360","0.0-1.0-174.0","0","0","70203","","null","","","null","19","NaN","","","","","","","","","","","","","","",""
"","S2","","html-keyboard-response","142","314615","0.0-1.0-175.0","0","0","70203","","null","","","null","19","","NaN","","","","","","","","","","","","","",""
"","response","","html-keyboard-response","143","314634","0.0-1.0-176.0-0.0","0","0","70203","","16","","","68","19","","","1","19","training","adjacent","BA","2","1","R.jpg","P.jpg","0","0","1","",""
"","feedback","","html-keyboard-response","144","315636","0.0-1.0-177.0-0.0","0","0","70203","","null","","","null","19","","","","","","","","","","","","","","","",""
"","ITI","","html-keyboard-response","145","316641","0.0-1.0-180.0","0","0","70203","","null","","","null","19","","","","","","","","","","","","","","","NaN",""
"","S1","","html-keyboard-response","146","316894","0.0-1.0-182.0","0","0","70203","","null","","","null","20","","","","","","","","","","","","","","","",""
"","ISI","","html-keyboard-response","147","318897","0.0-1.0-183.0","0","0","70203","","null","","","null","20","NaN","","","","","","","","","","","","","","",""
"","S2","","html-keyboard-response","148","319150","0.0-1.0-184.0","0","0","70203","","null","","","null","20","","NaN","","","","","","","","","","","","","",""
"","response","","html-keyboard-response","149","319360","0.0-1.0-185.0-0.0","0","0","70203","","208","","","75","20","","","1","20","training","adjacent","DC","4","3","N.jpg","M.jpg","1","0","0","",""
"","feedback","","html-keyboard-response","150","320362","0.0-1.0-186.0-0.0","0","0","70203","","null","","","null","20","","","","","","","","","","","","","","","",""
"","time_out","","html-keyboard-response","151","322364","0.0-1.0-188.0-0.0","0","0","70203","","null","","","null","20","","","","","","","","","","","","","","","",""
"","ITI","","html-keyboard-response","152","323368","0.0-1.0-189.0","0","0","70203","","null","","","null","20","","","","","","","","","","","","","","","NaN",""
"","S1","","html-keyboard-response","153","323622","0.0-1.0-191.0","0","0","70203","","null","","","null","21","","","","","","","","","","","","","","","",""
"","ISI","","html-keyboard-response","154","325625","0.0-1.0-192.0","0","0","70203","","null","","","null","21","NaN","","","","","","","","","","","","","","",""
"","S2","","html-keyboard-response","155","325879","0.0-1.0-193.0","0","0","70203","","null","","","null","21","","NaN","","","","","","","","","","","","","",""
"","response","","html-keyboard-response","156","325918","0.0-1.0-194.0-0.0","0","0","70203","","37","","","68","21","","","1","21","training","adjacent","ED","5","4","Q.jpg","N.jpg","0","0","1","",""
"","feedback","","html-keyboard-response","157","326921","0.0-1.0-195.0-0.0","0","0","70203","","null","","","null","21","","","","","","","","","","","","","","","",""
"","ITI","","html-keyboard-response","158","327925","0.0-1.0-198.0","0","0","70203","","null","","","null","21","","","","","","","","","","","","","","","NaN",""
"","S1","","html-keyboard-response","159","328179","0.0-1.0-200.0","0","0","70203","","null","","","null","22","","","","","","","","","","","","","","","",""
"","ISI","","html-keyboard-response","160","330183","0.0-1.0-201.0","0","0","70203","","null","","","null","22","NaN","","","","","","","","","","","","","","",""
"","S2","","html-keyboard-response","161","330419","0.0-1.0-202.0","0","0","70203","","233","","","68","22","","d","1","22","training","adjacent","GF","7","6","O.jpg","L.jpg","0","0","1","",""
"","feedback","","html-keyboard-response","162","331427","0.0-1.0-204.0-0.0","0","0","70203","","null","","","null","22","","","","","","","","","","","","","","","",""
"","ITI","","html-keyboard-response","163","332432","0.0-1.0-207.0","0","0","70203","","null","","","null","22","","","","","","","","","","","","","","","NaN",""
"","S1","","html-keyboard-response","164","332686","0.0-1.0-209.0","0","0","70203","","null","","","null","23","","","","","","","","","","","","","","","",""
"","ISI","","html-keyboard-response","165","334688","0.0-1.0-210.0","0","0","70203","","null","","","null","23","NaN","","","","","","","","","","","","","","",""
"","S2","","html-keyboard-response","166","334890","0.0-1.0-211.0","0","0","70203","","199","","","68","23","","d","1","23","training","adjacent","BC","2","3","R.jpg","M.jpg","0","1","0","",""
"","feedback","","html-keyboard-response","167","335893","0.0-1.0-213.0-0.0","0","0","70203","","null","","","null","23","","","","","","","","","","","","","","","",""
"","time_out","","html-keyboard-response","168","337896","0.0-1.0-215.0-0.0","0","0","70203","","null","","","null","23","","","","","","","","","","","","","","","",""
"","ITI","","html-keyboard-response","169","338900","0.0-1.0-216.0","0","0","70203","","null","","","null","23","","","","","","","","","","","","","","","NaN",""
"","S1","","html-keyboard-response","170","339152","0.0-1.0-218.0","0","0","70203","","null","","","null","24","","","","","","","","","","","","","","","",""
"","ISI","","html-keyboard-response","171","341154","0.0-1.0-219.0","0","0","70203","","1908","","","68","24","d","","","","","","","","","","","","","","",""
"","S2","","html-keyboard-response","172","341407","0.0-1.0-220.0","0","0","70203","","null","","","null","24","","NaN","","","","","","","","","","","","","",""
"","response","","html-keyboard-response","173","341557","0.0-1.0-221.0-0.0","0","0","70203","","147","","","68","24","","","1","24","training","adjacent","AB","1","2","P.jpg","R.jpg","0","1","0","",""
"","feedback","","html-keyboard-response","174","342559","0.0-1.0-222.0-0.0","0","0","70203","","null","","","null","24","","","","","","","","","","","","","","","",""
"","time_out","","html-keyboard-response","175","344561","0.0-1.0-224.0-0.0","0","0","70203","","null","","","null","24","","","","","","","","","","","","","","","",""
"","ITI","","html-keyboard-response","176","345565","0.0-1.0-225.0","0","0","70203","","null","","","null","24","","","","","","","","","","","","","","","NaN",""
"","S1","","html-keyboard-response","177","345818","0.0-1.0-227.0","0","0","70203","","null","","","null","25","","","","","","","","","","","","","","","",""
"","ISI","","html-keyboard-response","178","347821","0.0-1.0-228.0","0","0","70203","","null","","","null","25","NaN","","","","","","","","","","","","","","",""
"","S2","","html-keyboard-response","179","348074","0.0-1.0-229.0","0","0","70203","","null","","","null","25","","NaN","","","","","","","","","","","","","",""
"","response","","html-keyboard-response","180","348086","0.0-1.0-230.0-0.0","0","0","70203","","11","","","75","25","","","1","25","training","adjacent","FE","6","5","L.jpg","Q.jpg","1","0","0","",""
"","feedback","","html-keyboard-response","181","349089","0.0-1.0-231.0-0.0","0","0","70203","","null","","","null","25","","","","","","","","","","","","","","","",""
"","time_out","","html-keyboard-response","182","351091","0.0-1.0-233.0-0.0","0","0","70203","","null","","","null","25","","","","","","","","","","","","","","","",""
"","ITI","","html-keyboard-response","183","352094","0.0-1.0-234.0","0","0","70203","","null","","","null","25","","","","","","","","","","","","","","","NaN",""
"","S1","","html-keyboard-response","184","352348","0.0-1.0-236.0","0","0","70203","","null","","","null","26","","","","","","","","","","","","","","","",""
"","ISI","","html-keyboard-response","185","354350","0.0-1.0-237.0","0","0","70203","","576","","","75","26","k","","","","","","","","","","","","","","",""
"","S2","","html-keyboard-response","186","354605","0.0-1.0-238.0","0","0","70203","","null","","","null","26","","NaN","","","","","","","","","","","","","",""
"","response","","html-keyboard-response","187","354850","0.0-1.0-239.0-0.0","0","0","70203","","244","","","75","26","","","1","26","training","adjacent","FE","6","5","L.jpg","Q.jpg","1","0","0","",""
"","feedback","","html-keyboard-response","188","355853","0.0-1.0-240.0-0.0","0","0","70203","","null","","","null","26","","","","","","","","","","","","","","","",""
"","time_out","","html-keyboard-response","189","357855","0.0-1.0-242.0-0.0","0","0","70203","","null","","","null","26","","","","","","","","","","","","","","","",""
"","ITI","","html-keyboard-response","190","358859","0.0-1.0-243.0","0","0","70203","","null","","","null","26","","","","","","","","","","","","","","","NaN",""
"","S1","","html-keyboard-response","191","359111","0.0-1.0-245.0","0","0","70203","","null","","","null","27","","","","","","","","","","","","","","","",""
"","ISI","","html-keyboard-response","192","361115","0.0-1.0-246.0","0","0","70203","","null","","","null","27","NaN","","","","","","","","","","","","","","",""
"","S2","","html-keyboard-response","193","361370","0.0-1.0-247.0","0","0","70203","","null","","","null","27","","NaN","","","","","","","","","","","","","",""
"","response","","html-keyboard-response","194","361666","0.0-1.0-248.0-0.0","0","0","70203","","293","","","68","27","","","1","27","training","adjacent","FG","6","7","L.jpg","O.jpg","0","1","0","",""
"","feedback","","html-keyboard-response","195","362669","0.0-1.0-249.0-0.0","0","0","70203","","null","","","null","27","","","","","","","","","","","","","","","",""
"","time_out","","html-keyboard-response","196","364672","0.0-1.0-251.0-0.0","0","0","70203","","null","","","null","27","","","","","","","","","","","","","","","",""
"","ITI","","html-keyboard-response","197","365677","0.0-1.0-252.0","0","0","70203","","null","","","null","27","","","","","","","","","","","","","","","NaN",""
"","S1","","html-keyboard-response","198","365930","0.0-1.0-254.0","0","0","70203","","null","","","null","28","","","","","","","","","","","","","","","",""
"","ISI","","html-keyboard-response","199","367932","0.0-1.0-255.0","0","0","70203","","null","","","null","28","NaN","","","","","","","","","","","","","","",""
"","S2","","html-keyboard-response","200","368180","0.0-1.0-256.0","0","0","70203","","247","","","68","28","","d","1","28","training","adjacent","ED","5","4","Q.jpg","N.jpg","0","0","1","",""
"","feedback","","html-keyboard-response","201","369184","0.0-1.0-258.0-0.0","0","0","70203","","null","","","null","28","","","","","","","","","","","","","","","",""
"","ITI","","html-keyboard-response","202","370187","0.0-1.0-261.0","0","0","70203","","null","","","null","28","","","","","","","","","","","","","","","NaN",""
"","S1","","html-keyboard-response","203","370441","0.0-1.0-263.0","0","0","70203","","null","","","null","29","","","","","","","","","","","","","","","",""
"","ISI","","html-keyboard-response","204","372444","0.0-1.0-264.0","0","0","70203","","null","","","null","29","NaN","","","","","","","","","","","","","","",""
"","S2","","html-keyboard-response","205","372697","0.0-1.0-265.0","0","0","70203","","null","","","null","29","","NaN","","","","","","","","","","","","","",""
"","response","","html-keyboard-response","206","372975","0.0-1.0-266.0-0.0","0","0","70203","","275","","","75","29","","","1","29","training","adjacent","CB","3","2","M.jpg","R.jpg","1","0","0","",""
"","feedback","","html-keyboard-response","207","373977","0.0-1.0-267.0-0.0","0","0","70203","","null","","","null","29","","","","","","","","","","","","","","","",""
"","time_out","","html-keyboard-response","208","375980","0.0-1.0-269.0-0.0","0","0","70203","","null","","","null","29","","","","","","","","","","","","","","","",""
"","ITI","","html-keyboard-response","209","376983","0.0-1.0-270.0","0","0","70203","","null","","","null","29","","","","","","","","","","","","","","","NaN",""
"","S1","","html-keyboard-response","210","377237","0.0-1.0-272.0","0","0","70203","","null","","","null","30","","","","","","","","","","","","","","","",""
"","ISI","","html-keyboard-response","211","379240","0.0-1.0-273.0","0","0","70203","","null","","","null","30","NaN","","","","","","","","","","","","","","",""
"","S2","","html-keyboard-response","212","379493","0.0-1.0-274.0","0","0","70203","","null","","","null","30","","NaN","","","","","","","","","","","","","",""
"","response","","html-keyboard-response","213","379505","0.0-1.0-275.0-0.0","0","0","70203","","11","","","75","30","","","1","30","training","adjacent","GF","7","6","O.jpg","L.jpg","1","0","0","",""
"","feedback","","html-keyboard-response","214","380508","0.0-1.0-276.0-0.0","0","0","70203","","null","","","null","30","","","","","","","","","","","","","","","",""
"","time_out","","html-keyboard-response","215","382513","0.0-1.0-278.0-0.0","0","0","70203","","null","","","null","30","","","","","","","","","","","","","","","",""
"","ITI","","html-keyboard-response","216","383515","0.0-1.0-279.0","0","0","70203","","null","","","null","30","","","","","","","","","","","","","","","NaN",""
"","S1","","html-keyboard-response","217","383769","0.0-1.0-281.0","0","0","70203","","null","","","null","31","","","","","","","","","","","","","","","",""
"","ISI","","html-keyboard-response","218","385772","0.0-1.0-282.0","0","0","70203","","null","","","null","31","NaN","","","","","","","","","","","","","","",""
"","S2","","html-keyboard-response","219","386026","0.0-1.0-283.0","0","0","70203","","null","","","null","31","","NaN","","","","","","","","","","","","","",""
"","response","","html-keyboard-response","220","386124","0.0-1.0-284.0-0.0","0","0","70203","","96","","","68","31","","","1","31","training","adjacent","CB","3","2","M.jpg","R.jpg","0","0","1","",""
"","feedback","","html-keyboard-response","221","387128","0.0-1.0-285.0-0.0","0","0","70203","","null","","","null","31","","","","","","","","","","","","","","","",""
"","ITI","","html-keyboard-response","222","388131","0.0-1.0-288.0","0","0","70203","","null","","","null","31","","","","","","","","","","","","","","","NaN",""
"","S1","","html-keyboard-response","223","388383","0.0-1.0-290.0","0","0","70203","","null","","","null","32","","","","","","","","","","","","","","","",""
"","ISI","","html-keyboard-response","224","390385","0.0-1.0-291.0","0","0","70203","","445","","","68","32","d","","","","","","","","","","","","","","",""
"","S2","","html-keyboard-response","225","390638","0.0-1.0-292.0","0","0","70203","","null","","","null","32","","NaN","","","","","","","","","","","","","",""
"","response","","html-keyboard-response","226","390758","0.0-1.0-293.0-0.0","0","0","70203","","118","","","68","32","","","1","32","training","adjacent","GF","7","6","O.jpg","L.jpg","0","0","1","",""
"","feedback","","html-keyboard-response","227","391763","0.0-1.0-294.0-0.0","0","0","70203","","null","","","null","32","","","","","","","","","","","","","","","",""
"","ITI","","html-keyboard-response","228","392768","0.0-1.0-297.0","0","0","70203","","null","","","null","32","","","","","","","","","","","","","","","NaN",""
"","S1","","html-keyboard-response","229","393022","0.0-1.0-299.0","0","0","70203","","null","","","null","33","","","","","","","","","","","","","","","",""
"","ISI","","html-keyboard-response","230","395025","0.0-1.0-300.0","0","0","70203","","null","","","null","33","NaN","","","","","","","","","","","","","","",""
"","S2","","html-keyboard-response","231","395278","0.0-1.0-301.0","0","0","70203","","null","","","null","33","","NaN","","","","","","","","","","","","","",""
"","response","","html-keyboard-response","232","395287","0.0-1.0-302.0-0.0","0","0","70203","","6","","","68","33","","","1","33","training","adjacent","AB","1","2","P.jpg","R.jpg","0","1","0","",""
"","feedback","","html-keyboard-response","233","396290","0.0-1.0-303.0-0.0","0","0","70203","","null","","","null","33","","","","","","","","","","","","","","","",""
"","time_out","","html-keyboard-response","234","398293","0.0-1.0-305.0-0.0","0","0","70203","","null","","","null","33","","","","","","","","","","","","","","","",""
"","ITI","","html-keyboard-response","235","399296","0.0-1.0-306.0","0","0","70203","","null","","","null","33","","","","","","","","","","","","","","","NaN",""
"","S1","","html-keyboard-response","236","399555","0.0-1.0-308.0","0","0","70203","","null","","","null","34","","","","","","","","","","","","","","","",""
"","ISI","","html-keyboard-response","237","401558","0.0-1.0-309.0","0","0","70203","","null","","","null","34","NaN","","","","","","","","","","","","","","",""
"","S2","","html-keyboard-response","238","401812","0.0-1.0-310.0","0","0","70203","","null","","","null","34","","NaN","","","","","","","","","","","","","",""
"","response","","html-keyboard-response","239","402087","0.0-1.0-311.0-0.0","0","0","70203","","273","","","75","34","","","1","34","training","adjacent","GF","7","6","O.jpg","L.jpg","1","0","0","",""
"","feedback","","html-keyboard-response","240","403089","0.0-1.0-312.0-0.0","0","0","70203","","null","","","null","34","","","","","","","","","","","","","","","",""
"","time_out","","html-keyboard-response","241","405091","0.0-1.0-314.0-0.0","0","0","70203","","null","","","null","34","","","","","","","","","","","","","","","",""
"","ITI","","html-keyboard-response","242","406094","0.0-1.0-315.0","0","0","70203","","null","","","null","34","","","","","","","","","","","","","","","NaN",""
"","S1","","html-keyboard-response","243","406347","0.0-1.0-317.0","0","0","70203","","null","","","null","35","","","","","","","","","","","","","","","",""
"","ISI","","html-keyboard-response","244","408350","0.0-1.0-318.0","0","0","70203","","null","","","null","35","NaN","","","","","","","","","","","","","","",""
"","S2","","html-keyboard-response","245","408475","0.0-1.0-319.0","0","0","70203","","121","","","68","35","","d","1","35","training","adjacent","BC","2","3","R.jpg","M.jpg","0","1","0","",""
"","feedback","","html-keyboard-response","246","409478","0.0-1.0-321.0-0.0","0","0","70203","","null","","","null","35","","","","","","","","","","","","","","","",""
"","time_out","","html-keyboard-response","247","411482","0.0-1.0-323.0-0.0","0","0","70203","","null","","","null","35","","","","","","","","","","","","","","","",""
"","ITI","","html-keyboard-response","248","412485","0.0-1.0-324.0","0","0","70203","","null","","","null","35","","","","","","","","","","","","","","","NaN",""
"","S1","","html-keyboard-response","249","412739","0.0-1.0-326.0","0","0","70203","","null","","","null","36","","","","","","","","","","","","","","","",""
"","ISI","","html-keyboard-response","250","414741","0.0-1.0-327.0","0","0","70203","","null","","","null","36","NaN","","","","","","","","","","","","","","",""
"","S2","","html-keyboard-response","251","414994","0.0-1.0-328.0","0","0","70203","","null","","","null","36","","NaN","","","","","","","","","","","","","",""
"","response","","html-keyboard-response","252","415018","0.0-1.0-329.0-0.0","0","0","70203","","23","","","75","36","","","1","36","training","adjacent","EF","5","6","Q.jpg","L.jpg","1","1","1","",""
"","feedback","","html-keyboard-response","253","416022","0.0-1.0-330.0-0.0","0","0","70203","","null","","","null","36","","","","","","","","","","","","","","","",""
"","ITI","","html-keyboard-response","254","417025","0.0-1.0-333.0","0","0","70203","","null","","","null","36","","","","","","","","","","","","","","","NaN",""
"","S1","","html-keyboard-response","255","417279","0.0-1.0-335.0","0","0","70203","","null","","","null","37","","","","","","","","","","","","","","","",""
"","ISI","","html-keyboard-response","256","419281","0.0-1.0-336.0","0","0","70203","","null","","","null","37","NaN","","","","","","","","","","","","","","",""
"","S2","","html-keyboard-response","257","419529","0.0-1.0-337.0","0","0","70203","","247","","","75","37","","k","1","37","training","adjacent","CB","3","2","M.jpg","R.jpg","1","0","0","",""
"","feedback","","html-keyboard-response","258","420532","0.0-1.0-339.0-0.0","0","0","70203","","null","","","null","37","","","","","","","","","","","","","","","",""
"","time_out","","html-keyboard-response","259","422535","0.0-1.0-341.0-0.0","0","0","70203","","null","","","null","37","","","","","","","","","","","","","","","",""
"","ITI","","html-keyboard-response","260","423539","0.0-1.0-342.0","0","0","70203","","null","","","null","37","","","","","","","","","","","","","","","NaN",""
"","S1","","html-keyboard-response","261","423793","0.0-1.0-344.0","0","0","70203","","null","","","null","38","","","","","","","","","","","","","","","",""
"","ISI","","html-keyboard-response","262","425795","0.0-1.0-345.0","0","0","70203","","null","","","null","38","NaN","","","","","","","","","","","","","","",""
"","S2","","html-keyboard-response","263","425990","0.0-1.0-346.0","0","0","70203","","194","","","68","38","","d","1","38","training","adjacent","EF","5","6","Q.jpg","L.jpg","0","1","0","",""
"","feedback","","html-keyboard-response","264","426999","0.0-1.0-348.0-0.0","0","0","70203","","null","","","null","38","","","","","","","","","","","","","","","",""
"","time_out","","html-keyboard-response","265","429002","0.0-1.0-350.0-0.0","0","0","70203","","null","","","null","38","","","","","","","","","","","","","","","",""
"","ITI","","html-keyboard-response","266","430005","0.0-1.0-351.0","0","0","70203","","null","","","null","38","","","","","","","","","","","","","","","NaN",""
"","S1","","html-keyboard-response","267","430258","0.0-1.0-353.0","0","0","70203","","null","","","null","39","","","","","","","","","","","","","","","",""
"","ISI","","html-keyboard-response","268","432261","0.0-1.0-354.0","0","0","70203","","null","","","null","39","NaN","","","","","","","","","","","","","","",""
"","S2","","html-keyboard-response","269","432517","0.0-1.0-355.0","0","0","70203","","null","","","null","39","","NaN","","","","","","","","","","","","","",""
"","response","","html-keyboard-response","270","432521","0.0-1.0-356.0-0.0","0","0","70203","","0","","","75","39","","","1","39","training","adjacent","EF","5","6","Q.jpg","L.jpg","1","1","1","",""
"","feedback","","html-keyboard-response","271","433524","0.0-1.0-357.0-0.0","0","0","70203","","null","","","null","39","","","","","","","","","","","","","","","",""
"","ITI","","html-keyboard-response","272","434527","0.0-1.0-360.0","0","0","70203","","null","","","null","39","","","","","","","","","","","","","","","NaN",""
"","S1","","html-keyboard-response","273","434788","0.0-1.0-362.0","0","0","70203","","null","","","null","40","","","","","","","","","","","","","","","",""
"","ISI","","html-keyboard-response","274","436790","0.0-1.0-363.0","0","0","70203","","null","","","null","40","NaN","","","","","","","","","","","","","","",""
"","S2","","html-keyboard-response","275","437043","0.0-1.0-364.0","0","0","70203","","null","","","null","40","","NaN","","","","","","","","","","","","","",""
"","response","","html-keyboard-response","276","437289","0.0-1.0-365.0-0.0","0","0","70203","","244","","","75","40","","","1","40","training","adjacent","CB","3","2","M.jpg","R.jpg","1","0","0","",""
"","feedback","","html-keyboard-response","277","438294","0.0-1.0-366.0-0.0","0","0","70203","","null","","","null","40","","","","","","","","","","","","","","","",""
"","time_out","","html-keyboard-response","278","440296","0.0-1.0-368.0-0.0","0","0","70203","","null","","","null","40","","","","","","","","","","","","","","","",""
"","ITI","","html-keyboard-response","279","441299","0.0-1.0-369.0","0","0","70203","","null","","","null","40","","","","","","","","","","","","","","","NaN",""
"","S1","","html-keyboard-response","280","441552","0.0-1.0-371.0","0","0","70203","","null","","","null","41","","","","","","","","","","","","","","","",""
"","ISI","","html-keyboard-response","281","443555","0.0-1.0-372.0","0","0","70203","","null","","","null","41","NaN","","","","","","","","","","","","","","",""
"","S2","","html-keyboard-response","282","443810","0.0-1.0-373.0","0","0","70203","","null","","","null","41","","NaN","","","","","","","","","","","","","",""
"","response","","html-keyboard-response","283","444079","0.0-1.0-374.0-0.0","0","0","70203","","266","","","68","41","","","1","41","training","adjacent","BC","2","3","R.jpg","M.jpg","0","1","0","",""
"","feedback","","html-keyboard-response","284","445084","0.0-1.0-375.0-0.0","0","0","70203","","null","","","null","41","","","","","","","","","","","","","","","",""
"","time_out","","html-keyboard-response","285","447088","0.0-1.0-377.0-0.0","0","0","70203","","null","","","null","41","","","","","","","","","","","","","","","",""
"","ITI","","html-keyboard-response","286","448091","0.0-1.0-378.0","0","0","70203","","null","","","null","41","","","","","","","","","","","","","","","NaN",""
"","S1","","html-keyboard-response","287","448344","0.0-1.0-380.0","0","0","70203","","null","","","null","42","","","","","","","","","","","","","","","",""
"","ISI","","html-keyboard-response","288","450347","0.0-1.0-381.0","0","0","70203","","null","","","null","42","NaN","","","","","","","","","","","","","","",""
"","S2","","html-keyboard-response","289","450600","0.0-1.0-382.0","0","0","70203","","null","","","null","42","","NaN","","","","","","","","","","","","","",""
"","response","","html-keyboard-response","290","450710","0.0-1.0-383.0-0.0","0","0","70203","","108","","","75","42","","","1","42","training","adjacent","BA","2","1","R.jpg","P.jpg","1","0","0","",""
"","feedback","","html-keyboard-response","291","451714","0.0-1.0-384.0-0.0","0","0","70203","","null","","","null","42","","","","","","","","","","","","","","","",""
"","time_out","","html-keyboard-response","292","453717","0.0-1.0-386.0-0.0","0","0","70203","","null","","","null","42","","","","","","","","","","","","","","","",""
"","ITI","","html-keyboard-response","293","454721","0.0-1.0-387.0","0","0","70203","","null","","","null","42","","","","","","","","","","","","","","","NaN",""
"","S1","","html-keyboard-response","294","454973","0.0-1.0-389.0","0","0","70203","","null","","","null","43","","","","","","","","","","","","","","","",""
"","ISI","","html-keyboard-response","295","456978","0.0-1.0-390.0","0","0","70203","","557","","","75","43","k","","","","","","","","","","","","","","",""
"","S2","","html-keyboard-response","296","457213","0.0-1.0-391.0","0","0","70203","","232","","","75","43","","k","1","43","training","adjacent","EF","5","6","Q.jpg","L.jpg","1","1","1","",""
"","feedback","","html-keyboard-response","297","458216","0.0-1.0-393.0-0.0","0","0","70203","","null","","","null","43","","","","","","","","","","","","","","","",""
"","ITI","","html-keyboard-response","298","459219","0.0-1.0-396.0","0","0","70203","","null","","","null","43","","","","","","","","","","","","","","","NaN",""
"","S1","","html-keyboard-response","299","459473","0.0-1.0-398.0","0","0","70203","","null","","","null","44","","","","","","","","","","","","","","","",""
"","ISI","","html-keyboard-response","300","461476","0.0-1.0-399.0","0","0","70203","","155","","","68","44","d","","","","","","","","","","","","","","",""
"","S2","","html-keyboard-response","301","461729","0.0-1.0-400.0","0","0","70203","","null","","","null","44","","NaN","","","","","","","","","","","","","",""
"","response","","html-keyboard-response","302","461780","0.0-1.0-401.0-0.0","0","0","70203","","47","","","68","44","","","1","44","training","adjacent","DC","4","3","N.jpg","M.jpg","0","0","1","",""
"","feedback","","html-keyboard-response","303","462785","0.0-1.0-402.0-0.0","0","0","70203","","null","","","null","44","","","","","","","","","","","","","","","",""
"","ITI","","html-keyboard-response","304","463788","0.0-1.0-405.0","0","0","70203","","null","","","null","44","","","","","","","","","","","","","","","NaN",""
"","S1","","html-keyboard-response","305","464041","0.0-1.0-407.0","0","0","70203","","null","","","null","45","","","","","","","","","","","","","","","",""
"","ISI","","html-keyboard-response","306","466045","0.0-1.0-408.0","0","0","70203","","null","","","null","45","NaN","","","","","","","","","","","","","","",""
"","S2","","html-keyboard-response","307","466288","0.0-1.0-409.0","0","0","70203","","241","","","75","45","","k","1","45","training","adjacent","BA","2","1","R.jpg","P.jpg","1","0","0","",""
"","feedback","","html-keyboard-response","308","467291","0.0-1.0-411.0-0.0","0","0","70203","","null","","","null","45","","","","","","","","","","","","","","","",""
"","time_out","","html-keyboard-response","309","469294","0.0-1.0-413.0-0.0","0","0","70203","","null","","","null","45","","","","","","","","","","","","","","","",""
"","ITI","","html-keyboard-response","310","470297","0.0-1.0-414.0","0","0","70203","","null","","","null","45","","","","","","","","","","","","","","","NaN",""
"","S1","","html-keyboard-response","311","470551","0.0-1.0-416.0","0","0","70203","","null","","","null","46","","","","","","","","","","","","","","","",""
"","ISI","","html-keyboard-response","312","472554","0.0-1.0-417.0","0","0","70203","","1714","","","68","46","d","","","","","","","","","","","","","","",""
"","S2","","html-keyboard-response","313","472808","0.0-1.0-418.0","0","0","70203","","null","","","null","46","","NaN","","","","","","","","","","","","","",""
"","response","","html-keyboard-response","314","472823","0.0-1.0-419.0-0.0","0","0","70203","","14","","","68","46","","","1","46","training","adjacent","ED","5","4","Q.jpg","N.jpg","0","0","1","",""
"","feedback","","html-keyboard-response","315","473826","0.0-1.0-420.0-0.0","0","0","70203","","null","","","null","46","","","","","","","","","","","","","","","",""
"","ITI","","html-keyboard-response","316","474829","0.0-1.0-423.0","0","0","70203","","null","","","null","46","","","","","","","","","","","","","","","NaN",""
"","S1","","html-keyboard-response","317","475080","0.0-1.0-425.0","0","0","70203","","null","","","null","47","","","","","","","","","","","","","","","",""
"","ISI","","html-keyboard-response","318","477083","0.0-1.0-426.0","0","0","70203","","null","","","null","47","NaN","","","","","","","","","","","","","","",""
"","S2","","html-keyboard-response","319","477337","0.0-1.0-427.0","0","0","70203","","null","","","null","47","","NaN","","","","","","","","","","","","","",""
"","response","","html-keyboard-response","320","477355","0.0-1.0-428.0-0.0","0","0","70203","","17","","","68","47","","","1","47","training","adjacent","CD","3","4","M.jpg","N.jpg","0","1","0","",""
"","feedback","","html-keyboard-response","321","478359","0.0-1.0-429.0-0.0","0","0","70203","","null","","","null","47","","","","","","","","","","","","","","","",""
"","time_out","","html-keyboard-response","322","480362","0.0-1.0-431.0-0.0","0","0","70203","","null","","","null","47","","","","","","","","","","","","","","","",""
"","ITI","","html-keyboard-response","323","481365","0.0-1.0-432.0","0","0","70203","","null","","","null","47","","","","","","","","","","","","","","","NaN",""
"","block_over","","html-keyboard-response","324","485364","0.0-1.0-433.0-0.0","0","0","70203","","3997","","","32","47","","","","","","","","","","","","","","","",""
"","S1","","html-keyboard-response","325","485618","0.0-1.0-434.0","0","0","70203","","null","","","null","48","","","","","","","","","","","","","","","",""
"","ISI","","html-keyboard-response","326","487620","0.0-1.0-435.0","0","0","70203","","566","","","68","48","d","","","","","","","","","","","","","","",""
"","S2","","html-keyboard-response","327","487874","0.0-1.0-436.0","0","0","70203","","250","","","68","48","","d","2","48","training","adjacent","CD","3","4","M.jpg","N.jpg","0","1","0","",""
"","feedback","","html-keyboard-response","328","488878","0.0-1.0-438.0-0.0","0","0","70203","","null","","","null","48","","","","","","","","","","","","","","","",""
"","time_out","","html-keyboard-response","329","490881","0.0-1.0-440.0-0.0","0","0","70203","","null","","","null","48","","","","","","","","","","","","","","","",""
"","ITI","","html-keyboard-response","330","491890","0.0-1.0-441.0","0","0","70203","","null","","","null","48","","","","","","","","","","","","","","","NaN",""
"","S1","","html-keyboard-response","331","492143","0.0-1.0-443.0","0","0","70203","","null","","","null","49","","","","","","","","","","","","","","","",""
"","ISI","","html-keyboard-response","332","494146","0.0-1.0-444.0","0","0","70203","","null","","","null","49","NaN","","","","","","","","","","","","","","",""
"","S2","","html-keyboard-response","333","494409","0.0-1.0-445.0","0","0","70203","","259","","","75","49","","k","2","49","training","adjacent","FG","6","7","L.jpg","O.jpg","1","1","1","",""
"","feedback","","html-keyboard-response","334","495414","0.0-1.0-447.0-0.0","0","0","70203","","null","","","null","49","","","","","","","","","","","","","","","",""
"","ITI","","html-keyboard-response","335","496419","0.0-1.0-450.0","0","0","70203","","null","","","null","49","","","","","","","","","","","","","","","NaN",""
"","S1","","html-keyboard-response","336","496672","0.0-1.0-452.0","0","0","70203","","null","","","null","50","","","","","","","","","","","","","","","",""
"","ISI","","html-keyboard-response","337","498674","0.0-1.0-453.0","0","0","70203","","null","","","null","50","NaN","","","","","","","","","","","","","","",""
"","S2","","html-keyboard-response","338","498927","0.0-1.0-454.0","0","0","70203","","null","","","null","50","","NaN","","","","","","","","","","","","","",""
"","response","","html-keyboard-response","339","499317","0.0-1.0-455.0-0.0","0","0","70203","","388","","","75","50","","","2","50","training","adjacent","DE","4","5","N.jpg","Q.jpg","1","1","1","",""
"","feedback","","html-keyboard-response","340","500321","0.0-1.0-456.0-0.0","0","0","70203","","null","","","null","50","","","","","","","","","","","","","","","",""
"","ITI","","html-keyboard-response","341","501325","0.0-1.0-459.0","0","0","70203","","null","","","null","50","","","","","","","","","","","","","","","NaN",""
"","S1","","html-keyboard-response","342","501579","0.0-1.0-461.0","0","0","70203","","null","","","null","51","","","","","","","","","","","","","","","",""
"","ISI","","html-keyboard-response","343","503582","0.0-1.0-462.0","0","0","70203","","null","","","null","51","NaN","","","","","","","","","","","","","","",""
"","S2","","html-keyboard-response","344","503836","0.0-1.0-463.0","0","0","70203","","null","","","null","51","","NaN","","","","","","","","","","","","","",""
"","response","","html-keyboard-response","345","504287","0.0-1.0-464.0-0.0","0","0","70203","","449","","","75","51","","","2","51","training","adjacent","FG","6","7","L.jpg","O.jpg","1","1","1","",""
"","feedback","","html-keyboard-response","346","505305","0.0-1.0-465.0-0.0","0","0","70203","","null","","","null","51","","","","","","","","","","","","","","","",""
"","ITI","","html-keyboard-response","347","506310","0.0-1.0-468.0","0","0","70203","","null","","","null","51","","","","","","","","","","","","","","","NaN",""
"","S1","","html-keyboard-response","348","506563","0.0-1.0-470.0","0","0","70203","","null","","","null","52","","","","","","","","","","","","","","","",""
"","ISI","","html-keyboard-response","349","508566","0.0-1.0-471.0","0","0","70203","","null","","","null","52","NaN","","","","","","","","","","","","","","",""
"","S2","","html-keyboard-response","350","508819","0.0-1.0-472.0","0","0","70203","","null","","","null","52","","NaN","","","","","","","","","","","","","",""
"","response","","html-keyboard-response","351","509084","0.0-1.0-473.0-0.0","0","0","70203","","263","","","75","52","","","2","52","training","adjacent","BC","2","3","R.jpg","M.jpg","1","1","1","",""
"","feedback","","html-keyboard-response","352","510099","0.0-1.0-474.0-0.0","0","0","70203","","null","","","null","52","","","","","","","","","","","","","","","",""
"","ITI","","html-keyboard-response","353","511103","0.0-1.0-477.0","0","0","70203","","null","","","null","52","","","","","","","","","","","","","","","NaN",""
"","S1","","html-keyboard-response","354","511357","0.0-1.0-479.0","0","0","70203","","null","","","null","53","","","","","","","","","","","","","","","",""
"","ISI","","html-keyboard-response","355","513359","0.0-1.0-480.0","0","0","70203","","null","","","null","53","NaN","","","","","","","","","","","","","","",""
"","S2","","html-keyboard-response","356","513613","0.0-1.0-481.0","0","0","70203","","null","","","null","53","","NaN","","","","","","","","","","","","","",""
"","response","","html-keyboard-response","357","514031","0.0-1.0-482.0-0.0","0","0","70203","","416","","","75","53","","","2","53","training","adjacent","BC","2","3","R.jpg","M.jpg","1","1","1","",""
"","feedback","","html-keyboard-response","358","515036","0.0-1.0-483.0-0.0","0","0","70203","","null","","","null","53","","","","","","","","","","","","","","","",""
"","ITI","","html-keyboard-response","359","516039","0.0-1.0-486.0","0","0","70203","","null","","","null","53","","","","","","","","","","","","","","","NaN",""
"","S1","","html-keyboard-response","360","516291","0.0-1.0-488.0","0","0","70203","","null","","","null","54","","","","","","","","","","","","","","","",""
"","ISI","","html-keyboard-response","361","518294","0.0-1.0-489.0","0","0","70203","","null","","","null","54","NaN","","","","","","","","","","","","","","",""
"","S2","","html-keyboard-response","362","518547","0.0-1.0-490.0","0","0","70203","","null","","","null","54","","NaN","","","","","","","","","","","","","",""
"","response","","html-keyboard-response","363","519011","0.0-1.0-491.0-0.0","0","0","70203","","462","","","75","54","","","2","54","training","adjacent","CD","3","4","M.jpg","N.jpg","1","1","1","",""
"","feedback","","html-keyboard-response","364","520015","0.0-1.0-492.0-0.0","0","0","70203","","null","","","null","54","","","","","","","","","","","","","","","",""
"","ITI","","html-keyboard-response","365","521020","0.0-1.0-495.0","0","0","70203","","null","","","null","54","","","","","","","","","","","","","","","NaN",""
"","S1","","html-keyboard-response","366","521275","0.0-1.0-497.0","0","0","70203","","null","","","null","55","","","","","","","","","","","","","","","",""
"","ISI","","html-keyboard-response","367","523278","0.0-1.0-498.0","0","0","70203","","null","","","null","55","NaN","","","","","","","","","","","","","","",""
"","S2","","html-keyboard-response","368","523506","0.0-1.0-499.0","0","0","70203","","225","","","75","55","","k","2","55","training","adjacent","ED","5","4","Q.jpg","N.jpg","1","0","0","",""
"","feedback","","html-keyboard-response","369","524512","0.0-1.0-501.0-0.0","0","0","70203","","null","","","null","55","","","","","","","","","","","","","","","",""
"","time_out","","html-keyboard-response","370","526515","0.0-1.0-503.0-0.0","0","0","70203","","null","","","null","55","","","","","","","","","","","","","","","",""
"","ITI","","html-keyboard-response","371","527517","0.0-1.0-504.0","0","0","70203","","null","","","null","55","","","","","","","","","","","","","","","NaN",""
"","S1","","html-keyboard-response","372","527770","0.0-1.0-506.0","0","0","70203","","null","","","null","56","","","","","","","","","","","","","","","",""
"","ISI","","html-keyboard-response","373","529773","0.0-1.0-507.0","0","0","70203","","null","","","null","56","NaN","","","","","","","","","","","","","","",""
"","S2","","html-keyboard-response","374","530005","0.0-1.0-508.0","0","0","70203","","230","","","75","56","","k","2","56","training","adjacent","ED","5","4","Q.jpg","N.jpg","1","0","0","",""
"","feedback","","html-keyboard-response","375","531008","0.0-1.0-510.0-0.0","0","0","70203","","null","","","null","56","","","","","","","","","","","","","","","",""
"","time_out","","html-keyboard-response","376","533013","0.0-1.0-512.0-0.0","0","0","70203","","null","","","null","56","","","","","","","","","","","","","","","",""
"","ITI","","html-keyboard-response","377","534017","0.0-1.0-513.0","0","0","70203","","null","","","null","56","","","","","","","","","","","","","","","NaN",""
"","S1","","html-keyboard-response","378","534269","0.0-1.0-515.0","0","0","70203","","null","","","null","57","","","","","","","","","","","","","","","",""
"","ISI","","html-keyboard-response","379","536272","0.0-1.0-516.0","0","0","70203","","null","","","null","57","NaN","","","","","","","","","","","","","","",""
"","S2","","html-keyboard-response","380","536525","0.0-1.0-517.0","0","0","70203","","null","","","null","57","","NaN","","","","","","","","","","","","","",""
"","response","","html-keyboard-response","381","536561","0.0-1.0-518.0-0.0","0","0","70203","","34","","","68","57","","","2","57","training","adjacent","AB","1","2","P.jpg","R.jpg","0","1","0","",""
"","feedback","","html-keyboard-response","382","537564","0.0-1.0-519.0-0.0","0","0","70203","","null","","","null","57","","","","","","","","","","","","","","","",""
"","time_out","","html-keyboard-response","383","539567","0.0-1.0-521.0-0.0","0","0","70203","","null","","","null","57","","","","","","","","","","","","","","","",""
"","ITI","","html-keyboard-response","384","540571","0.0-1.0-522.0","0","0","70203","","null","","","null","57","","","","","","","","","","","","","","","NaN",""
"","S1","","html-keyboard-response","385","540824","0.0-1.0-524.0","0","0","70203","","null","","","null","58","","","","","","","","","","","","","","","",""
"","ISI","","html-keyboard-response","386","542827","0.0-1.0-525.0","0","0","70203","","null","","","null","58","NaN","","","","","","","","","","","","","","",""
"","S2","","html-keyboard-response","387","543079","0.0-1.0-526.0","0","0","70203","","null","","","null","58","","NaN","","","","","","","","","","","","","",""
"","response","","html-keyboard-response","388","543186","0.0-1.0-527.0-0.0","0","0","70203","","104","","","68","58","","","2","58","training","adjacent","FE","6","5","L.jpg","Q.jpg","0","0","1","",""
"","feedback","","html-keyboard-response","389","544193","0.0-1.0-528.0-0.0","0","0","70203","","null","","","null","58","","","","","","","","","","","","","","","",""
"","ITI","","html-keyboard-response","390","545197","0.0-1.0-531.0","0","0","70203","","null","","","null","58","","","","","","","","","","","","","","","NaN",""
"","S1","","html-keyboard-response","391","545450","0.0-1.0-533.0","0","0","70203","","null","","","null","59","","","","","","","","","","","","","","","",""
"","ISI","","html-keyboard-response","392","547454","0.0-1.0-534.0","0","0","70203","","342","","","68","59","d","","","","","","","","","","","","","","",""
"","S2","","html-keyboard-response","393","547708","0.0-1.0-535.0","0","0","70203","","null","","","null","59","","NaN","","","","","","","","","","","","","",""
"","response","","html-keyboard-response","394","547992","0.0-1.0-536.0-0.0","0","0","70203","","281","","","68","59","","","2","59","training","adjacent","DE","4","5","N.jpg","Q.jpg","0","1","0","",""
"","feedback","","html-keyboard-response","395","548996","0.0-1.0-537.0-0.0","0","0","70203","","null","","","null","59","","","","","","","","","","","","","","","",""
"","time_out","","html-keyboard-response","396","551001","0.0-1.0-539.0-0.0","0","0","70203","","null","","","null","59","","","","","","","","","","","","","","","",""
"","ITI","","html-keyboard-response","397","552005","0.0-1.0-540.0","0","0","70203","","null","","","null","59","","","","","","","","","","","","","","","NaN",""
"","S1","","html-keyboard-response","398","552258","0.0-1.0-542.0","0","0","70203","","null","","","null","60","","","","","","","","","","","","","","","",""
"","ISI","","html-keyboard-response","399","554260","0.0-1.0-543.0","0","0","70203","","null","","","null","60","NaN","","","","","","","","","","","","","","",""
"","S2","","html-keyboard-response","400","554513","0.0-1.0-544.0","0","0","70203","","null","","","null","60","","NaN","","","","","","","","","","","","","",""
"","response","","html-keyboard-response","401","555043","0.0-1.0-545.0-0.0","0","0","70203","","527","","","68","60","","","2","60","training","adjacent","BC","2","3","R.jpg","M.jpg","0","1","0","",""
"","feedback","","html-keyboard-response","402","556048","0.0-1.0-546.0-0.0","0","0","70203","","null","","","null","60","","","","","","","","","","","","","","","",""
"","time_out","","html-keyboard-response","403","558051","0.0-1.0-548.0-0.0","0","0","70203","","null","","","null","60","","","","","","","","","","","","","","","",""
"","ITI","","html-keyboard-response","404","559055","0.0-1.0-549.0","0","0","70203","","null","","","null","60","","","","","","","","","","","","","","","NaN",""
"","S1","","html-keyboard-response","405","559308","0.0-1.0-551.0","0","0","70203","","null","","","null","61","","","","","","","","","","","","","","","",""
"","ISI","","html-keyboard-response","406","561312","0.0-1.0-552.0","0","0","70203","","null","","","null","61","NaN","","","","","","","","","","","","","","",""
"","S2","","html-keyboard-response","407","561566","0.0-1.0-553.0","0","0","70203","","null","","","null","61","","NaN","","","","","","","","","","","","","",""
"","response","","html-keyboard-response","408","561619","0.0-1.0-554.0-0.0","0","0","70203","","52","","","75","61","","","2","61","training","adjacent","BA","2","1","R.jpg","P.jpg","1","0","0","",""
"","feedback","","html-keyboard-response","409","562622","0.0-1.0-555.0-0.0","0","0","70203","","null","","","null","61","","","","","","","","","","","","","","","",""
"","time_out","","html-keyboard-response","410","564626","0.0-1.0-557.0-0.0","0","0","70203","","null","","","null","61","","","","","","","","","","","","","","","",""
"","ITI","","html-keyboard-response","411","565629","0.0-1.0-558.0","0","0","70203","","null","","","null","61","","","","","","","","","","","","","","","NaN",""
"","S1","","html-keyboard-response","412","565882","0.0-1.0-560.0","0","0","70203","","null","","","null","62","","","","","","","","","","","","","","","",""
"","ISI","","html-keyboard-response","413","567886","0.0-1.0-561.0","0","0","70203","","null","","","null","62","NaN","","","","","","","","","","","","","","",""
"","S2","","html-keyboard-response","414","568139","0.0-1.0-562.0","0","0","70203","","null","","","null","62","","NaN","","","","","","","","","","","","","",""
"","response","","html-keyboard-response","415","568264","0.0-1.0-563.0-0.0","0","0","70203","","122","","","68","62","","","2","62","training","adjacent","DC","4","3","N.jpg","M.jpg","0","0","1","",""
"","feedback","","html-keyboard-response","416","569267","0.0-1.0-564.0-0.0","0","0","70203","","null","","","null","62","","","","","","","","","","","","","","","",""
"","ITI","","html-keyboard-response","417","570270","0.0-1.0-567.0","0","0","70203","","null","","","null","62","","","","","","","","","","","","","","","NaN",""
"","S1","","html-keyboard-response","418","570523","0.0-1.0-569.0","0","0","70203","","null","","","null","63","","","","","","","","","","","","","","","",""
"","ISI","","html-keyboard-response","419","572526","0.0-1.0-570.0","0","0","70203","","null","","","null","63","NaN","","","","","","","","","","","","","","",""
"","S2","","html-keyboard-response","420","572793","0.0-1.0-571.0","0","0","70203","","null","","","null","63","","NaN","","","","","","","","","","","","","",""
"","response","","html-keyboard-response","421","573751","0.0-1.0-572.0-0.0","0","0","70203","","956","","","75","63","","","2","63","training","adjacent","CB","3","2","M.jpg","R.jpg","1","0","0","",""
"","feedback","","html-keyboard-response","422","574755","0.0-1.0-573.0-0.0","0","0","70203","","null","","","null","63","","","","","","","","","","","","","","","",""
"","time_out","","html-keyboard-response","423","576758","0.0-1.0-575.0-0.0","0","0","70203","","null","","","null","63","","","","","","","","","","","","","","","",""
"","ITI","","html-keyboard-response","424","577761","0.0-1.0-576.0","0","0","70203","","null","","","null","63","","","","","","","","","","","","","","","NaN",""
"","S1","","html-keyboard-response","425","578014","0.0-1.0-578.0","0","0","70203","","null","","","null","64","","","","","","","","","","","","","","","",""
"","ISI","","html-keyboard-response","426","580017","0.0-1.0-579.0","0","0","70203","","null","","","null","64","NaN","","","","","","","","","","","","","","",""
"","S2","","html-keyboard-response","427","580271","0.0-1.0-580.0","0","0","70203","","null","","","null","64","","NaN","","","","","","","","","","","","","",""
"","response","","html-keyboard-response","428","582010","0.0-1.0-581.0-0.0","0","0","70203","","1737","","","68","64","","","2","64","training","adjacent","DC","4","3","N.jpg","M.jpg","0","0","1","",""
"","feedback","","html-keyboard-response","429","583015","0.0-1.0-582.0-0.0","0","0","70203","","null","","","null","64","","","","","","","","","","","","","","","",""
"","ITI","","html-keyboard-response","430","584019","0.0-1.0-585.0","0","0","70203","","null","","","null","64","","","","","","","","","","","","","","","NaN",""
"","S1","","html-keyboard-response","431","584272","0.0-1.0-587.0","0","0","70203","","null","","","null","65","","","","","","","","","","","","","","","",""
"","ISI","","html-keyboard-response","432","586276","0.0-1.0-588.0","0","0","70203","","null","","","null","65","NaN","","","","","","","","","","","","","","",""
"","S2","","html-keyboard-response","433","586430","0.0-1.0-589.0","0","0","70203","","152","","","68","65","","d","2","65","training","adjacent","FE","6","5","L.jpg","Q.jpg","0","0","1","",""
"","feedback","","html-keyboard-response","434","587433","0.0-1.0-591.0-0.0","0","0","70203","","null","","","null","65","","","","","","","","","","","","","","","",""
"","ITI","","html-keyboard-response","435","588436","0.0-1.0-594.0","0","0","70203","","null","","","null","65","","","","","","","","","","","","","","","NaN",""
"","S1","","html-keyboard-response","436","588689","0.0-1.0-596.0","0","0","70203","","null","","","null","66","","","","","","","","","","","","","","","",""
"","ISI","","html-keyboard-response","437","590690","0.0-1.0-597.0","0","0","70203","","null","","","null","66","NaN","","","","","","","","","","","","","","",""
"","S2","","html-keyboard-response","438","590943","0.0-1.0-598.0","0","0","70203","","null","","","null","66","","NaN","","","","","","","","","","","","","",""
"","response","","html-keyboard-response","439","591213","0.0-1.0-599.0-0.0","0","0","70203","","268","","","68","66","","","2","66","training","adjacent","AB","1","2","P.jpg","R.jpg","0","1","0","",""
"","feedback","","html-keyboard-response","440","592216","0.0-1.0-600.0-0.0","0","0","70203","","null","","","null","66","","","","","","","","","","","","","","","",""
"","time_out","","html-keyboard-response","441","594219","0.0-1.0-602.0-0.0","0","0","70203","","null","","","null","66","","","","","","","","","","","","","","","",""
"","ITI","","html-keyboard-response","442","595221","0.0-1.0-603.0","0","0","70203","","null","","","null","66","","","","","","","","","","","","","","","NaN",""
"","S1","","html-keyboard-response","443","595474","0.0-1.0-605.0","0","0","70203","","null","","","null","67","","","","","","","","","","","","","","","",""
"","ISI","","html-keyboard-response","444","597477","0.0-1.0-606.0","0","0","70203","","null","","","null","67","NaN","","","","","","","","","","","","","","",""
"","S2","","html-keyboard-response","445","597730","0.0-1.0-607.0","0","0","70203","","null","","","null","67","","NaN","","","","","","","","","","","","","",""
"","response","","html-keyboard-response","446","598857","0.0-1.0-608.0-0.0","0","0","70203","","1124","","","75","67","","","2","67","training","adjacent","BA","2","1","R.jpg","P.jpg","1","0","0","",""
"","feedback","","html-keyboard-response","447","599862","0.0-1.0-609.0-0.0","0","0","70203","","null","","","null","67","","","","","","","","","","","","","","","",""
"","time_out","","html-keyboard-response","448","601865","0.0-1.0-611.0-0.0","0","0","70203","","null","","","null","67","","","","","","","","","","","","","","","",""
"","ITI","","html-keyboard-response","449","602868","0.0-1.0-612.0","0","0","70203","","null","","","null","67","","","","","","","","","","","","","","","NaN",""
"","S1","","html-keyboard-response","450","603121","0.0-1.0-614.0","0","0","70203","","null","","","null","68","","","","","","","","","","","","","","","",""
"","ISI","","html-keyboard-response","451","605124","0.0-1.0-615.0","0","0","70203","","127","","","75","68","k","","","","","","","","","","","","","","",""
"","S2","","html-keyboard-response","452","605377","0.0-1.0-616.0","0","0","70203","","null","","","null","68","","NaN","","","","","","","","","","","","","",""
"","response","","html-keyboard-response","453","605383","0.0-1.0-617.0-0.0","0","0","70203","","4","","","75","68","","","2","68","training","adjacent","CB","3","2","M.jpg","R.jpg","1","0","0","",""
"","feedback","","html-keyboard-response","454","606386","0.0-1.0-618.0-0.0","0","0","70203","","null","","","null","68","","","","","","","","","","","","","","","",""
"","time_out","","html-keyboard-response","455","608389","0.0-1.0-620.0-0.0","0","0","70203","","null","","","null","68","","","","","","","","","","","","","","","",""
"","ITI","","html-keyboard-response","456","609392","0.0-1.0-621.0","0","0","70203","","null","","","null","68","","","","","","","","","","","","","","","NaN",""
"","S1","","html-keyboard-response","457","609646","0.0-1.0-623.0","0","0","70203","","null","","","null","69","","","","","","","","","","","","","","","",""
"","ISI","","html-keyboard-response","458","611649","0.0-1.0-624.0","0","0","70203","","114","","","68","69","d","","","","","","","","","","","","","","",""
"","S2","","html-keyboard-response","459","611902","0.0-1.0-625.0","0","0","70203","","null","","","null","69","","NaN","","","","","","","","","","","","","",""
"","response","","html-keyboard-response","460","611936","0.0-1.0-626.0-0.0","0","0","70203","","31","","","68","69","","","2","69","training","adjacent","GF","7","6","O.jpg","L.jpg","0","0","1","",""
"","feedback","","html-keyboard-response","461","612940","0.0-1.0-627.0-0.0","0","0","70203","","null","","","null","69","","","","","","","","","","","","","","","",""
"","ITI","","html-keyboard-response","462","613943","0.0-1.0-630.0","0","0","70203","","null","","","null","69","","","","","","","","","","","","","","","NaN",""
"","S1","","html-keyboard-response","463","614196","0.0-1.0-632.0","0","0","70203","","null","","","null","70","","","","","","","","","","","","","","","",""
"","ISI","","html-keyboard-response","464","616199","0.0-1.0-633.0","0","0","70203","","null","","","null","70","NaN","","","","","","","","","","","","","","",""
"","S2","","html-keyboard-response","465","616453","0.0-1.0-634.0","0","0","70203","","null","","","null","70","","NaN","","","","","","","","","","","","","",""
"","response","","html-keyboard-response","466","616772","0.0-1.0-635.0-0.0","0","0","70203","","317","","","68","70","","","2","70","training","adjacent","FE","6","5","L.jpg","Q.jpg","0","0","1","",""
"","feedback","","html-keyboard-response","467","617775","0.0-1.0-636.0-0.0","0","0","70203","","null","","","null","70","","","","","","","","","","","","","","","",""
"","ITI","","html-keyboard-response","468","618780","0.0-1.0-639.0","0","0","70203","","null","","","null","70","","","","","","","","","","","","","","","NaN",""
"","S1","","html-keyboard-response","469","619032","0.0-1.0-641.0","0","0","70203","","null","","","null","71","","","","","","","","","","","","","","","",""
"","ISI","","html-keyboard-response","470","621035","0.0-1.0-642.0","0","0","70203","","null","","","null","71","NaN","","","","","","","","","","","","","","",""
"","S2","","html-keyboard-response","471","621288","0.0-1.0-643.0","0","0","70203","","null","","","null","71","","NaN","","","","","","","","","","","","","",""
"","response","","html-keyboard-response","472","621326","0.0-1.0-644.0-0.0","0","0","70203","","36","","","75","71","","","2","71","training","adjacent","EF","5","6","Q.jpg","L.jpg","1","1","1","",""
"","feedback","","html-keyboard-response","473","622341","0.0-1.0-645.0-0.0","0","0","70203","","null","","","null","71","","","","","","","","","","","","","","","",""
"","ITI","","html-keyboard-response","474","623345","0.0-1.0-648.0","0","0","70203","","null","","","null","71","","","","","","","","","","","","","","","NaN",""
"","S1","","html-keyboard-response","475","623599","0.0-1.0-650.0","0","0","70203","","null","","","null","72","","","","","","","","","","","","","","","",""
"","ISI","","html-keyboard-response","476","625601","0.0-1.0-651.0","0","0","70203","","null","","","null","72","NaN","","","","","","","","","","","","","","",""
"","S2","","html-keyboard-response","477","625854","0.0-1.0-652.0","0","0","70203","","null","","","null","72","","NaN","","","","","","","","","","","","","",""
"","response","","html-keyboard-response","478","626270","0.0-1.0-653.0-0.0","0","0","70203","","413","","","68","72","","","2","72","training","adjacent","ED","5","4","Q.jpg","N.jpg","0","0","1","",""
"","feedback","","html-keyboard-response","479","627274","0.0-1.0-654.0-0.0","0","0","70203","","null","","","null","72","","","","","","","","","","","","","","","",""
"","ITI","","html-keyboard-response","480","628278","0.0-1.0-657.0","0","0","70203","","null","","","null","72","","","","","","","","","","","","","","","NaN",""
"","S1","","html-keyboard-response","481","628533","0.0-1.0-659.0","0","0","70203","","null","","","null","73","","","","","","","","","","","","","","","",""
"","ISI","","html-keyboard-response","482","630545","0.0-1.0-660.0","0","0","70203","","null","","","null","73","NaN","","","","","","","","","","","","","","",""
"","S2","","html-keyboard-response","483","630798","0.0-1.0-661.0","0","0","70203","","null","","","null","73","","NaN","","","","","","","","","","","","","",""
"","response","","html-keyboard-response","484","630801","0.0-1.0-662.0-0.0","0","0","70203","","0","","","75","73","","","2","73","training","adjacent","FE","6","5","L.jpg","Q.jpg","1","0","0","",""
"","feedback","","html-keyboard-response","485","631804","0.0-1.0-663.0-0.0","0","0","70203","","null","","","null","73","","","","","","","","","","","","","","","",""
"","time_out","","html-keyboard-response","486","633808","0.0-1.0-665.0-0.0","0","0","70203","","null","","","null","73","","","","","","","","","","","","","","","",""
"","ITI","","html-keyboard-response","487","634811","0.0-1.0-666.0","0","0","70203","","null","","","null","73","","","","","","","","","","","","","","","NaN",""
"","S1","","html-keyboard-response","488","635065","0.0-1.0-668.0","0","0","70203","","null","","","null","74","","","","","","","","","","","","","","","",""
"","ISI","","html-keyboard-response","489","637068","0.0-1.0-669.0","0","0","70203","","null","","","null","74","NaN","","","","","","","","","","","","","","",""
"","S2","","html-keyboard-response","490","637320","0.0-1.0-670.0","0","0","70203","","null","","","null","74","","NaN","","","","","","","","","","","","","",""
"","response","","html-keyboard-response","491","637335","0.0-1.0-671.0-0.0","0","0","70203","","14","","","68","74","","","2","74","training","adjacent","CD","3","4","M.jpg","N.jpg","0","1","0","",""
"","feedback","","html-keyboard-response","492","638339","0.0-1.0-672.0-0.0","0","0","70203","","null","","","null","74","","","","","","","","","","","","","","","",""
"","time_out","","html-keyboard-response","493","640343","0.0-1.0-674.0-0.0","0","0","70203","","null","","","null","74","","","","","","","","","","","","","","","",""
"","ITI","","html-keyboard-response","494","641347","0.0-1.0-675.0","0","0","70203","","null","","","null","74","","","","","","","","","","","","","","","NaN",""
"","S1","","html-keyboard-response","495","641600","0.0-1.0-677.0","0","0","70203","","null","","","null","75","","","","","","","","","","","","","","","",""
"","ISI","","html-keyboard-response","496","643603","0.0-1.0-678.0","0","0","70203","","null","","","null","75","NaN","","","","","","","","","","","","","","",""
"","S2","","html-keyboard-response","497","643856","0.0-1.0-679.0","0","0","70203","","null","","","null","75","","NaN","","","","","","","","","","","","","",""
"","response","","html-keyboard-response","498","644465","0.0-1.0-680.0-0.0","0","0","70203","","607","","","75","75","","","2","75","training","adjacent","CB","3","2","M.jpg","R.jpg","1","0","0","",""
"","feedback","","html-keyboard-response","499","645467","0.0-1.0-681.0-0.0","0","0","70203","","null","","","null","75","","","","","","","","","","","","","","","",""
"","time_out","","html-keyboard-response","500","647471","0.0-1.0-683.0-0.0","0","0","70203","","null","","","null","75","","","","","","","","","","","","","","","",""
"","ITI","","html-keyboard-response","501","648473","0.0-1.0-684.0","0","0","70203","","null","","","null","75","","","","","","","","","","","","","","","NaN",""
"","S1","","html-keyboard-response","502","648727","0.0-1.0-686.0","0","0","70203","","null","","","null","76","","","","","","","","","","","","","","","",""
"","ISI","","html-keyboard-response","503","650729","0.0-1.0-687.0","0","0","70203","","null","","","null","76","NaN","","","","","","","","","","","","","","",""
"","S2","","html-keyboard-response","504","650983","0.0-1.0-688.0","0","0","70203","","null","","","null","76","","NaN","","","","","","","","","","","","","",""
"","response","","html-keyboard-response","505","651068","0.0-1.0-689.0-0.0","0","0","70203","","83","","","75","76","","","2","76","training","adjacent","GF","7","6","O.jpg","L.jpg","1","0","0","",""
"","feedback","","html-keyboard-response","506","652073","0.0-1.0-690.0-0.0","0","0","70203","","null","","","null","76","","","","","","","","","","","","","","","",""
"","time_out","","html-keyboard-response","507","654076","0.0-1.0-692.0-0.0","0","0","70203","","null","","","null","76","","","","","","","","","","","","","","","",""
"","ITI","","html-keyboard-response","508","655079","0.0-1.0-693.0","0","0","70203","","null","","","null","76","","","","","","","","","","","","","","","NaN",""
"","S1","","html-keyboard-response","509","655332","0.0-1.0-695.0","0","0","70203","","null","","","null","77","","","","","","","","","","","","","","","",""
"","ISI","","html-keyboard-response","510","657335","0.0-1.0-696.0","0","0","70203","","184","","","68","77","d","","","","","","","","","","","","","","",""
"","S2","","html-keyboard-response","511","657589","0.0-1.0-697.0","0","0","70203","","null","","","null","77","","NaN","","","","","","","","","","","","","",""
"","response","","html-keyboard-response","512","657694","0.0-1.0-698.0-0.0","0","0","70203","","103","","","68","77","","","2","77","training","adjacent","CB","3","2","M.jpg","R.jpg","0","0","1","",""
"","feedback","","html-keyboard-response","513","658700","0.0-1.0-699.0-0.0","0","0","70203","","null","","","null","77","","","","","","","","","","","","","","","",""
"","ITI","","html-keyboard-response","514","659704","0.0-1.0-702.0","0","0","70203","","null","","","null","77","","","","","","","","","","","","","","","NaN",""
"","S1","","html-keyboard-response","515","659957","0.0-1.0-704.0","0","0","70203","","null","","","null","78","","","","","","","","","","","","","","","",""
"","ISI","","html-keyboard-response","516","661976","0.0-1.0-705.0","0","0","70203","","null","","","null","78","NaN","","","","","","","","","","","","","","",""
"","S2","","html-keyboard-response","517","662225","0.0-1.0-706.0","0","0","70203","","247","","","75","78","","k","2","78","training","adjacent","FG","6","7","L.jpg","O.jpg","1","1","1","",""
"","feedback","","html-keyboard-response","518","663228","0.0-1.0-708.0-0.0","0","0","70203","","null","","","null","78","","","","","","","","","","","","","","","",""
"","ITI","","html-keyboard-response","519","664232","0.0-1.0-711.0","0","0","70203","","null","","","null","78","","","","","","","","","","","","","","","NaN",""
"","S1","","html-keyboard-response","520","664485","0.0-1.0-713.0","0","0","70203","","null","","","null","79","","","","","","","","","","","","","","","",""
"","ISI","","html-keyboard-response","521","666488","0.0-1.0-714.0","0","0","70203","","null","","","null","79","NaN","","","","","","","","","","","","","","",""
"","S2","","html-keyboard-response","522","666742","0.0-1.0-715.0","0","0","70203","","null","","","null","79","","NaN","","","","","","","","","","","","","",""
"","response","","html-keyboard-response","523","666817","0.0-1.0-716.0-0.0","0","0","70203","","71","","","75","79","","","2","79","training","adjacent","GF","7","6","O.jpg","L.jpg","1","0","0","",""
"","feedback","","html-keyboard-response","524","667822","0.0-1.0-717.0-0.0","0","0","70203","","null","","","null","79","","","","","","","","","","","","","","","",""
"","time_out","","html-keyboard-response","525","669826","0.0-1.0-719.0-0.0","0","0","70203","","null","","","null","79","","","","","","","","","","","","","","","",""
"","ITI","","html-keyboard-response","526","670827","0.0-1.0-720.0","0","0","70203","","null","","","null","79","","","","","","","","","","","","","","","NaN",""
"","S1","","html-keyboard-response","527","671081","0.0-1.0-722.0","0","0","70203","","null","","","null","80","","","","","","","","","","","","","","","",""
"","ISI","","html-keyboard-response","528","673084","0.0-1.0-723.0","0","0","70203","","null","","","null","80","NaN","","","","","","","","","","","","","","",""
"","S2","","html-keyboard-response","529","673337","0.0-1.0-724.0","0","0","70203","","null","","","null","80","","NaN","","","","","","","","","","","","","",""
"","response","","html-keyboard-response","530","673519","0.0-1.0-725.0-0.0","0","0","70203","","180","","","68","80","","","2","80","training","adjacent","EF","5","6","Q.jpg","L.jpg","0","1","0","",""
"","feedback","","html-keyboard-response","531","674523","0.0-1.0-726.0-0.0","0","0","70203","","null","","","null","80","","","","","","","","","","","","","","","",""
"","time_out","","html-keyboard-response","532","676526","0.0-1.0-728.0-0.0","0","0","70203","","null","","","null","80","","","","","","","","","","","","","","","",""
"","ITI","","html-keyboard-response","533","677539","0.0-1.0-729.0","0","0","70203","","null","","","null","80","","","","","","","","","","","","","","","NaN",""
"","S1","","html-keyboard-response","534","677792","0.0-1.0-731.0","0","0","70203","","null","","","null","81","","","","","","","","","","","","","","","",""
"","ISI","","html-keyboard-response","535","679795","0.0-1.0-732.0","0","0","70203","","null","","","null","81","NaN","","","","","","","","","","","","","","",""
"","S2","","html-keyboard-response","536","680047","0.0-1.0-733.0","0","0","70203","","null","","","null","81","","NaN","","","","","","","","","","","","","",""
"","response","","html-keyboard-response","537","680482","0.0-1.0-734.0-0.0","0","0","70203","","431","","","75","81","","","2","81","training","adjacent","DC","4","3","N.jpg","M.jpg","1","0","0","",""
"","feedback","","html-keyboard-response","538","681486","0.0-1.0-735.0-0.0","0","0","70203","","null","","","null","81","","","","","","","","","","","","","","","",""
"","time_out","","html-keyboard-response","539","683490","0.0-1.0-737.0-0.0","0","0","70203","","null","","","null","81","","","","","","","","","","","","","","","",""
"","ITI","","html-keyboard-response","540","684492","0.0-1.0-738.0","0","0","70203","","null","","","null","81","","","","","","","","","","","","","","","NaN",""
"","S1","","html-keyboard-response","541","684748","0.0-1.0-740.0","0","0","70203","","null","","","null","82","","","","","","","","","","","","","","","",""
"","ISI","","html-keyboard-response","542","686752","0.0-1.0-741.0","0","0","70203","","370","","","68","82","d","","","","","","","","","","","","","","",""
"","S2","","html-keyboard-response","543","687005","0.0-1.0-742.0","0","0","70203","","null","","","null","82","","NaN","","","","","","","","","","","","","",""
"","response","","html-keyboard-response","544","687073","0.0-1.0-743.0-0.0","0","0","70203","","66","","","68","82","","","2","82","training","adjacent","GF","7","6","O.jpg","L.jpg","0","0","1","",""
"","feedback","","html-keyboard-response","545","688078","0.0-1.0-744.0-0.0","0","0","70203","","null","","","null","82","","","","","","","","","","","","","","","",""
"","ITI","","html-keyboard-response","546","689082","0.0-1.0-747.0","0","0","70203","","null","","","null","82","","","","","","","","","","","","","","","NaN",""
"","S1","","html-keyboard-response","547","689335","0.0-1.0-749.0","0","0","70203","","null","","","null","83","","","","","","","","","","","","","","","",""
"","ISI","","html-keyboard-response","548","691337","0.0-1.0-750.0","0","0","70203","","null","","","null","83","NaN","","","","","","","","","","","","","","",""
"","S2","","html-keyboard-response","549","691590","0.0-1.0-751.0","0","0","70203","","null","","","null","83","","NaN","","","","","","","","","","","","","",""
"","response","","html-keyboard-response","550","691826","0.0-1.0-752.0-0.0","0","0","70203","","234","","","75","83","","","2","83","training","adjacent","BC","2","3","R.jpg","M.jpg","1","1","1","",""
"","feedback","","html-keyboard-response","551","692829","0.0-1.0-753.0-0.0","0","0","70203","","null","","","null","83","","","","","","","","","","","","","","","",""
"","ITI","","html-keyboard-response","552","693832","0.0-1.0-756.0","0","0","70203","","null","","","null","83","","","","","","","","","","","","","","","NaN",""
"","S1","","html-keyboard-response","553","694085","0.0-1.0-758.0","0","0","70203","","null","","","null","84","","","","","","","","","","","","","","","",""
"","ISI","","html-keyboard-response","554","696089","0.0-1.0-759.0","0","0","70203","","659","","","75","84","k","","","","","","","","","","","","","","",""
"","S2","","html-keyboard-response","555","696343","0.0-1.0-760.0","0","0","70203","","null","","","null","84","","NaN","","","","","","","","","","","","","",""
"","response","","html-keyboard-response","556","696351","0.0-1.0-761.0-0.0","0","0","70203","","4","","","75","84","","","2","84","training","adjacent","CD","3","4","M.jpg","N.jpg","1","1","1","",""
"","feedback","","html-keyboard-response","557","697355","0.0-1.0-762.0-0.0","0","0","70203","","null","","","null","84","","","","","","","","","","","","","","","",""
"","ITI","","html-keyboard-response","558","698358","0.0-1.0-765.0","0","0","70203","","null","","","null","84","","","","","","","","","","","","","","","NaN",""
"","S1","","html-keyboard-response","559","698611","0.0-1.0-767.0","0","0","70203","","null","","","null","85","","","","","","","","","","","","","","","",""
"","ISI","","html-keyboard-response","560","700616","0.0-1.0-768.0","0","0","70203","","null","","","null","85","NaN","","","","","","","","","","","","","","",""
"","S2","","html-keyboard-response","561","700880","0.0-1.0-769.0","0","0","70203","","null","","","null","85","","NaN","","","","","","","","","","","","","",""
"","response","","html-keyboard-response","562","700897","0.0-1.0-770.0-0.0","0","0","70203","","15","","","68","85","","","2","85","training","adjacent","FG","6","7","L.jpg","O.jpg","0","1","0","",""
"","feedback","","html-keyboard-response","563","701900","0.0-1.0-771.0-0.0","0","0","70203","","null","","","null","85","","","","","","","","","","","","","","","",""
"","time_out","","html-keyboard-response","564","703903","0.0-1.0-773.0-0.0","0","0","70203","","null","","","null","85","","","","","","","","","","","","","","","",""
"","ITI","","html-keyboard-response","565","704907","0.0-1.0-774.0","0","0","70203","","null","","","null","85","","","","","","","","","","","","","","","NaN",""
"","S1","","html-keyboard-response","566","705160","0.0-1.0-776.0","0","0","70203","","null","","","null","86","","","","","","","","","","","","","","","",""
"","ISI","","html-keyboard-response","567","707162","0.0-1.0-777.0","0","0","70203","","222","","","75","86","k","","","","","","","","","","","","","","",""
"","S2","","html-keyboard-response","568","707415","0.0-1.0-778.0","0","0","70203","","null","","","null","86","","NaN","","","","","","","","","","","","","",""
"","response","","html-keyboard-response","569","707420","0.0-1.0-779.0-0.0","0","0","70203","","4","","","75","86","","","2","86","training","adjacent","AB","1","2","P.jpg","R.jpg","1","1","1","",""
"","feedback","","html-keyboard-response","570","708424","0.0-1.0-780.0-0.0","0","0","70203","","null","","","null","86","","","","","","","","","","","","","","","",""
"","ITI","","html-keyboard-response","571","709427","0.0-1.0-783.0","0","0","70203","","null","","","null","86","","","","","","","","","","","","","","","NaN",""
"","S1","","html-keyboard-response","572","709680","0.0-1.0-785.0","0","0","70203","","null","","","null","87","","","","","","","","","","","","","","","",""
"","ISI","","html-keyboard-response","573","711683","0.0-1.0-786.0","0","0","70203","","1732","","","75","87","k","","","","","","","","","","","","","","",""
