"success","ttype","start_time","trial_type","trial_index","time_elapsed","internal_node_id","warning","missed_checkup","PID","view_history","rt","responses","repeat_instructions","key_press","index","keypress_isi","keypress_S2","block","trial_num","phase","group_type","pair_type","S1_stim","S2_stim","S1_img","S2_img","S1_chosen","S1_higher","accuracy","keypress_iti","total_bonus_tally"
"true","full_screen","d04132023hr1629","fullscreen","0","4741","0.0-0.0","0","0","91421","","","","","","","","","","","","","","","","","","","","","",""
"","instructions","","instructions","1","24718","0.0-1.0-0.0-0.0","0","0","91421","[{""page_index"":0,""viewing_time"":3894},{""page_index"":1,""viewing_time"":10200},{""page_index"":2,""viewing_time"":3785},{""page_index"":3,""viewing_time"":2095}]","19975","","","","","","","","","","","","","","","","","","","",""
"","comprehension_check","","survey-multi-choice","2","41463","0.0-1.0-0.0-1.0","0","0","91421","","16740","{""Q0"":""True"",""Q1"":""K"",""Q2"":""Once the second image appears and while the screen 'MAKE A CHOICE' is shown"",""Q3"":""Green mark"",""Q4"":""either D or K""}","0","","","","","","","","","","","","","","","","","",""
"","start_exp","","html-keyboard-response","3","43005","0.0-1.0-1.0","0","0","91421","","1539","","","32","","","","","","","","","","","","","","","","",""
"","S1","","html-keyboard-response","4","43257","0.0-1.0-2.0","0","0","91421","","null","","","null","0","","","","","","","","","","","","","","","",""
"","ISI","","html-keyboard-response","5","44260","0.0-1.0-3.0","0","0","91421","","null","","","null","0","NaN","","","","","","","","","","","","","","",""
"","S2","","html-keyboard-response","6","44514","0.0-1.0-4.0","0","0","91421","","null","","","null","0","","NaN","","","","","","","","","","","","","",""
"","response","","html-keyboard-response","7","45039","0.0-1.0-5.0-0.0","0","0","91421","","521","","","75","0","","","1","0","training","adjacent","ED","5","4","M.jpg","L.jpg","1","0","0","",""
"","feedback","","html-keyboard-response","8","46043","0.0-1.0-6.0-0.0","0","0","91421","","null","","","null","0","","","","","","","","","","","","","","","",""
"","time_out","","html-keyboard-response","9","48046","0.0-1.0-8.0-0.0","0","0","91421","","null","","","null","0","","","","","","","","","","","","","","","",""
"","ITI","","html-keyboard-response","10","49049","0.0-1.0-9.0","0","0","91421","","null","","","null","0","","","","","","","","","","","","","","","NaN",""
"","S1","","html-keyboard-response","11","49303","0.0-1.0-11.0","0","0","91421","","null","","","null","1","","","","","","","","","","","","","","","",""
"","ISI","","html-keyboard-response","12","50306","0.0-1.0-12.0","0","0","91421","","null","","","null","1","NaN","","","","","","","","","","","","","","",""
"","S2","","html-keyboard-response","13","50560","0.0-1.0-13.0","0","0","91421","","null","","","null","1","","NaN","","","","","","","","","","","","","",""
"","response","","html-keyboard-response","14","51032","0.0-1.0-14.0-0.0","0","0","91421","","470","","","68","1","","","1","1","training","adjacent","FG","6","7","N.jpg","R.jpg","0","1","0","",""
"","feedback","","html-keyboard-response","15","52036","0.0-1.0-15.0-0.0","0","0","91421","","null","","","null","1","","","","","","","","","","","","","","","",""
"","time_out","","html-keyboard-response","16","54039","0.0-1.0-17.0-0.0","0","0","91421","","null","","","null","1","","","","","","","","","","","","","","","",""
"","ITI","","html-keyboard-response","17","55041","0.0-1.0-18.0","0","0","91421","","null","","","null","1","","","","","","","","","","","","","","","NaN",""
"","S1","","html-keyboard-response","18","55293","0.0-1.0-20.0","0","0","91421","","null","","","null","2","","","","","","","","","","","","","","","",""
"","ISI","","html-keyboard-response","19","56298","0.0-1.0-21.0","0","0","91421","","null","","","null","2","NaN","","","","","","","","","","","","","","",""
"","S2","","html-keyboard-response","20","56553","0.0-1.0-22.0","0","0","91421","","null","","","null","2","","NaN","","","","","","","","","","","","","",""
"","response","","html-keyboard-response","21","57287","0.0-1.0-23.0-0.0","0","0","91421","","732","","","75","2","","","1","2","training","adjacent","BC","2","3","P.jpg","Q.jpg","1","1","1","",""
"","feedback","","html-keyboard-response","22","58288","0.0-1.0-24.0-0.0","0","0","91421","","null","","","null","2","","","","","","","","","","","","","","","",""
"","ITI","","html-keyboard-response","23","59291","0.0-1.0-27.0","0","0","91421","","null","","","null","2","","","","","","","","","","","","","","","NaN",""
"","S1","","html-keyboard-response","24","59543","0.0-1.0-29.0","0","0","91421","","null","","","null","3","","","","","","","","","","","","","","","",""
"","ISI","","html-keyboard-response","25","60546","0.0-1.0-30.0","0","0","91421","","null","","","null","3","NaN","","","","","","","","","","","","","","",""
"","S2","","html-keyboard-response","26","60811","0.0-1.0-31.0","0","0","91421","","null","","","null","3","","NaN","","","","","","","","","","","","","",""
"","response","","html-keyboard-response","27","61178","0.0-1.0-32.0-0.0","0","0","91421","","365","","","68","3","","","1","3","training","adjacent","CD","3","4","Q.jpg","L.jpg","0","1","0","",""
"","feedback","","html-keyboard-response","28","62182","0.0-1.0-33.0-0.0","0","0","91421","","null","","","null","3","","","","","","","","","","","","","","","",""
"","time_out","","html-keyboard-response","29","64185","0.0-1.0-35.0-0.0","0","0","91421","","null","","","null","3","","","","","","","","","","","","","","","",""
"","ITI","","html-keyboard-response","30","65187","0.0-1.0-36.0","0","0","91421","","null","","","null","3","","","","","","","","","","","","","","","NaN",""
"","S1","","html-keyboard-response","31","65440","0.0-1.0-38.0","0","0","91421","","null","","","null","4","","","","","","","","","","","","","","","",""
"","ISI","","html-keyboard-response","32","66443","0.0-1.0-39.0","0","0","91421","","null","","","null","4","NaN","","","","","","","","","","","","","","",""
"","S2","","html-keyboard-response","33","66696","0.0-1.0-40.0","0","0","91421","","null","","","null","4","","NaN","","","","","","","","","","","","","",""
"","response","","html-keyboard-response","34","67309","0.0-1.0-41.0-0.0","0","0","91421","","612","","","75","4","","","1","4","training","adjacent","BA","2","1","P.jpg","O.jpg","1","0","0","",""
"","feedback","","html-keyboard-response","35","68313","0.0-1.0-42.0-0.0","0","0","91421","","null","","","null","4","","","","","","","","","","","","","","","",""
"","time_out","","html-keyboard-response","36","70316","0.0-1.0-44.0-0.0","0","0","91421","","null","","","null","4","","","","","","","","","","","","","","","",""
"","ITI","","html-keyboard-response","37","71320","0.0-1.0-45.0","0","0","91421","","null","","","null","4","","","","","","","","","","","","","","","NaN",""
"","S1","","html-keyboard-response","38","71572","0.0-1.0-47.0","0","0","91421","","null","","","null","5","","","","","","","","","","","","","","","",""
"","ISI","","html-keyboard-response","39","72575","0.0-1.0-48.0","0","0","91421","","null","","","null","5","NaN","","","","","","","","","","","","","","",""
"","S2","","html-keyboard-response","40","72839","0.0-1.0-49.0","0","0","91421","","null","","","null","5","","NaN","","","","","","","","","","","","","",""
"","response","","html-keyboard-response","41","73155","0.0-1.0-50.0-0.0","0","0","91421","","314","","","68","5","","","1","5","training","adjacent","EF","5","6","M.jpg","N.jpg","0","1","0","",""
"","feedback","","html-keyboard-response","42","74157","0.0-1.0-51.0-0.0","0","0","91421","","null","","","null","5","","","","","","","","","","","","","","","",""
"","time_out","","html-keyboard-response","43","76158","0.0-1.0-53.0-0.0","0","0","91421","","null","","","null","5","","","","","","","","","","","","","","","",""
"","ITI","","html-keyboard-response","44","77160","0.0-1.0-54.0","0","0","91421","","null","","","null","5","","","","","","","","","","","","","","","NaN",""
"","S1","","html-keyboard-response","45","77413","0.0-1.0-56.0","0","0","91421","","null","","","null","6","","","","","","","","","","","","","","","",""
"","ISI","","html-keyboard-response","46","78417","0.0-1.0-57.0","0","0","91421","","null","","","null","6","NaN","","","","","","","","","","","","","","",""
"","S2","","html-keyboard-response","47","78670","0.0-1.0-58.0","0","0","91421","","null","","","null","6","","NaN","","","","","","","","","","","","","",""
"","response","","html-keyboard-response","48","79404","0.0-1.0-59.0-0.0","0","0","91421","","733","","","68","6","","","1","6","training","adjacent","DC","4","3","L.jpg","Q.jpg","0","0","1","",""
"","feedback","","html-keyboard-response","49","80407","0.0-1.0-60.0-0.0","0","0","91421","","null","","","null","6","","","","","","","","","","","","","","","",""
"","ITI","","html-keyboard-response","50","81410","0.0-1.0-63.0","0","0","91421","","null","","","null","6","","","","","","","","","","","","","","","NaN",""
"","S1","","html-keyboard-response","51","81663","0.0-1.0-65.0","0","0","91421","","null","","","null","7","","","","","","","","","","","","","","","",""
"","ISI","","html-keyboard-response","52","82667","0.0-1.0-66.0","0","0","91421","","null","","","null","7","NaN","","","","","","","","","","","","","","",""
"","S2","","html-keyboard-response","53","82921","0.0-1.0-67.0","0","0","91421","","null","","","null","7","","NaN","","","","","","","","","","","","","",""
"","response","","html-keyboard-response","54","83002","0.0-1.0-68.0-0.0","0","0","91421","","79","","","68","7","","","1","7","training","adjacent","DC","4","3","L.jpg","Q.jpg","0","0","1","",""
"","feedback","","html-keyboard-response","55","84005","0.0-1.0-69.0-0.0","0","0","91421","","null","","","null","7","","","","","","","","","","","","","","","",""
"","ITI","","html-keyboard-response","56","85008","0.0-1.0-72.0","0","0","91421","","null","","","null","7","","","","","","","","","","","","","","","NaN",""
"","S1","","html-keyboard-response","57","85261","0.0-1.0-74.0","0","0","91421","","null","","","null","8","","","","","","","","","","","","","","","",""
"","ISI","","html-keyboard-response","58","86264","0.0-1.0-75.0","0","0","91421","","null","","","null","8","NaN","","","","","","","","","","","","","","",""
"","S2","","html-keyboard-response","59","86516","0.0-1.0-76.0","0","0","91421","","null","","","null","8","","NaN","","","","","","","","","","","","","",""
"","response","","html-keyboard-response","60","86581","0.0-1.0-77.0-0.0","0","0","91421","","63","","","68","8","","","1","8","training","adjacent","DC","4","3","L.jpg","Q.jpg","0","0","1","",""
"","feedback","","html-keyboard-response","61","87585","0.0-1.0-78.0-0.0","0","0","91421","","null","","","null","8","","","","","","","","","","","","","","","",""
"","ITI","","html-keyboard-response","62","88587","0.0-1.0-81.0","0","0","91421","","null","","","null","8","","","","","","","","","","","","","","","NaN",""
"","S1","","html-keyboard-response","63","88840","0.0-1.0-83.0","0","0","91421","","null","","","null","9","","","","","","","","","","","","","","","",""
"","ISI","","html-keyboard-response","64","89842","0.0-1.0-84.0","0","0","91421","","null","","","null","9","NaN","","","","","","","","","","","","","","",""
"","S2","","html-keyboard-response","65","90095","0.0-1.0-85.0","0","0","91421","","null","","","null","9","","NaN","","","","","","","","","","","","","",""
"","response","","html-keyboard-response","66","90537","0.0-1.0-86.0-0.0","0","0","91421","","441","","","68","9","","","1","9","training","adjacent","AB","1","2","O.jpg","P.jpg","0","1","0","",""
"","feedback","","html-keyboard-response","67","91555","0.0-1.0-87.0-0.0","0","0","91421","","null","","","null","9","","","","","","","","","","","","","","","",""
"","time_out","","html-keyboard-response","68","93558","0.0-1.0-89.0-0.0","0","0","91421","","null","","","null","9","","","","","","","","","","","","","","","",""
"","ITI","","html-keyboard-response","69","94560","0.0-1.0-90.0","0","0","91421","","null","","","null","9","","","","","","","","","","","","","","","NaN",""
"","S1","","html-keyboard-response","70","94811","0.0-1.0-92.0","0","0","91421","","null","","","null","10","","","","","","","","","","","","","","","",""
"","ISI","","html-keyboard-response","71","95813","0.0-1.0-93.0","0","0","91421","","null","","","null","10","NaN","","","","","","","","","","","","","","",""
"","S2","","html-keyboard-response","72","96066","0.0-1.0-94.0","0","0","91421","","null","","","null","10","","NaN","","","","","","","","","","","","","",""
"","response","","html-keyboard-response","73","96467","0.0-1.0-95.0-0.0","0","0","91421","","399","","","75","10","","","1","10","training","adjacent","BA","2","1","P.jpg","O.jpg","1","0","0","",""
"","feedback","","html-keyboard-response","74","97471","0.0-1.0-96.0-0.0","0","0","91421","","null","","","null","10","","","","","","","","","","","","","","","",""
"","time_out","","html-keyboard-response","75","99476","0.0-1.0-98.0-0.0","0","0","91421","","null","","","null","10","","","","","","","","","","","","","","","",""
"","ITI","","html-keyboard-response","76","100478","0.0-1.0-99.0","0","0","91421","","null","","","null","10","","","","","","","","","","","","","","","NaN",""
"","S1","","html-keyboard-response","77","100730","0.0-1.0-101.0","0","0","91421","","null","","","null","11","","","","","","","","","","","","","","","",""
"","ISI","","html-keyboard-response","78","101733","0.0-1.0-102.0","0","0","91421","","null","","","null","11","NaN","","","","","","","","","","","","","","",""
"","S2","","html-keyboard-response","79","101987","0.0-1.0-103.0","0","0","91421","","null","","","null","11","","NaN","","","","","","","","","","","","","",""
"","response","","html-keyboard-response","80","102132","0.0-1.0-104.0-0.0","0","0","91421","","143","","","68","11","","","1","11","training","adjacent","CB","3","2","Q.jpg","P.jpg","0","0","1","",""
"","feedback","","html-keyboard-response","81","103134","0.0-1.0-105.0-0.0","0","0","91421","","null","","","null","11","","","","","","","","","","","","","","","",""
"","ITI","","html-keyboard-response","82","104137","0.0-1.0-108.0","0","0","91421","","null","","","null","11","","","","","","","","","","","","","","","NaN",""
"","S1","","html-keyboard-response","83","104390","0.0-1.0-110.0","0","0","91421","","null","","","null","12","","","","","","","","","","","","","","","",""
"","ISI","","html-keyboard-response","84","105393","0.0-1.0-111.0","0","0","91421","","null","","","null","12","NaN","","","","","","","","","","","","","","",""
"","S2","","html-keyboard-response","85","105653","0.0-1.0-112.0","0","0","91421","","null","","","null","12","","NaN","","","","","","","","","","","","","",""
"","response","","html-keyboard-response","86","105708","0.0-1.0-113.0-0.0","0","0","91421","","53","","","68","12","","","1","12","training","adjacent","CB","3","2","Q.jpg","P.jpg","0","0","1","",""
"","feedback","","html-keyboard-response","87","106712","0.0-1.0-114.0-0.0","0","0","91421","","null","","","null","12","","","","","","","","","","","","","","","",""
"","ITI","","html-keyboard-response","88","107715","0.0-1.0-117.0","0","0","91421","","null","","","null","12","","","","","","","","","","","","","","","NaN",""
"","S1","","html-keyboard-response","89","107972","0.0-1.0-119.0","0","0","91421","","null","","","null","13","","","","","","","","","","","","","","","",""
"","ISI","","html-keyboard-response","90","108973","0.0-1.0-120.0","0","0","91421","","null","","","null","13","NaN","","","","","","","","","","","","","","",""
"","S2","","html-keyboard-response","91","109225","0.0-1.0-121.0","0","0","91421","","null","","","null","13","","NaN","","","","","","","","","","","","","",""
"","response","","html-keyboard-response","92","109305","0.0-1.0-122.0-0.0","0","0","91421","","79","","","75","13","","","1","13","training","adjacent","BC","2","3","P.jpg","Q.jpg","1","1","1","",""
"","feedback","","html-keyboard-response","93","110311","0.0-1.0-123.0-0.0","0","0","91421","","null","","","null","13","","","","","","","","","","","","","","","",""
"","ITI","","html-keyboard-response","94","111315","0.0-1.0-126.0","0","0","91421","","null","","","null","13","","","","","","","","","","","","","","","NaN",""
"","S1","","html-keyboard-response","95","111569","0.0-1.0-128.0","0","0","91421","","null","","","null","14","","","","","","","","","","","","","","","",""
"","ISI","","html-keyboard-response","96","112572","0.0-1.0-129.0","0","0","91421","","null","","","null","14","NaN","","","","","","","","","","","","","","",""
"","S2","","html-keyboard-response","97","112825","0.0-1.0-130.0","0","0","91421","","null","","","null","14","","NaN","","","","","","","","","","","","","",""
"","response","","html-keyboard-response","98","113171","0.0-1.0-131.0-0.0","0","0","91421","","344","","","75","14","","","1","14","training","adjacent","EF","5","6","M.jpg","N.jpg","1","1","1","",""
"","feedback","","html-keyboard-response","99","114175","0.0-1.0-132.0-0.0","0","0","91421","","null","","","null","14","","","","","","","","","","","","","","","",""
"","ITI","","html-keyboard-response","100","115180","0.0-1.0-135.0","0","0","91421","","null","","","null","14","","","","","","","","","","","","","","","NaN",""
"","S1","","html-keyboard-response","101","115433","0.0-1.0-137.0","0","0","91421","","null","","","null","15","","","","","","","","","","","","","","","",""
"","ISI","","html-keyboard-response","102","116436","0.0-1.0-138.0","0","0","91421","","null","","","null","15","NaN","","","","","","","","","","","","","","",""
"","S2","","html-keyboard-response","103","116689","0.0-1.0-139.0","0","0","91421","","null","","","null","15","","NaN","","","","","","","","","","","","","",""
"","response","","html-keyboard-response","104","117501","0.0-1.0-140.0-0.0","0","0","91421","","810","","","68","15","","","1","15","training","adjacent","GF","7","6","R.jpg","N.jpg","0","0","1","",""
"","feedback","","html-keyboard-response","105","118501","0.0-1.0-141.0-0.0","0","0","91421","","null","","","null","15","","","","","","","","","","","","","","","",""
"","ITI","","html-keyboard-response","106","119504","0.0-1.0-144.0","0","0","91421","","null","","","null","15","","","","","","","","","","","","","","","NaN",""
"","S1","","html-keyboard-response","107","119758","0.0-1.0-146.0","0","0","91421","","null","","","null","16","","","","","","","","","","","","","","","",""
"","ISI","","html-keyboard-response","108","120761","0.0-1.0-147.0","0","0","91421","","null","","","null","16","NaN","","","","","","","","","","","","","","",""
"","S2","","html-keyboard-response","109","121013","0.0-1.0-148.0","0","0","91421","","null","","","null","16","","NaN","","","","","","","","","","","","","",""
"","response","","html-keyboard-response","110","121592","0.0-1.0-149.0-0.0","0","0","91421","","577","","","68","16","","","1","16","training","adjacent","EF","5","6","M.jpg","N.jpg","0","1","0","",""
"","feedback","","html-keyboard-response","111","122595","0.0-1.0-150.0-0.0","0","0","91421","","null","","","null","16","","","","","","","","","","","","","","","",""
"","time_out","","html-keyboard-response","112","124598","0.0-1.0-152.0-0.0","0","0","91421","","null","","","null","16","","","","","","","","","","","","","","","",""
"","ITI","","html-keyboard-response","113","125600","0.0-1.0-153.0","0","0","91421","","null","","","null","16","","","","","","","","","","","","","","","NaN",""
"","S1","","html-keyboard-response","114","125853","0.0-1.0-155.0","0","0","91421","","null","","","null","17","","","","","","","","","","","","","","","",""
"","ISI","","html-keyboard-response","115","126855","0.0-1.0-156.0","0","0","91421","","null","","","null","17","NaN","","","","","","","","","","","","","","",""
"","S2","","html-keyboard-response","116","127109","0.0-1.0-157.0","0","0","91421","","null","","","null","17","","NaN","","","","","","","","","","","","","",""
"","response","","html-keyboard-response","117","127816","0.0-1.0-158.0-0.0","0","0","91421","","705","","","75","17","","","1","17","training","adjacent","BC","2","3","P.jpg","Q.jpg","1","1","1","",""
"","feedback","","html-keyboard-response","118","128820","0.0-1.0-159.0-0.0","0","0","91421","","null","","","null","17","","","","","","","","","","","","","","","",""
"","ITI","","html-keyboard-response","119","129822","0.0-1.0-162.0","0","0","91421","","null","","","null","17","","","","","","","","","","","","","","","NaN",""
"","S1","","html-keyboard-response","120","130080","0.0-1.0-164.0","0","0","91421","","null","","","null","18","","","","","","","","","","","","","","","",""
"","ISI","","html-keyboard-response","121","131083","0.0-1.0-165.0","0","0","91421","","null","","","null","18","NaN","","","","","","","","","","","","","","",""
"","S2","","html-keyboard-response","122","131338","0.0-1.0-166.0","0","0","91421","","null","","","null","18","","NaN","","","","","","","","","","","","","",""
"","response","","html-keyboard-response","123","131616","0.0-1.0-167.0-0.0","0","0","91421","","277","","","68","18","","","1","18","training","adjacent","DE","4","5","L.jpg","M.jpg","0","1","0","",""
"","feedback","","html-keyboard-response","124","132620","0.0-1.0-168.0-0.0","0","0","91421","","null","","","null","18","","","","","","","","","","","","","","","",""
"","time_out","","html-keyboard-response","125","134624","0.0-1.0-170.0-0.0","0","0","91421","","null","","","null","18","","","","","","","","","","","","","","","",""
"","ITI","","html-keyboard-response","126","135626","0.0-1.0-171.0","0","0","91421","","null","","","null","18","","","","","","","","","","","","","","","NaN",""
"","S1","","html-keyboard-response","127","135879","0.0-1.0-173.0","0","0","91421","","null","","","null","19","","","","","","","","","","","","","","","",""
"","ISI","","html-keyboard-response","128","136882","0.0-1.0-174.0","0","0","91421","","null","","","null","19","NaN","","","","","","","","","","","","","","",""
"","S2","","html-keyboard-response","129","137135","0.0-1.0-175.0","0","0","91421","","null","","","null","19","","NaN","","","","","","","","","","","","","",""
"","response","","html-keyboard-response","130","137208","0.0-1.0-176.0-0.0","0","0","91421","","71","","","68","19","","","1","19","training","adjacent","CD","3","4","Q.jpg","L.jpg","0","1","0","",""
"","feedback","","html-keyboard-response","131","138211","0.0-1.0-177.0-0.0","0","0","91421","","null","","","null","19","","","","","","","","","","","","","","","",""
"","time_out","","html-keyboard-response","132","140215","0.0-1.0-179.0-0.0","0","0","91421","","null","","","null","19","","","","","","","","","","","","","","","",""
"","ITI","","html-keyboard-response","133","141218","0.0-1.0-180.0","0","0","91421","","null","","","null","19","","","","","","","","","","","","","","","NaN",""
"","S1","","html-keyboard-response","134","141470","0.0-1.0-182.0","0","0","91421","","null","","","null","20","","","","","","","","","","","","","","","",""
"","ISI","","html-keyboard-response","135","142473","0.0-1.0-183.0","0","0","91421","","null","","","null","20","NaN","","","","","","","","","","","","","","",""
"","S2","","html-keyboard-response","136","142726","0.0-1.0-184.0","0","0","91421","","null","","","null","20","","NaN","","","","","","","","","","","","","",""
"","response","","html-keyboard-response","137","142969","0.0-1.0-185.0-0.0","0","0","91421","","242","","","68","20","","","1","20","training","adjacent","CD","3","4","Q.jpg","L.jpg","0","1","0","",""
"","feedback","","html-keyboard-response","138","143972","0.0-1.0-186.0-0.0","0","0","91421","","null","","","null","20","","","","","","","","","","","","","","","",""
"","time_out","","html-keyboard-response","139","145974","0.0-1.0-188.0-0.0","0","0","91421","","null","","","null","20","","","","","","","","","","","","","","","",""
"","ITI","","html-keyboard-response","140","146976","0.0-1.0-189.0","0","0","91421","","null","","","null","20","","","","","","","","","","","","","","","NaN",""
"","S1","","html-keyboard-response","141","147231","0.0-1.0-191.0","0","0","91421","","null","","","null","21","","","","","","","","","","","","","","","",""
"","ISI","","html-keyboard-response","142","148235","0.0-1.0-192.0","0","0","91421","","null","","","null","21","NaN","","","","","","","","","","","","","","",""
"","S2","","html-keyboard-response","143","148487","0.0-1.0-193.0","0","0","91421","","null","","","null","21","","NaN","","","","","","","","","","","","","",""
"","response","","html-keyboard-response","144","149294","0.0-1.0-194.0-0.0","0","0","91421","","806","","","75","21","","","1","21","training","adjacent","BA","2","1","P.jpg","O.jpg","1","0","0","",""
"","feedback","","html-keyboard-response","145","150297","0.0-1.0-195.0-0.0","0","0","91421","","null","","","null","21","","","","","","","","","","","","","","","",""
"","time_out","","html-keyboard-response","146","152300","0.0-1.0-197.0-0.0","0","0","91421","","null","","","null","21","","","","","","","","","","","","","","","",""
"","ITI","","html-keyboard-response","147","153303","0.0-1.0-198.0","0","0","91421","","null","","","null","21","","","","","","","","","","","","","","","NaN",""
"","S1","","html-keyboard-response","148","153558","0.0-1.0-200.0","0","0","91421","","null","","","null","22","","","","","","","","","","","","","","","",""
"","ISI","","html-keyboard-response","149","154562","0.0-1.0-201.0","0","0","91421","","null","","","null","22","NaN","","","","","","","","","","","","","","",""
"","S2","","html-keyboard-response","150","154815","0.0-1.0-202.0","0","0","91421","","null","","","null","22","","NaN","","","","","","","","","","","","","",""
"","response","","html-keyboard-response","151","155296","0.0-1.0-203.0-0.0","0","0","91421","","479","","","75","22","","","1","22","training","adjacent","AB","1","2","O.jpg","P.jpg","1","1","1","",""
"","feedback","","html-keyboard-response","152","156299","0.0-1.0-204.0-0.0","0","0","91421","","null","","","null","22","","","","","","","","","","","","","","","",""
"","ITI","","html-keyboard-response","153","157302","0.0-1.0-207.0","0","0","91421","","null","","","null","22","","","","","","","","","","","","","","","NaN",""
"","S1","","html-keyboard-response","154","157556","0.0-1.0-209.0","0","0","91421","","null","","","null","23","","","","","","","","","","","","","","","",""
"","ISI","","html-keyboard-response","155","158574","0.0-1.0-210.0","0","0","91421","","null","","","null","23","NaN","","","","","","","","","","","","","","",""
"","S2","","html-keyboard-response","156","158827","0.0-1.0-211.0","0","0","91421","","null","","","null","23","","NaN","","","","","","","","","","","","","",""
"","response","","html-keyboard-response","157","159506","0.0-1.0-212.0-0.0","0","0","91421","","676","","","75","23","","","1","23","training","adjacent","FG","6","7","N.jpg","R.jpg","1","1","1","",""
"","feedback","","html-keyboard-response","158","160510","0.0-1.0-213.0-0.0","0","0","91421","","null","","","null","23","","","","","","","","","","","","","","","",""
"","ITI","","html-keyboard-response","159","161520","0.0-1.0-216.0","0","0","91421","","null","","","null","23","","","","","","","","","","","","","","","NaN",""
"","S1","","html-keyboard-response","160","161783","0.0-1.0-218.0","0","0","91421","","null","","","null","24","","","","","","","","","","","","","","","",""
"","ISI","","html-keyboard-response","161","162786","0.0-1.0-219.0","0","0","91421","","null","","","null","24","NaN","","","","","","","","","","","","","","",""
"","S2","","html-keyboard-response","162","163040","0.0-1.0-220.0","0","0","91421","","null","","","null","24","","NaN","","","","","","","","","","","","","",""
"","response","","html-keyboard-response","163","163810","0.0-1.0-221.0-0.0","0","0","91421","","767","","","68","24","","","1","24","training","adjacent","FE","6","5","N.jpg","M.jpg","0","0","1","",""
"","feedback","","html-keyboard-response","164","164813","0.0-1.0-222.0-0.0","0","0","91421","","null","","","null","24","","","","","","","","","","","","","","","",""
"","ITI","","html-keyboard-response","165","165816","0.0-1.0-225.0","0","0","91421","","null","","","null","24","","","","","","","","","","","","","","","NaN",""
"","S1","","html-keyboard-response","166","166069","0.0-1.0-227.0","0","0","91421","","null","","","null","25","","","","","","","","","","","","","","","",""
"","ISI","","html-keyboard-response","167","167073","0.0-1.0-228.0","0","0","91421","","null","","","null","25","NaN","","","","","","","","","","","","","","",""
"","S2","","html-keyboard-response","168","167327","0.0-1.0-229.0","0","0","91421","","null","","","null","25","","NaN","","","","","","","","","","","","","",""
"","response","","html-keyboard-response","169","167489","0.0-1.0-230.0-0.0","0","0","91421","","160","","","75","25","","","1","25","training","adjacent","CD","3","4","Q.jpg","L.jpg","1","1","1","",""
"","feedback","","html-keyboard-response","170","168493","0.0-1.0-231.0-0.0","0","0","91421","","null","","","null","25","","","","","","","","","","","","","","","",""
"","ITI","","html-keyboard-response","171","169501","0.0-1.0-234.0","0","0","91421","","null","","","null","25","","","","","","","","","","","","","","","NaN",""
"","S1","","html-keyboard-response","172","169769","0.0-1.0-236.0","0","0","91421","","null","","","null","26","","","","","","","","","","","","","","","",""
"","ISI","","html-keyboard-response","173","170773","0.0-1.0-237.0","0","0","91421","","null","","","null","26","NaN","","","","","","","","","","","","","","",""
"","S2","","html-keyboard-response","174","171027","0.0-1.0-238.0","0","0","91421","","null","","","null","26","","NaN","","","","","","","","","","","","","",""
"","response","","html-keyboard-response","175","171129","0.0-1.0-239.0-0.0","0","0","91421","","99","","","68","26","","","1","26","training","adjacent","DC","4","3","L.jpg","Q.jpg","0","0","1","",""
"","feedback","","html-keyboard-response","176","172134","0.0-1.0-240.0-0.0","0","0","91421","","null","","","null","26","","","","","","","","","","","","","","","",""
"","ITI","","html-keyboard-response","177","173140","0.0-1.0-243.0","0","0","91421","","null","","","null","26","","","","","","","","","","","","","","","NaN",""
"","S1","","html-keyboard-response","178","173393","0.0-1.0-245.0","0","0","91421","","null","","","null","27","","","","","","","","","","","","","","","",""
"","ISI","","html-keyboard-response","179","174396","0.0-1.0-246.0","0","0","91421","","null","","","null","27","NaN","","","","","","","","","","","","","","",""
"","S2","","html-keyboard-response","180","174650","0.0-1.0-247.0","0","0","91421","","null","","","null","27","","NaN","","","","","","","","","","","","","",""
"","response","","html-keyboard-response","181","174966","0.0-1.0-248.0-0.0","0","0","91421","","314","","","68","27","","","1","27","training","adjacent","FG","6","7","N.jpg","R.jpg","0","1","0","",""
"","feedback","","html-keyboard-response","182","175971","0.0-1.0-249.0-0.0","0","0","91421","","null","","","null","27","","","","","","","","","","","","","","","",""
"","time_out","","html-keyboard-response","183","177974","0.0-1.0-251.0-0.0","0","0","91421","","null","","","null","27","","","","","","","","","","","","","","","",""
"","ITI","","html-keyboard-response","184","178983","0.0-1.0-252.0","0","0","91421","","null","","","null","27","","","","","","","","","","","","","","","NaN",""
"","S1","","html-keyboard-response","185","179237","0.0-1.0-254.0","0","0","91421","","null","","","null","28","","","","","","","","","","","","","","","",""
"","ISI","","html-keyboard-response","186","180239","0.0-1.0-255.0","0","0","91421","","null","","","null","28","NaN","","","","","","","","","","","","","","",""
"","S2","","html-keyboard-response","187","180493","0.0-1.0-256.0","0","0","91421","","null","","","null","28","","NaN","","","","","","","","","","","","","",""
"","response","","html-keyboard-response","188","181195","0.0-1.0-257.0-0.0","0","0","91421","","700","","","75","28","","","1","28","training","adjacent","GF","7","6","R.jpg","N.jpg","1","0","0","",""
"","feedback","","html-keyboard-response","189","182198","0.0-1.0-258.0-0.0","0","0","91421","","null","","","null","28","","","","","","","","","","","","","","","",""
"","time_out","","html-keyboard-response","190","184201","0.0-1.0-260.0-0.0","0","0","91421","","null","","","null","28","","","","","","","","","","","","","","","",""
"","ITI","","html-keyboard-response","191","185203","0.0-1.0-261.0","0","0","91421","","null","","","null","28","","","","","","","","","","","","","","","NaN",""
"","S1","","html-keyboard-response","192","185455","0.0-1.0-263.0","0","0","91421","","null","","","null","29","","","","","","","","","","","","","","","",""
"","ISI","","html-keyboard-response","193","186457","0.0-1.0-264.0","0","0","91421","","null","","","null","29","NaN","","","","","","","","","","","","","","",""
"","S2","","html-keyboard-response","194","186709","0.0-1.0-265.0","0","0","91421","","null","","","null","29","","NaN","","","","","","","","","","","","","",""
"","response","","html-keyboard-response","195","186873","0.0-1.0-266.0-0.0","0","0","91421","","164","","","68","29","","","1","29","training","adjacent","ED","5","4","M.jpg","L.jpg","0","0","1","",""
"","feedback","","html-keyboard-response","196","187877","0.0-1.0-267.0-0.0","0","0","91421","","null","","","null","29","","","","","","","","","","","","","","","",""
"","ITI","","html-keyboard-response","197","188880","0.0-1.0-270.0","0","0","91421","","null","","","null","29","","","","","","","","","","","","","","","NaN",""
"","S1","","html-keyboard-response","198","189135","0.0-1.0-272.0","0","0","91421","","null","","","null","30","","","","","","","","","","","","","","","",""
"","ISI","","html-keyboard-response","199","190136","0.0-1.0-273.0","0","0","91421","","null","","","null","30","NaN","","","","","","","","","","","","","","",""
"","S2","","html-keyboard-response","200","190388","0.0-1.0-274.0","0","0","91421","","null","","","null","30","","NaN","","","","","","","","","","","","","",""
"","response","","html-keyboard-response","201","190410","0.0-1.0-275.0-0.0","0","0","91421","","21","","","75","30","","","1","30","training","adjacent","AB","1","2","O.jpg","P.jpg","1","1","1","",""
"","feedback","","html-keyboard-response","202","191412","0.0-1.0-276.0-0.0","0","0","91421","","null","","","null","30","","","","","","","","","","","","","","","",""
"","ITI","","html-keyboard-response","203","192415","0.0-1.0-279.0","0","0","91421","","null","","","null","30","","","","","","","","","","","","","","","NaN",""
"","S1","","html-keyboard-response","204","192668","0.0-1.0-281.0","0","0","91421","","null","","","null","31","","","","","","","","","","","","","","","",""
"","ISI","","html-keyboard-response","205","193683","0.0-1.0-282.0","0","0","91421","","null","","","null","31","NaN","","","","","","","","","","","","","","",""
"","S2","","html-keyboard-response","206","193935","0.0-1.0-283.0","0","0","91421","","null","","","null","31","","NaN","","","","","","","","","","","","","",""
"","response","","html-keyboard-response","207","193978","0.0-1.0-284.0-0.0","0","0","91421","","43","","","75","31","","","1","31","training","adjacent","FG","6","7","N.jpg","R.jpg","1","1","1","",""
"","feedback","","html-keyboard-response","208","194984","0.0-1.0-285.0-0.0","0","0","91421","","null","","","null","31","","","","","","","","","","","","","","","",""
"","ITI","","html-keyboard-response","209","195987","0.0-1.0-288.0","0","0","91421","","null","","","null","31","","","","","","","","","","","","","","","NaN",""
"","S1","","html-keyboard-response","210","196242","0.0-1.0-290.0","0","0","91421","","null","","","null","32","","","","","","","","","","","","","","","",""
"","ISI","","html-keyboard-response","211","197245","0.0-1.0-291.0","0","0","91421","","null","","","null","32","NaN","","","","","","","","","","","","","","",""
"","S2","","html-keyboard-response","212","197498","0.0-1.0-292.0","0","0","91421","","null","","","null","32","","NaN","","","","","","","","","","","","","",""
"","response","","html-keyboard-response","213","198114","0.0-1.0-293.0-0.0","0","0","91421","","614","","","75","32","","","1","32","training","adjacent","DE","4","5","L.jpg","M.jpg","1","1","1","",""
"","feedback","","html-keyboard-response","214","199116","0.0-1.0-294.0-0.0","0","0","91421","","null","","","null","32","","","","","","","","","","","","","","","",""
"","ITI","","html-keyboard-response","215","200119","0.0-1.0-297.0","0","0","91421","","null","","","null","32","","","","","","","","","","","","","","","NaN",""
"","S1","","html-keyboard-response","216","200372","0.0-1.0-299.0","0","0","91421","","null","","","null","33","","","","","","","","","","","","","","","",""
"","ISI","","html-keyboard-response","217","201375","0.0-1.0-300.0","0","0","91421","","null","","","null","33","NaN","","","","","","","","","","","","","","",""
"","S2","","html-keyboard-response","218","201628","0.0-1.0-301.0","0","0","91421","","null","","","null","33","","NaN","","","","","","","","","","","","","",""
"","response","","html-keyboard-response","219","202010","0.0-1.0-302.0-0.0","0","0","91421","","380","","","68","33","","","1","33","training","adjacent","BC","2","3","P.jpg","Q.jpg","0","1","0","",""
"","feedback","","html-keyboard-response","220","203012","0.0-1.0-303.0-0.0","0","0","91421","","null","","","null","33","","","","","","","","","","","","","","","",""
"","time_out","","html-keyboard-response","221","205014","0.0-1.0-305.0-0.0","0","0","91421","","null","","","null","33","","","","","","","","","","","","","","","",""
"","ITI","","html-keyboard-response","222","206018","0.0-1.0-306.0","0","0","91421","","null","","","null","33","","","","","","","","","","","","","","","NaN",""
"","S1","","html-keyboard-response","223","206273","0.0-1.0-308.0","0","0","91421","","null","","","null","34","","","","","","","","","","","","","","","",""
"","ISI","","html-keyboard-response","224","207276","0.0-1.0-309.0","0","0","91421","","null","","","null","34","NaN","","","","","","","","","","","","","","",""
"","S2","","html-keyboard-response","225","207530","0.0-1.0-310.0","0","0","91421","","null","","","null","34","","NaN","","","","","","","","","","","","","",""
"","response","","html-keyboard-response","226","207675","0.0-1.0-311.0-0.0","0","0","91421","","143","","","75","34","","","1","34","training","adjacent","DE","4","5","L.jpg","M.jpg","1","1","1","",""
"","feedback","","html-keyboard-response","227","208679","0.0-1.0-312.0-0.0","0","0","91421","","null","","","null","34","","","","","","","","","","","","","","","",""
"","ITI","","html-keyboard-response","228","209682","0.0-1.0-315.0","0","0","91421","","null","","","null","34","","","","","","","","","","","","","","","NaN",""
"","S1","","html-keyboard-response","229","209934","0.0-1.0-317.0","0","0","91421","","null","","","null","35","","","","","","","","","","","","","","","",""
"","ISI","","html-keyboard-response","230","210937","0.0-1.0-318.0","0","0","91421","","null","","","null","35","NaN","","","","","","","","","","","","","","",""
"","S2","","html-keyboard-response","231","211196","0.0-1.0-319.0","0","0","91421","","null","","","null","35","","NaN","","","","","","","","","","","","","",""
"","response","","html-keyboard-response","232","211372","0.0-1.0-320.0-0.0","0","0","91421","","174","","","75","35","","","1","35","training","adjacent","AB","1","2","O.jpg","P.jpg","1","1","1","",""
"","feedback","","html-keyboard-response","233","212375","0.0-1.0-321.0-0.0","0","0","91421","","null","","","null","35","","","","","","","","","","","","","","","",""
"","ITI","","html-keyboard-response","234","213378","0.0-1.0-324.0","0","0","91421","","null","","","null","35","","","","","","","","","","","","","","","NaN",""
"","S1","","html-keyboard-response","235","213631","0.0-1.0-326.0","0","0","91421","","null","","","null","36","","","","","","","","","","","","","","","",""
"","ISI","","html-keyboard-response","236","214646","0.0-1.0-327.0","0","0","91421","","null","","","null","36","NaN","","","","","","","","","","","","","","",""
"","S2","","html-keyboard-response","237","214898","0.0-1.0-328.0","0","0","91421","","null","","","null","36","","NaN","","","","","","","","","","","","","",""
"","response","","html-keyboard-response","238","215276","0.0-1.0-329.0-0.0","0","0","91421","","377","","","68","36","","","1","36","training","adjacent","CB","3","2","Q.jpg","P.jpg","0","0","1","",""
"","feedback","","html-keyboard-response","239","216281","0.0-1.0-330.0-0.0","0","0","91421","","null","","","null","36","","","","","","","","","","","","","","","",""
"","ITI","","html-keyboard-response","240","217284","0.0-1.0-333.0","0","0","91421","","null","","","null","36","","","","","","","","","","","","","","","NaN",""
"","S1","","html-keyboard-response","241","217537","0.0-1.0-335.0","0","0","91421","","null","","","null","37","","","","","","","","","","","","","","","",""
"","ISI","","html-keyboard-response","242","218544","0.0-1.0-336.0","0","0","91421","","null","","","null","37","NaN","","","","","","","","","","","","","","",""
"","S2","","html-keyboard-response","243","218796","0.0-1.0-337.0","0","0","91421","","null","","","null","37","","NaN","","","","","","","","","","","","","",""
"","response","","html-keyboard-response","244","219308","0.0-1.0-338.0-0.0","0","0","91421","","510","","","68","37","","","1","37","training","adjacent","CB","3","2","Q.jpg","P.jpg","0","0","1","",""
"","feedback","","html-keyboard-response","245","220311","0.0-1.0-339.0-0.0","0","0","91421","","null","","","null","37","","","","","","","","","","","","","","","",""
"","ITI","","html-keyboard-response","246","221314","0.0-1.0-342.0","0","0","91421","","null","","","null","37","","","","","","","","","","","","","","","NaN",""
"","S1","","html-keyboard-response","247","221568","0.0-1.0-344.0","0","0","91421","","null","","","null","38","","","","","","","","","","","","","","","",""
"","ISI","","html-keyboard-response","248","222572","0.0-1.0-345.0","0","0","91421","","null","","","null","38","NaN","","","","","","","","","","","","","","",""
"","S2","","html-keyboard-response","249","222825","0.0-1.0-346.0","0","0","91421","","null","","","null","38","","NaN","","","","","","","","","","","","","",""
"","response","","html-keyboard-response","250","224425","0.0-1.0-347.0-0.0","0","0","91421","","1599","","","68","38","","","1","38","training","adjacent","FE","6","5","N.jpg","M.jpg","0","0","1","",""
"","feedback","","html-keyboard-response","251","225427","0.0-1.0-348.0-0.0","0","0","91421","","null","","","null","38","","","","","","","","","","","","","","","",""
"","ITI","","html-keyboard-response","252","226430","0.0-1.0-351.0","0","0","91421","","null","","","null","38","","","","","","","","","","","","","","","NaN",""
"","S1","","html-keyboard-response","253","226683","0.0-1.0-353.0","0","0","91421","","null","","","null","39","","","","","","","","","","","","","","","",""
"","ISI","","html-keyboard-response","254","227686","0.0-1.0-354.0","0","0","91421","","null","","","null","39","NaN","","","","","","","","","","","","","","",""
"","S2","","html-keyboard-response","255","227947","0.0-1.0-355.0","0","0","91421","","null","","","null","39","","NaN","","","","","","","","","","","","","",""
"","response","","html-keyboard-response","256","228661","0.0-1.0-356.0-0.0","0","0","91421","","711","","","68","39","","","1","39","training","adjacent","GF","7","6","R.jpg","N.jpg","0","0","1","",""
"","feedback","","html-keyboard-response","257","229671","0.0-1.0-357.0-0.0","0","0","91421","","null","","","null","39","","","","","","","","","","","","","","","",""
"","ITI","","html-keyboard-response","258","230675","0.0-1.0-360.0","0","0","91421","","null","","","null","39","","","","","","","","","","","","","","","NaN",""
"","S1","","html-keyboard-response","259","230930","0.0-1.0-362.0","0","0","91421","","null","","","null","40","","","","","","","","","","","","","","","",""
"","ISI","","html-keyboard-response","260","231932","0.0-1.0-363.0","0","0","91421","","null","","","null","40","NaN","","","","","","","","","","","","","","",""
"","S2","","html-keyboard-response","261","232185","0.0-1.0-364.0","0","0","91421","","null","","","null","40","","NaN","","","","","","","","","","","","","",""
"","response","","html-keyboard-response","262","232253","0.0-1.0-365.0-0.0","0","0","91421","","66","","","75","40","","","1","40","training","adjacent","FE","6","5","N.jpg","M.jpg","1","0","0","",""
"","feedback","","html-keyboard-response","263","233258","0.0-1.0-366.0-0.0","0","0","91421","","null","","","null","40","","","","","","","","","","","","","","","",""
"","time_out","","html-keyboard-response","264","235260","0.0-1.0-368.0-0.0","0","0","91421","","null","","","null","40","","","","","","","","","","","","","","","",""
"","ITI","","html-keyboard-response","265","236264","0.0-1.0-369.0","0","0","91421","","null","","","null","40","","","","","","","","","","","","","","","NaN",""
"","S1","","html-keyboard-response","266","236516","0.0-1.0-371.0","0","0","91421","","null","","","null","41","","","","","","","","","","","","","","","",""
"","ISI","","html-keyboard-response","267","237519","0.0-1.0-372.0","0","0","91421","","null","","","null","41","NaN","","","","","","","","","","","","","","",""
"","S2","","html-keyboard-response","268","237771","0.0-1.0-373.0","0","0","91421","","null","","","null","41","","NaN","","","","","","","","","","","","","",""
"","response","","html-keyboard-response","269","238049","0.0-1.0-374.0-0.0","0","0","91421","","278","","","75","41","","","1","41","training","adjacent","GF","7","6","R.jpg","N.jpg","1","0","0","",""
"","feedback","","html-keyboard-response","270","239049","0.0-1.0-375.0-0.0","0","0","91421","","null","","","null","41","","","","","","","","","","","","","","","",""
"","time_out","","html-keyboard-response","271","241052","0.0-1.0-377.0-0.0","0","0","91421","","null","","","null","41","","","","","","","","","","","","","","","",""
"","ITI","","html-keyboard-response","272","242057","0.0-1.0-378.0","0","0","91421","","null","","","null","41","","","","","","","","","","","","","","","NaN",""
"","S1","","html-keyboard-response","273","242310","0.0-1.0-380.0","0","0","91421","","null","","","null","42","","","","","","","","","","","","","","","",""
"","ISI","","html-keyboard-response","274","243313","0.0-1.0-381.0","0","0","91421","","null","","","null","42","NaN","","","","","","","","","","","","","","",""
"","S2","","html-keyboard-response","275","243567","0.0-1.0-382.0","0","0","91421","","null","","","null","42","","NaN","","","","","","","","","","","","","",""
"","response","","html-keyboard-response","276","244303","0.0-1.0-383.0-0.0","0","0","91421","","735","","","75","42","","","1","42","training","adjacent","ED","5","4","M.jpg","L.jpg","1","0","0","",""
"","feedback","","html-keyboard-response","277","245307","0.0-1.0-384.0-0.0","0","0","91421","","null","","","null","42","","","","","","","","","","","","","","","",""
"","time_out","","html-keyboard-response","278","247309","0.0-1.0-386.0-0.0","0","0","91421","","null","","","null","42","","","","","","","","","","","","","","","",""
"","ITI","","html-keyboard-response","279","248312","0.0-1.0-387.0","0","0","91421","","null","","","null","42","","","","","","","","","","","","","","","NaN",""
"","S1","","html-keyboard-response","280","248565","0.0-1.0-389.0","0","0","91421","","null","","","null","43","","","","","","","","","","","","","","","",""
"","ISI","","html-keyboard-response","281","249567","0.0-1.0-390.0","0","0","91421","","null","","","null","43","NaN","","","","","","","","","","","","","","",""
"","S2","","html-keyboard-response","282","249820","0.0-1.0-391.0","0","0","91421","","null","","","null","43","","NaN","","","","","","","","","","","","","",""
"","response","","html-keyboard-response","283","250526","0.0-1.0-392.0-0.0","0","0","91421","","705","","","75","43","","","1","43","training","adjacent","EF","5","6","M.jpg","N.jpg","1","1","1","",""
"","feedback","","html-keyboard-response","284","251529","0.0-1.0-393.0-0.0","0","0","91421","","null","","","null","43","","","","","","","","","","","","","","","",""
"","ITI","","html-keyboard-response","285","252533","0.0-1.0-396.0","0","0","91421","","null","","","null","43","","","","","","","","","","","","","","","NaN",""
"","S1","","html-keyboard-response","286","252791","0.0-1.0-398.0","0","0","91421","","null","","","null","44","","","","","","","","","","","","","","","",""
"","ISI","","html-keyboard-response","287","253795","0.0-1.0-399.0","0","0","91421","","null","","","null","44","NaN","","","","","","","","","","","","","","",""
"","S2","","html-keyboard-response","288","254048","0.0-1.0-400.0","0","0","91421","","null","","","null","44","","NaN","","","","","","","","","","","","","",""
"","response","","html-keyboard-response","289","254561","0.0-1.0-401.0-0.0","0","0","91421","","511","","","68","44","","","1","44","training","adjacent","BA","2","1","P.jpg","O.jpg","0","0","1","",""
"","feedback","","html-keyboard-response","290","255565","0.0-1.0-402.0-0.0","0","0","91421","","null","","","null","44","","","","","","","","","","","","","","","",""
"","ITI","","html-keyboard-response","291","256570","0.0-1.0-405.0","0","0","91421","","null","","","null","44","","","","","","","","","","","","","","","NaN",""
"","S1","","html-keyboard-response","292","256823","0.0-1.0-407.0","0","0","91421","","null","","","null","45","","","","","","","","","","","","","","","",""
"","ISI","","html-keyboard-response","293","257835","0.0-1.0-408.0","0","0","91421","","null","","","null","45","NaN","","","","","","","","","","","","","","",""
"","S2","","html-keyboard-response","294","258089","0.0-1.0-409.0","0","0","91421","","null","","","null","45","","NaN","","","","","","","","","","","","","",""
"","response","","html-keyboard-response","295","258721","0.0-1.0-410.0-0.0","0","0","91421","","629","","","68","45","","","1","45","training","adjacent","FE","6","5","N.jpg","M.jpg","0","0","1","",""
"","feedback","","html-keyboard-response","296","259723","0.0-1.0-411.0-0.0","0","0","91421","","null","","","null","45","","","","","","","","","","","","","","","",""
"","ITI","","html-keyboard-response","297","260724","0.0-1.0-414.0","0","0","91421","","null","","","null","45","","","","","","","","","","","","","","","NaN",""
"","S1","","html-keyboard-response","298","260976","0.0-1.0-416.0","0","0","91421","","null","","","null","46","","","","","","","","","","","","","","","",""
"","ISI","","html-keyboard-response","299","261977","0.0-1.0-417.0","0","0","91421","","null","","","null","46","NaN","","","","","","","","","","","","","","",""
"","S2","","html-keyboard-response","300","262230","0.0-1.0-418.0","0","0","91421","","null","","","null","46","","NaN","","","","","","","","","","","","","",""
"","response","","html-keyboard-response","301","263313","0.0-1.0-419.0-0.0","0","0","91421","","1082","","","75","46","","","1","46","training","adjacent","ED","5","4","M.jpg","L.jpg","1","0","0","",""
"","feedback","","html-keyboard-response","302","264325","0.0-1.0-420.0-0.0","0","0","91421","","null","","","null","46","","","","","","","","","","","","","","","",""
"","time_out","","html-keyboard-response","303","266328","0.0-1.0-422.0-0.0","0","0","91421","","null","","","null","46","","","","","","","","","","","","","","","",""
"","ITI","","html-keyboard-response","304","267330","0.0-1.0-423.0","0","0","91421","","null","","","null","46","","","","","","","","","","","","","","","NaN",""
"","S1","","html-keyboard-response","305","267583","0.0-1.0-425.0","0","0","91421","","null","","","null","47","","","","","","","","","","","","","","","",""
"","ISI","","html-keyboard-response","306","268585","0.0-1.0-426.0","0","0","91421","","null","","","null","47","NaN","","","","","","","","","","","","","","",""
"","S2","","html-keyboard-response","307","268840","0.0-1.0-427.0","0","0","91421","","null","","","null","47","","NaN","","","","","","","","","","","","","",""
"","response","","html-keyboard-response","308","269665","0.0-1.0-428.0-0.0","0","0","91421","","823","","","75","47","","","1","47","training","adjacent","DE","4","5","L.jpg","M.jpg","1","1","1","",""
"","feedback","","html-keyboard-response","309","270667","0.0-1.0-429.0-0.0","0","0","91421","","null","","","null","47","","","","","","","","","","","","","","","",""
"","ITI","","html-keyboard-response","310","271671","0.0-1.0-432.0","0","0","91421","","null","","","null","47","","","","","","","","","","","","","","","NaN",""
"","block_over","","html-keyboard-response","311","276415","0.0-1.0-433.0-0.0","0","0","91421","","4741","","","32","47","","","","","","","","","","","","","","","",""
"","S1","","html-keyboard-response","312","276668","0.0-1.0-434.0","0","0","91421","","null","","","null","48","","","","","","","","","","","","","","","",""
"","ISI","","html-keyboard-response","313","277671","0.0-1.0-435.0","0","0","91421","","null","","","null","48","NaN","","","","","","","","","","","","","","",""
"","S2","","html-keyboard-response","314","277925","0.0-1.0-436.0","0","0","91421","","null","","","null","48","","NaN","","","","","","","","","","","","","",""
"","response","","html-keyboard-response","315","278665","0.0-1.0-437.0-0.0","0","0","91421","","737","","","68","48","","","2","48","training","adjacent","FE","6","5","N.jpg","M.jpg","0","0","1","",""
"","feedback","","html-keyboard-response","316","279668","0.0-1.0-438.0-0.0","0","0","91421","","null","","","null","48","","","","","","","","","","","","","","","",""
"","ITI","","html-keyboard-response","317","280672","0.0-1.0-441.0","0","0","91421","","null","","","null","48","","","","","","","","","","","","","","","NaN",""
"","S1","","html-keyboard-response","318","280925","0.0-1.0-443.0","0","0","91421","","null","","","null","49","","","","","","","","","","","","","","","",""
"","ISI","","html-keyboard-response","319","281928","0.0-1.0-444.0","0","0","91421","","null","","","null","49","NaN","","","","","","","","","","","","","","",""
"","S2","","html-keyboard-response","320","282180","0.0-1.0-445.0","0","0","91421","","null","","","null","49","","NaN","","","","","","","","","","","","","",""
"","response","","html-keyboard-response","321","282569","0.0-1.0-446.0-0.0","0","0","91421","","386","","","75","49","","","2","49","training","adjacent","EF","5","6","M.jpg","N.jpg","1","1","1","",""
"","feedback","","html-keyboard-response","322","283573","0.0-1.0-447.0-0.0","0","0","91421","","null","","","null","49","","","","","","","","","","","","","","","",""
"","ITI","","html-keyboard-response","323","284575","0.0-1.0-450.0","0","0","91421","","null","","","null","49","","","","","","","","","","","","","","","NaN",""
"","S1","","html-keyboard-response","324","284829","0.0-1.0-452.0","0","0","91421","","null","","","null","50","","","","","","","","","","","","","","","",""
"","ISI","","html-keyboard-response","325","285833","0.0-1.0-453.0","0","0","91421","","null","","","null","50","NaN","","","","","","","","","","","","","","",""
"","S2","","html-keyboard-response","326","286088","0.0-1.0-454.0","0","0","91421","","null","","","null","50","","NaN","","","","","","","","","","","","","",""
"","response","","html-keyboard-response","327","286894","0.0-1.0-455.0-0.0","0","0","91421","","804","","","68","50","","","2","50","training","adjacent","CD","3","4","Q.jpg","L.jpg","0","1","0","",""
"","feedback","","html-keyboard-response","328","287899","0.0-1.0-456.0-0.0","0","0","91421","","null","","","null","50","","","","","","","","","","","","","","","",""
"","time_out","","html-keyboard-response","329","289904","0.0-1.0-458.0-0.0","0","0","91421","","null","","","null","50","","","","","","","","","","","","","","","",""
"","ITI","","html-keyboard-response","330","290908","0.0-1.0-459.0","0","0","91421","","null","","","null","50","","","","","","","","","","","","","","","NaN",""
"","S1","","html-keyboard-response","331","291161","0.0-1.0-461.0","0","0","91421","","null","","","null","51","","","","","","","","","","","","","","","",""
"","ISI","","html-keyboard-response","332","292164","0.0-1.0-462.0","0","0","91421","","null","","","null","51","NaN","","","","","","","","","","","","","","",""
"","S2","","html-keyboard-response","333","292418","0.0-1.0-463.0","0","0","91421","","null","","","null","51","","NaN","","","","","","","","","","","","","",""
"","response","","html-keyboard-response","334","293672","0.0-1.0-464.0-0.0","0","0","91421","","1252","","","75","51","","","2","51","training","adjacent","DC","4","3","L.jpg","Q.jpg","1","0","0","",""
"","feedback","","html-keyboard-response","335","294674","0.0-1.0-465.0-0.0","0","0","91421","","null","","","null","51","","","","","","","","","","","","","","","",""
"","time_out","","html-keyboard-response","336","296678","0.0-1.0-467.0-0.0","0","0","91421","","null","","","null","51","","","","","","","","","","","","","","","",""
"","ITI","","html-keyboard-response","337","297682","0.0-1.0-468.0","0","0","91421","","null","","","null","51","","","","","","","","","","","","","","","NaN",""
"","S1","","html-keyboard-response","338","297936","0.0-1.0-470.0","0","0","91421","","null","","","null","52","","","","","","","","","","","","","","","",""
"","ISI","","html-keyboard-response","339","298938","0.0-1.0-471.0","0","0","91421","","null","","","null","52","NaN","","","","","","","","","","","","","","",""
"","S2","","html-keyboard-response","340","299186","0.0-1.0-472.0","0","0","91421","","null","","","null","52","","NaN","","","","","","","","","","","","","",""
"","response","","html-keyboard-response","341","300212","0.0-1.0-473.0-0.0","0","0","91421","","1025","","","75","52","","","2","52","training","adjacent","CD","3","4","Q.jpg","L.jpg","1","1","1","",""
"","feedback","","html-keyboard-response","342","301214","0.0-1.0-474.0-0.0","0","0","91421","","null","","","null","52","","","","","","","","","","","","","","","",""
"","ITI","","html-keyboard-response","343","302217","0.0-1.0-477.0","0","0","91421","","null","","","null","52","","","","","","","","","","","","","","","NaN",""
"","S1","","html-keyboard-response","344","302470","0.0-1.0-479.0","0","0","91421","","null","","","null","53","","","","","","","","","","","","","","","",""
"","ISI","","html-keyboard-response","345","303476","0.0-1.0-480.0","0","0","91421","","null","","","null","53","NaN","","","","","","","","","","","","","","",""
"","S2","","html-keyboard-response","346","303731","0.0-1.0-481.0","0","0","91421","","null","","","null","53","","NaN","","","","","","","","","","","","","",""
"","response","","html-keyboard-response","347","304082","0.0-1.0-482.0-0.0","0","0","91421","","349","","","68","53","","","2","53","training","adjacent","BA","2","1","P.jpg","O.jpg","0","0","1","",""
"","feedback","","html-keyboard-response","348","305095","0.0-1.0-483.0-0.0","0","0","91421","","null","","","null","53","","","","","","","","","","","","","","","",""
"","ITI","","html-keyboard-response","349","306099","0.0-1.0-486.0","0","0","91421","","null","","","null","53","","","","","","","","","","","","","","","NaN",""
"","S1","","html-keyboard-response","350","306352","0.0-1.0-488.0","0","0","91421","","null","","","null","54","","","","","","","","","","","","","","","",""
"","ISI","","html-keyboard-response","351","307355","0.0-1.0-489.0","0","0","91421","","null","","","null","54","NaN","","","","","","","","","","","","","","",""
"","S2","","html-keyboard-response","352","307609","0.0-1.0-490.0","0","0","91421","","null","","","null","54","","NaN","","","","","","","","","","","","","",""
"","response","","html-keyboard-response","353","308434","0.0-1.0-491.0-0.0","0","0","91421","","824","","","68","54","","","2","54","training","adjacent","CB","3","2","Q.jpg","P.jpg","0","0","1","",""
"","feedback","","html-keyboard-response","354","309438","0.0-1.0-492.0-0.0","0","0","91421","","null","","","null","54","","","","","","","","","","","","","","","",""
"","ITI","","html-keyboard-response","355","310440","0.0-1.0-495.0","0","0","91421","","null","","","null","54","","","","","","","","","","","","","","","NaN",""
"","S1","","html-keyboard-response","356","310695","0.0-1.0-497.0","0","0","91421","","null","","","null","55","","","","","","","","","","","","","","","",""
"","ISI","","html-keyboard-response","357","311697","0.0-1.0-498.0","0","0","91421","","null","","","null","55","NaN","","","","","","","","","","","","","","",""
"","S2","","html-keyboard-response","358","311952","0.0-1.0-499.0","0","0","91421","","null","","","null","55","","NaN","","","","","","","","","","","","","",""
"","response","","html-keyboard-response","359","313069","0.0-1.0-500.0-0.0","0","0","91421","","1115","","","68","55","","","2","55","training","adjacent","DC","4","3","L.jpg","Q.jpg","0","0","1","",""
"","feedback","","html-keyboard-response","360","314071","0.0-1.0-501.0-0.0","0","0","91421","","null","","","null","55","","","","","","","","","","","","","","","",""
"","ITI","","html-keyboard-response","361","315074","0.0-1.0-504.0","0","0","91421","","null","","","null","55","","","","","","","","","","","","","","","NaN",""
"","S1","","html-keyboard-response","362","315327","0.0-1.0-506.0","0","0","91421","","null","","","null","56","","","","","","","","","","","","","","","",""
"","ISI","","html-keyboard-response","363","316330","0.0-1.0-507.0","0","0","91421","","null","","","null","56","NaN","","","","","","","","","","","","","","",""
"","S2","","html-keyboard-response","364","316585","0.0-1.0-508.0","0","0","91421","","null","","","null","56","","NaN","","","","","","","","","","","","","",""
"","response","","html-keyboard-response","365","317254","0.0-1.0-509.0-0.0","0","0","91421","","667","","","75","56","","","2","56","training","adjacent","CD","3","4","Q.jpg","L.jpg","1","1","1","",""
"","feedback","","html-keyboard-response","366","318258","0.0-1.0-510.0-0.0","0","0","91421","","null","","","null","56","","","","","","","","","","","","","","","",""
"","ITI","","html-keyboard-response","367","319263","0.0-1.0-513.0","0","0","91421","","null","","","null","56","","","","","","","","","","","","","","","NaN",""
"","S1","","html-keyboard-response","368","319517","0.0-1.0-515.0","0","0","91421","","null","","","null","57","","","","","","","","","","","","","","","",""
"","ISI","","html-keyboard-response","369","320520","0.0-1.0-516.0","0","0","91421","","null","","","null","57","NaN","","","","","","","","","","","","","","",""
"","S2","","html-keyboard-response","370","320773","0.0-1.0-517.0","0","0","91421","","null","","","null","57","","NaN","","","","","","","","","","","","","",""
"","response","","html-keyboard-response","371","321407","0.0-1.0-518.0-0.0","0","0","91421","","632","","","68","57","","","2","57","training","adjacent","EF","5","6","M.jpg","N.jpg","0","1","0","",""
"","feedback","","html-keyboard-response","372","322411","0.0-1.0-519.0-0.0","0","0","91421","","null","","","null","57","","","","","","","","","","","","","","","",""
"","time_out","","html-keyboard-response","373","324415","0.0-1.0-521.0-0.0","0","0","91421","","null","","","null","57","","","","","","","","","","","","","","","",""
"","ITI","","html-keyboard-response","374","325417","0.0-1.0-522.0","0","0","91421","","null","","","null","57","","","","","","","","","","","","","","","NaN",""
"","S1","","html-keyboard-response","375","325669","0.0-1.0-524.0","0","0","91421","","null","","","null","58","","","","","","","","","","","","","","","",""
"","ISI","","html-keyboard-response","376","326672","0.0-1.0-525.0","0","0","91421","","null","","","null","58","NaN","","","","","","","","","","","","","","",""
"","S2","","html-keyboard-response","377","326925","0.0-1.0-526.0","0","0","91421","","null","","","null","58","","NaN","","","","","","","","","","","","","",""
"","response","","html-keyboard-response","378","328132","0.0-1.0-527.0-0.0","0","0","91421","","1205","","","68","58","","","2","58","training","adjacent","BA","2","1","P.jpg","O.jpg","0","0","1","",""
"","feedback","","html-keyboard-response","379","329143","0.0-1.0-528.0-0.0","0","0","91421","","null","","","null","58","","","","","","","","","","","","","","","",""
"","ITI","","html-keyboard-response","380","330146","0.0-1.0-531.0","0","0","91421","","null","","","null","58","","","","","","","","","","","","","","","NaN",""
"","S1","","html-keyboard-response","381","330401","0.0-1.0-533.0","0","0","91421","","null","","","null","59","","","","","","","","","","","","","","","",""
"","ISI","","html-keyboard-response","382","331402","0.0-1.0-534.0","0","0","91421","","null","","","null","59","NaN","","","","","","","","","","","","","","",""
"","S2","","html-keyboard-response","383","331654","0.0-1.0-535.0","0","0","91421","","null","","","null","59","","NaN","","","","","","","","","","","","","",""
"","response","","html-keyboard-response","384","332749","0.0-1.0-536.0-0.0","0","0","91421","","1094","","","75","59","","","2","59","training","adjacent","DE","4","5","L.jpg","M.jpg","1","1","1","",""
"","feedback","","html-keyboard-response","385","333754","0.0-1.0-537.0-0.0","0","0","91421","","null","","","null","59","","","","","","","","","","","","","","","",""
"","ITI","","html-keyboard-response","386","334757","0.0-1.0-540.0","0","0","91421","","null","","","null","59","","","","","","","","","","","","","","","NaN",""
"","S1","","html-keyboard-response","387","335009","0.0-1.0-542.0","0","0","91421","","null","","","null","60","","","","","","","","","","","","","","","",""
"","ISI","","html-keyboard-response","388","336025","0.0-1.0-543.0","0","0","91421","","null","","","null","60","NaN","","","","","","","","","","","","","","",""
"","S2","","html-keyboard-response","389","336278","0.0-1.0-544.0","0","0","91421","","null","","","null","60","","NaN","","","","","","","","","","","","","",""
"","response","","html-keyboard-response","390","337550","0.0-1.0-545.0-0.0","0","0","91421","","1269","","","68","60","","","2","60","training","adjacent","FE","6","5","N.jpg","M.jpg","0","0","1","",""
"","feedback","","html-keyboard-response","391","338554","0.0-1.0-546.0-0.0","0","0","91421","","null","","","null","60","","","","","","","","","","","","","","","",""
"","ITI","","html-keyboard-response","392","339557","0.0-1.0-549.0","0","0","91421","","null","","","null","60","","","","","","","","","","","","","","","NaN",""
"","S1","","html-keyboard-response","393","339809","0.0-1.0-551.0","0","0","91421","","null","","","null","61","","","","","","","","","","","","","","","",""
"","ISI","","html-keyboard-response","394","340813","0.0-1.0-552.0","0","0","91421","","null","","","null","61","NaN","","","","","","","","","","","","","","",""
"","S2","","html-keyboard-response","395","341068","0.0-1.0-553.0","0","0","91421","","null","","","null","61","","NaN","","","","","","","","","","","","","",""
"","response","","html-keyboard-response","396","342202","0.0-1.0-554.0-0.0","0","0","91421","","1133","","","68","61","","","2","61","training","adjacent","CB","3","2","Q.jpg","P.jpg","0","0","1","",""
"","feedback","","html-keyboard-response","397","343206","0.0-1.0-555.0-0.0","0","0","91421","","null","","","null","61","","","","","","","","","","","","","","","",""
"","ITI","","html-keyboard-response","398","344210","0.0-1.0-558.0","0","0","91421","","null","","","null","61","","","","","","","","","","","","","","","NaN",""
"","S1","","html-keyboard-response","399","344465","0.0-1.0-560.0","0","0","91421","","null","","","null","62","","","","","","","","","","","","","","","",""
"","ISI","","html-keyboard-response","400","345469","0.0-1.0-561.0","0","0","91421","","null","","","null","62","NaN","","","","","","","","","","","","","","",""
"","S2","","html-keyboard-response","401","345731","0.0-1.0-562.0","0","0","91421","","null","","","null","62","","NaN","","","","","","","","","","","","","",""
"","response","","html-keyboard-response","402","347054","0.0-1.0-563.0-0.0","0","0","91421","","1320","","","68","62","","","2","62","training","adjacent","FG","6","7","N.jpg","R.jpg","0","1","0","",""
"","feedback","","html-keyboard-response","403","348058","0.0-1.0-564.0-0.0","0","0","91421","","null","","","null","62","","","","","","","","","","","","","","","",""
"","time_out","","html-keyboard-response","404","350063","0.0-1.0-566.0-0.0","0","0","91421","","null","","","null","62","","","","","","","","","","","","","","","",""
"","ITI","","html-keyboard-response","405","351068","0.0-1.0-567.0","0","0","91421","","null","","","null","62","","","","","","","","","","","","","","","NaN",""
"","S1","","html-keyboard-response","406","351322","0.0-1.0-569.0","0","0","91421","","null","","","null","63","","","","","","","","","","","","","","","",""
"","ISI","","html-keyboard-response","407","352327","0.0-1.0-570.0","0","0","91421","","null","","","null","63","NaN","","","","","","","","","","","","","","",""
"","S2","","html-keyboard-response","408","352582","0.0-1.0-571.0","0","0","91421","","null","","","null","63","","NaN","","","","","","","","","","","","","",""
"","response","","html-keyboard-response","409","352846","0.0-1.0-572.0-0.0","0","0","91421","","260","","","75","63","","","2","63","training","adjacent","AB","1","2","O.jpg","P.jpg","1","1","1","",""
"","feedback","","html-keyboard-response","410","353849","0.0-1.0-573.0-0.0","0","0","91421","","null","","","null","63","","","","","","","","","","","","","","","",""
"","ITI","","html-keyboard-response","411","354853","0.0-1.0-576.0","0","0","91421","","null","","","null","63","","","","","","","","","","","","","","","NaN",""
"","S1","","html-keyboard-response","412","355108","0.0-1.0-578.0","0","0","91421","","null","","","null","64","","","","","","","","","","","","","","","",""
"","ISI","","html-keyboard-response","413","356110","0.0-1.0-579.0","0","0","91421","","null","","","null","64","NaN","","","","","","","","","","","","","","",""
"","S2","","html-keyboard-response","414","356364","0.0-1.0-580.0","0","0","91421","","null","","","null","64","","NaN","","","","","","","","","","","","","",""
"","response","","html-keyboard-response","415","357325","0.0-1.0-581.0-0.0","0","0","91421","","959","","","75","64","","","2","64","training","adjacent","GF","7","6","R.jpg","N.jpg","1","0","0","",""
"","feedback","","html-keyboard-response","416","358328","0.0-1.0-582.0-0.0","0","0","91421","","null","","","null","64","","","","","","","","","","","","","","","",""
"","time_out","","html-keyboard-response","417","360334","0.0-1.0-584.0-0.0","0","0","91421","","null","","","null","64","","","","","","","","","","","","","","","",""
"","ITI","","html-keyboard-response","418","361337","0.0-1.0-585.0","0","0","91421","","null","","","null","64","","","","","","","","","","","","","","","NaN",""
"","S1","","html-keyboard-response","419","361590","0.0-1.0-587.0","0","0","91421","","null","","","null","65","","","","","","","","","","","","","","","",""
"","ISI","","html-keyboard-response","420","362594","0.0-1.0-588.0","0","0","91421","","null","","","null","65","NaN","","","","","","","","","","","","","","",""
"","S2","","html-keyboard-response","421","362848","0.0-1.0-589.0","0","0","91421","","null","","","null","65","","NaN","","","","","","","","","","","","","",""
"","response","","html-keyboard-response","422","363718","0.0-1.0-590.0-0.0","0","0","91421","","867","","","68","65","","","2","65","training","adjacent","CB","3","2","Q.jpg","P.jpg","0","0","1","",""
"","feedback","","html-keyboard-response","423","364722","0.0-1.0-591.0-0.0","0","0","91421","","null","","","null","65","","","","","","","","","","","","","","","",""
"","ITI","","html-keyboard-response","424","365723","0.0-1.0-594.0","0","0","91421","","null","","","null","65","","","","","","","","","","","","","","","NaN",""
"","S1","","html-keyboard-response","425","365975","0.0-1.0-596.0","0","0","91421","","null","","","null","66","","","","","","","","","","","","","","","",""
"","ISI","","html-keyboard-response","426","366979","0.0-1.0-597.0","0","0","91421","","null","","","null","66","NaN","","","","","","","","","","","","","","",""
"","S2","","html-keyboard-response","427","367233","0.0-1.0-598.0","0","0","91421","","null","","","null","66","","NaN","","","","","","","","","","","","","",""
"","response","","html-keyboard-response","428","368205","0.0-1.0-599.0-0.0","0","0","91421","","969","","","68","66","","","2","66","training","adjacent","GF","7","6","R.jpg","N.jpg","0","0","1","",""
"","feedback","","html-keyboard-response","429","369210","0.0-1.0-600.0-0.0","0","0","91421","","null","","","null","66","","","","","","","","","","","","","","","",""
"","ITI","","html-keyboard-response","430","370213","0.0-1.0-603.0","0","0","91421","","null","","","null","66","","","","","","","","","","","","","","","NaN",""
"","S1","","html-keyboard-response","431","370468","0.0-1.0-605.0","0","0","91421","","null","","","null","67","","","","","","","","","","","","","","","",""
"","ISI","","html-keyboard-response","432","371470","0.0-1.0-606.0","0","0","91421","","null","","","null","67","NaN","","","","","","","","","","","","","","",""
"","S2","","html-keyboard-response","433","371722","0.0-1.0-607.0","0","0","91421","","null","","","null","67","","NaN","","","","","","","","","","","","","",""
"","response","","html-keyboard-response","434","372556","0.0-1.0-608.0-0.0","0","0","91421","","832","","","75","67","","","2","67","training","adjacent","BC","2","3","P.jpg","Q.jpg","1","1","1","",""
"","feedback","","html-keyboard-response","435","373561","0.0-1.0-609.0-0.0","0","0","91421","","null","","","null","67","","","","","","","","","","","","","","","",""
"","ITI","","html-keyboard-response","436","374565","0.0-1.0-612.0","0","0","91421","","null","","","null","67","","","","","","","","","","","","","","","NaN",""
"","S1","","html-keyboard-response","437","374819","0.0-1.0-614.0","0","0","91421","","null","","","null","68","","","","","","","","","","","","","","","",""
"","ISI","","html-keyboard-response","438","375822","0.0-1.0-615.0","0","0","91421","","null","","","null","68","NaN","","","","","","","","","","","","","","",""
"","S2","","html-keyboard-response","439","376075","0.0-1.0-616.0","0","0","91421","","null","","","null","68","","NaN","","","","","","","","","","","","","",""
"","response","","html-keyboard-response","440","377124","0.0-1.0-617.0-0.0","0","0","91421","","1048","","","75","68","","","2","68","training","adjacent","BC","2","3","P.jpg","Q.jpg","1","1","1","",""
"","feedback","","html-keyboard-response","441","378127","0.0-1.0-618.0-0.0","0","0","91421","","null","","","null","68","","","","","","","","","","","","","","","",""
"","ITI","","html-keyboard-response","442","379131","0.0-1.0-621.0","0","0","91421","","null","","","null","68","","","","","","","","","","","","","","","NaN",""
"","S1","","html-keyboard-response","443","379384","0.0-1.0-623.0","0","0","91421","","null","","","null","69","","","","","","","","","","","","","","","",""
"","ISI","","html-keyboard-response","444","380387","0.0-1.0-624.0","0","0","91421","","null","","","null","69","NaN","","","","","","","","","","","","","","",""
"","S2","","html-keyboard-response","445","380641","0.0-1.0-625.0","0","0","91421","","null","","","null","69","","NaN","","","","","","","","","","","","","",""
"","response","","html-keyboard-response","446","381204","0.0-1.0-626.0-0.0","0","0","91421","","561","","","68","69","","","2","69","training","adjacent","DE","4","5","L.jpg","M.jpg","0","1","0","",""
"","feedback","","html-keyboard-response","447","382207","0.0-1.0-627.0-0.0","0","0","91421","","null","","","null","69","","","","","","","","","","","","","","","",""
"","time_out","","html-keyboard-response","448","384211","0.0-1.0-629.0-0.0","0","0","91421","","null","","","null","69","","","","","","","","","","","","","","","",""
"","ITI","","html-keyboard-response","449","385214","0.0-1.0-630.0","0","0","91421","","null","","","null","69","","","","","","","","","","","","","","","NaN",""
"","S1","","html-keyboard-response","450","385467","0.0-1.0-632.0","0","0","91421","","null","","","null","70","","","","","","","","","","","","","","","",""
"","ISI","","html-keyboard-response","451","386470","0.0-1.0-633.0","0","0","91421","","null","","","null","70","NaN","","","","","","","","","","","","","","",""
"","S2","","html-keyboard-response","452","386722","0.0-1.0-634.0","0","0","91421","","null","","","null","70","","NaN","","","","","","","","","","","","","",""
"","response","","html-keyboard-response","453","387981","0.0-1.0-635.0-0.0","0","0","91421","","1256","","","75","70","","","2","70","training","adjacent","GF","7","6","R.jpg","N.jpg","1","0","0","",""
"","feedback","","html-keyboard-response","454","388985","0.0-1.0-636.0-0.0","0","0","91421","","null","","","null","70","","","","","","","","","","","","","","","",""
"","time_out","","html-keyboard-response","455","390989","0.0-1.0-638.0-0.0","0","0","91421","","null","","","null","70","","","","","","","","","","","","","","","",""
"","ITI","","html-keyboard-response","456","391994","0.0-1.0-639.0","0","0","91421","","null","","","null","70","","","","","","","","","","","","","","","NaN",""
"","S1","","html-keyboard-response","457","392248","0.0-1.0-641.0","0","0","91421","","null","","","null","71","","","","","","","","","","","","","","","",""
"","ISI","","html-keyboard-response","458","393254","0.0-1.0-642.0","0","0","91421","","null","","","null","71","NaN","","","","","","","","","","","","","","",""
"","S2","","html-keyboard-response","459","393508","0.0-1.0-643.0","0","0","91421","","null","","","null","71","","NaN","","","","","","","","","","","","","",""
"","response","","html-keyboard-response","460","394173","0.0-1.0-644.0-0.0","0","0","91421","","662","","","68","71","","","2","71","training","adjacent","BA","2","1","P.jpg","O.jpg","0","0","1","",""
"","feedback","","html-keyboard-response","461","395177","0.0-1.0-645.0-0.0","0","0","91421","","null","","","null","71","","","","","","","","","","","","","","","",""
"","ITI","","html-keyboard-response","462","396180","0.0-1.0-648.0","0","0","91421","","null","","","null","71","","","","","","","","","","","","","","","NaN",""
"","S1","","html-keyboard-response","463","396432","0.0-1.0-650.0","0","0","91421","","null","","","null","72","","","","","","","","","","","","","","","",""
"","ISI","","html-keyboard-response","464","397435","0.0-1.0-651.0","0","0","91421","","null","","","null","72","NaN","","","","","","","","","","","","","","",""
"","S2","","html-keyboard-response","465","397689","0.0-1.0-652.0","0","0","91421","","null","","","null","72","","NaN","","","","","","","","","","","","","",""
"","response","","html-keyboard-response","466","398965","0.0-1.0-653.0-0.0","0","0","91421","","1273","","","68","72","","","2","72","training","adjacent","CB","3","2","Q.jpg","P.jpg","0","0","1","",""
"","feedback","","html-keyboard-response","467","399967","0.0-1.0-654.0-0.0","0","0","91421","","null","","","null","72","","","","","","","","","","","","","","","",""
"","ITI","","html-keyboard-response","468","400985","0.0-1.0-657.0","0","0","91421","","null","","","null","72","","","","","","","","","","","","","","","NaN",""
"","S1","","html-keyboard-response","469","401238","0.0-1.0-659.0","0","0","91421","","null","","","null","73","","","","","","","","","","","","","","","",""
"","ISI","","html-keyboard-response","470","402241","0.0-1.0-660.0","0","0","91421","","null","","","null","73","NaN","","","","","","","","","","","","","","",""
"","S2","","html-keyboard-response","471","402494","0.0-1.0-661.0","0","0","91421","","null","","","null","73","","NaN","","","","","","","","","","","","","",""
"","response","","html-keyboard-response","472","402748","0.0-1.0-662.0-0.0","0","0","91421","","252","","","75","73","","","2","73","training","adjacent","AB","1","2","O.jpg","P.jpg","1","1","1","",""
"","feedback","","html-keyboard-response","473","403753","0.0-1.0-663.0-0.0","0","0","91421","","null","","","null","73","","","","","","","","","","","","","","","",""
"","ITI","","html-keyboard-response","474","404758","0.0-1.0-666.0","0","0","91421","","null","","","null","73","","","","","","","","","","","","","","","NaN",""
"","S1","","html-keyboard-response","475","405012","0.0-1.0-668.0","0","0","91421","","null","","","null","74","","","","","","","","","","","","","","","",""
"","ISI","","html-keyboard-response","476","406015","0.0-1.0-669.0","0","0","91421","","null","","","null","74","NaN","","","","","","","","","","","","","","",""
"","S2","","html-keyboard-response","477","406270","0.0-1.0-670.0","0","0","91421","","null","","","null","74","","NaN","","","","","","","","","","","","","",""
"","response","","html-keyboard-response","478","407429","0.0-1.0-671.0-0.0","0","0","91421","","1156","","","68","74","","","2","74","training","adjacent","DC","4","3","L.jpg","Q.jpg","0","0","1","",""
"","feedback","","html-keyboard-response","479","408433","0.0-1.0-672.0-0.0","0","0","91421","","null","","","null","74","","","","","","","","","","","","","","","",""
"","ITI","","html-keyboard-response","480","409436","0.0-1.0-675.0","0","0","91421","","null","","","null","74","","","","","","","","","","","","","","","NaN",""
"","S1","","html-keyboard-response","481","409690","0.0-1.0-677.0","0","0","91421","","null","","","null","75","","","","","","","","","","","","","","","",""
"","ISI","","html-keyboard-response","482","410693","0.0-1.0-678.0","0","0","91421","","null","","","null","75","NaN","","","","","","","","","","","","","","",""
"","S2","","html-keyboard-response","483","410948","0.0-1.0-679.0","0","0","91421","","null","","","null","75","","NaN","","","","","","","","","","","","","",""
"","response","","html-keyboard-response","484","412178","0.0-1.0-680.0-0.0","0","0","91421","","1228","","","75","75","","","2","75","training","adjacent","FG","6","7","N.jpg","R.jpg","1","1","1","",""
"","feedback","","html-keyboard-response","485","413181","0.0-1.0-681.0-0.0","0","0","91421","","null","","","null","75","","","","","","","","","","","","","","","",""
"","ITI","","html-keyboard-response","486","414185","0.0-1.0-684.0","0","0","91421","","null","","","null","75","","","","","","","","","","","","","","","NaN",""
"","S1","","html-keyboard-response","487","414437","0.0-1.0-686.0","0","0","91421","","null","","","null","76","","","","","","","","","","","","","","","",""
"","ISI","","html-keyboard-response","488","415441","0.0-1.0-687.0","0","0","91421","","null","","","null","76","NaN","","","","","","","","","","","","","","",""
"","S2","","html-keyboard-response","489","415696","0.0-1.0-688.0","0","0","91421","","null","","","null","76","","NaN","","","","","","","","","","","","","",""
"","response","","html-keyboard-response","490","416797","0.0-1.0-689.0-0.0","0","0","91421","","1099","","","75","76","","","2","76","training","adjacent","EF","5","6","M.jpg","N.jpg","1","1","1","",""
"","feedback","","html-keyboard-response","491","417801","0.0-1.0-690.0-0.0","0","0","91421","","null","","","null","76","","","","","","","","","","","","","","","",""
"","ITI","","html-keyboard-response","492","418804","0.0-1.0-693.0","0","0","91421","","null","","","null","76","","","","","","","","","","","","","","","NaN",""
"","S1","","html-keyboard-response","493","419059","0.0-1.0-695.0","0","0","91421","","null","","","null","77","","","","","","","","","","","","","","","",""
"","ISI","","html-keyboard-response","494","420064","0.0-1.0-696.0","0","0","91421","","null","","","null","77","NaN","","","","","","","","","","","","","","",""
"","S2","","html-keyboard-response","495","420318","0.0-1.0-697.0","0","0","91421","","null","","","null","77","","NaN","","","","","","","","","","","","","",""
"","response","","html-keyboard-response","496","421480","0.0-1.0-698.0-0.0","0","0","91421","","1160","","","68","77","","","2","77","training","adjacent","FE","6","5","N.jpg","M.jpg","0","0","1","",""
"","feedback","","html-keyboard-response","497","422481","0.0-1.0-699.0-0.0","0","0","91421","","null","","","null","77","","","","","","","","","","","","","","","",""
"","ITI","","html-keyboard-response","498","423485","0.0-1.0-702.0","0","0","91421","","null","","","null","77","","","","","","","","","","","","","","","NaN",""
"","S1","","html-keyboard-response","499","423740","0.0-1.0-704.0","0","0","91421","","null","","","null","78","","","","","","","","","","","","","","","",""
"","ISI","","html-keyboard-response","500","424743","0.0-1.0-705.0","0","0","91421","","null","","","null","78","NaN","","","","","","","","","","","","","","",""
"","S2","","html-keyboard-response","501","424997","0.0-1.0-706.0","0","0","91421","","null","","","null","78","","NaN","","","","","","","","","","","","","",""
"","response","","html-keyboard-response","502","426349","0.0-1.0-707.0-0.0","0","0","91421","","1349","","","68","78","","","2","78","training","adjacent","ED","5","4","M.jpg","L.jpg","0","0","1","",""
"","feedback","","html-keyboard-response","503","427353","0.0-1.0-708.0-0.0","0","0","91421","","null","","","null","78","","","","","","","","","","","","","","","",""
"","ITI","","html-keyboard-response","504","428358","0.0-1.0-711.0","0","0","91421","","null","","","null","78","","","","","","","","","","","","","","","NaN",""
"","S1","","html-keyboard-response","505","428613","0.0-1.0-713.0","0","0","91421","","null","","","null","79","","","","","","","","","","","","","","","",""
"","ISI","","html-keyboard-response","506","429616","0.0-1.0-714.0","0","0","91421","","null","","","null","79","NaN","","","","","","","","","","","","","","",""
"","S2","","html-keyboard-response","507","429869","0.0-1.0-715.0","0","0","91421","","null","","","null","79","","NaN","","","","","","","","","","","","","",""
"","response","","html-keyboard-response","508","431178","0.0-1.0-716.0-0.0","0","0","91421","","1307","","","68","79","","","2","79","training","adjacent","DE","4","5","L.jpg","M.jpg","0","1","0","",""
"","feedback","","html-keyboard-response","509","432181","0.0-1.0-717.0-0.0","0","0","91421","","null","","","null","79","","","","","","","","","","","","","","","",""
"","time_out","","html-keyboard-response","510","434183","0.0-1.0-719.0-0.0","0","0","91421","","null","","","null","79","","","","","","","","","","","","","","","",""
"","ITI","","html-keyboard-response","511","435186","0.0-1.0-720.0","0","0","91421","","null","","","null","79","","","","","","","","","","","","","","","NaN",""
"","S1","","html-keyboard-response","512","435438","0.0-1.0-722.0","0","0","91421","","null","","","null","80","","","","","","","","","","","","","","","",""
"","ISI","","html-keyboard-response","513","436439","0.0-1.0-723.0","0","0","91421","","null","","","null","80","NaN","","","","","","","","","","","","","","",""
"","S2","","html-keyboard-response","514","436692","0.0-1.0-724.0","0","0","91421","","null","","","null","80","","NaN","","","","","","","","","","","","","",""
"","response","","html-keyboard-response","515","437524","0.0-1.0-725.0-0.0","0","0","91421","","831","","","68","80","","","2","80","training","adjacent","FE","6","5","N.jpg","M.jpg","0","0","1","",""
"","feedback","","html-keyboard-response","516","438528","0.0-1.0-726.0-0.0","0","0","91421","","null","","","null","80","","","","","","","","","","","","","","","",""
"","ITI","","html-keyboard-response","517","439530","0.0-1.0-729.0","0","0","91421","","null","","","null","80","","","","","","","","","","","","","","","NaN",""
"","S1","","html-keyboard-response","518","439782","0.0-1.0-731.0","0","0","91421","","null","","","null","81","","","","","","","","","","","","","","","",""
"","ISI","","html-keyboard-response","519","440784","0.0-1.0-732.0","0","0","91421","","null","","","null","81","NaN","","","","","","","","","","","","","","",""
"","S2","","html-keyboard-response","520","441036","0.0-1.0-733.0","0","0","91421","","null","","","null","81","","NaN","","","","","","","","","","","","","",""
"","response","","html-keyboard-response","521","441096","0.0-1.0-734.0-0.0","0","0","91421","","60","","","75","81","","","2","81","training","adjacent","AB","1","2","O.jpg","P.jpg","1","1","1","",""
"","feedback","","html-keyboard-response","522","442099","0.0-1.0-735.0-0.0","0","0","91421","","null","","","null","81","","","","","","","","","","","","","","","",""
"","ITI","","html-keyboard-response","523","443102","0.0-1.0-738.0","0","0","91421","","null","","","null","81","","","","","","","","","","","","","","","NaN",""
"","S1","","html-keyboard-response","524","443353","0.0-1.0-740.0","0","0","91421","","null","","","null","82","","","","","","","","","","","","","","","",""
"","ISI","","html-keyboard-response","525","444356","0.0-1.0-741.0","0","0","91421","","null","","","null","82","NaN","","","","","","","","","","","","","","",""
"","S2","","html-keyboard-response","526","444608","0.0-1.0-742.0","0","0","91421","","null","","","null","82","","NaN","","","","","","","","","","","","","",""
"","response","","html-keyboard-response","527","445928","0.0-1.0-743.0-0.0","0","0","91421","","1320","","","68","82","","","2","82","training","adjacent","ED","5","4","M.jpg","L.jpg","0","0","1","",""
"","feedback","","html-keyboard-response","528","446930","0.0-1.0-744.0-0.0","0","0","91421","","null","","","null","82","","","","","","","","","","","","","","","",""
"","ITI","","html-keyboard-response","529","447932","0.0-1.0-747.0","0","0","91421","","null","","","null","82","","","","","","","","","","","","","","","NaN",""
"","S1","","html-keyboard-response","530","448184","0.0-1.0-749.0","0","0","91421","","null","","","null","83","","","","","","","","","","","","","","","",""
"","ISI","","html-keyboard-response","531","449185","0.0-1.0-750.0","0","0","91421","","null","","","null","83","NaN","","","","","","","","","","","","","","",""
"","S2","","html-keyboard-response","532","449437","0.0-1.0-751.0","0","0","91421","","null","","","null","83","","NaN","","","","","","","","","","","","","",""
"","response","","html-keyboard-response","533","450105","0.0-1.0-752.0-0.0","0","0","91421","","666","","","68","83","","","2","83","training","adjacent","BA","2","1","P.jpg","O.jpg","0","0","1","",""
"","feedback","","html-keyboard-response","534","451107","0.0-1.0-753.0-0.0","0","0","91421","","null","","","null","83","","","","","","","","","","","","","","","",""
"","ITI","","html-keyboard-response","535","452108","0.0-1.0-756.0","0","0","91421","","null","","","null","83","","","","","","","","","","","","","","","NaN",""
"","S1","","html-keyboard-response","536","452360","0.0-1.0-758.0","0","0","91421","","null","","","null","84","","","","","","","","","","","","","","","",""
"","ISI","","html-keyboard-response","537","453362","0.0-1.0-759.0","0","0","91421","","null","","","null","84","NaN","","","","","","","","","","","","","","",""
"","S2","","html-keyboard-response","538","453613","0.0-1.0-760.0","0","0","91421","","null","","","null","84","","NaN","","","","","","","","","","","","","",""
"","response","","html-keyboard-response","539","454720","0.0-1.0-761.0-0.0","0","0","91421","","1107","","","68","84","","","2","84","training","adjacent","DC","4","3","L.jpg","Q.jpg","0","0","1","",""
"","feedback","","html-keyboard-response","540","455723","0.0-1.0-762.0-0.0","0","0","91421","","null","","","null","84","","","","","","","","","","","","","","","",""
"","ITI","","html-keyboard-response","541","456726","0.0-1.0-765.0","0","0","91421","","null","","","null","84","","","","","","","","","","","","","","","NaN",""
"","S1","","html-keyboard-response","542","456978","0.0-1.0-767.0","0","0","91421","","null","","","null","85","","","","","","","","","","","","","","","",""
"","ISI","","html-keyboard-response","543","457983","0.0-1.0-768.0","0","0","91421","","null","","","null","85","NaN","","","","","","","","","","","","","","",""
"","S2","","html-keyboard-response","544","458236","0.0-1.0-769.0","0","0","91421","","null","","","null","85","","NaN","","","","","","","","","","","","","",""
"","response","","html-keyboard-response","545","459345","0.0-1.0-770.0-0.0","0","0","91421","","1108","","","75","85","","","2","85","training","adjacent","EF","5","6","M.jpg","N.jpg","1","1","1","",""
"","feedback","","html-keyboard-response","546","460346","0.0-1.0-771.0-0.0","0","0","91421","","null","","","null","85","","","","","","","","","","","","","","","",""
"","ITI","","html-keyboard-response","547","461348","0.0-1.0-774.0","0","0","91421","","null","","","null","85","","","","","","","","","","","","","","","NaN",""
"","S1","","html-keyboard-response","548","461600","0.0-1.0-776.0","0","0","91421","","null","","","null","86","","","","","","","","","","","","","","","",""
"","ISI","","html-keyboard-response","549","462602","0.0-1.0-777.0","0","0","91421","","null","","","null","86","NaN","","","","","","","","","","","","","","",""
"","S2","","html-keyboard-response","550","462855","0.0-1.0-778.0","0","0","91421","","null","","","null","86","","NaN","","","","","","","","","","","","","",""
"","response","","html-keyboard-response","551","463809","0.0-1.0-779.0-0.0","0","0","91421","","953","","","75","86","","","2","86","training","adjacent","CD","3","4","Q.jpg","L.jpg","1","1","1","",""
"","feedback","","html-keyboard-response","552","464811","0.0-1.0-780.0-0.0","0","0","91421","","null","","","null","86","","","","","","","","","","","","","","","",""
"","ITI","","html-keyboard-response","553","465813","0.0-1.0-783.0","0","0","91421","","null","","","null","86","","","","","","","","","","","","","","","NaN",""
"","S1","","html-keyboard-response","554","466065","0.0-1.0-785.0","0","0","91421","","null","","","null","87","","","","","","","","","","","","","","","",""
"","ISI","","html-keyboard-response","555","467067","0.0-1.0-786.0","0","0","91421","","null","","","null","87","NaN","","","","","","","","","","","","","","",""
"","S2","","html-keyboard-response","556","467331","0.0-1.0-787.0","0","0","91421","","null","","","null","87","","NaN","","","","","","","","","","","","","",""
"","response","","html-keyboard-response","557","468898","0.0-1.0-788.0-0.0","0","0","91421","","1565","","","68","87","","","2","87","training","adjacent","GF","7","6","R.jpg","N.jpg","0","0","1","",""
"","feedback","","html-keyboard-response","558","469902","0.0-1.0-789.0-0.0","0","0","91421","","null","","","null","87","","","","","","","","","","","","","","","",""
"","ITI","","html-keyboard-response","559","470904","0.0-1.0-792.0","0","0","91421","","null","","","null","87","","","","","","","","","","","","","","","NaN",""
"","S1","","html-keyboard-response","560","471157","0.0-1.0-794.0","0","0","91421","","null","","","null","88","","","","","","","","","","","","","","","",""
"","ISI","","html-keyboard-response","561","472162","0.0-1.0-795.0","0","0","91421","","null","","","null","88","NaN","","","","","","","","","","","","","","",""
"","S2","","html-keyboard-response","562","472415","0.0-1.0-796.0","0","0","91421","","null","","","null","88","","NaN","","","","","","","","","","","","","",""
"","response","","html-keyboard-response","563","473196","0.0-1.0-797.0-0.0","0","0","91421","","778","","","75","88","","","2","88","training","adjacent","FG","6","7","N.jpg","R.jpg","1","1","1","",""
"","feedback","","html-keyboard-response","564","474200","0.0-1.0-798.0-0.0","0","0","91421","","null","","","null","88","","","","","","","","","","","","","","","",""
"","ITI","","html-keyboard-response","565","475204","0.0-1.0-801.0","0","0","91421","","null","","","null","88","","","","","","","","","","","","","","","NaN",""
"","S1","","html-keyboard-response","566","475456","0.0-1.0-803.0","0","0","91421","","null","","","null","89","","","","","","","","","","","","","","","",""
"","ISI","","html-keyboard-response","567","476459","0.0-1.0-804.0","0","0","91421","","null","","","null","89","NaN","","","","","","","","","","","","","","",""
"","S2","","html-keyboard-response","568","476713","0.0-1.0-805.0","0","0","91421","","null","","","null","89","","NaN","","","","","","","","","","","","","",""
"","response","","html-keyboard-response","569","477893","0.0-1.0-806.0-0.0","0","0","91421","","1177","","","68","89","","","2","89","training","adjacent","DE","4","5","L.jpg","M.jpg","0","1","0","",""
"","feedback","","html-keyboard-response","570","478898","0.0-1.0-807.0-0.0","0","0","91421","","null","","","null","89","","","","","","","","","","","","","","","",""
"","time_out","","html-keyboard-response","571","480907","0.0-1.0-809.0-0.0","0","0","91421","","null","","","null","89","","","","","","","","","","","","","","","",""
"","ITI","","html-keyboard-response","572","481910","0.0-1.0-810.0","0","0","91421","","null","","","null","89","","","","","","","","","","","","","","","NaN",""
"","S1","","html-keyboard-response","573","482164","0.0-1.0-812.0","0","0","91421","","null","","","null","90","","","","","","","","","","","","","","","",""
"","ISI","","html-keyboard-response","574","483166","0.0-1.0-813.0","0","0","91421","","null","","","null","90","NaN","","","","","","","","","","","","","","",""
"","S2","","html-keyboard-response","575","483418","0.0-1.0-814.0","0","0","91421","","null","","","null","90","","NaN","","","","","","","","","","","","","",""
"","response","","html-keyboard-response","576","484643","0.0-1.0-815.0-0.0","0","0","91421","","1223","","","75","90","","","2","90","training","adjacent","ED","5","4","M.jpg","L.jpg","1","0","0","",""
"","feedback","","html-keyboard-response","577","485649","0.0-1.0-816.0-0.0","0","0","91421","","null","","","null","90","","","","","","","","","","","","","","","",""
"","time_out","","html-keyboard-response","578","487653","0.0-1.0-818.0-0.0","0","0","91421","","null","","","null","90","","","","","","","","","","","","","","","",""
"","ITI","","html-keyboard-response","579","488657","0.0-1.0-819.0","0","0","91421","","null","","","null","90","","","","","","","","","","","","","","","NaN",""
"","S1","","html-keyboard-response","580","488919","0.0-1.0-821.0","0","0","91421","","null","","","null","91","","","","","","","","","","","","","","","",""
"","ISI","","html-keyboard-response","581","489922","0.0-1.0-822.0","0","0","91421","","null","","","null","91","NaN","","","","","","","","","","","","","","",""
"","S2","","html-keyboard-response","582","490174","0.0-1.0-823.0","0","0","91421","","null","","","null","91","","NaN","","","","","","","","","","","","","",""
