"success","ttype","start_time","trial_type","trial_index","time_elapsed","internal_node_id","warning","missed_checkup","PID","view_history","rt","responses","repeat_instructions","key_press","index","keypress_isi","keypress_S2","block","trial_num","phase","group_type","pair_type","S1_stim","S2_stim","S1_img","S2_img","S1_chosen","S1_higher","accuracy","keypress_iti","total_bonus_tally"
"true","full_screen","d08042022hr1829","fullscreen","0","16735","0.0-0.0","0","0","60710","","","","","","","","","","","","","","","","","","","","","",""
"","instructions","","instructions","1","48531","0.0-1.0-0.0-0.0","0","0","60710","[{""page_index"":0,""viewing_time"":5488},{""page_index"":1,""viewing_time"":16212},{""page_index"":2,""viewing_time"":8092},{""page_index"":3,""viewing_time"":2003}]","31795","","","","","","","","","","","","","","","","","","","",""
"","comprehension_check","","survey-multi-choice","2","70866","0.0-1.0-0.0-1.0","0","0","60710","","22332","{""Q0"":""True"",""Q1"":""D"",""Q2"":""Once the second image appears and while the screen 'MAKE A CHOICE' is shown"",""Q3"":""Green mark"",""Q4"":""either D or K""}","0","","","","","","","","","","","","","","","","","",""
"","start_exp","","html-keyboard-response","3","72155","0.0-1.0-1.0","0","0","60710","","1286","","","32","","","","","","","","","","","","","","","","",""
"","S1","","html-keyboard-response","4","72408","0.0-1.0-2.0","0","0","60710","","null","","","null","0","","","","","","","","","","","","","","","",""
"","ISI","","html-keyboard-response","5","74410","0.0-1.0-3.0","0","0","60710","","null","","","null","0","NaN","","","","","","","","","","","","","","",""
"","S2","","html-keyboard-response","6","74622","0.0-1.0-4.0","0","0","60710","","209","","","75","0","","k","1","0","training","adjacent","CB","3","2","N.jpg","L.jpg","0","0","1","",""
"","feedback","","html-keyboard-response","7","75633","0.0-1.0-6.0-0.0","0","0","60710","","null","","","null","0","","","","","","","","","","","","","","","",""
"","ITI","","html-keyboard-response","8","76635","0.0-1.0-9.0","0","0","60710","","null","","","null","0","","","","","","","","","","","","","","","NaN",""
"","S1","","html-keyboard-response","9","76888","0.0-1.0-11.0","0","0","60710","","null","","","null","1","","","","","","","","","","","","","","","",""
"","ISI","","html-keyboard-response","10","78891","0.0-1.0-12.0","0","0","60710","","null","","","null","1","NaN","","","","","","","","","","","","","","",""
"","S2","","html-keyboard-response","11","79144","0.0-1.0-13.0","0","0","60710","","null","","","null","1","","NaN","","","","","","","","","","","","","",""
"","response","","html-keyboard-response","12","79698","0.0-1.0-14.0-0.0","0","0","60710","","553","","","75","1","","","1","1","training","adjacent","DE","4","5","M.jpg","O.jpg","0","1","0","",""
"","feedback","","html-keyboard-response","13","80700","0.0-1.0-15.0-0.0","0","0","60710","","null","","","null","1","","","","","","","","","","","","","","","",""
"","time_out","","html-keyboard-response","14","82702","0.0-1.0-17.0-0.0","0","0","60710","","null","","","null","1","","","","","","","","","","","","","","","",""
"","ITI","","html-keyboard-response","15","83705","0.0-1.0-18.0","0","0","60710","","null","","","null","1","","","","","","","","","","","","","","","NaN",""
"","S1","","html-keyboard-response","16","83958","0.0-1.0-20.0","0","0","60710","","null","","","null","2","","","","","","","","","","","","","","","",""
"","ISI","","html-keyboard-response","17","85960","0.0-1.0-21.0","0","0","60710","","null","","","null","2","NaN","","","","","","","","","","","","","","",""
"","S2","","html-keyboard-response","18","86218","0.0-1.0-22.0","0","0","60710","","null","","","null","2","","NaN","","","","","","","","","","","","","",""
"","response","","html-keyboard-response","19","86870","0.0-1.0-23.0-0.0","0","0","60710","","650","","","68","2","","","1","2","training","adjacent","FE","6","5","Q.jpg","O.jpg","1","0","0","",""
"","feedback","","html-keyboard-response","20","87873","0.0-1.0-24.0-0.0","0","0","60710","","null","","","null","2","","","","","","","","","","","","","","","",""
"","time_out","","html-keyboard-response","21","89875","0.0-1.0-26.0-0.0","0","0","60710","","null","","","null","2","","","","","","","","","","","","","","","",""
"","ITI","","html-keyboard-response","22","90877","0.0-1.0-27.0","0","0","60710","","null","","","null","2","","","","","","","","","","","","","","","NaN",""
"","S1","","html-keyboard-response","23","91130","0.0-1.0-29.0","0","0","60710","","null","","","null","3","","","","","","","","","","","","","","","",""
"","ISI","","html-keyboard-response","24","93133","0.0-1.0-30.0","0","0","60710","","null","","","null","3","NaN","","","","","","","","","","","","","","",""
"","S2","","html-keyboard-response","25","93386","0.0-1.0-31.0","0","0","60710","","null","","","null","3","","NaN","","","","","","","","","","","","","",""
"","response","","html-keyboard-response","26","93986","0.0-1.0-32.0-0.0","0","0","60710","","597","","","75","3","","","1","3","training","adjacent","EF","5","6","O.jpg","Q.jpg","0","1","0","",""
"","feedback","","html-keyboard-response","27","94988","0.0-1.0-33.0-0.0","0","0","60710","","null","","","null","3","","","","","","","","","","","","","","","",""
"","time_out","","html-keyboard-response","28","96991","0.0-1.0-35.0-0.0","0","0","60710","","null","","","null","3","","","","","","","","","","","","","","","",""
"","ITI","","html-keyboard-response","29","98002","0.0-1.0-36.0","0","0","60710","","null","","","null","3","","","","","","","","","","","","","","","NaN",""
"","S1","","html-keyboard-response","30","98254","0.0-1.0-38.0","0","0","60710","","null","","","null","4","","","","","","","","","","","","","","","",""
"","ISI","","html-keyboard-response","31","100256","0.0-1.0-39.0","0","0","60710","","null","","","null","4","NaN","","","","","","","","","","","","","","",""
"","S2","","html-keyboard-response","32","100509","0.0-1.0-40.0","0","0","60710","","null","","","null","4","","NaN","","","","","","","","","","","","","",""
"","response","","html-keyboard-response","33","101171","0.0-1.0-41.0-0.0","0","0","60710","","660","","","68","4","","","1","4","training","adjacent","DC","4","3","M.jpg","N.jpg","1","0","0","",""
"","feedback","","html-keyboard-response","34","102173","0.0-1.0-42.0-0.0","0","0","60710","","null","","","null","4","","","","","","","","","","","","","","","",""
"","time_out","","html-keyboard-response","35","104175","0.0-1.0-44.0-0.0","0","0","60710","","null","","","null","4","","","","","","","","","","","","","","","",""
"","ITI","","html-keyboard-response","36","105178","0.0-1.0-45.0","0","0","60710","","null","","","null","4","","","","","","","","","","","","","","","NaN",""
"","S1","","html-keyboard-response","37","105431","0.0-1.0-47.0","0","0","60710","","null","","","null","5","","","","","","","","","","","","","","","",""
"","ISI","","html-keyboard-response","38","107434","0.0-1.0-48.0","0","0","60710","","null","","","null","5","NaN","","","","","","","","","","","","","","",""
"","S2","","html-keyboard-response","39","107687","0.0-1.0-49.0","0","0","60710","","null","","","null","5","","NaN","","","","","","","","","","","","","",""
"","response","","html-keyboard-response","40","107954","0.0-1.0-50.0-0.0","0","0","60710","","266","","","68","5","","","1","5","training","adjacent","GF","7","6","P.jpg","Q.jpg","1","0","0","",""
"","feedback","","html-keyboard-response","41","108958","0.0-1.0-51.0-0.0","0","0","60710","","null","","","null","5","","","","","","","","","","","","","","","",""
"","time_out","","html-keyboard-response","42","110960","0.0-1.0-53.0-0.0","0","0","60710","","null","","","null","5","","","","","","","","","","","","","","","",""
"","ITI","","html-keyboard-response","43","111967","0.0-1.0-54.0","0","0","60710","","null","","","null","5","","","","","","","","","","","","","","","NaN",""
"","S1","","html-keyboard-response","44","112219","0.0-1.0-56.0","0","0","60710","","null","","","null","6","","","","","","","","","","","","","","","",""
"","ISI","","html-keyboard-response","45","114222","0.0-1.0-57.0","0","0","60710","","null","","","null","6","NaN","","","","","","","","","","","","","","",""
"","S2","","html-keyboard-response","46","114475","0.0-1.0-58.0","0","0","60710","","null","","","null","6","","NaN","","","","","","","","","","","","","",""
"","response","","html-keyboard-response","47","115213","0.0-1.0-59.0-0.0","0","0","60710","","736","","","68","6","","","1","6","training","adjacent","DC","4","3","M.jpg","N.jpg","1","0","0","",""
"","feedback","","html-keyboard-response","48","116218","0.0-1.0-60.0-0.0","0","0","60710","","null","","","null","6","","","","","","","","","","","","","","","",""
"","time_out","","html-keyboard-response","49","118220","0.0-1.0-62.0-0.0","0","0","60710","","null","","","null","6","","","","","","","","","","","","","","","",""
"","ITI","","html-keyboard-response","50","119223","0.0-1.0-63.0","0","0","60710","","null","","","null","6","","","","","","","","","","","","","","","NaN",""
"","S1","","html-keyboard-response","51","119476","0.0-1.0-65.0","0","0","60710","","null","","","null","7","","","","","","","","","","","","","","","",""
"","ISI","","html-keyboard-response","52","121478","0.0-1.0-66.0","0","0","60710","","null","","","null","7","NaN","","","","","","","","","","","","","","",""
"","S2","","html-keyboard-response","53","121731","0.0-1.0-67.0","0","0","60710","","null","","","null","7","","NaN","","","","","","","","","","","","","",""
"","response","","html-keyboard-response","54","122123","0.0-1.0-68.0-0.0","0","0","60710","","391","","","75","7","","","1","7","training","adjacent","FE","6","5","Q.jpg","O.jpg","0","0","1","",""
"","feedback","","html-keyboard-response","55","123127","0.0-1.0-69.0-0.0","0","0","60710","","null","","","null","7","","","","","","","","","","","","","","","",""
"","ITI","","html-keyboard-response","56","124129","0.0-1.0-72.0","0","0","60710","","null","","","null","7","","","","","","","","","","","","","","","NaN",""
"","S1","","html-keyboard-response","57","124383","0.0-1.0-74.0","0","0","60710","","null","","","null","8","","","","","","","","","","","","","","","",""
"","ISI","","html-keyboard-response","58","126385","0.0-1.0-75.0","0","0","60710","","null","","","null","8","NaN","","","","","","","","","","","","","","",""
"","S2","","html-keyboard-response","59","126638","0.0-1.0-76.0","0","0","60710","","null","","","null","8","","NaN","","","","","","","","","","","","","",""
"","response","","html-keyboard-response","60","126994","0.0-1.0-77.0-0.0","0","0","60710","","354","","","75","8","","","1","8","training","adjacent","CB","3","2","N.jpg","L.jpg","0","0","1","",""
"","feedback","","html-keyboard-response","61","127997","0.0-1.0-78.0-0.0","0","0","60710","","null","","","null","8","","","","","","","","","","","","","","","",""
"","ITI","","html-keyboard-response","62","128999","0.0-1.0-81.0","0","0","60710","","null","","","null","8","","","","","","","","","","","","","","","NaN",""
"","S1","","html-keyboard-response","63","129252","0.0-1.0-83.0","0","0","60710","","null","","","null","9","","","","","","","","","","","","","","","",""
"","ISI","","html-keyboard-response","64","131255","0.0-1.0-84.0","0","0","60710","","null","","","null","9","NaN","","","","","","","","","","","","","","",""
"","S2","","html-keyboard-response","65","131509","0.0-1.0-85.0","0","0","60710","","null","","","null","9","","NaN","","","","","","","","","","","","","",""
"","response","","html-keyboard-response","66","132079","0.0-1.0-86.0-0.0","0","0","60710","","569","","","75","9","","","1","9","training","adjacent","DE","4","5","M.jpg","O.jpg","0","1","0","",""
"","feedback","","html-keyboard-response","67","133097","0.0-1.0-87.0-0.0","0","0","60710","","null","","","null","9","","","","","","","","","","","","","","","",""
"","time_out","","html-keyboard-response","68","135100","0.0-1.0-89.0-0.0","0","0","60710","","null","","","null","9","","","","","","","","","","","","","","","",""
"","ITI","","html-keyboard-response","69","136103","0.0-1.0-90.0","0","0","60710","","null","","","null","9","","","","","","","","","","","","","","","NaN",""
"","S1","","html-keyboard-response","70","136356","0.0-1.0-92.0","0","0","60710","","null","","","null","10","","","","","","","","","","","","","","","",""
"","ISI","","html-keyboard-response","71","138359","0.0-1.0-93.0","0","0","60710","","null","","","null","10","NaN","","","","","","","","","","","","","","",""
"","S2","","html-keyboard-response","72","138612","0.0-1.0-94.0","0","0","60710","","null","","","null","10","","NaN","","","","","","","","","","","","","",""
"","response","","html-keyboard-response","73","138901","0.0-1.0-95.0-0.0","0","0","60710","","288","","","75","10","","","1","10","training","adjacent","CB","3","2","N.jpg","L.jpg","0","0","1","",""
"","feedback","","html-keyboard-response","74","139905","0.0-1.0-96.0-0.0","0","0","60710","","null","","","null","10","","","","","","","","","","","","","","","",""
"","ITI","","html-keyboard-response","75","140906","0.0-1.0-99.0","0","0","60710","","null","","","null","10","","","","","","","","","","","","","","","NaN",""
"","S1","","html-keyboard-response","76","141159","0.0-1.0-101.0","0","0","60710","","null","","","null","11","","","","","","","","","","","","","","","",""
"","ISI","","html-keyboard-response","77","143161","0.0-1.0-102.0","0","0","60710","","null","","","null","11","NaN","","","","","","","","","","","","","","",""
"","S2","","html-keyboard-response","78","143426","0.0-1.0-103.0","0","0","60710","","null","","","null","11","","NaN","","","","","","","","","","","","","",""
"","response","","html-keyboard-response","79","143681","0.0-1.0-104.0-0.0","0","0","60710","","254","","","68","11","","","1","11","training","adjacent","BC","2","3","L.jpg","N.jpg","1","1","1","",""
"","feedback","","html-keyboard-response","80","144683","0.0-1.0-105.0-0.0","0","0","60710","","null","","","null","11","","","","","","","","","","","","","","","",""
"","ITI","","html-keyboard-response","81","145686","0.0-1.0-108.0","0","0","60710","","null","","","null","11","","","","","","","","","","","","","","","NaN",""
"","S1","","html-keyboard-response","82","145939","0.0-1.0-110.0","0","0","60710","","null","","","null","12","","","","","","","","","","","","","","","",""
"","ISI","","html-keyboard-response","83","147942","0.0-1.0-111.0","0","0","60710","","null","","","null","12","NaN","","","","","","","","","","","","","","",""
"","S2","","html-keyboard-response","84","148199","0.0-1.0-112.0","0","0","60710","","null","","","null","12","","NaN","","","","","","","","","","","","","",""
"","response","","html-keyboard-response","85","148283","0.0-1.0-113.0-0.0","0","0","60710","","83","","","68","12","","","1","12","training","adjacent","BA","2","1","L.jpg","R.jpg","1","0","0","",""
"","feedback","","html-keyboard-response","86","149286","0.0-1.0-114.0-0.0","0","0","60710","","null","","","null","12","","","","","","","","","","","","","","","",""
"","time_out","","html-keyboard-response","87","151288","0.0-1.0-116.0-0.0","0","0","60710","","null","","","null","12","","","","","","","","","","","","","","","",""
"","ITI","","html-keyboard-response","88","152291","0.0-1.0-117.0","0","0","60710","","null","","","null","12","","","","","","","","","","","","","","","NaN",""
"","S1","","html-keyboard-response","89","152558","0.0-1.0-119.0","0","0","60710","","null","","","null","13","","","","","","","","","","","","","","","",""
"","ISI","","html-keyboard-response","90","154560","0.0-1.0-120.0","0","0","60710","","null","","","null","13","NaN","","","","","","","","","","","","","","",""
"","S2","","html-keyboard-response","91","154813","0.0-1.0-121.0","0","0","60710","","null","","","null","13","","NaN","","","","","","","","","","","","","",""
"","response","","html-keyboard-response","92","155808","0.0-1.0-122.0-0.0","0","0","60710","","994","","","75","13","","","1","13","training","adjacent","ED","5","4","O.jpg","M.jpg","0","0","1","",""
"","feedback","","html-keyboard-response","93","156811","0.0-1.0-123.0-0.0","0","0","60710","","null","","","null","13","","","","","","","","","","","","","","","",""
"","ITI","","html-keyboard-response","94","157813","0.0-1.0-126.0","0","0","60710","","null","","","null","13","","","","","","","","","","","","","","","NaN",""
"","S1","","html-keyboard-response","95","158067","0.0-1.0-128.0","0","0","60710","","null","","","null","14","","","","","","","","","","","","","","","",""
"","ISI","","html-keyboard-response","96","160069","0.0-1.0-129.0","0","0","60710","","null","","","null","14","NaN","","","","","","","","","","","","","","",""
"","S2","","html-keyboard-response","97","160322","0.0-1.0-130.0","0","0","60710","","null","","","null","14","","NaN","","","","","","","","","","","","","",""
"","response","","html-keyboard-response","98","160740","0.0-1.0-131.0-0.0","0","0","60710","","416","","","75","14","","","1","14","training","adjacent","FE","6","5","Q.jpg","O.jpg","0","0","1","",""
"","feedback","","html-keyboard-response","99","161742","0.0-1.0-132.0-0.0","0","0","60710","","null","","","null","14","","","","","","","","","","","","","","","",""
"","ITI","","html-keyboard-response","100","162746","0.0-1.0-135.0","0","0","60710","","null","","","null","14","","","","","","","","","","","","","","","NaN",""
"","S1","","html-keyboard-response","101","162999","0.0-1.0-137.0","0","0","60710","","null","","","null","15","","","","","","","","","","","","","","","",""
"","ISI","","html-keyboard-response","102","165001","0.0-1.0-138.0","0","0","60710","","null","","","null","15","NaN","","","","","","","","","","","","","","",""
"","S2","","html-keyboard-response","103","165255","0.0-1.0-139.0","0","0","60710","","null","","","null","15","","NaN","","","","","","","","","","","","","",""
"","response","","html-keyboard-response","104","165761","0.0-1.0-140.0-0.0","0","0","60710","","505","","","68","15","","","1","15","training","adjacent","EF","5","6","O.jpg","Q.jpg","1","1","1","",""
"","feedback","","html-keyboard-response","105","166763","0.0-1.0-141.0-0.0","0","0","60710","","null","","","null","15","","","","","","","","","","","","","","","",""
"","ITI","","html-keyboard-response","106","167766","0.0-1.0-144.0","0","0","60710","","null","","","null","15","","","","","","","","","","","","","","","NaN",""
"","S1","","html-keyboard-response","107","168018","0.0-1.0-146.0","0","0","60710","","null","","","null","16","","","","","","","","","","","","","","","",""
"","ISI","","html-keyboard-response","108","170020","0.0-1.0-147.0","0","0","60710","","null","","","null","16","NaN","","","","","","","","","","","","","","",""
"","S2","","html-keyboard-response","109","170272","0.0-1.0-148.0","0","0","60710","","null","","","null","16","","NaN","","","","","","","","","","","","","",""
"","response","","html-keyboard-response","110","170712","0.0-1.0-149.0-0.0","0","0","60710","","439","","","68","16","","","1","16","training","adjacent","GF","7","6","P.jpg","Q.jpg","1","0","0","",""
"","feedback","","html-keyboard-response","111","171715","0.0-1.0-150.0-0.0","0","0","60710","","null","","","null","16","","","","","","","","","","","","","","","",""
"","time_out","","html-keyboard-response","112","173717","0.0-1.0-152.0-0.0","0","0","60710","","null","","","null","16","","","","","","","","","","","","","","","",""
"","ITI","","html-keyboard-response","113","174719","0.0-1.0-153.0","0","0","60710","","null","","","null","16","","","","","","","","","","","","","","","NaN",""
"","S1","","html-keyboard-response","114","174972","0.0-1.0-155.0","0","0","60710","","null","","","null","17","","","","","","","","","","","","","","","",""
"","ISI","","html-keyboard-response","115","176975","0.0-1.0-156.0","0","0","60710","","null","","","null","17","NaN","","","","","","","","","","","","","","",""
"","S2","","html-keyboard-response","116","177228","0.0-1.0-157.0","0","0","60710","","null","","","null","17","","NaN","","","","","","","","","","","","","",""
"","response","","html-keyboard-response","117","178668","0.0-1.0-158.0-0.0","0","0","60710","","1439","","","75","17","","","1","17","training","adjacent","CD","3","4","N.jpg","M.jpg","0","1","0","",""
"","feedback","","html-keyboard-response","118","179671","0.0-1.0-159.0-0.0","0","0","60710","","null","","","null","17","","","","","","","","","","","","","","","",""
"","time_out","","html-keyboard-response","119","181674","0.0-1.0-161.0-0.0","0","0","60710","","null","","","null","17","","","","","","","","","","","","","","","",""
"","ITI","","html-keyboard-response","120","182677","0.0-1.0-162.0","0","0","60710","","null","","","null","17","","","","","","","","","","","","","","","NaN",""
"","S1","","html-keyboard-response","121","182930","0.0-1.0-164.0","0","0","60710","","null","","","null","18","","","","","","","","","","","","","","","",""
"","ISI","","html-keyboard-response","122","184933","0.0-1.0-165.0","0","0","60710","","null","","","null","18","NaN","","","","","","","","","","","","","","",""
"","S2","","html-keyboard-response","123","185187","0.0-1.0-166.0","0","0","60710","","null","","","null","18","","NaN","","","","","","","","","","","","","",""
"","response","","html-keyboard-response","124","185692","0.0-1.0-167.0-0.0","0","0","60710","","504","","","68","18","","","1","18","training","adjacent","BC","2","3","L.jpg","N.jpg","1","1","1","",""
"","feedback","","html-keyboard-response","125","186706","0.0-1.0-168.0-0.0","0","0","60710","","null","","","null","18","","","","","","","","","","","","","","","",""
"","ITI","","html-keyboard-response","126","187709","0.0-1.0-171.0","0","0","60710","","null","","","null","18","","","","","","","","","","","","","","","NaN",""
"","S1","","html-keyboard-response","127","187961","0.0-1.0-173.0","0","0","60710","","null","","","null","19","","","","","","","","","","","","","","","",""
"","ISI","","html-keyboard-response","128","189964","0.0-1.0-174.0","0","0","60710","","null","","","null","19","NaN","","","","","","","","","","","","","","",""
"","S2","","html-keyboard-response","129","190217","0.0-1.0-175.0","0","0","60710","","null","","","null","19","","NaN","","","","","","","","","","","","","",""
"","response","","html-keyboard-response","130","190568","0.0-1.0-176.0-0.0","0","0","60710","","350","","","75","19","","","1","19","training","adjacent","AB","1","2","R.jpg","L.jpg","0","1","0","",""
"","feedback","","html-keyboard-response","131","191571","0.0-1.0-177.0-0.0","0","0","60710","","null","","","null","19","","","","","","","","","","","","","","","",""
"","time_out","","html-keyboard-response","132","193573","0.0-1.0-179.0-0.0","0","0","60710","","null","","","null","19","","","","","","","","","","","","","","","",""
"","ITI","","html-keyboard-response","133","194576","0.0-1.0-180.0","0","0","60710","","null","","","null","19","","","","","","","","","","","","","","","NaN",""
"","S1","","html-keyboard-response","134","194829","0.0-1.0-182.0","0","0","60710","","null","","","null","20","","","","","","","","","","","","","","","",""
"","ISI","","html-keyboard-response","135","196830","0.0-1.0-183.0","0","0","60710","","null","","","null","20","NaN","","","","","","","","","","","","","","",""
"","S2","","html-keyboard-response","136","197083","0.0-1.0-184.0","0","0","60710","","null","","","null","20","","NaN","","","","","","","","","","","","","",""
"","response","","html-keyboard-response","137","197561","0.0-1.0-185.0-0.0","0","0","60710","","477","","","68","20","","","1","20","training","adjacent","DE","4","5","M.jpg","O.jpg","1","1","1","",""
"","feedback","","html-keyboard-response","138","198563","0.0-1.0-186.0-0.0","0","0","60710","","null","","","null","20","","","","","","","","","","","","","","","",""
"","ITI","","html-keyboard-response","139","199566","0.0-1.0-189.0","0","0","60710","","null","","","null","20","","","","","","","","","","","","","","","NaN",""
"","S1","","html-keyboard-response","140","199819","0.0-1.0-191.0","0","0","60710","","null","","","null","21","","","","","","","","","","","","","","","",""
"","ISI","","html-keyboard-response","141","201822","0.0-1.0-192.0","0","0","60710","","null","","","null","21","NaN","","","","","","","","","","","","","","",""
"","S2","","html-keyboard-response","142","202086","0.0-1.0-193.0","0","0","60710","","null","","","null","21","","NaN","","","","","","","","","","","","","",""
"","response","","html-keyboard-response","143","202378","0.0-1.0-194.0-0.0","0","0","60710","","291","","","68","21","","","1","21","training","adjacent","GF","7","6","P.jpg","Q.jpg","1","0","0","",""
"","feedback","","html-keyboard-response","144","203381","0.0-1.0-195.0-0.0","0","0","60710","","null","","","null","21","","","","","","","","","","","","","","","",""
"","time_out","","html-keyboard-response","145","205384","0.0-1.0-197.0-0.0","0","0","60710","","null","","","null","21","","","","","","","","","","","","","","","",""
"","ITI","","html-keyboard-response","146","206387","0.0-1.0-198.0","0","0","60710","","null","","","null","21","","","","","","","","","","","","","","","NaN",""
"","S1","","html-keyboard-response","147","206641","0.0-1.0-200.0","0","0","60710","","null","","","null","22","","","","","","","","","","","","","","","",""
"","ISI","","html-keyboard-response","148","208643","0.0-1.0-201.0","0","0","60710","","null","","","null","22","NaN","","","","","","","","","","","","","","",""
"","S2","","html-keyboard-response","149","208896","0.0-1.0-202.0","0","0","60710","","null","","","null","22","","NaN","","","","","","","","","","","","","",""
"","response","","html-keyboard-response","150","209277","0.0-1.0-203.0-0.0","0","0","60710","","380","","","75","22","","","1","22","training","adjacent","ED","5","4","O.jpg","M.jpg","0","0","1","",""
"","feedback","","html-keyboard-response","151","210280","0.0-1.0-204.0-0.0","0","0","60710","","null","","","null","22","","","","","","","","","","","","","","","",""
"","ITI","","html-keyboard-response","152","211282","0.0-1.0-207.0","0","0","60710","","null","","","null","22","","","","","","","","","","","","","","","NaN",""
"","S1","","html-keyboard-response","153","211536","0.0-1.0-209.0","0","0","60710","","null","","","null","23","","","","","","","","","","","","","","","",""
"","ISI","","html-keyboard-response","154","213538","0.0-1.0-210.0","0","0","60710","","null","","","null","23","NaN","","","","","","","","","","","","","","",""
"","S2","","html-keyboard-response","155","213791","0.0-1.0-211.0","0","0","60710","","null","","","null","23","","NaN","","","","","","","","","","","","","",""
"","response","","html-keyboard-response","156","214023","0.0-1.0-212.0-0.0","0","0","60710","","230","","","68","23","","","1","23","training","adjacent","AB","1","2","R.jpg","L.jpg","1","1","1","",""
"","feedback","","html-keyboard-response","157","215026","0.0-1.0-213.0-0.0","0","0","60710","","null","","","null","23","","","","","","","","","","","","","","","",""
"","ITI","","html-keyboard-response","158","216039","0.0-1.0-216.0","0","0","60710","","null","","","null","23","","","","","","","","","","","","","","","NaN",""
"","S1","","html-keyboard-response","159","216292","0.0-1.0-218.0","0","0","60710","","null","","","null","24","","","","","","","","","","","","","","","",""
"","ISI","","html-keyboard-response","160","218294","0.0-1.0-219.0","0","0","60710","","null","","","null","24","NaN","","","","","","","","","","","","","","",""
"","S2","","html-keyboard-response","161","218547","0.0-1.0-220.0","0","0","60710","","null","","","null","24","","NaN","","","","","","","","","","","","","",""
"","response","","html-keyboard-response","162","218975","0.0-1.0-221.0-0.0","0","0","60710","","427","","","75","24","","","1","24","training","adjacent","BC","2","3","L.jpg","N.jpg","0","1","0","",""
"","feedback","","html-keyboard-response","163","219978","0.0-1.0-222.0-0.0","0","0","60710","","null","","","null","24","","","","","","","","","","","","","","","",""
"","time_out","","html-keyboard-response","164","221980","0.0-1.0-224.0-0.0","0","0","60710","","null","","","null","24","","","","","","","","","","","","","","","",""
"","ITI","","html-keyboard-response","165","222982","0.0-1.0-225.0","0","0","60710","","null","","","null","24","","","","","","","","","","","","","","","NaN",""
"","S1","","html-keyboard-response","166","223234","0.0-1.0-227.0","0","0","60710","","null","","","null","25","","","","","","","","","","","","","","","",""
"","ISI","","html-keyboard-response","167","225237","0.0-1.0-228.0","0","0","60710","","null","","","null","25","NaN","","","","","","","","","","","","","","",""
"","S2","","html-keyboard-response","168","225490","0.0-1.0-229.0","0","0","60710","","null","","","null","25","","NaN","","","","","","","","","","","","","",""
"","response","","html-keyboard-response","169","226663","0.0-1.0-230.0-0.0","0","0","60710","","1172","","","68","25","","","1","25","training","adjacent","FE","6","5","Q.jpg","O.jpg","1","0","0","",""
"","feedback","","html-keyboard-response","170","227666","0.0-1.0-231.0-0.0","0","0","60710","","null","","","null","25","","","","","","","","","","","","","","","",""
"","time_out","","html-keyboard-response","171","229669","0.0-1.0-233.0-0.0","0","0","60710","","null","","","null","25","","","","","","","","","","","","","","","",""
"","ITI","","html-keyboard-response","172","230672","0.0-1.0-234.0","0","0","60710","","null","","","null","25","","","","","","","","","","","","","","","NaN",""
"","S1","","html-keyboard-response","173","230925","0.0-1.0-236.0","0","0","60710","","null","","","null","26","","","","","","","","","","","","","","","",""
"","ISI","","html-keyboard-response","174","232927","0.0-1.0-237.0","0","0","60710","","null","","","null","26","NaN","","","","","","","","","","","","","","",""
"","S2","","html-keyboard-response","175","233181","0.0-1.0-238.0","0","0","60710","","null","","","null","26","","NaN","","","","","","","","","","","","","",""
"","response","","html-keyboard-response","176","233657","0.0-1.0-239.0-0.0","0","0","60710","","475","","","75","26","","","1","26","training","adjacent","BA","2","1","L.jpg","R.jpg","0","0","1","",""
"","feedback","","html-keyboard-response","177","234660","0.0-1.0-240.0-0.0","0","0","60710","","null","","","null","26","","","","","","","","","","","","","","","",""
"","ITI","","html-keyboard-response","178","235664","0.0-1.0-243.0","0","0","60710","","null","","","null","26","","","","","","","","","","","","","","","NaN",""
"","S1","","html-keyboard-response","179","235917","0.0-1.0-245.0","0","0","60710","","null","","","null","27","","","","","","","","","","","","","","","",""
"","ISI","","html-keyboard-response","180","237920","0.0-1.0-246.0","0","0","60710","","null","","","null","27","NaN","","","","","","","","","","","","","","",""
"","S2","","html-keyboard-response","181","238172","0.0-1.0-247.0","0","0","60710","","null","","","null","27","","NaN","","","","","","","","","","","","","",""
"","response","","html-keyboard-response","182","238605","0.0-1.0-248.0-0.0","0","0","60710","","432","","","68","27","","","1","27","training","adjacent","AB","1","2","R.jpg","L.jpg","1","1","1","",""
"","feedback","","html-keyboard-response","183","239607","0.0-1.0-249.0-0.0","0","0","60710","","null","","","null","27","","","","","","","","","","","","","","","",""
"","ITI","","html-keyboard-response","184","240618","0.0-1.0-252.0","0","0","60710","","null","","","null","27","","","","","","","","","","","","","","","NaN",""
"","S1","","html-keyboard-response","185","240871","0.0-1.0-254.0","0","0","60710","","null","","","null","28","","","","","","","","","","","","","","","",""
"","ISI","","html-keyboard-response","186","242873","0.0-1.0-255.0","0","0","60710","","null","","","null","28","NaN","","","","","","","","","","","","","","",""
"","S2","","html-keyboard-response","187","243126","0.0-1.0-256.0","0","0","60710","","null","","","null","28","","NaN","","","","","","","","","","","","","",""
"","response","","html-keyboard-response","188","243862","0.0-1.0-257.0-0.0","0","0","60710","","735","","","75","28","","","1","28","training","adjacent","CD","3","4","N.jpg","M.jpg","0","1","0","",""
"","feedback","","html-keyboard-response","189","244865","0.0-1.0-258.0-0.0","0","0","60710","","null","","","null","28","","","","","","","","","","","","","","","",""
"","time_out","","html-keyboard-response","190","246868","0.0-1.0-260.0-0.0","0","0","60710","","null","","","null","28","","","","","","","","","","","","","","","",""
"","ITI","","html-keyboard-response","191","247871","0.0-1.0-261.0","0","0","60710","","null","","","null","28","","","","","","","","","","","","","","","NaN",""
"","S1","","html-keyboard-response","192","248124","0.0-1.0-263.0","0","0","60710","","null","","","null","29","","","","","","","","","","","","","","","",""
"","ISI","","html-keyboard-response","193","250126","0.0-1.0-264.0","0","0","60710","","null","","","null","29","NaN","","","","","","","","","","","","","","",""
"","S2","","html-keyboard-response","194","250380","0.0-1.0-265.0","0","0","60710","","null","","","null","29","","NaN","","","","","","","","","","","","","",""
"","response","","html-keyboard-response","195","250942","0.0-1.0-266.0-0.0","0","0","60710","","561","","","68","29","","","1","29","training","adjacent","DE","4","5","M.jpg","O.jpg","1","1","1","",""
"","feedback","","html-keyboard-response","196","251945","0.0-1.0-267.0-0.0","0","0","60710","","null","","","null","29","","","","","","","","","","","","","","","",""
"","ITI","","html-keyboard-response","197","252947","0.0-1.0-270.0","0","0","60710","","null","","","null","29","","","","","","","","","","","","","","","NaN",""
"","S1","","html-keyboard-response","198","253201","0.0-1.0-272.0","0","0","60710","","null","","","null","30","","","","","","","","","","","","","","","",""
"","ISI","","html-keyboard-response","199","255204","0.0-1.0-273.0","0","0","60710","","null","","","null","30","NaN","","","","","","","","","","","","","","",""
"","S2","","html-keyboard-response","200","255457","0.0-1.0-274.0","0","0","60710","","null","","","null","30","","NaN","","","","","","","","","","","","","",""
"","response","","html-keyboard-response","201","255855","0.0-1.0-275.0-0.0","0","0","60710","","396","","","75","30","","","1","30","training","adjacent","BA","2","1","L.jpg","R.jpg","0","0","1","",""
"","feedback","","html-keyboard-response","202","256857","0.0-1.0-276.0-0.0","0","0","60710","","null","","","null","30","","","","","","","","","","","","","","","",""
"","ITI","","html-keyboard-response","203","257860","0.0-1.0-279.0","0","0","60710","","null","","","null","30","","","","","","","","","","","","","","","NaN",""
"","S1","","html-keyboard-response","204","258112","0.0-1.0-281.0","0","0","60710","","null","","","null","31","","","","","","","","","","","","","","","",""
"","ISI","","html-keyboard-response","205","260114","0.0-1.0-282.0","0","0","60710","","null","","","null","31","NaN","","","","","","","","","","","","","","",""
"","S2","","html-keyboard-response","206","260367","0.0-1.0-283.0","0","0","60710","","null","","","null","31","","NaN","","","","","","","","","","","","","",""
"","response","","html-keyboard-response","207","260797","0.0-1.0-284.0-0.0","0","0","60710","","428","","","75","31","","","1","31","training","adjacent","CD","3","4","N.jpg","M.jpg","0","1","0","",""
"","feedback","","html-keyboard-response","208","261800","0.0-1.0-285.0-0.0","0","0","60710","","null","","","null","31","","","","","","","","","","","","","","","",""
"","time_out","","html-keyboard-response","209","263802","0.0-1.0-287.0-0.0","0","0","60710","","null","","","null","31","","","","","","","","","","","","","","","",""
"","ITI","","html-keyboard-response","210","264805","0.0-1.0-288.0","0","0","60710","","null","","","null","31","","","","","","","","","","","","","","","NaN",""
"","S1","","html-keyboard-response","211","265058","0.0-1.0-290.0","0","0","60710","","null","","","null","32","","","","","","","","","","","","","","","",""
"","ISI","","html-keyboard-response","212","267061","0.0-1.0-291.0","0","0","60710","","null","","","null","32","NaN","","","","","","","","","","","","","","",""
"","S2","","html-keyboard-response","213","267314","0.0-1.0-292.0","0","0","60710","","null","","","null","32","","NaN","","","","","","","","","","","","","",""
"","response","","html-keyboard-response","214","267783","0.0-1.0-293.0-0.0","0","0","60710","","468","","","68","32","","","1","32","training","adjacent","FG","6","7","Q.jpg","P.jpg","1","1","1","",""
"","feedback","","html-keyboard-response","215","268786","0.0-1.0-294.0-0.0","0","0","60710","","null","","","null","32","","","","","","","","","","","","","","","",""
"","ITI","","html-keyboard-response","216","269788","0.0-1.0-297.0","0","0","60710","","null","","","null","32","","","","","","","","","","","","","","","NaN",""
"","S1","","html-keyboard-response","217","270041","0.0-1.0-299.0","0","0","60710","","null","","","null","33","","","","","","","","","","","","","","","",""
"","ISI","","html-keyboard-response","218","272043","0.0-1.0-300.0","0","0","60710","","null","","","null","33","NaN","","","","","","","","","","","","","","",""
"","S2","","html-keyboard-response","219","272296","0.0-1.0-301.0","0","0","60710","","null","","","null","33","","NaN","","","","","","","","","","","","","",""
"","response","","html-keyboard-response","220","272871","0.0-1.0-302.0-0.0","0","0","60710","","573","","","75","33","","","1","33","training","adjacent","FG","6","7","Q.jpg","P.jpg","0","1","0","",""
"","feedback","","html-keyboard-response","221","273874","0.0-1.0-303.0-0.0","0","0","60710","","null","","","null","33","","","","","","","","","","","","","","","",""
"","time_out","","html-keyboard-response","222","275876","0.0-1.0-305.0-0.0","0","0","60710","","null","","","null","33","","","","","","","","","","","","","","","",""
"","ITI","","html-keyboard-response","223","276879","0.0-1.0-306.0","0","0","60710","","null","","","null","33","","","","","","","","","","","","","","","NaN",""
"","S1","","html-keyboard-response","224","277132","0.0-1.0-308.0","0","0","60710","","null","","","null","34","","","","","","","","","","","","","","","",""
"","ISI","","html-keyboard-response","225","279135","0.0-1.0-309.0","0","0","60710","","null","","","null","34","NaN","","","","","","","","","","","","","","",""
"","S2","","html-keyboard-response","226","279388","0.0-1.0-310.0","0","0","60710","","null","","","null","34","","NaN","","","","","","","","","","","","","",""
"","response","","html-keyboard-response","227","279817","0.0-1.0-311.0-0.0","0","0","60710","","428","","","75","34","","","1","34","training","adjacent","DC","4","3","M.jpg","N.jpg","0","0","1","",""
"","feedback","","html-keyboard-response","228","280820","0.0-1.0-312.0-0.0","0","0","60710","","null","","","null","34","","","","","","","","","","","","","","","",""
"","ITI","","html-keyboard-response","229","281822","0.0-1.0-315.0","0","0","60710","","null","","","null","34","","","","","","","","","","","","","","","NaN",""
"","S1","","html-keyboard-response","230","282075","0.0-1.0-317.0","0","0","60710","","null","","","null","35","","","","","","","","","","","","","","","",""
"","ISI","","html-keyboard-response","231","284077","0.0-1.0-318.0","0","0","60710","","null","","","null","35","NaN","","","","","","","","","","","","","","",""
"","S2","","html-keyboard-response","232","284330","0.0-1.0-319.0","0","0","60710","","null","","","null","35","","NaN","","","","","","","","","","","","","",""
"","response","","html-keyboard-response","233","284963","0.0-1.0-320.0-0.0","0","0","60710","","632","","","75","35","","","1","35","training","adjacent","BC","2","3","L.jpg","N.jpg","0","1","0","",""
"","feedback","","html-keyboard-response","234","285965","0.0-1.0-321.0-0.0","0","0","60710","","null","","","null","35","","","","","","","","","","","","","","","",""
"","time_out","","html-keyboard-response","235","287967","0.0-1.0-323.0-0.0","0","0","60710","","null","","","null","35","","","","","","","","","","","","","","","",""
"","ITI","","html-keyboard-response","236","288969","0.0-1.0-324.0","0","0","60710","","null","","","null","35","","","","","","","","","","","","","","","NaN",""
"","S1","","html-keyboard-response","237","289223","0.0-1.0-326.0","0","0","60710","","null","","","null","36","","","","","","","","","","","","","","","",""
"","ISI","","html-keyboard-response","238","291226","0.0-1.0-327.0","0","0","60710","","null","","","null","36","NaN","","","","","","","","","","","","","","",""
"","S2","","html-keyboard-response","239","291478","0.0-1.0-328.0","0","0","60710","","null","","","null","36","","NaN","","","","","","","","","","","","","",""
"","response","","html-keyboard-response","240","291943","0.0-1.0-329.0-0.0","0","0","60710","","463","","","68","36","","","1","36","training","adjacent","CD","3","4","N.jpg","M.jpg","1","1","1","",""
"","feedback","","html-keyboard-response","241","292946","0.0-1.0-330.0-0.0","0","0","60710","","null","","","null","36","","","","","","","","","","","","","","","",""
"","ITI","","html-keyboard-response","242","293948","0.0-1.0-333.0","0","0","60710","","null","","","null","36","","","","","","","","","","","","","","","NaN",""
"","S1","","html-keyboard-response","243","294201","0.0-1.0-335.0","0","0","60710","","null","","","null","37","","","","","","","","","","","","","","","",""
"","ISI","","html-keyboard-response","244","296203","0.0-1.0-336.0","0","0","60710","","null","","","null","37","NaN","","","","","","","","","","","","","","",""
"","S2","","html-keyboard-response","245","296457","0.0-1.0-337.0","0","0","60710","","null","","","null","37","","NaN","","","","","","","","","","","","","",""
"","response","","html-keyboard-response","246","296824","0.0-1.0-338.0-0.0","0","0","60710","","366","","","68","37","","","1","37","training","adjacent","FG","6","7","Q.jpg","P.jpg","1","1","1","",""
"","feedback","","html-keyboard-response","247","297827","0.0-1.0-339.0-0.0","0","0","60710","","null","","","null","37","","","","","","","","","","","","","","","",""
"","ITI","","html-keyboard-response","248","298830","0.0-1.0-342.0","0","0","60710","","null","","","null","37","","","","","","","","","","","","","","","NaN",""
"","S1","","html-keyboard-response","249","299081","0.0-1.0-344.0","0","0","60710","","null","","","null","38","","","","","","","","","","","","","","","",""
"","ISI","","html-keyboard-response","250","301084","0.0-1.0-345.0","0","0","60710","","null","","","null","38","NaN","","","","","","","","","","","","","","",""
"","S2","","html-keyboard-response","251","301337","0.0-1.0-346.0","0","0","60710","","null","","","null","38","","NaN","","","","","","","","","","","","","",""
"","response","","html-keyboard-response","252","301887","0.0-1.0-347.0-0.0","0","0","60710","","550","","","75","38","","","1","38","training","adjacent","ED","5","4","O.jpg","M.jpg","0","0","1","",""
"","feedback","","html-keyboard-response","253","302890","0.0-1.0-348.0-0.0","0","0","60710","","null","","","null","38","","","","","","","","","","","","","","","",""
"","ITI","","html-keyboard-response","254","303893","0.0-1.0-351.0","0","0","60710","","null","","","null","38","","","","","","","","","","","","","","","NaN",""
"","S1","","html-keyboard-response","255","304145","0.0-1.0-353.0","0","0","60710","","null","","","null","39","","","","","","","","","","","","","","","",""
"","ISI","","html-keyboard-response","256","306148","0.0-1.0-354.0","0","0","60710","","null","","","null","39","NaN","","","","","","","","","","","","","","",""
"","S2","","html-keyboard-response","257","306401","0.0-1.0-355.0","0","0","60710","","null","","","null","39","","NaN","","","","","","","","","","","","","",""
"","response","","html-keyboard-response","258","307039","0.0-1.0-356.0-0.0","0","0","60710","","636","","","68","39","","","1","39","training","adjacent","AB","1","2","R.jpg","L.jpg","1","1","1","",""
"","feedback","","html-keyboard-response","259","308041","0.0-1.0-357.0-0.0","0","0","60710","","null","","","null","39","","","","","","","","","","","","","","","",""
"","ITI","","html-keyboard-response","260","309047","0.0-1.0-360.0","0","0","60710","","null","","","null","39","","","","","","","","","","","","","","","NaN",""
"","S1","","html-keyboard-response","261","309300","0.0-1.0-362.0","0","0","60710","","null","","","null","40","","","","","","","","","","","","","","","",""
"","ISI","","html-keyboard-response","262","311302","0.0-1.0-363.0","0","0","60710","","null","","","null","40","NaN","","","","","","","","","","","","","","",""
"","S2","","html-keyboard-response","263","311555","0.0-1.0-364.0","0","0","60710","","null","","","null","40","","NaN","","","","","","","","","","","","","",""
"","response","","html-keyboard-response","264","311945","0.0-1.0-365.0-0.0","0","0","60710","","389","","","75","40","","","1","40","training","adjacent","ED","5","4","O.jpg","M.jpg","0","0","1","",""
"","feedback","","html-keyboard-response","265","312948","0.0-1.0-366.0-0.0","0","0","60710","","null","","","null","40","","","","","","","","","","","","","","","",""
"","ITI","","html-keyboard-response","266","313950","0.0-1.0-369.0","0","0","60710","","null","","","null","40","","","","","","","","","","","","","","","NaN",""
"","S1","","html-keyboard-response","267","314203","0.0-1.0-371.0","0","0","60710","","null","","","null","41","","","","","","","","","","","","","","","",""
"","ISI","","html-keyboard-response","268","316205","0.0-1.0-372.0","0","0","60710","","null","","","null","41","NaN","","","","","","","","","","","","","","",""
"","S2","","html-keyboard-response","269","316459","0.0-1.0-373.0","0","0","60710","","null","","","null","41","","NaN","","","","","","","","","","","","","",""
"","response","","html-keyboard-response","270","316849","0.0-1.0-374.0-0.0","0","0","60710","","389","","","75","41","","","1","41","training","adjacent","BA","2","1","L.jpg","R.jpg","0","0","1","",""
"","feedback","","html-keyboard-response","271","317852","0.0-1.0-375.0-0.0","0","0","60710","","null","","","null","41","","","","","","","","","","","","","","","",""
"","ITI","","html-keyboard-response","272","318854","0.0-1.0-378.0","0","0","60710","","null","","","null","41","","","","","","","","","","","","","","","NaN",""
"","S1","","html-keyboard-response","273","319107","0.0-1.0-380.0","0","0","60710","","null","","","null","42","","","","","","","","","","","","","","","",""
"","ISI","","html-keyboard-response","274","321110","0.0-1.0-381.0","0","0","60710","","null","","","null","42","NaN","","","","","","","","","","","","","","",""
"","S2","","html-keyboard-response","275","321363","0.0-1.0-382.0","0","0","60710","","null","","","null","42","","NaN","","","","","","","","","","","","","",""
"","response","","html-keyboard-response","276","321957","0.0-1.0-383.0-0.0","0","0","60710","","592","","","68","42","","","1","42","training","adjacent","EF","5","6","O.jpg","Q.jpg","1","1","1","",""
"","feedback","","html-keyboard-response","277","322960","0.0-1.0-384.0-0.0","0","0","60710","","null","","","null","42","","","","","","","","","","","","","","","",""
"","ITI","","html-keyboard-response","278","323963","0.0-1.0-387.0","0","0","60710","","null","","","null","42","","","","","","","","","","","","","","","NaN",""
"","S1","","html-keyboard-response","279","324216","0.0-1.0-389.0","0","0","60710","","null","","","null","43","","","","","","","","","","","","","","","",""
"","ISI","","html-keyboard-response","280","326219","0.0-1.0-390.0","0","0","60710","","null","","","null","43","NaN","","","","","","","","","","","","","","",""
"","S2","","html-keyboard-response","281","326473","0.0-1.0-391.0","0","0","60710","","null","","","null","43","","NaN","","","","","","","","","","","","","",""
"","response","","html-keyboard-response","282","327177","0.0-1.0-392.0-0.0","0","0","60710","","702","","","68","43","","","1","43","training","adjacent","EF","5","6","O.jpg","Q.jpg","1","1","1","",""
"","feedback","","html-keyboard-response","283","328179","0.0-1.0-393.0-0.0","0","0","60710","","null","","","null","43","","","","","","","","","","","","","","","",""
"","ITI","","html-keyboard-response","284","329183","0.0-1.0-396.0","0","0","60710","","null","","","null","43","","","","","","","","","","","","","","","NaN",""
"","S1","","html-keyboard-response","285","329436","0.0-1.0-398.0","0","0","60710","","null","","","null","44","","","","","","","","","","","","","","","",""
"","ISI","","html-keyboard-response","286","331438","0.0-1.0-399.0","0","0","60710","","null","","","null","44","NaN","","","","","","","","","","","","","","",""
"","S2","","html-keyboard-response","287","331691","0.0-1.0-400.0","0","0","60710","","null","","","null","44","","NaN","","","","","","","","","","","","","",""
"","response","","html-keyboard-response","288","332150","0.0-1.0-401.0-0.0","0","0","60710","","457","","","68","44","","","1","44","training","adjacent","FG","6","7","Q.jpg","P.jpg","1","1","1","",""
"","feedback","","html-keyboard-response","289","333152","0.0-1.0-402.0-0.0","0","0","60710","","null","","","null","44","","","","","","","","","","","","","","","",""
"","ITI","","html-keyboard-response","290","334155","0.0-1.0-405.0","0","0","60710","","null","","","null","44","","","","","","","","","","","","","","","NaN",""
"","S1","","html-keyboard-response","291","334408","0.0-1.0-407.0","0","0","60710","","null","","","null","45","","","","","","","","","","","","","","","",""
"","ISI","","html-keyboard-response","292","336410","0.0-1.0-408.0","0","0","60710","","null","","","null","45","NaN","","","","","","","","","","","","","","",""
"","S2","","html-keyboard-response","293","336662","0.0-1.0-409.0","0","0","60710","","null","","","null","45","","NaN","","","","","","","","","","","","","",""
"","response","","html-keyboard-response","294","336944","0.0-1.0-410.0-0.0","0","0","60710","","280","","","75","45","","","1","45","training","adjacent","GF","7","6","P.jpg","Q.jpg","0","0","1","",""
"","feedback","","html-keyboard-response","295","337946","0.0-1.0-411.0-0.0","0","0","60710","","null","","","null","45","","","","","","","","","","","","","","","",""
"","ITI","","html-keyboard-response","296","338949","0.0-1.0-414.0","0","0","60710","","null","","","null","45","","","","","","","","","","","","","","","NaN",""
"","S1","","html-keyboard-response","297","339202","0.0-1.0-416.0","0","0","60710","","null","","","null","46","","","","","","","","","","","","","","","",""
"","ISI","","html-keyboard-response","298","341204","0.0-1.0-417.0","0","0","60710","","null","","","null","46","NaN","","","","","","","","","","","","","","",""
"","S2","","html-keyboard-response","299","341457","0.0-1.0-418.0","0","0","60710","","null","","","null","46","","NaN","","","","","","","","","","","","","",""
"","response","","html-keyboard-response","300","341926","0.0-1.0-419.0-0.0","0","0","60710","","467","","","75","46","","","1","46","training","adjacent","CB","3","2","N.jpg","L.jpg","0","0","1","",""
"","feedback","","html-keyboard-response","301","342929","0.0-1.0-420.0-0.0","0","0","60710","","null","","","null","46","","","","","","","","","","","","","","","",""
"","ITI","","html-keyboard-response","302","343931","0.0-1.0-423.0","0","0","60710","","null","","","null","46","","","","","","","","","","","","","","","NaN",""
"","S1","","html-keyboard-response","303","344195","0.0-1.0-425.0","0","0","60710","","null","","","null","47","","","","","","","","","","","","","","","",""
"","ISI","","html-keyboard-response","304","346198","0.0-1.0-426.0","0","0","60710","","null","","","null","47","NaN","","","","","","","","","","","","","","",""
"","S2","","html-keyboard-response","305","346451","0.0-1.0-427.0","0","0","60710","","null","","","null","47","","NaN","","","","","","","","","","","","","",""
"","response","","html-keyboard-response","306","347084","0.0-1.0-428.0-0.0","0","0","60710","","631","","","75","47","","","1","47","training","adjacent","DC","4","3","M.jpg","N.jpg","0","0","1","",""
"","feedback","","html-keyboard-response","307","348086","0.0-1.0-429.0-0.0","0","0","60710","","null","","","null","47","","","","","","","","","","","","","","","",""
"","ITI","","html-keyboard-response","308","349089","0.0-1.0-432.0","0","0","60710","","null","","","null","47","","","","","","","","","","","","","","","NaN",""
"","block_over","","html-keyboard-response","309","355517","0.0-1.0-433.0-0.0","0","0","60710","","6427","","","32","47","","","","","","","","","","","","","","","",""
"","S1","","html-keyboard-response","310","355769","0.0-1.0-434.0","0","0","60710","","null","","","null","48","","","","","","","","","","","","","","","",""
"","ISI","","html-keyboard-response","311","357773","0.0-1.0-435.0","0","0","60710","","null","","","null","48","NaN","","","","","","","","","","","","","","",""
"","S2","","html-keyboard-response","312","358027","0.0-1.0-436.0","0","0","60710","","null","","","null","48","","NaN","","","","","","","","","","","","","",""
"","response","","html-keyboard-response","313","358431","0.0-1.0-437.0-0.0","0","0","60710","","403","","","75","48","","","2","48","training","adjacent","AB","1","2","R.jpg","L.jpg","0","1","0","",""
"","feedback","","html-keyboard-response","314","359434","0.0-1.0-438.0-0.0","0","0","60710","","null","","","null","48","","","","","","","","","","","","","","","",""
"","time_out","","html-keyboard-response","315","361437","0.0-1.0-440.0-0.0","0","0","60710","","null","","","null","48","","","","","","","","","","","","","","","",""
"","ITI","","html-keyboard-response","316","362439","0.0-1.0-441.0","0","0","60710","","null","","","null","48","","","","","","","","","","","","","","","NaN",""
"","S1","","html-keyboard-response","317","362692","0.0-1.0-443.0","0","0","60710","","null","","","null","49","","","","","","","","","","","","","","","",""
"","ISI","","html-keyboard-response","318","364694","0.0-1.0-444.0","0","0","60710","","null","","","null","49","NaN","","","","","","","","","","","","","","",""
"","S2","","html-keyboard-response","319","364947","0.0-1.0-445.0","0","0","60710","","null","","","null","49","","NaN","","","","","","","","","","","","","",""
"","response","","html-keyboard-response","320","365699","0.0-1.0-446.0-0.0","0","0","60710","","750","","","68","49","","","2","49","training","adjacent","FE","6","5","Q.jpg","O.jpg","1","0","0","",""
"","feedback","","html-keyboard-response","321","366701","0.0-1.0-447.0-0.0","0","0","60710","","null","","","null","49","","","","","","","","","","","","","","","",""
"","time_out","","html-keyboard-response","322","368703","0.0-1.0-449.0-0.0","0","0","60710","","null","","","null","49","","","","","","","","","","","","","","","",""
"","ITI","","html-keyboard-response","323","369706","0.0-1.0-450.0","0","0","60710","","null","","","null","49","","","","","","","","","","","","","","","NaN",""
"","S1","","html-keyboard-response","324","369959","0.0-1.0-452.0","0","0","60710","","null","","","null","50","","","","","","","","","","","","","","","",""
"","ISI","","html-keyboard-response","325","371961","0.0-1.0-453.0","0","0","60710","","null","","","null","50","NaN","","","","","","","","","","","","","","",""
"","S2","","html-keyboard-response","326","372226","0.0-1.0-454.0","0","0","60710","","null","","","null","50","","NaN","","","","","","","","","","","","","",""
"","response","","html-keyboard-response","327","372795","0.0-1.0-455.0-0.0","0","0","60710","","568","","","75","50","","","2","50","training","adjacent","AB","1","2","R.jpg","L.jpg","0","1","0","",""
"","feedback","","html-keyboard-response","328","373798","0.0-1.0-456.0-0.0","0","0","60710","","null","","","null","50","","","","","","","","","","","","","","","",""
"","time_out","","html-keyboard-response","329","375800","0.0-1.0-458.0-0.0","0","0","60710","","null","","","null","50","","","","","","","","","","","","","","","",""
"","ITI","","html-keyboard-response","330","376803","0.0-1.0-459.0","0","0","60710","","null","","","null","50","","","","","","","","","","","","","","","NaN",""
"","S1","","html-keyboard-response","331","377055","0.0-1.0-461.0","0","0","60710","","null","","","null","51","","","","","","","","","","","","","","","",""
"","ISI","","html-keyboard-response","332","379057","0.0-1.0-462.0","0","0","60710","","null","","","null","51","NaN","","","","","","","","","","","","","","",""
"","S2","","html-keyboard-response","333","379310","0.0-1.0-463.0","0","0","60710","","null","","","null","51","","NaN","","","","","","","","","","","","","",""
"","response","","html-keyboard-response","334","379771","0.0-1.0-464.0-0.0","0","0","60710","","460","","","68","51","","","2","51","training","adjacent","FG","6","7","Q.jpg","P.jpg","1","1","1","",""
"","feedback","","html-keyboard-response","335","380773","0.0-1.0-465.0-0.0","0","0","60710","","null","","","null","51","","","","","","","","","","","","","","","",""
"","ITI","","html-keyboard-response","336","381776","0.0-1.0-468.0","0","0","60710","","null","","","null","51","","","","","","","","","","","","","","","NaN",""
"","S1","","html-keyboard-response","337","382029","0.0-1.0-470.0","0","0","60710","","null","","","null","52","","","","","","","","","","","","","","","",""
"","ISI","","html-keyboard-response","338","384032","0.0-1.0-471.0","0","0","60710","","null","","","null","52","NaN","","","","","","","","","","","","","","",""
"","S2","","html-keyboard-response","339","384285","0.0-1.0-472.0","0","0","60710","","null","","","null","52","","NaN","","","","","","","","","","","","","",""
"","response","","html-keyboard-response","340","384846","0.0-1.0-473.0-0.0","0","0","60710","","560","","","75","52","","","2","52","training","adjacent","ED","5","4","O.jpg","M.jpg","0","0","1","",""
"","feedback","","html-keyboard-response","341","385849","0.0-1.0-474.0-0.0","0","0","60710","","null","","","null","52","","","","","","","","","","","","","","","",""
"","ITI","","html-keyboard-response","342","386856","0.0-1.0-477.0","0","0","60710","","null","","","null","52","","","","","","","","","","","","","","","NaN",""
"","S1","","html-keyboard-response","343","387109","0.0-1.0-479.0","0","0","60710","","null","","","null","53","","","","","","","","","","","","","","","",""
"","ISI","","html-keyboard-response","344","389111","0.0-1.0-480.0","0","0","60710","","null","","","null","53","NaN","","","","","","","","","","","","","","",""
"","S2","","html-keyboard-response","345","389364","0.0-1.0-481.0","0","0","60710","","null","","","null","53","","NaN","","","","","","","","","","","","","",""
"","response","","html-keyboard-response","346","389771","0.0-1.0-482.0-0.0","0","0","60710","","406","","","75","53","","","2","53","training","adjacent","BA","2","1","L.jpg","R.jpg","0","0","1","",""
"","feedback","","html-keyboard-response","347","390774","0.0-1.0-483.0-0.0","0","0","60710","","null","","","null","53","","","","","","","","","","","","","","","",""
"","ITI","","html-keyboard-response","348","391777","0.0-1.0-486.0","0","0","60710","","null","","","null","53","","","","","","","","","","","","","","","NaN",""
"","S1","","html-keyboard-response","349","392030","0.0-1.0-488.0","0","0","60710","","null","","","null","54","","","","","","","","","","","","","","","",""
"","ISI","","html-keyboard-response","350","394032","0.0-1.0-489.0","0","0","60710","","null","","","null","54","NaN","","","","","","","","","","","","","","",""
"","S2","","html-keyboard-response","351","394284","0.0-1.0-490.0","0","0","60710","","null","","","null","54","","NaN","","","","","","","","","","","","","",""
"","response","","html-keyboard-response","352","395097","0.0-1.0-491.0-0.0","0","0","60710","","812","","","68","54","","","2","54","training","adjacent","FE","6","5","Q.jpg","O.jpg","1","0","0","",""
"","feedback","","html-keyboard-response","353","396100","0.0-1.0-492.0-0.0","0","0","60710","","null","","","null","54","","","","","","","","","","","","","","","",""
"","time_out","","html-keyboard-response","354","398104","0.0-1.0-494.0-0.0","0","0","60710","","null","","","null","54","","","","","","","","","","","","","","","",""
"","ITI","","html-keyboard-response","355","399106","0.0-1.0-495.0","0","0","60710","","null","","","null","54","","","","","","","","","","","","","","","NaN",""
"","S1","","html-keyboard-response","356","399359","0.0-1.0-497.0","0","0","60710","","null","","","null","55","","","","","","","","","","","","","","","",""
"","ISI","","html-keyboard-response","357","401365","0.0-1.0-498.0","0","0","60710","","null","","","null","55","NaN","","","","","","","","","","","","","","",""
"","S2","","html-keyboard-response","358","401618","0.0-1.0-499.0","0","0","60710","","null","","","null","55","","NaN","","","","","","","","","","","","","",""
"","response","","html-keyboard-response","359","401812","0.0-1.0-500.0-0.0","0","0","60710","","193","","","75","55","","","2","55","training","adjacent","GF","7","6","P.jpg","Q.jpg","0","0","1","",""
"","feedback","","html-keyboard-response","360","402816","0.0-1.0-501.0-0.0","0","0","60710","","null","","","null","55","","","","","","","","","","","","","","","",""
"","ITI","","html-keyboard-response","361","403818","0.0-1.0-504.0","0","0","60710","","null","","","null","55","","","","","","","","","","","","","","","NaN",""
"","S1","","html-keyboard-response","362","404071","0.0-1.0-506.0","0","0","60710","","null","","","null","56","","","","","","","","","","","","","","","",""
"","ISI","","html-keyboard-response","363","406073","0.0-1.0-507.0","0","0","60710","","null","","","null","56","NaN","","","","","","","","","","","","","","",""
"","S2","","html-keyboard-response","364","406326","0.0-1.0-508.0","0","0","60710","","null","","","null","56","","NaN","","","","","","","","","","","","","",""
"","response","","html-keyboard-response","365","406956","0.0-1.0-509.0-0.0","0","0","60710","","629","","","68","56","","","2","56","training","adjacent","FG","6","7","Q.jpg","P.jpg","1","1","1","",""
"","feedback","","html-keyboard-response","366","407960","0.0-1.0-510.0-0.0","0","0","60710","","null","","","null","56","","","","","","","","","","","","","","","",""
"","ITI","","html-keyboard-response","367","408963","0.0-1.0-513.0","0","0","60710","","null","","","null","56","","","","","","","","","","","","","","","NaN",""
"","S1","","html-keyboard-response","368","409217","0.0-1.0-515.0","0","0","60710","","null","","","null","57","","","","","","","","","","","","","","","",""
"","ISI","","html-keyboard-response","369","411220","0.0-1.0-516.0","0","0","60710","","null","","","null","57","NaN","","","","","","","","","","","","","","",""
"","S2","","html-keyboard-response","370","411473","0.0-1.0-517.0","0","0","60710","","null","","","null","57","","NaN","","","","","","","","","","","","","",""
"","response","","html-keyboard-response","371","411996","0.0-1.0-518.0-0.0","0","0","60710","","522","","","75","57","","","2","57","training","adjacent","GF","7","6","P.jpg","Q.jpg","0","0","1","",""
"","feedback","","html-keyboard-response","372","412999","0.0-1.0-519.0-0.0","0","0","60710","","null","","","null","57","","","","","","","","","","","","","","","",""
"","ITI","","html-keyboard-response","373","414002","0.0-1.0-522.0","0","0","60710","","null","","","null","57","","","","","","","","","","","","","","","NaN",""
"","S1","","html-keyboard-response","374","414255","0.0-1.0-524.0","0","0","60710","","null","","","null","58","","","","","","","","","","","","","","","",""
"","ISI","","html-keyboard-response","375","416258","0.0-1.0-525.0","0","0","60710","","null","","","null","58","NaN","","","","","","","","","","","","","","",""
"","S2","","html-keyboard-response","376","416511","0.0-1.0-526.0","0","0","60710","","null","","","null","58","","NaN","","","","","","","","","","","","","",""
"","response","","html-keyboard-response","377","417399","0.0-1.0-527.0-0.0","0","0","60710","","885","","","68","58","","","2","58","training","adjacent","CB","3","2","N.jpg","L.jpg","1","0","0","",""
"","feedback","","html-keyboard-response","378","418401","0.0-1.0-528.0-0.0","0","0","60710","","null","","","null","58","","","","","","","","","","","","","","","",""
"","time_out","","html-keyboard-response","379","420405","0.0-1.0-530.0-0.0","0","0","60710","","null","","","null","58","","","","","","","","","","","","","","","",""
"","ITI","","html-keyboard-response","380","421407","0.0-1.0-531.0","0","0","60710","","null","","","null","58","","","","","","","","","","","","","","","NaN",""
"","S1","","html-keyboard-response","381","421660","0.0-1.0-533.0","0","0","60710","","null","","","null","59","","","","","","","","","","","","","","","",""
"","ISI","","html-keyboard-response","382","423663","0.0-1.0-534.0","0","0","60710","","null","","","null","59","NaN","","","","","","","","","","","","","","",""
"","S2","","html-keyboard-response","383","423916","0.0-1.0-535.0","0","0","60710","","null","","","null","59","","NaN","","","","","","","","","","","","","",""
"","response","","html-keyboard-response","384","424387","0.0-1.0-536.0-0.0","0","0","60710","","470","","","68","59","","","2","59","training","adjacent","ED","5","4","O.jpg","M.jpg","1","0","0","",""
"","feedback","","html-keyboard-response","385","425391","0.0-1.0-537.0-0.0","0","0","60710","","null","","","null","59","","","","","","","","","","","","","","","",""
"","time_out","","html-keyboard-response","386","427394","0.0-1.0-539.0-0.0","0","0","60710","","null","","","null","59","","","","","","","","","","","","","","","",""
"","ITI","","html-keyboard-response","387","428396","0.0-1.0-540.0","0","0","60710","","null","","","null","59","","","","","","","","","","","","","","","NaN",""
"","S1","","html-keyboard-response","388","428650","0.0-1.0-542.0","0","0","60710","","null","","","null","60","","","","","","","","","","","","","","","",""
"","ISI","","html-keyboard-response","389","430652","0.0-1.0-543.0","0","0","60710","","null","","","null","60","NaN","","","","","","","","","","","","","","",""
"","S2","","html-keyboard-response","390","430905","0.0-1.0-544.0","0","0","60710","","null","","","null","60","","NaN","","","","","","","","","","","","","",""
"","response","","html-keyboard-response","391","431493","0.0-1.0-545.0-0.0","0","0","60710","","585","","","75","60","","","2","60","training","adjacent","DE","4","5","M.jpg","O.jpg","0","1","0","",""
"","feedback","","html-keyboard-response","392","432496","0.0-1.0-546.0-0.0","0","0","60710","","null","","","null","60","","","","","","","","","","","","","","","",""
"","time_out","","html-keyboard-response","393","434498","0.0-1.0-548.0-0.0","0","0","60710","","null","","","null","60","","","","","","","","","","","","","","","",""
"","ITI","","html-keyboard-response","394","435501","0.0-1.0-549.0","0","0","60710","","null","","","null","60","","","","","","","","","","","","","","","NaN",""
"","S1","","html-keyboard-response","395","435754","0.0-1.0-551.0","0","0","60710","","null","","","null","61","","","","","","","","","","","","","","","",""
"","ISI","","html-keyboard-response","396","437756","0.0-1.0-552.0","0","0","60710","","null","","","null","61","NaN","","","","","","","","","","","","","","",""
"","S2","","html-keyboard-response","397","438009","0.0-1.0-553.0","0","0","60710","","null","","","null","61","","NaN","","","","","","","","","","","","","",""
"","response","","html-keyboard-response","398","438344","0.0-1.0-554.0-0.0","0","0","60710","","333","","","68","61","","","2","61","training","adjacent","CD","3","4","N.jpg","M.jpg","1","1","1","",""
"","feedback","","html-keyboard-response","399","439348","0.0-1.0-555.0-0.0","0","0","60710","","null","","","null","61","","","","","","","","","","","","","","","",""
"","ITI","","html-keyboard-response","400","440351","0.0-1.0-558.0","0","0","60710","","null","","","null","61","","","","","","","","","","","","","","","NaN",""
"","S1","","html-keyboard-response","401","440603","0.0-1.0-560.0","0","0","60710","","null","","","null","62","","","","","","","","","","","","","","","",""
"","ISI","","html-keyboard-response","402","442605","0.0-1.0-561.0","0","0","60710","","null","","","null","62","NaN","","","","","","","","","","","","","","",""
"","S2","","html-keyboard-response","403","442857","0.0-1.0-562.0","0","0","60710","","null","","","null","62","","NaN","","","","","","","","","","","","","",""
"","response","","html-keyboard-response","404","443030","0.0-1.0-563.0-0.0","0","0","60710","","172","","","68","62","","","2","62","training","adjacent","AB","1","2","R.jpg","L.jpg","1","1","1","",""
"","feedback","","html-keyboard-response","405","444033","0.0-1.0-564.0-0.0","0","0","60710","","null","","","null","62","","","","","","","","","","","","","","","",""
"","ITI","","html-keyboard-response","406","445036","0.0-1.0-567.0","0","0","60710","","null","","","null","62","","","","","","","","","","","","","","","NaN",""
"","S1","","html-keyboard-response","407","445289","0.0-1.0-569.0","0","0","60710","","null","","","null","63","","","","","","","","","","","","","","","",""
"","ISI","","html-keyboard-response","408","447291","0.0-1.0-570.0","0","0","60710","","null","","","null","63","NaN","","","","","","","","","","","","","","",""
"","S2","","html-keyboard-response","409","447544","0.0-1.0-571.0","0","0","60710","","null","","","null","63","","NaN","","","","","","","","","","","","","",""
"","response","","html-keyboard-response","410","447757","0.0-1.0-572.0-0.0","0","0","60710","","212","","","68","63","","","2","63","training","adjacent","AB","1","2","R.jpg","L.jpg","1","1","1","",""
"","feedback","","html-keyboard-response","411","448759","0.0-1.0-573.0-0.0","0","0","60710","","null","","","null","63","","","","","","","","","","","","","","","",""
"","ITI","","html-keyboard-response","412","449762","0.0-1.0-576.0","0","0","60710","","null","","","null","63","","","","","","","","","","","","","","","NaN",""
"","S1","","html-keyboard-response","413","450014","0.0-1.0-578.0","0","0","60710","","null","","","null","64","","","","","","","","","","","","","","","",""
"","ISI","","html-keyboard-response","414","452016","0.0-1.0-579.0","0","0","60710","","null","","","null","64","NaN","","","","","","","","","","","","","","",""
"","S2","","html-keyboard-response","415","452269","0.0-1.0-580.0","0","0","60710","","null","","","null","64","","NaN","","","","","","","","","","","","","",""
"","response","","html-keyboard-response","416","452927","0.0-1.0-581.0-0.0","0","0","60710","","657","","","68","64","","","2","64","training","adjacent","FE","6","5","Q.jpg","O.jpg","1","0","0","",""
"","feedback","","html-keyboard-response","417","453934","0.0-1.0-582.0-0.0","0","0","60710","","null","","","null","64","","","","","","","","","","","","","","","",""
"","time_out","","html-keyboard-response","418","455936","0.0-1.0-584.0-0.0","0","0","60710","","null","","","null","64","","","","","","","","","","","","","","","",""
"","ITI","","html-keyboard-response","419","456939","0.0-1.0-585.0","0","0","60710","","null","","","null","64","","","","","","","","","","","","","","","NaN",""
"","S1","","html-keyboard-response","420","457191","0.0-1.0-587.0","0","0","60710","","null","","","null","65","","","","","","","","","","","","","","","",""
"","ISI","","html-keyboard-response","421","459192","0.0-1.0-588.0","0","0","60710","","null","","","null","65","NaN","","","","","","","","","","","","","","",""
"","S2","","html-keyboard-response","422","459445","0.0-1.0-589.0","0","0","60710","","null","","","null","65","","NaN","","","","","","","","","","","","","",""
"","response","","html-keyboard-response","423","460050","0.0-1.0-590.0-0.0","0","0","60710","","603","","","75","65","","","2","65","training","adjacent","CB","3","2","N.jpg","L.jpg","0","0","1","",""
"","feedback","","html-keyboard-response","424","461052","0.0-1.0-591.0-0.0","0","0","60710","","null","","","null","65","","","","","","","","","","","","","","","",""
"","ITI","","html-keyboard-response","425","462054","0.0-1.0-594.0","0","0","60710","","null","","","null","65","","","","","","","","","","","","","","","NaN",""
"","S1","","html-keyboard-response","426","462307","0.0-1.0-596.0","0","0","60710","","null","","","null","66","","","","","","","","","","","","","","","",""
"","ISI","","html-keyboard-response","427","464310","0.0-1.0-597.0","0","0","60710","","null","","","null","66","NaN","","","","","","","","","","","","","","",""
"","S2","","html-keyboard-response","428","464563","0.0-1.0-598.0","0","0","60710","","null","","","null","66","","NaN","","","","","","","","","","","","","",""
"","response","","html-keyboard-response","429","465137","0.0-1.0-599.0-0.0","0","0","60710","","573","","","75","66","","","2","66","training","adjacent","DC","4","3","M.jpg","N.jpg","0","0","1","",""
"","feedback","","html-keyboard-response","430","466139","0.0-1.0-600.0-0.0","0","0","60710","","null","","","null","66","","","","","","","","","","","","","","","",""
"","ITI","","html-keyboard-response","431","467141","0.0-1.0-603.0","0","0","60710","","null","","","null","66","","","","","","","","","","","","","","","NaN",""
"","S1","","html-keyboard-response","432","467394","0.0-1.0-605.0","0","0","60710","","null","","","null","67","","","","","","","","","","","","","","","",""
"","ISI","","html-keyboard-response","433","469398","0.0-1.0-606.0","0","0","60710","","null","","","null","67","NaN","","","","","","","","","","","","","","",""
"","S2","","html-keyboard-response","434","469650","0.0-1.0-607.0","0","0","60710","","null","","","null","67","","NaN","","","","","","","","","","","","","",""
"","response","","html-keyboard-response","435","470167","0.0-1.0-608.0-0.0","0","0","60710","","515","","","75","67","","","2","67","training","adjacent","BA","2","1","L.jpg","R.jpg","0","0","1","",""
"","feedback","","html-keyboard-response","436","471176","0.0-1.0-609.0-0.0","0","0","60710","","null","","","null","67","","","","","","","","","","","","","","","",""
"","ITI","","html-keyboard-response","437","472180","0.0-1.0-612.0","0","0","60710","","null","","","null","67","","","","","","","","","","","","","","","NaN",""
"","S1","","html-keyboard-response","438","472440","0.0-1.0-614.0","0","0","60710","","null","","","null","68","","","","","","","","","","","","","","","",""
"","ISI","","html-keyboard-response","439","474443","0.0-1.0-615.0","0","0","60710","","null","","","null","68","NaN","","","","","","","","","","","","","","",""
"","S2","","html-keyboard-response","440","474696","0.0-1.0-616.0","0","0","60710","","null","","","null","68","","NaN","","","","","","","","","","","","","",""
"","response","","html-keyboard-response","441","475362","0.0-1.0-617.0-0.0","0","0","60710","","664","","","75","68","","","2","68","training","adjacent","BC","2","3","L.jpg","N.jpg","0","1","0","",""
"","feedback","","html-keyboard-response","442","476365","0.0-1.0-618.0-0.0","0","0","60710","","null","","","null","68","","","","","","","","","","","","","","","",""
"","time_out","","html-keyboard-response","443","478369","0.0-1.0-620.0-0.0","0","0","60710","","null","","","null","68","","","","","","","","","","","","","","","",""
"","ITI","","html-keyboard-response","444","479372","0.0-1.0-621.0","0","0","60710","","null","","","null","68","","","","","","","","","","","","","","","NaN",""
"","S1","","html-keyboard-response","445","479625","0.0-1.0-623.0","0","0","60710","","null","","","null","69","","","","","","","","","","","","","","","",""
"","ISI","","html-keyboard-response","446","481627","0.0-1.0-624.0","0","0","60710","","null","","","null","69","NaN","","","","","","","","","","","","","","",""
"","S2","","html-keyboard-response","447","481880","0.0-1.0-625.0","0","0","60710","","null","","","null","69","","NaN","","","","","","","","","","","","","",""
"","response","","html-keyboard-response","448","482567","0.0-1.0-626.0-0.0","0","0","60710","","687","","","75","69","","","2","69","training","adjacent","DC","4","3","M.jpg","N.jpg","0","0","1","",""
"","feedback","","html-keyboard-response","449","483570","0.0-1.0-627.0-0.0","0","0","60710","","null","","","null","69","","","","","","","","","","","","","","","",""
"","ITI","","html-keyboard-response","450","484573","0.0-1.0-630.0","0","0","60710","","null","","","null","69","","","","","","","","","","","","","","","NaN",""
"","S1","","html-keyboard-response","451","484826","0.0-1.0-632.0","0","0","60710","","null","","","null","70","","","","","","","","","","","","","","","",""
"","ISI","","html-keyboard-response","452","486828","0.0-1.0-633.0","0","0","60710","","null","","","null","70","NaN","","","","","","","","","","","","","","",""
"","S2","","html-keyboard-response","453","487081","0.0-1.0-634.0","0","0","60710","","null","","","null","70","","NaN","","","","","","","","","","","","","",""
"","response","","html-keyboard-response","454","487616","0.0-1.0-635.0-0.0","0","0","60710","","533","","","75","70","","","2","70","training","adjacent","DC","4","3","M.jpg","N.jpg","0","0","1","",""
"","feedback","","html-keyboard-response","455","488619","0.0-1.0-636.0-0.0","0","0","60710","","null","","","null","70","","","","","","","","","","","","","","","",""
"","ITI","","html-keyboard-response","456","489621","0.0-1.0-639.0","0","0","60710","","null","","","null","70","","","","","","","","","","","","","","","NaN",""
"","S1","","html-keyboard-response","457","489875","0.0-1.0-641.0","0","0","60710","","null","","","null","71","","","","","","","","","","","","","","","",""
"","ISI","","html-keyboard-response","458","491876","0.0-1.0-642.0","0","0","60710","","null","","","null","71","NaN","","","","","","","","","","","","","","",""
"","S2","","html-keyboard-response","459","492128","0.0-1.0-643.0","0","0","60710","","null","","","null","71","","NaN","","","","","","","","","","","","","",""
"","response","","html-keyboard-response","460","492605","0.0-1.0-644.0-0.0","0","0","60710","","475","","","68","71","","","2","71","training","adjacent","CD","3","4","N.jpg","M.jpg","1","1","1","",""
"","feedback","","html-keyboard-response","461","493608","0.0-1.0-645.0-0.0","0","0","60710","","null","","","null","71","","","","","","","","","","","","","","","",""
"","ITI","","html-keyboard-response","462","494610","0.0-1.0-648.0","0","0","60710","","null","","","null","71","","","","","","","","","","","","","","","NaN",""
"","S1","","html-keyboard-response","463","494863","0.0-1.0-650.0","0","0","60710","","null","","","null","72","","","","","","","","","","","","","","","",""
"","ISI","","html-keyboard-response","464","496866","0.0-1.0-651.0","0","0","60710","","null","","","null","72","NaN","","","","","","","","","","","","","","",""
"","S2","","html-keyboard-response","465","497118","0.0-1.0-652.0","0","0","60710","","null","","","null","72","","NaN","","","","","","","","","","","","","",""
"","response","","html-keyboard-response","466","497441","0.0-1.0-653.0-0.0","0","0","60710","","321","","","75","72","","","2","72","training","adjacent","FE","6","5","Q.jpg","O.jpg","0","0","1","",""
"","feedback","","html-keyboard-response","467","498444","0.0-1.0-654.0-0.0","0","0","60710","","null","","","null","72","","","","","","","","","","","","","","","",""
"","ITI","","html-keyboard-response","468","499447","0.0-1.0-657.0","0","0","60710","","null","","","null","72","","","","","","","","","","","","","","","NaN",""
"","S1","","html-keyboard-response","469","499700","0.0-1.0-659.0","0","0","60710","","null","","","null","73","","","","","","","","","","","","","","","",""
"","ISI","","html-keyboard-response","470","501703","0.0-1.0-660.0","0","0","60710","","null","","","null","73","NaN","","","","","","","","","","","","","","",""
"","S2","","html-keyboard-response","471","501956","0.0-1.0-661.0","0","0","60710","","null","","","null","73","","NaN","","","","","","","","","","","","","",""
"","response","","html-keyboard-response","472","502803","0.0-1.0-662.0-0.0","0","0","60710","","846","","","75","73","","","2","73","training","adjacent","DE","4","5","M.jpg","O.jpg","0","1","0","",""
"","feedback","","html-keyboard-response","473","503806","0.0-1.0-663.0-0.0","0","0","60710","","null","","","null","73","","","","","","","","","","","","","","","",""
"","time_out","","html-keyboard-response","474","505810","0.0-1.0-665.0-0.0","0","0","60710","","null","","","null","73","","","","","","","","","","","","","","","",""
"","ITI","","html-keyboard-response","475","506812","0.0-1.0-666.0","0","0","60710","","null","","","null","73","","","","","","","","","","","","","","","NaN",""
"","S1","","html-keyboard-response","476","507065","0.0-1.0-668.0","0","0","60710","","null","","","null","74","","","","","","","","","","","","","","","",""
"","ISI","","html-keyboard-response","477","509068","0.0-1.0-669.0","0","0","60710","","null","","","null","74","NaN","","","","","","","","","","","","","","",""
"","S2","","html-keyboard-response","478","509321","0.0-1.0-670.0","0","0","60710","","null","","","null","74","","NaN","","","","","","","","","","","","","",""
"","response","","html-keyboard-response","479","510164","0.0-1.0-671.0-0.0","0","0","60710","","842","","","68","74","","","2","74","training","adjacent","DE","4","5","M.jpg","O.jpg","1","1","1","",""
"","feedback","","html-keyboard-response","480","511167","0.0-1.0-672.0-0.0","0","0","60710","","null","","","null","74","","","","","","","","","","","","","","","",""
"","ITI","","html-keyboard-response","481","512183","0.0-1.0-675.0","0","0","60710","","null","","","null","74","","","","","","","","","","","","","","","NaN",""
"","S1","","html-keyboard-response","482","512436","0.0-1.0-677.0","0","0","60710","","null","","","null","75","","","","","","","","","","","","","","","",""
"","ISI","","html-keyboard-response","483","514438","0.0-1.0-678.0","0","0","60710","","null","","","null","75","NaN","","","","","","","","","","","","","","",""
"","S2","","html-keyboard-response","484","514691","0.0-1.0-679.0","0","0","60710","","null","","","null","75","","NaN","","","","","","","","","","","","","",""
"","response","","html-keyboard-response","485","515240","0.0-1.0-680.0-0.0","0","0","60710","","547","","","75","75","","","2","75","training","adjacent","CB","3","2","N.jpg","L.jpg","0","0","1","",""
"","feedback","","html-keyboard-response","486","516243","0.0-1.0-681.0-0.0","0","0","60710","","null","","","null","75","","","","","","","","","","","","","","","",""
"","ITI","","html-keyboard-response","487","517244","0.0-1.0-684.0","0","0","60710","","null","","","null","75","","","","","","","","","","","","","","","NaN",""
"","S1","","html-keyboard-response","488","517498","0.0-1.0-686.0","0","0","60710","","null","","","null","76","","","","","","","","","","","","","","","",""
"","ISI","","html-keyboard-response","489","519500","0.0-1.0-687.0","0","0","60710","","null","","","null","76","NaN","","","","","","","","","","","","","","",""
"","S2","","html-keyboard-response","490","519753","0.0-1.0-688.0","0","0","60710","","null","","","null","76","","NaN","","","","","","","","","","","","","",""
"","response","","html-keyboard-response","491","520572","0.0-1.0-689.0-0.0","0","0","60710","","818","","","75","76","","","2","76","training","adjacent","DE","4","5","M.jpg","O.jpg","0","1","0","",""
"","feedback","","html-keyboard-response","492","521574","0.0-1.0-690.0-0.0","0","0","60710","","null","","","null","76","","","","","","","","","","","","","","","",""
"","time_out","","html-keyboard-response","493","523577","0.0-1.0-692.0-0.0","0","0","60710","","null","","","null","76","","","","","","","","","","","","","","","",""
"","ITI","","html-keyboard-response","494","524580","0.0-1.0-693.0","0","0","60710","","null","","","null","76","","","","","","","","","","","","","","","NaN",""
"","S1","","html-keyboard-response","495","524832","0.0-1.0-695.0","0","0","60710","","null","","","null","77","","","","","","","","","","","","","","","",""
"","ISI","","html-keyboard-response","496","526834","0.0-1.0-696.0","0","0","60710","","null","","","null","77","NaN","","","","","","","","","","","","","","",""
"","S2","","html-keyboard-response","497","527087","0.0-1.0-697.0","0","0","60710","","null","","","null","77","","NaN","","","","","","","","","","","","","",""
"","response","","html-keyboard-response","498","527592","0.0-1.0-698.0-0.0","0","0","60710","","504","","","75","77","","","2","77","training","adjacent","BA","2","1","L.jpg","R.jpg","0","0","1","",""
"","feedback","","html-keyboard-response","499","528595","0.0-1.0-699.0-0.0","0","0","60710","","null","","","null","77","","","","","","","","","","","","","","","",""
"","ITI","","html-keyboard-response","500","529598","0.0-1.0-702.0","0","0","60710","","null","","","null","77","","","","","","","","","","","","","","","NaN",""
"","S1","","html-keyboard-response","501","529851","0.0-1.0-704.0","0","0","60710","","null","","","null","78","","","","","","","","","","","","","","","",""
"","ISI","","html-keyboard-response","502","531852","0.0-1.0-705.0","0","0","60710","","null","","","null","78","NaN","","","","","","","","","","","","","","",""
"","S2","","html-keyboard-response","503","532105","0.0-1.0-706.0","0","0","60710","","null","","","null","78","","NaN","","","","","","","","","","","","","",""
"","response","","html-keyboard-response","504","532800","0.0-1.0-707.0-0.0","0","0","60710","","693","","","68","78","","","2","78","training","adjacent","FG","6","7","Q.jpg","P.jpg","1","1","1","",""
"","feedback","","html-keyboard-response","505","533802","0.0-1.0-708.0-0.0","0","0","60710","","null","","","null","78","","","","","","","","","","","","","","","",""
"","ITI","","html-keyboard-response","506","534805","0.0-1.0-711.0","0","0","60710","","null","","","null","78","","","","","","","","","","","","","","","NaN",""
"","S1","","html-keyboard-response","507","535057","0.0-1.0-713.0","0","0","60710","","null","","","null","79","","","","","","","","","","","","","","","",""
"","ISI","","html-keyboard-response","508","537060","0.0-1.0-714.0","0","0","60710","","null","","","null","79","NaN","","","","","","","","","","","","","","",""
"","S2","","html-keyboard-response","509","537313","0.0-1.0-715.0","0","0","60710","","null","","","null","79","","NaN","","","","","","","","","","","","","",""
"","response","","html-keyboard-response","510","537523","0.0-1.0-716.0-0.0","0","0","60710","","209","","","75","79","","","2","79","training","adjacent","GF","7","6","P.jpg","Q.jpg","0","0","1","",""
"","feedback","","html-keyboard-response","511","538526","0.0-1.0-717.0-0.0","0","0","60710","","null","","","null","79","","","","","","","","","","","","","","","",""
"","ITI","","html-keyboard-response","512","539530","0.0-1.0-720.0","0","0","60710","","null","","","null","79","","","","","","","","","","","","","","","NaN",""
"","S1","","html-keyboard-response","513","539787","0.0-1.0-722.0","0","0","60710","","null","","","null","80","","","","","","","","","","","","","","","",""
"","ISI","","html-keyboard-response","514","541788","0.0-1.0-723.0","0","0","60710","","null","","","null","80","NaN","","","","","","","","","","","","","","",""
"","S2","","html-keyboard-response","515","542041","0.0-1.0-724.0","0","0","60710","","null","","","null","80","","NaN","","","","","","","","","","","","","",""
"","response","","html-keyboard-response","516","542513","0.0-1.0-725.0-0.0","0","0","60710","","470","","","75","80","","","2","80","training","adjacent","CB","3","2","N.jpg","L.jpg","0","0","1","",""
"","feedback","","html-keyboard-response","517","543516","0.0-1.0-726.0-0.0","0","0","60710","","null","","","null","80","","","","","","","","","","","","","","","",""
"","ITI","","html-keyboard-response","518","544518","0.0-1.0-729.0","0","0","60710","","null","","","null","80","","","","","","","","","","","","","","","NaN",""
"","S1","","html-keyboard-response","519","544771","0.0-1.0-731.0","0","0","60710","","null","","","null","81","","","","","","","","","","","","","","","",""
"","ISI","","html-keyboard-response","520","546773","0.0-1.0-732.0","0","0","60710","","null","","","null","81","NaN","","","","","","","","","","","","","","",""
"","S2","","html-keyboard-response","521","547026","0.0-1.0-733.0","0","0","60710","","null","","","null","81","","NaN","","","","","","","","","","","","","",""
"","response","","html-keyboard-response","522","547256","0.0-1.0-734.0-0.0","0","0","60710","","229","","","68","81","","","2","81","training","adjacent","EF","5","6","O.jpg","Q.jpg","1","1","1","",""
"","feedback","","html-keyboard-response","523","548259","0.0-1.0-735.0-0.0","0","0","60710","","null","","","null","81","","","","","","","","","","","","","","","",""
"","ITI","","html-keyboard-response","524","549261","0.0-1.0-738.0","0","0","60710","","null","","","null","81","","","","","","","","","","","","","","","NaN",""
"","S1","","html-keyboard-response","525","549515","0.0-1.0-740.0","0","0","60710","","null","","","null","82","","","","","","","","","","","","","","","",""
"","ISI","","html-keyboard-response","526","551520","0.0-1.0-741.0","0","0","60710","","null","","","null","82","NaN","","","","","","","","","","","","","","",""
"","S2","","html-keyboard-response","527","551772","0.0-1.0-742.0","0","0","60710","","null","","","null","82","","NaN","","","","","","","","","","","","","",""
"","response","","html-keyboard-response","528","552327","0.0-1.0-743.0-0.0","0","0","60710","","554","","","75","82","","","2","82","training","adjacent","BA","2","1","L.jpg","R.jpg","0","0","1","",""
"","feedback","","html-keyboard-response","529","553330","0.0-1.0-744.0-0.0","0","0","60710","","null","","","null","82","","","","","","","","","","","","","","","",""
"","ITI","","html-keyboard-response","530","554332","0.0-1.0-747.0","0","0","60710","","null","","","null","82","","","","","","","","","","","","","","","NaN",""
"","S1","","html-keyboard-response","531","554586","0.0-1.0-749.0","0","0","60710","","null","","","null","83","","","","","","","","","","","","","","","",""
"","ISI","","html-keyboard-response","532","556588","0.0-1.0-750.0","0","0","60710","","null","","","null","83","NaN","","","","","","","","","","","","","","",""
"","S2","","html-keyboard-response","533","556841","0.0-1.0-751.0","0","0","60710","","null","","","null","83","","NaN","","","","","","","","","","","","","",""
"","response","","html-keyboard-response","534","557417","0.0-1.0-752.0-0.0","0","0","60710","","575","","","68","83","","","2","83","training","adjacent","BC","2","3","L.jpg","N.jpg","1","1","1","",""
"","feedback","","html-keyboard-response","535","558420","0.0-1.0-753.0-0.0","0","0","60710","","null","","","null","83","","","","","","","","","","","","","","","",""
"","ITI","","html-keyboard-response","536","559423","0.0-1.0-756.0","0","0","60710","","null","","","null","83","","","","","","","","","","","","","","","NaN",""
"","S1","","html-keyboard-response","537","559675","0.0-1.0-758.0","0","0","60710","","null","","","null","84","","","","","","","","","","","","","","","",""
"","ISI","","html-keyboard-response","538","561678","0.0-1.0-759.0","0","0","60710","","null","","","null","84","NaN","","","","","","","","","","","","","","",""
"","S2","","html-keyboard-response","539","561930","0.0-1.0-760.0","0","0","60710","","null","","","null","84","","NaN","","","","","","","","","","","","","",""
"","response","","html-keyboard-response","540","562391","0.0-1.0-761.0-0.0","0","0","60710","","459","","","68","84","","","2","84","training","adjacent","BC","2","3","L.jpg","N.jpg","1","1","1","",""
"","feedback","","html-keyboard-response","541","563395","0.0-1.0-762.0-0.0","0","0","60710","","null","","","null","84","","","","","","","","","","","","","","","",""
"","ITI","","html-keyboard-response","542","564397","0.0-1.0-765.0","0","0","60710","","null","","","null","84","","","","","","","","","","","","","","","NaN",""
"","S1","","html-keyboard-response","543","564651","0.0-1.0-767.0","0","0","60710","","null","","","null","85","","","","","","","","","","","","","","","",""
"","ISI","","html-keyboard-response","544","566666","0.0-1.0-768.0","0","0","60710","","null","","","null","85","NaN","","","","","","","","","","","","","","",""
"","S2","","html-keyboard-response","545","566919","0.0-1.0-769.0","0","0","60710","","null","","","null","85","","NaN","","","","","","","","","","","","","",""
"","response","","html-keyboard-response","546","567973","0.0-1.0-770.0-0.0","0","0","60710","","1052","","","68","85","","","2","85","training","adjacent","EF","5","6","O.jpg","Q.jpg","1","1","1","",""
"","feedback","","html-keyboard-response","547","568991","0.0-1.0-771.0-0.0","0","0","60710","","null","","","null","85","","","","","","","","","","","","","","","",""
"","ITI","","html-keyboard-response","548","569994","0.0-1.0-774.0","0","0","60710","","null","","","null","85","","","","","","","","","","","","","","","NaN",""
"","S1","","html-keyboard-response","549","570247","0.0-1.0-776.0","0","0","60710","","null","","","null","86","","","","","","","","","","","","","","","",""
"","ISI","","html-keyboard-response","550","572250","0.0-1.0-777.0","0","0","60710","","null","","","null","86","NaN","","","","","","","","","","","","","","",""
"","S2","","html-keyboard-response","551","572503","0.0-1.0-778.0","0","0","60710","","null","","","null","86","","NaN","","","","","","","","","","","","","",""
"","response","","html-keyboard-response","552","572819","0.0-1.0-779.0-0.0","0","0","60710","","315","","","68","86","","","2","86","training","adjacent","EF","5","6","O.jpg","Q.jpg","1","1","1","",""
"","feedback","","html-keyboard-response","553","573823","0.0-1.0-780.0-0.0","0","0","60710","","null","","","null","86","","","","","","","","","","","","","","","",""
"","ITI","","html-keyboard-response","554","574826","0.0-1.0-783.0","0","0","60710","","null","","","null","86","","","","","","","","","","","","","","","NaN",""
"","S1","","html-keyboard-response","555","575079","0.0-1.0-785.0","0","0","60710","","null","","","null","87","","","","","","","","","","","","","","","",""
"","ISI","","html-keyboard-response","556","577081","0.0-1.0-786.0","0","0","60710","","null","","","null","87","NaN","","","","","","","","","","","","","","",""
"","S2","","html-keyboard-response","557","577334","0.0-1.0-787.0","0","0","60710","","null","","","null","87","","NaN","","","","","","","","","","","","","",""
"","response","","html-keyboard-response","558","577965","0.0-1.0-788.0-0.0","0","0","60710","","629","","","68","87","","","2","87","training","adjacent","CD","3","4","N.jpg","M.jpg","1","1","1","",""
"","feedback","","html-keyboard-response","559","578968","0.0-1.0-789.0-0.0","0","0","60710","","null","","","null","87","","","","","","","","","","","","","","","",""
"","ITI","","html-keyboard-response","560","579971","0.0-1.0-792.0","0","0","60710","","null","","","null","87","","","","","","","","","","","","","","","NaN",""
"","S1","","html-keyboard-response","561","580224","0.0-1.0-794.0","0","0","60710","","null","","","null","88","","","","","","","","","","","","","","","",""
"","ISI","","html-keyboard-response","562","582226","0.0-1.0-795.0","0","0","60710","","null","","","null","88","NaN","","","","","","","","","","","","","","",""
"","S2","","html-keyboard-response","563","582479","0.0-1.0-796.0","0","0","60710","","null","","","null","88","","NaN","","","","","","","","","","","","","",""
"","response","","html-keyboard-response","564","583027","0.0-1.0-797.0-0.0","0","0","60710","","547","","","68","88","","","2","88","training","adjacent","BC","2","3","L.jpg","N.jpg","1","1","1","",""
"","feedback","","html-keyboard-response","565","584030","0.0-1.0-798.0-0.0","0","0","60710","","null","","","null","88","","","","","","","","","","","","","","","",""
"","ITI","","html-keyboard-response","566","585033","0.0-1.0-801.0","0","0","60710","","null","","","null","88","","","","","","","","","","","","","","","NaN",""
"","S1","","html-keyboard-response","567","585285","0.0-1.0-803.0","0","0","60710","","null","","","null","89","","","","","","","","","","","","","","","",""
"","ISI","","html-keyboard-response","568","587287","0.0-1.0-804.0","0","0","60710","","null","","","null","89","NaN","","","","","","","","","","","","","","",""
"","S2","","html-keyboard-response","569","587540","0.0-1.0-805.0","0","0","60710","","null","","","null","89","","NaN","","","","","","","","","","","","","",""
"","response","","html-keyboard-response","570","587906","0.0-1.0-806.0-0.0","0","0","60710","","365","","","75","89","","","2","89","training","adjacent","GF","7","6","P.jpg","Q.jpg","0","0","1","",""
"","feedback","","html-keyboard-response","571","588910","0.0-1.0-807.0-0.0","0","0","60710","","null","","","null","89","","","","","","","","","","","","","","","",""
"","ITI","","html-keyboard-response","572","589913","0.0-1.0-810.0","0","0","60710","","null","","","null","89","","","","","","","","","","","","","","","NaN",""
"","S1","","html-keyboard-response","573","590166","0.0-1.0-812.0","0","0","60710","","null","","","null","90","","","","","","","","","","","","","","","",""
"","ISI","","html-keyboard-response","574","592169","0.0-1.0-813.0","0","0","60710","","null","","","null","90","NaN","","","","","","","","","","","","","","",""
"","S2","","html-keyboard-response","575","592421","0.0-1.0-814.0","0","0","60710","","null","","","null","90","","NaN","","","","","","","","","","","","","",""
"","response","","html-keyboard-response","576","593115","0.0-1.0-815.0-0.0","0","0","60710","","692","","","68","90","","","2","90","training","adjacent","ED","5","4","O.jpg","M.jpg","1","0","0","",""
"","feedback","","html-keyboard-response","577","594119","0.0-1.0-816.0-0.0","0","0","60710","","null","","","null","90","","","","","","","","","","","","","","","",""
"","time_out","","html-keyboard-response","578","596122","0.0-1.0-818.0-0.0","0","0","60710","","null","","","null","90","","","","","","","","","","","","","","","",""
"","ITI","","html-keyboard-response","579","597125","0.0-1.0-819.0","0","0","60710","","null","","","null","90","","","","","","","","","","","","","","","NaN",""
"","S1","","html-keyboard-response","580","597378","0.0-1.0-821.0","0","0","60710","","null","","","null","91","","","","","","","","","","","","","","","",""
"","ISI","","html-keyboard-response","581","599381","0.0-1.0-822.0","0","0","60710","","null","","","null","91","NaN","","","","","","","","","","","","","","",""
"","S2","","html-keyboard-response","582","599636","0.0-1.0-823.0","0","0","60710","","null","","","null","91","","NaN","","","","","","","","","","","","","",""
